key_resp.keys,key_resp_2.keys,key_resp_2.rt,demo_test_key_resp.keys,demo_test_key_resp.rt,demo_loops.thisRepN,demo_loops.thisTrialN,demo_loops.thisN,demo_loops.thisIndex,demo_loops.ran,target,image1,image2,correct,background_0,background_1,background_2,background_3,background_4,background_5,target_index,workID,Age,Gender,Hours slept (last night),date,expName,psychopyVersion,OS,frameRate,key_resp_after_demo.keys,key_resp_after_demo.rt,test_key_resp.keys,test_key_resp.rt,exp_loops.thisRepN,exp_loops.thisTrialN,exp_loops.thisN,exp_loops.thisIndex,exp_loops.ran,selected_dist,distractor_level,category,key_resp_4.keys,key_resp_4.rt,slider_part2.response,slider_part2.rt,exp_loops_part2.thisRepN,exp_loops_part2.thisTrialN,exp_loops_part2.thisN,exp_loops_part2.thisIndex,exp_loops_part2.ran,key_resp_last_slide.keys,key_resp_last_slide.rt
,space,74.008,left,0.2504,0,0,0,0,1,flower1.jpg,flower1.jpg,flower1_pair.jpg,left,leaf3.jpg,trail1.jpg,flower1.jpg,bird1.jpg,tree3.jpg,fence4.jpg,2,A3E8GACA13UD1X,42,Female,8,2023-06-25_10h39.59.076,working,2022.2.4,Win32,12.70260657,,,,,,,,,,,,,,,,,,,,,,,
,,,right,0.5877,0,1,1,1,1,leaf2.jpg,leaf1.jpg,leaf2.jpg,right,trail2.jpg,leaf2.jpg,bird2.jpg,tree2.jpg,fence3.jpg,flower2.jpg,1,A3E8GACA13UD1X,42,Female,8,2023-06-25_10h39.59.076,working,2022.2.4,Win32,12.70260657,,,,,,,,,,,,,,,,,,,,,,,
,,,right,0.0969,0,2,2,2,1,fence1.jpg,fence1.jpg,fence2.jpg,left,tree1.jpg,bird3.jpg,trail3.jpg,fence1.jpg,leaf4.jpg,flower3.jpg,3,A3E8GACA13UD1X,42,Female,8,2023-06-25_10h39.59.076,working,2022.2.4,Win32,12.70260657,,,,,,,,,,,,,,,,,,,,,,,
,,,,,,,,,,bridge_191.jpg,bridge_184.jpg,bridge_191.jpg,right,playground_251.jpg,badlands_9.jpg,mountain_309.jpg,highway_76.jpg,bridge_191.jpg,golf_course_0.jpg,4,A3E8GACA13UD1X,42,Female,8,2023-06-25_10h39.59.076,working,2022.2.4,Win32,12.70260657,space,12.2825,right,0.1714,0,0,0,0,1,bridge_184.jpg,0,bridge,,,,,,,,,,,
,,,,,,,,,,golf_course_78.jpg,golf_course_78.jpg,golf_course_134.jpg,left,highway_308.jpg,bridge_102.jpg,mountain_29.jpg,golf_course_78.jpg,badlands_59.jpg,playground_195.jpg,3,A3E8GACA13UD1X,42,Female,8,2023-06-25_10h39.59.076,working,2022.2.4,Win32,12.70260657,,,right,0.0062,0,1,1,1,1,golf_course_134.jpg,0,golf,,,,,,,,,,,
,,,,,,,,,,mountain_123.jpg,mountain_123.jpg,mountain_189.jpg,left,golf_course_269.jpg,badlands_174.jpg,bridge_118.jpg,highway_404.jpg,mountain_123.jpg,playground_84.jpg,4,A3E8GACA13UD1X,42,Female,8,2023-06-25_10h39.59.076,working,2022.2.4,Win32,12.70260657,,,left,0.174,0,2,2,2,1,mountain_189.jpg,1,mountain,,,,,,,,,,,
,,,,,,,,,,badlands_52.jpg,badlands_52.jpg,badlands_63.jpg,left,golf_course_56.jpg,badlands_52.jpg,highway_3.jpg,mountain_166.jpg,playground_181.jpg,bridge_212.jpg,1,A3E8GACA13UD1X,42,Female,8,2023-06-25_10h39.59.076,working,2022.2.4,Win32,12.70260657,,,right,0.0068,0,3,3,3,1,badlands_63.jpg,1,badlands,,,,,,,,,,,
,,,,,,,,,,highway_245.jpg,highway_245.jpg,highway_206.jpg,left,highway_245.jpg,playground_132.jpg,bridge_120.jpg,badlands_88.jpg,mountain_180.jpg,golf_course_212.jpg,0,A3E8GACA13UD1X,42,Female,8,2023-06-25_10h39.59.076,working,2022.2.4,Win32,12.70260657,,,left,0.0832,0,4,4,4,1,highway_206.jpg,1,highway,,,,,,,,,,,
,,,,,,,,,,mountain_293.jpg,mountain_47.jpg,mountain_293.jpg,right,playground_26.jpg,golf_course_137.jpg,mountain_293.jpg,highway_319.jpg,badlands_44.jpg,bridge_79.jpg,2,A3E8GACA13UD1X,42,Female,8,2023-06-25_10h39.59.076,working,2022.2.4,Win32,12.70260657,,,right,0.0919,0,5,5,5,1,mountain_47.jpg,1,mountain,,,,,,,,,,,
,,,,,,,,,,badlands_137.jpg,badlands_194.jpg,badlands_137.jpg,right,playground_126.jpg,highway_413.jpg,badlands_137.jpg,mountain_19.jpg,golf_course_219.jpg,bridge_124.jpg,2,A3E8GACA13UD1X,42,Female,8,2023-06-25_10h39.59.076,working,2022.2.4,Win32,12.70260657,,,left,0.4633,0,6,6,6,1,badlands_194.jpg,0,badlands,,,,,,,,,,,
,,,,,,,,,,mountain_230.jpg,mountain_184.jpg,mountain_230.jpg,right,badlands_105.jpg,golf_course_162.jpg,mountain_230.jpg,bridge_197.jpg,highway_246.jpg,playground_120.jpg,2,A3E8GACA13UD1X,42,Female,8,2023-06-25_10h39.59.076,working,2022.2.4,Win32,12.70260657,,,right,1.0152,0,7,7,7,1,mountain_184.jpg,0,mountain,,,,,,,,,,,
,,,,,,,,,,highway_415.jpg,highway_415.jpg,highway_174.jpg,left,playground_15.jpg,badlands_47.jpg,highway_415.jpg,golf_course_128.jpg,mountain_87.jpg,bridge_126.jpg,2,A3E8GACA13UD1X,42,Female,8,2023-06-25_10h39.59.076,working,2022.2.4,Win32,12.70260657,,,left,0.0908,0,8,8,8,1,highway_174.jpg,1,highway,,,,,,,,,,,
,,,,,,,,,,golf_course_217.jpg,golf_course_217.jpg,golf_course_262.jpg,left,mountain_137.jpg,playground_141.jpg,golf_course_217.jpg,bridge_72.jpg,highway_178.jpg,badlands_30.jpg,2,A3E8GACA13UD1X,42,Female,8,2023-06-25_10h39.59.076,working,2022.2.4,Win32,12.70260657,,,left,0.0924,0,9,9,9,1,golf_course_262.jpg,1,golf,,,,,,,,,,,
,,,,,,,,,,badlands_222.jpg,badlands_222.jpg,badlands_34.jpg,left,golf_course_164.jpg,badlands_222.jpg,bridge_204.jpg,mountain_302.jpg,playground_110.jpg,highway_399.jpg,1,A3E8GACA13UD1X,42,Female,8,2023-06-25_10h39.59.076,working,2022.2.4,Win32,12.70260657,,,left,0.0942,0,10,10,10,1,badlands_34.jpg,0,badlands,,,,,,,,,,,
,,,,,,,,,,golf_course_87.jpg,golf_course_130.jpg,golf_course_87.jpg,right,badlands_152.jpg,mountain_152.jpg,highway_31.jpg,playground_16.jpg,golf_course_87.jpg,bridge_63.jpg,4,A3E8GACA13UD1X,42,Female,8,2023-06-25_10h39.59.076,working,2022.2.4,Win32,12.70260657,,,right,0.5377,0,11,11,11,1,golf_course_130.jpg,0,golf,,,,,,,,,,,
,,,,,,,,,,highway_294.jpg,highway_368.jpg,highway_294.jpg,right,golf_course_265.jpg,playground_14.jpg,highway_294.jpg,bridge_39.jpg,badlands_200.jpg,mountain_206.jpg,2,A3E8GACA13UD1X,42,Female,8,2023-06-25_10h39.59.076,working,2022.2.4,Win32,12.70260657,,,right,0.6309,0,12,12,12,1,highway_368.jpg,1,highway,,,,,,,,,,,
,,,,,,,,,,bridge_256.jpg,bridge_256.jpg,bridge_54.jpg,left,golf_course_33.jpg,bridge_256.jpg,badlands_183.jpg,highway_107.jpg,playground_30.jpg,mountain_204.jpg,1,A3E8GACA13UD1X,42,Female,8,2023-06-25_10h39.59.076,working,2022.2.4,Win32,12.70260657,,,left,0.4408,0,13,13,13,1,bridge_54.jpg,0,bridge,,,,,,,,,,,
,,,,,,,,,,golf_course_309.jpg,golf_course_309.jpg,golf_course_209.jpg,left,bridge_20.jpg,mountain_249.jpg,highway_78.jpg,playground_118.jpg,golf_course_309.jpg,badlands_215.jpg,4,A3E8GACA13UD1X,42,Female,8,2023-06-25_10h39.59.076,working,2022.2.4,Win32,12.70260657,,,right,0.2594,0,14,14,14,1,golf_course_209.jpg,1,golf,,,,,,,,,,,
,,,,,,,,,,golf_course_15.jpg,golf_course_15.jpg,golf_course_113.jpg,left,playground_78.jpg,mountain_34.jpg,bridge_144.jpg,golf_course_15.jpg,badlands_213.jpg,highway_53.jpg,3,A3E8GACA13UD1X,42,Female,8,2023-06-25_10h39.59.076,working,2022.2.4,Win32,12.70260657,,,left,0.0039,0,15,15,15,1,golf_course_113.jpg,0,golf,,,,,,,,,,,
,,,,,,,,,,highway_177.jpg,highway_177.jpg,highway_278.jpg,left,bridge_1.jpg,golf_course_291.jpg,playground_196.jpg,mountain_160.jpg,highway_177.jpg,badlands_81.jpg,4,A3E8GACA13UD1X,42,Female,8,2023-06-25_10h39.59.076,working,2022.2.4,Win32,12.70260657,,,right,0.004,0,16,16,16,1,highway_278.jpg,1,highway,,,,,,,,,,,
,,,,,,,,,,bridge_91.jpg,bridge_253.jpg,bridge_91.jpg,right,golf_course_55.jpg,highway_274.jpg,bridge_91.jpg,mountain_151.jpg,playground_61.jpg,badlands_35.jpg,2,A3E8GACA13UD1X,42,Female,8,2023-06-25_10h39.59.076,working,2022.2.4,Win32,12.70260657,,,right,0.0047,0,17,17,17,1,bridge_253.jpg,0,bridge,,,,,,,,,,,
,,,,,,,,,,playground_10.jpg,playground_122.jpg,playground_10.jpg,right,golf_course_71.jpg,highway_287.jpg,playground_10.jpg,mountain_251.jpg,bridge_74.jpg,badlands_227.jpg,2,A3E8GACA13UD1X,42,Female,8,2023-06-25_10h39.59.076,working,2022.2.4,Win32,12.70260657,,,right,0.0041,0,18,18,18,1,playground_122.jpg,0,playground,,,,,,,,,,,
,,,,,,,,,,bridge_250.jpg,bridge_250.jpg,bridge_205.jpg,left,mountain_307.jpg,golf_course_61.jpg,badlands_216.jpg,highway_9.jpg,bridge_250.jpg,playground_256.jpg,4,A3E8GACA13UD1X,42,Female,8,2023-06-25_10h39.59.076,working,2022.2.4,Win32,12.70260657,,,left,0.3419,0,19,19,19,1,bridge_205.jpg,1,bridge,,,,,,,,,,,
,,,,,,,,,,highway_156.jpg,highway_160.jpg,highway_156.jpg,right,golf_course_59.jpg,mountain_198.jpg,highway_156.jpg,playground_39.jpg,bridge_110.jpg,badlands_27.jpg,2,A3E8GACA13UD1X,42,Female,8,2023-06-25_10h39.59.076,working,2022.2.4,Win32,12.70260657,,,right,0.0994,0,20,20,20,1,highway_160.jpg,0,highway,,,,,,,,,,,
,,,,,,,,,,golf_course_331.jpg,golf_course_331.jpg,golf_course_114.jpg,left,badlands_170.jpg,golf_course_331.jpg,mountain_146.jpg,highway_33.jpg,bridge_234.jpg,playground_176.jpg,1,A3E8GACA13UD1X,42,Female,8,2023-06-25_10h39.59.076,working,2022.2.4,Win32,12.70260657,,,right,0.6448,0,21,21,21,1,golf_course_114.jpg,0,golf,,,,,,,,,,,
,,,,,,,,,,mountain_110.jpg,mountain_157.jpg,mountain_110.jpg,right,highway_305.jpg,badlands_97.jpg,playground_153.jpg,mountain_110.jpg,golf_course_144.jpg,bridge_45.jpg,3,A3E8GACA13UD1X,42,Female,8,2023-06-25_10h39.59.076,working,2022.2.4,Win32,12.70260657,,,left,1.5219,0,22,22,22,1,mountain_157.jpg,0,mountain,,,,,,,,,,,
,,,,,,,,,,badlands_113.jpg,badlands_225.jpg,badlands_113.jpg,right,playground_63.jpg,bridge_193.jpg,highway_226.jpg,golf_course_196.jpg,badlands_113.jpg,mountain_143.jpg,4,A3E8GACA13UD1X,42,Female,8,2023-06-25_10h39.59.076,working,2022.2.4,Win32,12.70260657,,,left,0.182,0,23,23,23,1,badlands_225.jpg,0,badlands,,,,,,,,,,,
,,,,,,,,,,badlands_184.jpg,badlands_184.jpg,badlands_103.jpg,left,playground_55.jpg,badlands_184.jpg,mountain_256.jpg,highway_199.jpg,golf_course_194.jpg,bridge_225.jpg,1,A3E8GACA13UD1X,42,Female,8,2023-06-25_10h39.59.076,working,2022.2.4,Win32,12.70260657,,,right,0.0044,0,24,24,24,1,badlands_103.jpg,1,badlands,,,,,,,,,,,
,,,,,,,,,,playground_145.jpg,playground_229.jpg,playground_145.jpg,right,highway_138.jpg,playground_145.jpg,bridge_169.jpg,golf_course_252.jpg,mountain_32.jpg,badlands_180.jpg,1,A3E8GACA13UD1X,42,Female,8,2023-06-25_10h39.59.076,working,2022.2.4,Win32,12.70260657,,,right,0.3489,0,25,25,25,1,playground_229.jpg,0,playground,,,,,,,,,,,
,,,,,,,,,,golf_course_195.jpg,golf_course_2.jpg,golf_course_195.jpg,right,highway_265.jpg,playground_7.jpg,mountain_187.jpg,bridge_66.jpg,golf_course_195.jpg,badlands_150.jpg,4,A3E8GACA13UD1X,42,Female,8,2023-06-25_10h39.59.076,working,2022.2.4,Win32,12.70260657,,,right,3.4176,0,26,26,26,1,golf_course_2.jpg,1,golf,,,,,,,,,,,
,,,,,,,,,,bridge_128.jpg,bridge_128.jpg,bridge_244.jpg,left,highway_101.jpg,bridge_128.jpg,badlands_138.jpg,golf_course_3.jpg,mountain_135.jpg,playground_83.jpg,1,A3E8GACA13UD1X,42,Female,8,2023-06-25_10h39.59.076,working,2022.2.4,Win32,12.70260657,,,left,0.0834,0,27,27,27,1,bridge_244.jpg,1,bridge,,,,,,,,,,,
,,,,,,,,,,bridge_202.jpg,bridge_38.jpg,bridge_202.jpg,right,highway_141.jpg,golf_course_241.jpg,mountain_40.jpg,badlands_120.jpg,bridge_202.jpg,playground_191.jpg,4,A3E8GACA13UD1X,42,Female,8,2023-06-25_10h39.59.076,working,2022.2.4,Win32,12.70260657,,,left,0.0056,0,28,28,28,1,bridge_38.jpg,1,bridge,,,,,,,,,,,
,,,,,,,,,,badlands_70.jpg,badlands_70.jpg,badlands_119.jpg,left,badlands_70.jpg,mountain_306.jpg,golf_course_297.jpg,highway_17.jpg,playground_47.jpg,bridge_35.jpg,0,A3E8GACA13UD1X,42,Female,8,2023-06-25_10h39.59.076,working,2022.2.4,Win32,12.70260657,,,right,0.0045,0,29,29,29,1,badlands_119.jpg,1,badlands,,,,,,,,,,,
,,,,,,,,,,mountain_154.jpg,mountain_131.jpg,mountain_154.jpg,right,highway_36.jpg,golf_course_238.jpg,mountain_154.jpg,bridge_224.jpg,playground_173.jpg,badlands_175.jpg,2,A3E8GACA13UD1X,42,Female,8,2023-06-25_10h39.59.076,working,2022.2.4,Win32,12.70260657,,,left,0.0042,0,30,30,30,1,mountain_131.jpg,0,mountain,,,,,,,,,,,
,,,,,,,,,,playground_257.jpg,playground_257.jpg,playground_215.jpg,left,bridge_180.jpg,playground_257.jpg,mountain_277.jpg,golf_course_138.jpg,highway_154.jpg,badlands_60.jpg,1,A3E8GACA13UD1X,42,Female,8,2023-06-25_10h39.59.076,working,2022.2.4,Win32,12.70260657,,,left,0.2663,0,31,31,31,1,playground_215.jpg,1,playground,,,,,,,,,,,
,,,,,,,,,,playground_131.jpg,playground_164.jpg,playground_131.jpg,right,golf_course_133.jpg,badlands_173.jpg,playground_131.jpg,highway_191.jpg,mountain_89.jpg,bridge_52.jpg,2,A3E8GACA13UD1X,42,Female,8,2023-06-25_10h39.59.076,working,2022.2.4,Win32,12.70260657,,,left,0.0895,0,32,32,32,1,playground_164.jpg,1,playground,,,,,,,,,,,
,,,,,,,,,,bridge_108.jpg,bridge_108.jpg,bridge_148.jpg,left,playground_248.jpg,mountain_39.jpg,badlands_214.jpg,golf_course_307.jpg,bridge_108.jpg,highway_288.jpg,4,A3E8GACA13UD1X,42,Female,8,2023-06-25_10h39.59.076,working,2022.2.4,Win32,12.70260657,,,right,0.4303,0,33,33,33,1,bridge_148.jpg,1,bridge,,,,,,,,,,,
,,,,,,,,,,mountain_156.jpg,mountain_295.jpg,mountain_156.jpg,right,mountain_156.jpg,golf_course_102.jpg,highway_15.jpg,playground_42.jpg,badlands_85.jpg,bridge_4.jpg,0,A3E8GACA13UD1X,42,Female,8,2023-06-25_10h39.59.076,working,2022.2.4,Win32,12.70260657,,,left,0.102,0,34,34,34,1,mountain_295.jpg,1,mountain,,,,,,,,,,,
,,,,,,,,,,golf_course_193.jpg,golf_course_193.jpg,golf_course_235.jpg,left,mountain_190.jpg,playground_140.jpg,golf_course_193.jpg,highway_354.jpg,badlands_6.jpg,bridge_173.jpg,2,A3E8GACA13UD1X,42,Female,8,2023-06-25_10h39.59.076,working,2022.2.4,Win32,12.70260657,,,right,0.1133,0,35,35,35,1,golf_course_235.jpg,0,golf,,,,,,,,,,,
,,,,,,,,,,bridge_65.jpg,bridge_181.jpg,bridge_65.jpg,right,highway_58.jpg,badlands_26.jpg,bridge_65.jpg,playground_162.jpg,mountain_88.jpg,golf_course_199.jpg,2,A3E8GACA13UD1X,42,Female,8,2023-06-25_10h39.59.076,working,2022.2.4,Win32,12.70260657,,,right,0.2558,0,36,36,36,1,bridge_181.jpg,0,bridge,,,,,,,,,,,
,,,,,,,,,,badlands_21.jpg,badlands_21.jpg,badlands_1.jpg,left,highway_290.jpg,mountain_51.jpg,playground_36.jpg,badlands_21.jpg,golf_course_176.jpg,bridge_155.jpg,3,A3E8GACA13UD1X,42,Female,8,2023-06-25_10h39.59.076,working,2022.2.4,Win32,12.70260657,,,right,0.0959,0,37,37,37,1,badlands_1.jpg,0,badlands,,,,,,,,,,,
,,,,,,,,,,playground_60.jpg,playground_268.jpg,playground_60.jpg,right,highway_247.jpg,mountain_253.jpg,playground_60.jpg,badlands_217.jpg,golf_course_333.jpg,bridge_164.jpg,2,A3E8GACA13UD1X,42,Female,8,2023-06-25_10h39.59.076,working,2022.2.4,Win32,12.70260657,,,right,0.0041,0,38,38,38,1,playground_268.jpg,0,playground,,,,,,,,,,,
,,,,,,,,,,playground_240.jpg,playground_2.jpg,playground_240.jpg,right,playground_240.jpg,bridge_136.jpg,badlands_122.jpg,highway_257.jpg,mountain_35.jpg,golf_course_308.jpg,0,A3E8GACA13UD1X,42,Female,8,2023-06-25_10h39.59.076,working,2022.2.4,Win32,12.70260657,,,left,0.102,0,39,39,39,1,playground_2.jpg,0,playground,,,,,,,,,,,
,,,,,,,,,,highway_394.jpg,highway_204.jpg,highway_394.jpg,right,badlands_79.jpg,playground_74.jpg,bridge_158.jpg,mountain_45.jpg,highway_394.jpg,golf_course_316.jpg,4,A3E8GACA13UD1X,42,Female,8,2023-06-25_10h39.59.076,working,2022.2.4,Win32,12.70260657,,,left,0.1025,0,40,40,40,1,highway_204.jpg,0,highway,,,,,,,,,,,
,,,,,,,,,,badlands_23.jpg,badlands_23.jpg,badlands_101.jpg,left,mountain_250.jpg,golf_course_166.jpg,badlands_23.jpg,bridge_22.jpg,playground_103.jpg,highway_269.jpg,2,A3E8GACA13UD1X,42,Female,8,2023-06-25_10h39.59.076,working,2022.2.4,Win32,12.70260657,,,right,0.3311,0,41,41,41,1,badlands_101.jpg,1,badlands,,,,,,,,,,,
,,,,,,,,,,golf_course_214.jpg,golf_course_214.jpg,golf_course_317.jpg,left,golf_course_214.jpg,playground_124.jpg,bridge_147.jpg,mountain_192.jpg,badlands_10.jpg,highway_90.jpg,0,A3E8GACA13UD1X,42,Female,8,2023-06-25_10h39.59.076,working,2022.2.4,Win32,12.70260657,,,left,0.006,0,42,42,42,1,golf_course_317.jpg,1,golf,,,,,,,,,,,
,,,,,,,,,,highway_209.jpg,highway_314.jpg,highway_209.jpg,right,mountain_38.jpg,playground_6.jpg,highway_209.jpg,badlands_157.jpg,golf_course_174.jpg,bridge_133.jpg,2,A3E8GACA13UD1X,42,Female,8,2023-06-25_10h39.59.076,working,2022.2.4,Win32,12.70260657,,,left,194.1826,0,43,43,43,1,highway_314.jpg,0,highway,,,,,,,,,,,
,,,,,,,,,,playground_144.jpg,playground_65.jpg,playground_144.jpg,right,bridge_190.jpg,mountain_91.jpg,highway_251.jpg,golf_course_179.jpg,playground_144.jpg,badlands_128.jpg,4,A3E8GACA13UD1X,42,Female,8,2023-06-25_10h39.59.076,working,2022.2.4,Win32,12.70260657,,,right,0.006,0,44,44,44,1,playground_65.jpg,1,playground,,,,,,,,,,,
,,,,,,,,,,playground_219.jpg,playground_205.jpg,playground_219.jpg,right,highway_335.jpg,playground_219.jpg,mountain_226.jpg,badlands_20.jpg,golf_course_282.jpg,bridge_228.jpg,1,A3E8GACA13UD1X,42,Female,8,2023-06-25_10h39.59.076,working,2022.2.4,Win32,12.70260657,,,left,0.6647,0,45,45,45,1,playground_205.jpg,1,playground,,,,,,,,,,,
,,,,,,,,,,bridge_172.jpg,bridge_172.jpg,bridge_17.jpg,left,badlands_36.jpg,bridge_172.jpg,golf_course_127.jpg,mountain_176.jpg,playground_49.jpg,highway_102.jpg,1,A3E8GACA13UD1X,42,Female,8,2023-06-25_10h39.59.076,working,2022.2.4,Win32,12.70260657,,,right,0.0053,0,46,46,46,1,bridge_17.jpg,0,bridge,,,,,,,,,,,
,,,,,,,,,,highway_359.jpg,highway_379.jpg,highway_359.jpg,right,badlands_72.jpg,golf_course_300.jpg,highway_359.jpg,bridge_76.jpg,mountain_76.jpg,playground_68.jpg,2,A3E8GACA13UD1X,42,Female,8,2023-06-25_10h39.59.076,working,2022.2.4,Win32,12.70260657,,,left,1.0263,0,47,47,47,1,highway_379.jpg,1,highway,,,,,,,,,,,
,,,,,,,,,,highway_93.jpg,highway_85.jpg,highway_93.jpg,right,highway_93.jpg,mountain_102.jpg,bridge_86.jpg,playground_50.jpg,golf_course_41.jpg,badlands_211.jpg,0,A3E8GACA13UD1X,42,Female,8,2023-06-25_10h39.59.076,working,2022.2.4,Win32,12.70260657,,,right,8.9002,0,48,48,48,1,highway_85.jpg,0,highway,,,,,,,,,,,
,,,,,,,,,,playground_117.jpg,playground_127.jpg,playground_117.jpg,right,bridge_254.jpg,golf_course_23.jpg,badlands_16.jpg,highway_18.jpg,playground_117.jpg,mountain_41.jpg,4,A3E8GACA13UD1X,42,Female,8,2023-06-25_10h39.59.076,working,2022.2.4,Win32,12.70260657,,,left,1.0973,0,49,49,49,1,playground_127.jpg,1,playground,,,,,,,,,,,
,,,,,,,,,,golf_course_188.jpg,golf_course_157.jpg,golf_course_188.jpg,right,highway_383.jpg,mountain_228.jpg,bridge_218.jpg,badlands_104.jpg,golf_course_188.jpg,playground_258.jpg,4,A3E8GACA13UD1X,42,Female,8,2023-06-25_10h39.59.076,working,2022.2.4,Win32,12.70260657,,,right,0.4176,0,50,50,50,1,golf_course_157.jpg,0,golf,,,,,,,,,,,
,,,,,,,,,,playground_76.jpg,playground_76.jpg,playground_72.jpg,left,badlands_55.jpg,golf_course_67.jpg,highway_295.jpg,bridge_142.jpg,playground_76.jpg,mountain_233.jpg,4,A3E8GACA13UD1X,42,Female,8,2023-06-25_10h39.59.076,working,2022.2.4,Win32,12.70260657,,,left,0.2787,0,51,51,51,1,playground_72.jpg,1,playground,,,,,,,,,,,
,,,,,,,,,,mountain_101.jpg,mountain_101.jpg,mountain_221.jpg,left,golf_course_328.jpg,mountain_101.jpg,highway_83.jpg,playground_85.jpg,bridge_68.jpg,badlands_106.jpg,1,A3E8GACA13UD1X,42,Female,8,2023-06-25_10h39.59.076,working,2022.2.4,Win32,12.70260657,,,right,0.6078,0,52,52,52,1,mountain_221.jpg,1,mountain,,,,,,,,,,,
,,,,,,,,,,mountain_57.jpg,mountain_193.jpg,mountain_57.jpg,right,golf_course_218.jpg,highway_147.jpg,playground_98.jpg,mountain_57.jpg,badlands_125.jpg,bridge_179.jpg,3,A3E8GACA13UD1X,42,Female,8,2023-06-25_10h39.59.076,working,2022.2.4,Win32,12.70260657,,,left,0.0058,0,53,53,53,1,mountain_193.jpg,0,mountain,,,,,,,,,,,
,,,,,,,,,,badlands_221.jpg,badlands_221.jpg,badlands_207.jpg,left,golf_course_116.jpg,badlands_221.jpg,highway_315.jpg,bridge_96.jpg,playground_54.jpg,mountain_126.jpg,1,A3E8GACA13UD1X,42,Female,8,2023-06-25_10h39.59.076,working,2022.2.4,Win32,12.70260657,,,right,0.2539,0,54,54,54,1,badlands_207.jpg,1,badlands,,,,,,,,,,,
,,,,,,,,,,mountain_222.jpg,mountain_93.jpg,mountain_222.jpg,right,badlands_33.jpg,mountain_222.jpg,bridge_112.jpg,highway_172.jpg,golf_course_305.jpg,playground_184.jpg,1,A3E8GACA13UD1X,42,Female,8,2023-06-25_10h39.59.076,working,2022.2.4,Win32,12.70260657,,,left,0.3691,0,55,55,55,1,mountain_93.jpg,1,mountain,,,,,,,,,,,
,,,,,,,,,,badlands_24.jpg,badlands_3.jpg,badlands_24.jpg,right,highway_148.jpg,mountain_290.jpg,badlands_24.jpg,bridge_64.jpg,playground_227.jpg,golf_course_120.jpg,2,A3E8GACA13UD1X,42,Female,8,2023-06-25_10h39.59.076,working,2022.2.4,Win32,12.70260657,,,left,0.0919,0,56,56,56,1,badlands_3.jpg,0,badlands,,,,,,,,,,,
,,,,,,,,,,bridge_146.jpg,bridge_121.jpg,bridge_146.jpg,right,bridge_146.jpg,mountain_92.jpg,highway_313.jpg,playground_233.jpg,golf_course_105.jpg,badlands_166.jpg,0,A3E8GACA13UD1X,42,Female,8,2023-06-25_10h39.59.076,working,2022.2.4,Win32,12.70260657,,,left,0.1101,0,57,57,57,1,bridge_121.jpg,1,bridge,,,,,,,,,,,
,,,,,,,,,,highway_273.jpg,highway_273.jpg,highway_384.jpg,left,badlands_46.jpg,bridge_143.jpg,highway_273.jpg,playground_246.jpg,golf_course_42.jpg,mountain_294.jpg,2,A3E8GACA13UD1X,42,Female,8,2023-06-25_10h39.59.076,working,2022.2.4,Win32,12.70260657,,,right,0.0888,0,58,58,58,1,highway_384.jpg,0,highway,,,,,,,,,,,
,,,,,,,,,,mountain_232.jpg,mountain_3.jpg,mountain_232.jpg,right,bridge_266.jpg,highway_50.jpg,mountain_232.jpg,golf_course_313.jpg,badlands_67.jpg,playground_222.jpg,2,A3E8GACA13UD1X,42,Female,8,2023-06-25_10h39.59.076,working,2022.2.4,Win32,12.70260657,,,left,0.0052,0,59,59,59,1,mountain_3.jpg,0,mountain,,,,,,,,,,,
,,,,,,,,,,bridge_191.jpg,bridge_184.jpg,bridge_191.jpg,right,playground_251.jpg,badlands_9.jpg,mountain_309.jpg,highway_76.jpg,bridge_191.jpg,golf_course_0.jpg,4,A3E8GACA13UD1X,42,Female,8,2023-06-25_10h39.59.076,working,2022.2.4,Win32,12.70260657,,,,,,,,,,bridge_184.jpg,0,bridge,space,58.9086,7.960352423,6.9845,0,0,0,0,1,,
,,,,,,,,,,golf_course_78.jpg,golf_course_78.jpg,golf_course_134.jpg,left,highway_308.jpg,bridge_102.jpg,mountain_29.jpg,golf_course_78.jpg,badlands_59.jpg,playground_195.jpg,3,A3E8GACA13UD1X,42,Female,8,2023-06-25_10h39.59.076,working,2022.2.4,Win32,12.70260657,,,,,,,,,,golf_course_134.jpg,0,golf,,,6.538913363,5.041,0,1,1,1,1,,
,,,,,,,,,,mountain_123.jpg,mountain_123.jpg,mountain_189.jpg,left,golf_course_269.jpg,badlands_174.jpg,bridge_118.jpg,highway_404.jpg,mountain_123.jpg,playground_84.jpg,4,A3E8GACA13UD1X,42,Female,8,2023-06-25_10h39.59.076,working,2022.2.4,Win32,12.70260657,,,,,,,,,,mountain_189.jpg,1,mountain,,,6.985315712,15.5252,0,2,2,2,1,,
,,,,,,,,,,badlands_52.jpg,badlands_52.jpg,badlands_63.jpg,left,golf_course_56.jpg,badlands_52.jpg,highway_3.jpg,mountain_166.jpg,playground_181.jpg,bridge_212.jpg,1,A3E8GACA13UD1X,42,Female,8,2023-06-25_10h39.59.076,working,2022.2.4,Win32,12.70260657,,,,,,,,,,badlands_63.jpg,1,badlands,,,7.995594714,7.483,0,3,3,3,1,,
,,,,,,,,,,highway_245.jpg,highway_245.jpg,highway_206.jpg,left,highway_245.jpg,playground_132.jpg,bridge_120.jpg,badlands_88.jpg,mountain_180.jpg,golf_course_212.jpg,0,A3E8GACA13UD1X,42,Female,8,2023-06-25_10h39.59.076,working,2022.2.4,Win32,12.70260657,,,,,,,,,,highway_206.jpg,1,highway,,,5,2.7588,0,4,4,4,1,,
,,,,,,,,,,mountain_293.jpg,mountain_47.jpg,mountain_293.jpg,right,playground_26.jpg,golf_course_137.jpg,mountain_293.jpg,highway_319.jpg,badlands_44.jpg,bridge_79.jpg,2,A3E8GACA13UD1X,42,Female,8,2023-06-25_10h39.59.076,working,2022.2.4,Win32,12.70260657,,,,,,,,,,mountain_47.jpg,1,mountain,,,6.938325991,2.2405,0,5,5,5,1,,
,,,,,,,,,,badlands_137.jpg,badlands_194.jpg,badlands_137.jpg,right,playground_126.jpg,highway_413.jpg,badlands_137.jpg,mountain_19.jpg,golf_course_219.jpg,bridge_124.jpg,2,A3E8GACA13UD1X,42,Female,8,2023-06-25_10h39.59.076,working,2022.2.4,Win32,12.70260657,,,,,,,,,,badlands_194.jpg,0,badlands,,,6.997063142,4.3854,0,6,6,6,1,,
,,,,,,,,,,mountain_230.jpg,mountain_184.jpg,mountain_230.jpg,right,badlands_105.jpg,golf_course_162.jpg,mountain_230.jpg,bridge_197.jpg,highway_246.jpg,playground_120.jpg,2,A3E8GACA13UD1X,42,Female,8,2023-06-25_10h39.59.076,working,2022.2.4,Win32,12.70260657,,,,,,,,,,mountain_184.jpg,0,mountain,,,5.975036711,5.6703,0,7,7,7,1,,
,,,,,,,,,,highway_415.jpg,highway_415.jpg,highway_174.jpg,left,playground_15.jpg,badlands_47.jpg,highway_415.jpg,golf_course_128.jpg,mountain_87.jpg,bridge_126.jpg,2,A3E8GACA13UD1X,42,Female,8,2023-06-25_10h39.59.076,working,2022.2.4,Win32,12.70260657,,,,,,,,,,highway_174.jpg,1,highway,,,6.973568282,2.331,0,8,8,8,1,,
,,,,,,,,,,golf_course_217.jpg,golf_course_217.jpg,golf_course_262.jpg,left,mountain_137.jpg,playground_141.jpg,golf_course_217.jpg,bridge_72.jpg,highway_178.jpg,badlands_30.jpg,2,A3E8GACA13UD1X,42,Female,8,2023-06-25_10h39.59.076,working,2022.2.4,Win32,12.70260657,,,,,,,,,,golf_course_262.jpg,1,golf,,,5.998531571,9.9903,0,9,9,9,1,,
,,,,,,,,,,badlands_222.jpg,badlands_222.jpg,badlands_34.jpg,left,golf_course_164.jpg,badlands_222.jpg,bridge_204.jpg,mountain_302.jpg,playground_110.jpg,highway_399.jpg,1,A3E8GACA13UD1X,42,Female,8,2023-06-25_10h39.59.076,working,2022.2.4,Win32,12.70260657,,,,,,,,,,badlands_34.jpg,0,badlands,,,4.97650514,3.9841,0,10,10,10,1,,
,,,,,,,,,,golf_course_87.jpg,golf_course_130.jpg,golf_course_87.jpg,right,badlands_152.jpg,mountain_152.jpg,highway_31.jpg,playground_16.jpg,golf_course_87.jpg,bridge_63.jpg,4,A3E8GACA13UD1X,42,Female,8,2023-06-25_10h39.59.076,working,2022.2.4,Win32,12.70260657,,,,,,,,,,golf_course_130.jpg,0,golf,,,3.061674009,3.0955,0,11,11,11,1,,
,,,,,,,,,,highway_294.jpg,highway_368.jpg,highway_294.jpg,right,golf_course_265.jpg,playground_14.jpg,highway_294.jpg,bridge_39.jpg,badlands_200.jpg,mountain_206.jpg,2,A3E8GACA13UD1X,42,Female,8,2023-06-25_10h39.59.076,working,2022.2.4,Win32,12.70260657,,,,,,,,,,highway_368.jpg,1,highway,,,3.977973568,2.4883,0,12,12,12,1,,
,,,,,,,,,,bridge_256.jpg,bridge_256.jpg,bridge_54.jpg,left,golf_course_33.jpg,bridge_256.jpg,badlands_183.jpg,highway_107.jpg,playground_30.jpg,mountain_204.jpg,1,A3E8GACA13UD1X,42,Female,8,2023-06-25_10h39.59.076,working,2022.2.4,Win32,12.70260657,,,,,,,,,,bridge_54.jpg,0,bridge,,,7.983847283,2.1287,0,13,13,13,1,,
,,,,,,,,,,golf_course_309.jpg,golf_course_309.jpg,golf_course_209.jpg,left,bridge_20.jpg,mountain_249.jpg,highway_78.jpg,playground_118.jpg,golf_course_309.jpg,badlands_215.jpg,4,A3E8GACA13UD1X,42,Female,8,2023-06-25_10h39.59.076,working,2022.2.4,Win32,12.70260657,,,,,,,,,,golf_course_209.jpg,1,golf,,,5.986784141,16.0915,0,14,14,14,1,,
,,,,,,,,,,golf_course_15.jpg,golf_course_15.jpg,golf_course_113.jpg,left,playground_78.jpg,mountain_34.jpg,bridge_144.jpg,golf_course_15.jpg,badlands_213.jpg,highway_53.jpg,3,A3E8GACA13UD1X,42,Female,8,2023-06-25_10h39.59.076,working,2022.2.4,Win32,12.70260657,,,,,,,,,,golf_course_113.jpg,0,golf,,,6.914831131,2.643,0,15,15,15,1,,
,,,,,,,,,,highway_177.jpg,highway_177.jpg,highway_278.jpg,left,bridge_1.jpg,golf_course_291.jpg,playground_196.jpg,mountain_160.jpg,highway_177.jpg,badlands_81.jpg,4,A3E8GACA13UD1X,42,Female,8,2023-06-25_10h39.59.076,working,2022.2.4,Win32,12.70260657,,,,,,,,,,highway_278.jpg,1,highway,,,5.986784141,16.1737,0,16,16,16,1,,
,,,,,,,,,,bridge_91.jpg,bridge_253.jpg,bridge_91.jpg,right,golf_course_55.jpg,highway_274.jpg,bridge_91.jpg,mountain_151.jpg,playground_61.jpg,badlands_35.jpg,2,A3E8GACA13UD1X,42,Female,8,2023-06-25_10h39.59.076,working,2022.2.4,Win32,12.70260657,,,,,,,,,,bridge_253.jpg,0,bridge,,,7.995594714,2.0227,0,17,17,17,1,,
,,,,,,,,,,playground_10.jpg,playground_122.jpg,playground_10.jpg,right,golf_course_71.jpg,highway_287.jpg,playground_10.jpg,mountain_251.jpg,bridge_74.jpg,badlands_227.jpg,2,A3E8GACA13UD1X,42,Female,8,2023-06-25_10h39.59.076,working,2022.2.4,Win32,12.70260657,,,,,,,,,,playground_122.jpg,0,playground,,,6.010279001,5.537,0,18,18,18,1,,
,,,,,,,,,,bridge_250.jpg,bridge_250.jpg,bridge_205.jpg,left,mountain_307.jpg,golf_course_61.jpg,badlands_216.jpg,highway_9.jpg,bridge_250.jpg,playground_256.jpg,4,A3E8GACA13UD1X,42,Female,8,2023-06-25_10h39.59.076,working,2022.2.4,Win32,12.70260657,,,,,,,,,,bridge_205.jpg,1,bridge,,,7.020558003,1.6808,0,19,19,19,1,,
,,,,,,,,,,highway_156.jpg,highway_160.jpg,highway_156.jpg,right,golf_course_59.jpg,mountain_198.jpg,highway_156.jpg,playground_39.jpg,bridge_110.jpg,badlands_27.jpg,2,A3E8GACA13UD1X,42,Female,8,2023-06-25_10h39.59.076,working,2022.2.4,Win32,12.70260657,,,,,,,,,,highway_160.jpg,0,highway,,,5.986784141,55.6224,0,20,20,20,1,,
,,,,,,,,,,golf_course_331.jpg,golf_course_331.jpg,golf_course_114.jpg,left,badlands_170.jpg,golf_course_331.jpg,mountain_146.jpg,highway_33.jpg,bridge_234.jpg,playground_176.jpg,1,A3E8GACA13UD1X,42,Female,8,2023-06-25_10h39.59.076,working,2022.2.4,Win32,12.70260657,,,,,,,,,,golf_course_114.jpg,0,golf,,,4.894273128,2.0228,0,21,21,21,1,,
,,,,,,,,,,mountain_110.jpg,mountain_157.jpg,mountain_110.jpg,right,highway_305.jpg,badlands_97.jpg,playground_153.jpg,mountain_110.jpg,golf_course_144.jpg,bridge_45.jpg,3,A3E8GACA13UD1X,42,Female,8,2023-06-25_10h39.59.076,working,2022.2.4,Win32,12.70260657,,,,,,,,,,mountain_157.jpg,0,mountain,,,4.97650514,0.5169,0,22,22,22,1,,
,,,,,,,,,,badlands_113.jpg,badlands_225.jpg,badlands_113.jpg,right,playground_63.jpg,bridge_193.jpg,highway_226.jpg,golf_course_196.jpg,badlands_113.jpg,mountain_143.jpg,4,A3E8GACA13UD1X,42,Female,8,2023-06-25_10h39.59.076,working,2022.2.4,Win32,12.70260657,,,,,,,,,,badlands_225.jpg,0,badlands,,,6.938325991,1.8175,0,23,23,23,1,,
,,,,,,,,,,badlands_184.jpg,badlands_184.jpg,badlands_103.jpg,left,playground_55.jpg,badlands_184.jpg,mountain_256.jpg,highway_199.jpg,golf_course_194.jpg,bridge_225.jpg,1,A3E8GACA13UD1X,42,Female,8,2023-06-25_10h39.59.076,working,2022.2.4,Win32,12.70260657,,,,,,,,,,badlands_103.jpg,1,badlands,,,2.979441997,2.6054,0,24,24,24,1,,
,,,,,,,,,,playground_145.jpg,playground_229.jpg,playground_145.jpg,right,highway_138.jpg,playground_145.jpg,bridge_169.jpg,golf_course_252.jpg,mountain_32.jpg,badlands_180.jpg,1,A3E8GACA13UD1X,42,Female,8,2023-06-25_10h39.59.076,working,2022.2.4,Win32,12.70260657,,,,,,,,,,playground_229.jpg,0,playground,,,6.010279001,2.7013,0,25,25,25,1,,
,,,,,,,,,,golf_course_195.jpg,golf_course_2.jpg,golf_course_195.jpg,right,highway_265.jpg,playground_7.jpg,mountain_187.jpg,bridge_66.jpg,golf_course_195.jpg,badlands_150.jpg,4,A3E8GACA13UD1X,42,Female,8,2023-06-25_10h39.59.076,working,2022.2.4,Win32,12.70260657,,,,,,,,,,golf_course_2.jpg,1,golf,,,3.989720999,8.7889,0,26,26,26,1,,
,,,,,,,,,,bridge_128.jpg,bridge_128.jpg,bridge_244.jpg,left,highway_101.jpg,bridge_128.jpg,badlands_138.jpg,golf_course_3.jpg,mountain_135.jpg,playground_83.jpg,1,A3E8GACA13UD1X,42,Female,8,2023-06-25_10h39.59.076,working,2022.2.4,Win32,12.70260657,,,,,,,,,,bridge_244.jpg,1,bridge,,,7.032305433,6.4622,0,27,27,27,1,,
,,,,,,,,,,bridge_202.jpg,bridge_38.jpg,bridge_202.jpg,right,highway_141.jpg,golf_course_241.jpg,mountain_40.jpg,badlands_120.jpg,bridge_202.jpg,playground_191.jpg,4,A3E8GACA13UD1X,42,Female,8,2023-06-25_10h39.59.076,working,2022.2.4,Win32,12.70260657,,,,,,,,,,bridge_38.jpg,1,bridge,,,3.966226138,5.2757,0,28,28,28,1,,
,,,,,,,,,,badlands_70.jpg,badlands_70.jpg,badlands_119.jpg,left,badlands_70.jpg,mountain_306.jpg,golf_course_297.jpg,highway_17.jpg,playground_47.jpg,bridge_35.jpg,0,A3E8GACA13UD1X,42,Female,8,2023-06-25_10h39.59.076,working,2022.2.4,Win32,12.70260657,,,,,,,,,,badlands_119.jpg,1,badlands,,,5.96328928,2.8151,0,29,29,29,1,,
,,,,,,,,,,mountain_154.jpg,mountain_131.jpg,mountain_154.jpg,right,highway_36.jpg,golf_course_238.jpg,mountain_154.jpg,bridge_224.jpg,playground_173.jpg,badlands_175.jpg,2,A3E8GACA13UD1X,42,Female,8,2023-06-25_10h39.59.076,working,2022.2.4,Win32,12.70260657,,,,,,,,,,mountain_131.jpg,0,mountain,,,5.035242291,7.5288,0,30,30,30,1,,
,,,,,,,,,,playground_257.jpg,playground_257.jpg,playground_215.jpg,left,bridge_180.jpg,playground_257.jpg,mountain_277.jpg,golf_course_138.jpg,highway_154.jpg,badlands_60.jpg,1,A3E8GACA13UD1X,42,Female,8,2023-06-25_10h39.59.076,working,2022.2.4,Win32,12.70260657,,,,,,,,,,playground_215.jpg,1,playground,,,5.93979442,8.9278,0,31,31,31,1,,
,,,,,,,,,,playground_131.jpg,playground_164.jpg,playground_131.jpg,right,golf_course_133.jpg,badlands_173.jpg,playground_131.jpg,highway_191.jpg,mountain_89.jpg,bridge_52.jpg,2,A3E8GACA13UD1X,42,Female,8,2023-06-25_10h39.59.076,working,2022.2.4,Win32,12.70260657,,,,,,,,,,playground_164.jpg,1,playground,,,7.008810573,3.8803,0,32,32,32,1,,
,,,,,,,,,,bridge_108.jpg,bridge_108.jpg,bridge_148.jpg,left,playground_248.jpg,mountain_39.jpg,badlands_214.jpg,golf_course_307.jpg,bridge_108.jpg,highway_288.jpg,4,A3E8GACA13UD1X,42,Female,8,2023-06-25_10h39.59.076,working,2022.2.4,Win32,12.70260657,,,,,,,,,,bridge_148.jpg,1,bridge,,,6.985315712,4.9516,0,33,33,33,1,,
,,,,,,,,,,mountain_156.jpg,mountain_295.jpg,mountain_156.jpg,right,mountain_156.jpg,golf_course_102.jpg,highway_15.jpg,playground_42.jpg,badlands_85.jpg,bridge_4.jpg,0,A3E8GACA13UD1X,42,Female,8,2023-06-25_10h39.59.076,working,2022.2.4,Win32,12.70260657,,,,,,,,,,mountain_295.jpg,1,mountain,,,2.955947137,1.7886,0,34,34,34,1,,
,,,,,,,,,,golf_course_193.jpg,golf_course_193.jpg,golf_course_235.jpg,left,mountain_190.jpg,playground_140.jpg,golf_course_193.jpg,highway_354.jpg,badlands_6.jpg,bridge_173.jpg,2,A3E8GACA13UD1X,42,Female,8,2023-06-25_10h39.59.076,working,2022.2.4,Win32,12.70260657,,,,,,,,,,golf_course_235.jpg,0,golf,,,6.033773862,2.4048,0,35,35,35,1,,
,,,,,,,,,,bridge_65.jpg,bridge_181.jpg,bridge_65.jpg,right,highway_58.jpg,badlands_26.jpg,bridge_65.jpg,playground_162.jpg,mountain_88.jpg,golf_course_199.jpg,2,A3E8GACA13UD1X,42,Female,8,2023-06-25_10h39.59.076,working,2022.2.4,Win32,12.70260657,,,,,,,,,,bridge_181.jpg,0,bridge,,,4.013215859,2.0534,0,36,36,36,1,,
,,,,,,,,,,badlands_21.jpg,badlands_21.jpg,badlands_1.jpg,left,highway_290.jpg,mountain_51.jpg,playground_36.jpg,badlands_21.jpg,golf_course_176.jpg,bridge_155.jpg,3,A3E8GACA13UD1X,42,Female,8,2023-06-25_10h39.59.076,working,2022.2.4,Win32,12.70260657,,,,,,,,,,badlands_1.jpg,0,badlands,,,6.997063142,2.4308,0,37,37,37,1,,
,,,,,,,,,,playground_60.jpg,playground_268.jpg,playground_60.jpg,right,highway_247.jpg,mountain_253.jpg,playground_60.jpg,badlands_217.jpg,golf_course_333.jpg,bridge_164.jpg,2,A3E8GACA13UD1X,42,Female,8,2023-06-25_10h39.59.076,working,2022.2.4,Win32,12.70260657,,,,,,,,,,playground_268.jpg,0,playground,,,2.920704846,1.9161,0,38,38,38,1,,
,,,,,,,,,,playground_240.jpg,playground_2.jpg,playground_240.jpg,right,playground_240.jpg,bridge_136.jpg,badlands_122.jpg,highway_257.jpg,mountain_35.jpg,golf_course_308.jpg,0,A3E8GACA13UD1X,42,Female,8,2023-06-25_10h39.59.076,working,2022.2.4,Win32,12.70260657,,,,,,,,,,playground_2.jpg,0,playground,,,5.95154185,2.8915,0,39,39,39,1,,
,,,,,,,,,,highway_394.jpg,highway_204.jpg,highway_394.jpg,right,badlands_79.jpg,playground_74.jpg,bridge_158.jpg,mountain_45.jpg,highway_394.jpg,golf_course_316.jpg,4,A3E8GACA13UD1X,42,Female,8,2023-06-25_10h39.59.076,working,2022.2.4,Win32,12.70260657,,,,,,,,,,highway_204.jpg,0,highway,,,8.019089574,4.0021,0,40,40,40,1,,
,,,,,,,,,,badlands_23.jpg,badlands_23.jpg,badlands_101.jpg,left,mountain_250.jpg,golf_course_166.jpg,badlands_23.jpg,bridge_22.jpg,playground_103.jpg,highway_269.jpg,2,A3E8GACA13UD1X,42,Female,8,2023-06-25_10h39.59.076,working,2022.2.4,Win32,12.70260657,,,,,,,,,,badlands_101.jpg,1,badlands,,,3.002936858,3.1206,0,41,41,41,1,,
,,,,,,,,,,golf_course_214.jpg,golf_course_214.jpg,golf_course_317.jpg,left,golf_course_214.jpg,playground_124.jpg,bridge_147.jpg,mountain_192.jpg,badlands_10.jpg,highway_90.jpg,0,A3E8GACA13UD1X,42,Female,8,2023-06-25_10h39.59.076,working,2022.2.4,Win32,12.70260657,,,,,,,,,,golf_course_317.jpg,1,golf,,,6.926578561,8.7737,0,42,42,42,1,,
,,,,,,,,,,highway_209.jpg,highway_314.jpg,highway_209.jpg,right,mountain_38.jpg,playground_6.jpg,highway_209.jpg,badlands_157.jpg,golf_course_174.jpg,bridge_133.jpg,2,A3E8GACA13UD1X,42,Female,8,2023-06-25_10h39.59.076,working,2022.2.4,Win32,12.70260657,,,,,,,,,,highway_314.jpg,0,highway,,,5.975036711,5.6192,0,43,43,43,1,,
,,,,,,,,,,playground_144.jpg,playground_65.jpg,playground_144.jpg,right,bridge_190.jpg,mountain_91.jpg,highway_251.jpg,golf_course_179.jpg,playground_144.jpg,badlands_128.jpg,4,A3E8GACA13UD1X,42,Female,8,2023-06-25_10h39.59.076,working,2022.2.4,Win32,12.70260657,,,,,,,,,,playground_65.jpg,1,playground,,,3.954478708,10.5063,0,44,44,44,1,,
,,,,,,,,,,playground_219.jpg,playground_205.jpg,playground_219.jpg,right,highway_335.jpg,playground_219.jpg,mountain_226.jpg,badlands_20.jpg,golf_course_282.jpg,bridge_228.jpg,1,A3E8GACA13UD1X,42,Female,8,2023-06-25_10h39.59.076,working,2022.2.4,Win32,12.70260657,,,,,,,,,,playground_205.jpg,1,playground,,,6.961820852,3.9704,0,45,45,45,1,,
,,,,,,,,,,bridge_172.jpg,bridge_172.jpg,bridge_17.jpg,left,badlands_36.jpg,bridge_172.jpg,golf_course_127.jpg,mountain_176.jpg,playground_49.jpg,highway_102.jpg,1,A3E8GACA13UD1X,42,Female,8,2023-06-25_10h39.59.076,working,2022.2.4,Win32,12.70260657,,,,,,,,,,bridge_17.jpg,0,bridge,,,7.936857562,1.6975,0,46,46,46,1,,
,,,,,,,,,,highway_359.jpg,highway_379.jpg,highway_359.jpg,right,badlands_72.jpg,golf_course_300.jpg,highway_359.jpg,bridge_76.jpg,mountain_76.jpg,playground_68.jpg,2,A3E8GACA13UD1X,42,Female,8,2023-06-25_10h39.59.076,working,2022.2.4,Win32,12.70260657,,,,,,,,,,highway_379.jpg,1,highway,,,2.932452276,2.514,0,47,47,47,1,,
,,,,,,,,,,highway_93.jpg,highway_85.jpg,highway_93.jpg,right,highway_93.jpg,mountain_102.jpg,bridge_86.jpg,playground_50.jpg,golf_course_41.jpg,badlands_211.jpg,0,A3E8GACA13UD1X,42,Female,8,2023-06-25_10h39.59.076,working,2022.2.4,Win32,12.70260657,,,,,,,,,,highway_85.jpg,0,highway,,,7.008810573,1.9644,0,48,48,48,1,,
,,,,,,,,,,playground_117.jpg,playground_127.jpg,playground_117.jpg,right,bridge_254.jpg,golf_course_23.jpg,badlands_16.jpg,highway_18.jpg,playground_117.jpg,mountain_41.jpg,4,A3E8GACA13UD1X,42,Female,8,2023-06-25_10h39.59.076,working,2022.2.4,Win32,12.70260657,,,,,,,,,,playground_127.jpg,1,playground,,,5.046989721,2.9384,0,49,49,49,1,,
,,,,,,,,,,golf_course_188.jpg,golf_course_157.jpg,golf_course_188.jpg,right,highway_383.jpg,mountain_228.jpg,bridge_218.jpg,badlands_104.jpg,golf_course_188.jpg,playground_258.jpg,4,A3E8GACA13UD1X,42,Female,8,2023-06-25_10h39.59.076,working,2022.2.4,Win32,12.70260657,,,,,,,,,,golf_course_157.jpg,0,golf,,,7.948604993,2.1745,0,50,50,50,1,,
,,,,,,,,,,playground_76.jpg,playground_76.jpg,playground_72.jpg,left,badlands_55.jpg,golf_course_67.jpg,highway_295.jpg,bridge_142.jpg,playground_76.jpg,mountain_233.jpg,4,A3E8GACA13UD1X,42,Female,8,2023-06-25_10h39.59.076,working,2022.2.4,Win32,12.70260657,,,,,,,,,,playground_72.jpg,1,playground,,,3.038179148,2.1494,0,51,51,51,1,,
,,,,,,,,,,mountain_101.jpg,mountain_101.jpg,mountain_221.jpg,left,golf_course_328.jpg,mountain_101.jpg,highway_83.jpg,playground_85.jpg,bridge_68.jpg,badlands_106.jpg,1,A3E8GACA13UD1X,42,Female,8,2023-06-25_10h39.59.076,working,2022.2.4,Win32,12.70260657,,,,,,,,,,mountain_221.jpg,1,mountain,,,4.001468429,10.6765,0,52,52,52,1,,
,,,,,,,,,,mountain_57.jpg,mountain_193.jpg,mountain_57.jpg,right,golf_course_218.jpg,highway_147.jpg,playground_98.jpg,mountain_57.jpg,badlands_125.jpg,bridge_179.jpg,3,A3E8GACA13UD1X,42,Female,8,2023-06-25_10h39.59.076,working,2022.2.4,Win32,12.70260657,,,,,,,,,,mountain_193.jpg,0,mountain,,,6.914831131,3.0803,0,53,53,53,1,,
,,,,,,,,,,badlands_221.jpg,badlands_221.jpg,badlands_207.jpg,left,golf_course_116.jpg,badlands_221.jpg,highway_315.jpg,bridge_96.jpg,playground_54.jpg,mountain_126.jpg,1,A3E8GACA13UD1X,42,Female,8,2023-06-25_10h39.59.076,working,2022.2.4,Win32,12.70260657,,,,,,,,,,badlands_207.jpg,1,badlands,,,3.002936858,3.5026,0,54,54,54,1,,
,,,,,,,,,,mountain_222.jpg,mountain_93.jpg,mountain_222.jpg,right,badlands_33.jpg,mountain_222.jpg,bridge_112.jpg,highway_172.jpg,golf_course_305.jpg,playground_184.jpg,1,A3E8GACA13UD1X,42,Female,8,2023-06-25_10h39.59.076,working,2022.2.4,Win32,12.70260657,,,,,,,,,,mountain_93.jpg,1,mountain,,,5.998531571,2.0996,0,55,55,55,1,,
,,,,,,,,,,badlands_24.jpg,badlands_3.jpg,badlands_24.jpg,right,highway_148.jpg,mountain_290.jpg,badlands_24.jpg,bridge_64.jpg,playground_227.jpg,golf_course_120.jpg,2,A3E8GACA13UD1X,42,Female,8,2023-06-25_10h39.59.076,working,2022.2.4,Win32,12.70260657,,,,,,,,,,badlands_3.jpg,0,badlands,,,7.878120411,3.2501,0,56,56,56,1,,
,,,,,,,,,,bridge_146.jpg,bridge_121.jpg,bridge_146.jpg,right,bridge_146.jpg,mountain_92.jpg,highway_313.jpg,playground_233.jpg,golf_course_105.jpg,badlands_166.jpg,0,A3E8GACA13UD1X,42,Female,8,2023-06-25_10h39.59.076,working,2022.2.4,Win32,12.70260657,,,,,,,,,,bridge_121.jpg,1,bridge,,,2.979441997,2.4378,0,57,57,57,1,,
,,,,,,,,,,highway_273.jpg,highway_273.jpg,highway_384.jpg,left,badlands_46.jpg,bridge_143.jpg,highway_273.jpg,playground_246.jpg,golf_course_42.jpg,mountain_294.jpg,2,A3E8GACA13UD1X,42,Female,8,2023-06-25_10h39.59.076,working,2022.2.4,Win32,12.70260657,,,,,,,,,,highway_384.jpg,0,highway,,,5.95154185,1.702,0,58,58,58,1,,
,,,,,,,,,,mountain_232.jpg,mountain_3.jpg,mountain_232.jpg,right,bridge_266.jpg,highway_50.jpg,mountain_232.jpg,golf_course_313.jpg,badlands_67.jpg,playground_222.jpg,2,A3E8GACA13UD1X,42,Female,8,2023-06-25_10h39.59.076,working,2022.2.4,Win32,12.70260657,,,,,,,,,,mountain_3.jpg,0,mountain,,,6.022026432,1.685,0,59,59,59,1,,
,,,,,,,,,,,,,,,,,,,,,A3E8GACA13UD1X,42,Female,8,2023-06-25_10h39.59.076,working,2022.2.4,Win32,12.70260657,,,,,,,,,,,,,,,,,,,,,,space,85.3499
