,index,test_encoding_response.keys,test_encoding_response.corr,trials.thisTrialN,target_image,pair,layer,correct,test_encoding_response.rt,key_resp_end.keys,subject
0,20,,1.0,0.0,DOUBLE_BRESTED_CORMARANT_5.jpg,CHINESE_POND_HERON_2.jpg,3.0,,,,A37R0JYAB3QEX9
1,21,,1.0,1.0,OCELLATED_TURKEY_1.jpg,AMERICAN_PIPIT_1.jpg,2.0,,,,A37R0JYAB3QEX9
2,22,,1.0,2.0,CHUKAR_PARTRIDGE_5.jpg,OSTRICH_5.jpg,1.0,,,,A37R0JYAB3QEX9
3,23,,1.0,3.0,IVORY_GULL_1.jpg,FAIRY_TERN_4.jpg,3.0,,,,A37R0JYAB3QEX9
4,24,,1.0,4.0,BREWERS_BLACKBIRD_3.jpg,CAPE_LONGCLAW_2.jpg,3.0,,,,A37R0JYAB3QEX9
5,25,,1.0,5.0,RED_HEADED_WOODPECKER_5.jpg,CRIMSON_CHAT_3.jpg,2.0,,,,A37R0JYAB3QEX9
6,26,,1.0,6.0,OVENBIRD_5.jpg,FAIRY_PENGUIN_1.jpg,2.0,,,,A37R0JYAB3QEX9
7,27,right,1.0,7.0,right.jpg,,,right,0.7441,,A37R0JYAB3QEX9
8,28,,1.0,8.0,NORTHERN_JACANA_3.jpg,SCARLET_IBIS_4.jpg,3.0,,,,A37R0JYAB3QEX9
9,29,,1.0,9.0,CASPIAN_TERN_1.jpg,EUROPEAN_GOLDFINCH_4.jpg,2.0,,,,A37R0JYAB3QEX9
10,30,,1.0,10.0,MYNA_1.jpg,PARADISE_TANAGER_3.jpg,3.0,,,,A37R0JYAB3QEX9
11,31,,1.0,11.0,CERULEAN_WARBLER_1.jpg,AMERICAN_FLAMINGO_2.jpg,1.0,,,,A37R0JYAB3QEX9
12,32,,1.0,12.0,PEACOCK_3.jpg,CHATTERING_LORY_2.jpg,3.0,,,,A37R0JYAB3QEX9
13,33,,1.0,13.0,GOLDEN_CHEEKED_WARBLER_2.jpg,HOUSE_FINCH_2.jpg,2.0,,,,A37R0JYAB3QEX9
14,34,,1.0,14.0,BALI_STARLING_1.jpg,IBERIAN_MAGPIE_1.jpg,3.0,,,,A37R0JYAB3QEX9
15,35,,1.0,15.0,PARUS_MAJOR_1.jpg,PINK_ROBIN_3.jpg,3.0,,,,A37R0JYAB3QEX9
16,36,,1.0,16.0,WHITE_CHEEKED_TURACO_5.jpg,PYGMY_KINGFISHER_2.jpg,3.0,,,,A37R0JYAB3QEX9
17,37,,1.0,17.0,CRESTED_CARACARA_4.jpg,FAIRY_PENGUIN_5.jpg,1.0,,,,A37R0JYAB3QEX9
18,38,,1.0,18.0,INDIGO_BUNTING_1.jpg,NORTHERN_GANNET_1.jpg,2.0,,,,A37R0JYAB3QEX9
19,39,,1.0,19.0,PYGMY_KINGFISHER_5.jpg,MASKED_BOOBY_5.jpg,2.0,,,,A37R0JYAB3QEX9
20,40,,1.0,20.0,SCARLET_TANAGER_2.jpg,NORTHERN_GANNET_2.jpg,2.0,,,,A37R0JYAB3QEX9
21,41,,1.0,21.0,MAGPIE_GOOSE_5.jpg,OYSTER_CATCHER_3.jpg,3.0,,,,A37R0JYAB3QEX9
22,42,left,1.0,22.0,left.jpg,,,left,0.617,,A37R0JYAB3QEX9
23,43,,1.0,23.0,VERMILION_FLYCATHER_3.jpg,CALIFORNIA_GULL_1.jpg,2.0,,,,A37R0JYAB3QEX9
24,44,,1.0,24.0,ASIAN_CRESTED_IBIS_4.jpg,IVORY_GULL_2.jpg,3.0,,,,A37R0JYAB3QEX9
25,45,,1.0,25.0,GYRFALCON_1.jpg,CINNAMON_ATTILA_2.jpg,2.0,,,,A37R0JYAB3QEX9
26,46,,1.0,26.0,AFRICAN_PIED_HORNBILL_5.jpg,CAPUCHINBIRD_2.jpg,3.0,,,,A37R0JYAB3QEX9
27,47,,1.0,27.0,RUBY_THROATED_HUMMINGBIRD_1.jpg,BANANAQUIT_2.jpg,1.0,,,,A37R0JYAB3QEX9
28,48,,1.0,28.0,STRIPPED_SWALLOW_1.jpg,DOUBLE_BRESTED_CORMARANT_4.jpg,1.0,,,,A37R0JYAB3QEX9
29,49,,1.0,29.0,ECUADORIAN_HILLSTAR_5.jpg,BOBOLINK_5.jpg,2.0,,,,A37R0JYAB3QEX9
30,50,,1.0,30.0,HAWAIIAN_GOOSE_4.jpg,WATTLED_LAPWING_3.jpg,3.0,,,,A37R0JYAB3QEX9
31,51,,1.0,31.0,CRESTED_NUTHATCH_2.jpg,AFRICAN_FIREFINCH_1.jpg,2.0,,,,A37R0JYAB3QEX9
32,52,,1.0,32.0,SHOEBILL_3.jpg,EASTERN_MEADOWLARK_1.jpg,1.0,,,,A37R0JYAB3QEX9
33,53,right,1.0,33.0,right.jpg,,,right,0.5803,,A37R0JYAB3QEX9
34,54,,1.0,34.0,MALACHITE_KINGFISHER_2.jpg,AMERICAN_FLAMINGO_1.jpg,1.0,,,,A37R0JYAB3QEX9
35,55,,1.0,35.0,IVORY_GULL_3.jpg,INDIGO_FLYCATCHER_2.jpg,1.0,,,,A37R0JYAB3QEX9
36,56,,1.0,36.0,RUFOUS_KINGFISHER_1.jpg,SNOWY_OWL_5.jpg,1.0,,,,A37R0JYAB3QEX9
37,57,,1.0,37.0,ASIAN_DOLLARD_BIRD_2.jpg,ALBATROSS_2.jpg,1.0,,,,A37R0JYAB3QEX9
38,58,,1.0,38.0,EUROPEAN_TURTLE_DOVE_3.jpg,TEAL_DUCK_2.jpg,1.0,,,,A37R0JYAB3QEX9
39,59,,1.0,39.0,LITTLE_AUK_5.jpg,SANDHILL_CRANE_3.jpg,1.0,,,,A37R0JYAB3QEX9
40,60,right,1.0,40.0,right.jpg,,,right,1.1164,,A37R0JYAB3QEX9
41,61,,1.0,41.0,LESSER_ADJUTANT_4.jpg,ALTAMIRA_YELLOWTHROAT_5.jpg,1.0,,,,A37R0JYAB3QEX9
42,62,,1.0,42.0,FLAME_BOWERBIRD_3.jpg,QUETZAL_3.jpg,3.0,,,,A37R0JYAB3QEX9
43,63,,1.0,43.0,INLAND_DOTTEREL_4.jpg,NICOBAR_PIGEON_4.jpg,2.0,,,,A37R0JYAB3QEX9
44,64,,1.0,44.0,AMERICAN_PIPIT_5.jpg,EMU_2.jpg,1.0,,,,A37R0JYAB3QEX9
45,65,,1.0,45.0,BROWN_NOODY_3.jpg,SPANGLED_COTINGA_4.jpg,2.0,,,,A37R0JYAB3QEX9
46,66,,1.0,46.0,ALPINE_CHOUGH_4.jpg,EUROPEAN_GOLDFINCH_3.jpg,2.0,,,,A37R0JYAB3QEX9
47,67,,1.0,47.0,LESSER_ADJUTANT_5.jpg,RED_HEADED_WOODPECKER_1.jpg,3.0,,,,A37R0JYAB3QEX9
48,68,,1.0,48.0,RUBY_THROATED_HUMMINGBIRD_2.jpg,DUSKY_ROBIN_5.jpg,3.0,,,,A37R0JYAB3QEX9
49,69,,1.0,49.0,EASTERN_TOWEE_2.jpg,SANDHILL_CRANE_2.jpg,1.0,,,,A37R0JYAB3QEX9
50,70,right,1.0,50.0,right.jpg,,,right,0.8241,,A37R0JYAB3QEX9
51,71,,1.0,51.0,GOLDEN_CHLOROPHONIA_5.jpg,ROADRUNNER_2.jpg,1.0,,,,A37R0JYAB3QEX9
52,72,,1.0,52.0,GREY_PLOVER_1.jpg,GOULDIAN_FINCH_4.jpg,2.0,,,,A37R0JYAB3QEX9
53,73,,1.0,53.0,PINK_ROBIN_4.jpg,SPOONBILL_3.jpg,1.0,,,,A37R0JYAB3QEX9
54,74,,1.0,54.0,SPLENDID_WREN_1.jpg,CUBAN_TODY_4.jpg,3.0,,,,A37R0JYAB3QEX9
55,75,,1.0,55.0,KILLDEAR_2.jpg,PEACOCK_5.jpg,1.0,,,,A37R0JYAB3QEX9
56,76,,1.0,56.0,GRAY_KINGBIRD_5.jpg,AFRICAN_FIREFINCH_3.jpg,3.0,,,,A37R0JYAB3QEX9
57,77,,1.0,57.0,BROWN_THRASHER_3.jpg,BLACK_BAZA_4.jpg,3.0,,,,A37R0JYAB3QEX9
58,78,,1.0,58.0,INCA_TERN_4.jpg,SMITHS_LONGSPUR_5.jpg,2.0,,,,A37R0JYAB3QEX9
59,79,,1.0,59.0,KAGU_5.jpg,ASHY_STORM_PETREL_1.jpg,2.0,,,,A37R0JYAB3QEX9
60,80,,1.0,60.0,LARK_BUNTING_2.jpg,PEACOCK_1.jpg,1.0,,,,A37R0JYAB3QEX9
61,81,,1.0,61.0,RUBY_THROATED_HUMMINGBIRD_3.jpg,MALAGASY_WHITE_EYE_2.jpg,1.0,,,,A37R0JYAB3QEX9
62,82,,1.0,62.0,TASMANIAN_HEN_5.jpg,COPPERY_TAILED_COUCAL_1.jpg,3.0,,,,A37R0JYAB3QEX9
63,83,,1.0,63.0,CASSOWARY_1.jpg,SCARLET_MACAW_1.jpg,2.0,,,,A37R0JYAB3QEX9
64,84,,1.0,64.0,ARARIPE_MANAKIN_4.jpg,BLACK_VULTURE_1.jpg,2.0,,,,A37R0JYAB3QEX9
65,20,,1.0,0.0,LESSER_ADJUTANT_5.jpg,RED_HEADED_WOODPECKER_1.jpg,3.0,,,,A3TBG0S2IEBVHU
66,21,,1.0,1.0,SPLENDID_WREN_1.jpg,POMARINE_JAEGER_5.jpg,1.0,,,,A3TBG0S2IEBVHU
67,22,,1.0,2.0,BALI_STARLING_1.jpg,IBERIAN_MAGPIE_1.jpg,3.0,,,,A3TBG0S2IEBVHU
68,23,,1.0,3.0,AFRICAN_PIED_HORNBILL_5.jpg,ALEXANDRINE_PARAKEET_1.jpg,2.0,,,,A3TBG0S2IEBVHU
69,24,,1.0,4.0,PEACOCK_3.jpg,ANIANIAU_2.jpg,1.0,,,,A3TBG0S2IEBVHU
70,25,,1.0,5.0,KILLDEAR_2.jpg,AZURE_TIT_5.jpg,3.0,,,,A3TBG0S2IEBVHU
71,26,,1.0,6.0,CASSOWARY_1.jpg,AFRICAN_OYSTER_CATCHER_2.jpg,3.0,,,,A3TBG0S2IEBVHU
72,27,,1.0,7.0,TASMANIAN_HEN_5.jpg,GREEN_BROADBILL_1.jpg,1.0,,,,A3TBG0S2IEBVHU
73,28,,1.0,8.0,LESSER_ADJUTANT_4.jpg,RAINBOW_LORIKEET_5.jpg,2.0,,,,A3TBG0S2IEBVHU
74,29,,1.0,9.0,CASPIAN_TERN_1.jpg,EUROPEAN_GOLDFINCH_4.jpg,2.0,,,,A3TBG0S2IEBVHU
75,30,,1.0,10.0,HAWAIIAN_GOOSE_4.jpg,WATTLED_LAPWING_3.jpg,3.0,,,,A3TBG0S2IEBVHU
76,31,left,1.0,11.0,left.jpg,,,left,0.7468,,A3TBG0S2IEBVHU
77,32,,1.0,12.0,CHUKAR_PARTRIDGE_5.jpg,BLACK_THROATED_BUSHTIT_1.jpg,3.0,,,,A3TBG0S2IEBVHU
78,33,,1.0,13.0,FLAME_BOWERBIRD_3.jpg,QUETZAL_3.jpg,3.0,,,,A3TBG0S2IEBVHU
79,34,,1.0,14.0,SHOEBILL_3.jpg,GILDED_FLICKER_5.jpg,2.0,,,,A3TBG0S2IEBVHU
80,35,,1.0,15.0,PYGMY_KINGFISHER_5.jpg,GRANDALA_2.jpg,1.0,,,,A3TBG0S2IEBVHU
81,36,,1.0,16.0,RUBY_THROATED_HUMMINGBIRD_3.jpg,MALAGASY_WHITE_EYE_2.jpg,1.0,,,,A3TBG0S2IEBVHU
82,37,,1.0,17.0,RED_HEADED_WOODPECKER_5.jpg,COLLARED_ARACARI_1.jpg,3.0,,,,A3TBG0S2IEBVHU
83,38,,1.0,18.0,DOUBLE_BRESTED_CORMARANT_5.jpg,GILDED_FLICKER_2.jpg,1.0,,,,A3TBG0S2IEBVHU
84,39,,1.0,19.0,STRIPPED_SWALLOW_1.jpg,DOUBLE_BRESTED_CORMARANT_4.jpg,1.0,,,,A3TBG0S2IEBVHU
85,40,,1.0,20.0,AMERICAN_PIPIT_5.jpg,GREEN_MAGPIE_1.jpg,2.0,,,,A3TBG0S2IEBVHU
86,41,,1.0,21.0,INCA_TERN_4.jpg,BORNEAN_BRISTLEHEAD_5.jpg,3.0,,,,A3TBG0S2IEBVHU
87,42,,1.0,22.0,LITTLE_AUK_5.jpg,BEARDED_BELLBIRD_1.jpg,3.0,,,,A3TBG0S2IEBVHU
88,43,right,1.0,23.0,right.jpg,,,right,0.7862,,A3TBG0S2IEBVHU
89,44,,1.0,24.0,BROWN_THRASHER_3.jpg,BLACK_BAZA_4.jpg,3.0,,,,A3TBG0S2IEBVHU
90,45,,1.0,25.0,VERMILION_FLYCATHER_3.jpg,CALIFORNIA_GULL_1.jpg,2.0,,,,A3TBG0S2IEBVHU
91,46,,1.0,26.0,LARK_BUNTING_2.jpg,PEACOCK_1.jpg,1.0,,,,A3TBG0S2IEBVHU
92,47,,1.0,27.0,NORTHERN_JACANA_3.jpg,CRAB_PLOVER_3.jpg,2.0,,,,A3TBG0S2IEBVHU
93,48,,1.0,28.0,RUBY_THROATED_HUMMINGBIRD_2.jpg,APAPANE_4.jpg,2.0,,,,A3TBG0S2IEBVHU
94,49,,1.0,29.0,RUFOUS_KINGFISHER_1.jpg,SNOWY_OWL_5.jpg,1.0,,,,A3TBG0S2IEBVHU
95,50,,1.0,30.0,WHITE_CHEEKED_TURACO_5.jpg,NORTHERN_MOCKINGBIRD_4.jpg,1.0,,,,A3TBG0S2IEBVHU
96,51,,1.0,31.0,GYRFALCON_1.jpg,OSTRICH_1.jpg,1.0,,,,A3TBG0S2IEBVHU
97,52,right,1.0,32.0,right.jpg,,,right,0.6521,,A3TBG0S2IEBVHU
98,53,,1.0,33.0,KAGU_5.jpg,RED_BEARDED_BEE_EATER_3.jpg,1.0,,,,A3TBG0S2IEBVHU
99,54,,1.0,34.0,BROWN_NOODY_3.jpg,SPANGLED_COTINGA_4.jpg,2.0,,,,A3TBG0S2IEBVHU
100,55,,1.0,35.0,GOLDEN_CHEEKED_WARBLER_2.jpg,SPOONBILL_1.jpg,1.0,,,,A3TBG0S2IEBVHU
101,56,,1.0,36.0,IVORY_GULL_3.jpg,SNOWY_EGRET_4.jpg,3.0,,,,A3TBG0S2IEBVHU
102,57,,1.0,37.0,ASIAN_DOLLARD_BIRD_2.jpg,VIOLET_GREEN_SWALLOW_4.jpg,3.0,,,,A3TBG0S2IEBVHU
103,58,,1.0,38.0,ARARIPE_MANAKIN_4.jpg,BLACK_VULTURE_1.jpg,2.0,,,,A3TBG0S2IEBVHU
104,59,left,1.0,39.0,left.jpg,,,left,0.6514,,A3TBG0S2IEBVHU
105,60,,1.0,40.0,BREWERS_BLACKBIRD_3.jpg,GOLDEN_CHEEKED_WARBLER_3.jpg,2.0,,,,A3TBG0S2IEBVHU
106,61,,1.0,41.0,GREY_PLOVER_1.jpg,ECUADORIAN_HILLSTAR_3.jpg,3.0,,,,A3TBG0S2IEBVHU
107,62,,1.0,42.0,PARUS_MAJOR_1.jpg,PINK_ROBIN_3.jpg,3.0,,,,A3TBG0S2IEBVHU
108,63,,1.0,43.0,MAGPIE_GOOSE_5.jpg,HAMERKOP_1.jpg,2.0,,,,A3TBG0S2IEBVHU
109,64,,1.0,44.0,EUROPEAN_TURTLE_DOVE_3.jpg,TEAL_DUCK_2.jpg,1.0,,,,A3TBG0S2IEBVHU
110,65,,1.0,45.0,GOLDEN_CHLOROPHONIA_5.jpg,ROADRUNNER_2.jpg,1.0,,,,A3TBG0S2IEBVHU
111,66,,1.0,46.0,CERULEAN_WARBLER_1.jpg,AMERICAN_FLAMINGO_5.jpg,2.0,,,,A3TBG0S2IEBVHU
112,67,left,1.0,47.0,left.jpg,,,left,0.5581,,A3TBG0S2IEBVHU
113,68,,1.0,48.0,GRAY_KINGBIRD_5.jpg,BALD_EAGLE_2.jpg,1.0,,,,A3TBG0S2IEBVHU
114,69,,1.0,49.0,ALPINE_CHOUGH_4.jpg,BOBOLINK_3.jpg,3.0,,,,A3TBG0S2IEBVHU
115,70,,1.0,50.0,OVENBIRD_5.jpg,FAIRY_PENGUIN_1.jpg,2.0,,,,A3TBG0S2IEBVHU
116,71,,1.0,51.0,ECUADORIAN_HILLSTAR_5.jpg,BOBOLINK_5.jpg,2.0,,,,A3TBG0S2IEBVHU
117,72,,1.0,52.0,CRESTED_CARACARA_4.jpg,INDIAN_PITTA_2.jpg,2.0,,,,A3TBG0S2IEBVHU
118,73,,1.0,53.0,INLAND_DOTTEREL_4.jpg,CASSOWARY_2.jpg,1.0,,,,A3TBG0S2IEBVHU
119,74,,1.0,54.0,CRESTED_NUTHATCH_2.jpg,SCARLET_IBIS_3.jpg,1.0,,,,A3TBG0S2IEBVHU
120,75,,1.0,55.0,MYNA_1.jpg,OSTRICH_3.jpg,1.0,,,,A3TBG0S2IEBVHU
121,76,,1.0,56.0,IVORY_GULL_1.jpg,EASTERN_GOLDEN_WEAVER_5.jpg,2.0,,,,A3TBG0S2IEBVHU
122,77,,1.0,57.0,MALACHITE_KINGFISHER_2.jpg,INCA_TERN_2.jpg,2.0,,,,A3TBG0S2IEBVHU
123,78,,1.0,58.0,RUBY_THROATED_HUMMINGBIRD_1.jpg,FRIGATE_1.jpg,3.0,,,,A3TBG0S2IEBVHU
124,79,,1.0,59.0,OCELLATED_TURKEY_1.jpg,AMERICAN_PIPIT_1.jpg,2.0,,,,A3TBG0S2IEBVHU
125,80,,1.0,60.0,ASIAN_CRESTED_IBIS_4.jpg,OYSTER_CATCHER_2.jpg,2.0,,,,A3TBG0S2IEBVHU
126,81,,1.0,61.0,INDIGO_BUNTING_1.jpg,FRIGATE_4.jpg,1.0,,,,A3TBG0S2IEBVHU
127,82,,1.0,62.0,PINK_ROBIN_4.jpg,COMMON_IORA_4.jpg,3.0,,,,A3TBG0S2IEBVHU
128,83,,1.0,63.0,EASTERN_TOWEE_2.jpg,NORTHERN_BEARDLESS_TYRANNULET_5.jpg,3.0,,,,A3TBG0S2IEBVHU
129,84,,1.0,64.0,SCARLET_TANAGER_2.jpg,BORNEAN_LEAFBIRD_1.jpg,3.0,,,,A3TBG0S2IEBVHU
130,20,,1.0,0.0,STRIPPED_SWALLOW_1.jpg,GO_AWAY_BIRD_5.jpg,3.0,,,,A1BRJXBMTURQNT
131,21,,1.0,1.0,LESSER_ADJUTANT_4.jpg,ALTAMIRA_YELLOWTHROAT_5.jpg,1.0,,,,A1BRJXBMTURQNT
132,22,,1.0,2.0,MYNA_1.jpg,GREY_PLOVER_4.jpg,2.0,,,,A1BRJXBMTURQNT
133,23,,1.0,3.0,EUROPEAN_TURTLE_DOVE_3.jpg,MALABAR_HORNBILL_2.jpg,3.0,,,,A1BRJXBMTURQNT
134,24,,1.0,4.0,DOUBLE_BRESTED_CORMARANT_5.jpg,GILDED_FLICKER_2.jpg,1.0,,,,A1BRJXBMTURQNT
135,25,,1.0,5.0,PYGMY_KINGFISHER_5.jpg,GRANDALA_2.jpg,1.0,,,,A1BRJXBMTURQNT
136,26,,1.0,6.0,GREY_PLOVER_1.jpg,HYACINTH_MACAW_3.jpg,1.0,,,,A1BRJXBMTURQNT
137,27,,1.0,7.0,NORTHERN_JACANA_3.jpg,SCARLET_IBIS_4.jpg,3.0,,,,A1BRJXBMTURQNT
138,28,,1.0,8.0,ASIAN_DOLLARD_BIRD_2.jpg,VIOLET_GREEN_SWALLOW_4.jpg,3.0,,,,A1BRJXBMTURQNT
139,29,,1.0,9.0,LITTLE_AUK_5.jpg,ORANGE_BRESTED_BUNTING_3.jpg,2.0,,,,A1BRJXBMTURQNT
140,30,,1.0,10.0,HAWAIIAN_GOOSE_4.jpg,CUBAN_TODY_3.jpg,1.0,,,,A1BRJXBMTURQNT
141,31,right,1.0,11.0,right.jpg,,,right,0.595,,A1BRJXBMTURQNT
142,32,,1.0,12.0,PARUS_MAJOR_1.jpg,CALIFORNIA_GULL_2.jpg,2.0,,,,A1BRJXBMTURQNT
143,33,,1.0,13.0,EASTERN_TOWEE_2.jpg,NORTHERN_BEARDLESS_TYRANNULET_5.jpg,3.0,,,,A1BRJXBMTURQNT
144,34,,1.0,14.0,GYRFALCON_1.jpg,FAIRY_TERN_1.jpg,3.0,,,,A1BRJXBMTURQNT
145,35,,1.0,15.0,RUBY_THROATED_HUMMINGBIRD_1.jpg,FRIGATE_1.jpg,3.0,,,,A1BRJXBMTURQNT
146,36,,1.0,16.0,KAGU_5.jpg,DEMOISELLE_CRANE_1.jpg,3.0,,,,A1BRJXBMTURQNT
147,37,,1.0,17.0,RUBY_THROATED_HUMMINGBIRD_2.jpg,APAPANE_4.jpg,2.0,,,,A1BRJXBMTURQNT
148,38,,1.0,18.0,IVORY_GULL_3.jpg,SNOWY_EGRET_4.jpg,3.0,,,,A1BRJXBMTURQNT
149,39,,1.0,19.0,OCELLATED_TURKEY_1.jpg,AMERICAN_PIPIT_1.jpg,2.0,,,,A1BRJXBMTURQNT
150,40,,1.0,20.0,ARARIPE_MANAKIN_4.jpg,BLACK_VULTURE_1.jpg,2.0,,,,A1BRJXBMTURQNT
151,41,,1.0,21.0,FLAME_BOWERBIRD_3.jpg,INDIAN_BUSTARD_2.jpg,1.0,,,,A1BRJXBMTURQNT
152,42,,1.0,22.0,VERMILION_FLYCATHER_3.jpg,CALIFORNIA_GULL_1.jpg,2.0,,,,A1BRJXBMTURQNT
153,43,right,1.0,23.0,right.jpg,,,right,0.565,,A1BRJXBMTURQNT
154,44,,1.0,24.0,CRESTED_CARACARA_4.jpg,TOUCHAN_4.jpg,3.0,,,,A1BRJXBMTURQNT
155,45,,1.0,25.0,CHUKAR_PARTRIDGE_5.jpg,OSTRICH_5.jpg,1.0,,,,A1BRJXBMTURQNT
156,46,,1.0,26.0,INLAND_DOTTEREL_4.jpg,CASSOWARY_2.jpg,1.0,,,,A1BRJXBMTURQNT
157,47,,1.0,27.0,RUFOUS_KINGFISHER_1.jpg,SNOWY_OWL_5.jpg,1.0,,,,A1BRJXBMTURQNT
158,48,,1.0,28.0,CASPIAN_TERN_1.jpg,EUROPEAN_GOLDFINCH_4.jpg,2.0,,,,A1BRJXBMTURQNT
159,49,,1.0,29.0,LARK_BUNTING_2.jpg,KING_VULTURE_3.jpg,2.0,,,,A1BRJXBMTURQNT
160,50,left,1.0,30.0,left.jpg,,,left,0.482,,A1BRJXBMTURQNT
161,51,,1.0,31.0,IVORY_GULL_1.jpg,WILSONS_BIRD_OF_PARADISE_4.jpg,1.0,,,,A1BRJXBMTURQNT
162,52,,1.0,32.0,BALI_STARLING_1.jpg,CAPE_LONGCLAW_5.jpg,1.0,,,,A1BRJXBMTURQNT
163,53,,1.0,33.0,BROWN_NOODY_3.jpg,SPANGLED_COTINGA_4.jpg,2.0,,,,A1BRJXBMTURQNT
164,54,,1.0,34.0,GOLDEN_CHEEKED_WARBLER_2.jpg,WHITE_THROATED_BEE_EATER_1.jpg,3.0,,,,A1BRJXBMTURQNT
165,55,,1.0,35.0,PEACOCK_3.jpg,CHATTERING_LORY_2.jpg,3.0,,,,A1BRJXBMTURQNT
166,56,,1.0,36.0,KILLDEAR_2.jpg,AZURE_TIT_5.jpg,3.0,,,,A1BRJXBMTURQNT
167,57,,1.0,37.0,GRAY_KINGBIRD_5.jpg,BALD_EAGLE_2.jpg,1.0,,,,A1BRJXBMTURQNT
168,58,,1.0,38.0,CASSOWARY_1.jpg,AFRICAN_OYSTER_CATCHER_2.jpg,3.0,,,,A1BRJXBMTURQNT
169,59,,1.0,39.0,SHOEBILL_3.jpg,BALD_EAGLE_5.jpg,3.0,,,,A1BRJXBMTURQNT
170,60,,1.0,40.0,MALACHITE_KINGFISHER_2.jpg,INCA_TERN_2.jpg,2.0,,,,A1BRJXBMTURQNT
171,61,,1.0,41.0,SCARLET_TANAGER_2.jpg,BEARDED_BARBET_2.jpg,1.0,,,,A1BRJXBMTURQNT
172,62,,1.0,42.0,MAGPIE_GOOSE_5.jpg,OYSTER_CATCHER_3.jpg,3.0,,,,A1BRJXBMTURQNT
173,63,,1.0,43.0,WHITE_CHEEKED_TURACO_5.jpg,NORTHERN_MOCKINGBIRD_4.jpg,1.0,,,,A1BRJXBMTURQNT
174,64,left,1.0,44.0,left.jpg,,,left,0.519,,A1BRJXBMTURQNT
175,65,,1.0,45.0,ASIAN_CRESTED_IBIS_4.jpg,CANARY_2.jpg,1.0,,,,A1BRJXBMTURQNT
176,66,,1.0,46.0,INDIGO_BUNTING_1.jpg,DARWINS_FLYCATCHER_2.jpg,3.0,,,,A1BRJXBMTURQNT
177,67,,1.0,47.0,SPLENDID_WREN_1.jpg,DOUBLE_BRESTED_CORMARANT_1.jpg,2.0,,,,A1BRJXBMTURQNT
178,68,,1.0,48.0,GOLDEN_CHLOROPHONIA_5.jpg,VERMILION_FLYCATHER_5.jpg,3.0,,,,A1BRJXBMTURQNT
179,69,,1.0,49.0,RED_HEADED_WOODPECKER_5.jpg,ASHY_STORM_PETREL_2.jpg,1.0,,,,A1BRJXBMTURQNT
180,70,,1.0,50.0,AFRICAN_PIED_HORNBILL_5.jpg,ALEXANDRINE_PARAKEET_1.jpg,2.0,,,,A1BRJXBMTURQNT
181,71,,1.0,51.0,BREWERS_BLACKBIRD_3.jpg,GUINEA_TURACO_3.jpg,1.0,,,,A1BRJXBMTURQNT
182,72,left,1.0,52.0,left.jpg,,,left,0.515,,A1BRJXBMTURQNT
183,73,,1.0,53.0,PINK_ROBIN_4.jpg,SPOONBILL_3.jpg,1.0,,,,A1BRJXBMTURQNT
184,74,,1.0,54.0,TASMANIAN_HEN_5.jpg,AFRICAN_EMERALD_CUCKOO_5.jpg,2.0,,,,A1BRJXBMTURQNT
185,75,,1.0,55.0,BROWN_THRASHER_3.jpg,OYSTER_CATCHER_4.jpg,2.0,,,,A1BRJXBMTURQNT
186,76,,1.0,56.0,ALPINE_CHOUGH_4.jpg,EUROPEAN_GOLDFINCH_3.jpg,2.0,,,,A1BRJXBMTURQNT
187,77,,1.0,57.0,CRESTED_NUTHATCH_2.jpg,AFRICAN_FIREFINCH_1.jpg,2.0,,,,A1BRJXBMTURQNT
188,78,,1.0,58.0,OVENBIRD_5.jpg,MYNA_4.jpg,1.0,,,,A1BRJXBMTURQNT
189,79,,1.0,59.0,RUBY_THROATED_HUMMINGBIRD_3.jpg,NORTHERN_SHOVELER_1.jpg,3.0,,,,A1BRJXBMTURQNT
190,80,,1.0,60.0,ECUADORIAN_HILLSTAR_5.jpg,BOBOLINK_5.jpg,2.0,,,,A1BRJXBMTURQNT
191,81,,1.0,61.0,LESSER_ADJUTANT_5.jpg,RED_HEADED_WOODPECKER_1.jpg,3.0,,,,A1BRJXBMTURQNT
192,82,,1.0,62.0,AMERICAN_PIPIT_5.jpg,EMU_2.jpg,1.0,,,,A1BRJXBMTURQNT
193,83,,1.0,63.0,INCA_TERN_4.jpg,SMITHS_LONGSPUR_5.jpg,2.0,,,,A1BRJXBMTURQNT
194,84,,1.0,64.0,CERULEAN_WARBLER_1.jpg,AMERICAN_FLAMINGO_5.jpg,2.0,,,,A1BRJXBMTURQNT
195,20,,1.0,0.0,RED_HEADED_WOODPECKER_5.jpg,CRIMSON_CHAT_3.jpg,2.0,,,,A50K26F2IS94U
196,21,,1.0,1.0,SCARLET_TANAGER_2.jpg,BORNEAN_LEAFBIRD_1.jpg,3.0,,,,A50K26F2IS94U
197,22,,1.0,2.0,KAGU_5.jpg,RED_BEARDED_BEE_EATER_3.jpg,1.0,,,,A50K26F2IS94U
198,23,,1.0,3.0,CHUKAR_PARTRIDGE_5.jpg,OSTRICH_5.jpg,1.0,,,,A50K26F2IS94U
199,24,,1.0,4.0,ECUADORIAN_HILLSTAR_5.jpg,SCARLET_IBIS_2.jpg,1.0,,,,A50K26F2IS94U
200,25,,1.0,5.0,RUFOUS_KINGFISHER_1.jpg,MAGPIE_GOOSE_3.jpg,2.0,,,,A50K26F2IS94U
201,26,,1.0,6.0,INDIGO_BUNTING_1.jpg,FRIGATE_4.jpg,1.0,,,,A50K26F2IS94U
202,27,,1.0,7.0,GOLDEN_CHEEKED_WARBLER_2.jpg,WHITE_THROATED_BEE_EATER_1.jpg,3.0,,,,A50K26F2IS94U
203,28,,1.0,8.0,LARK_BUNTING_2.jpg,KING_VULTURE_3.jpg,2.0,,,,A50K26F2IS94U
204,29,,1.0,9.0,PARUS_MAJOR_1.jpg,PINK_ROBIN_3.jpg,3.0,,,,A50K26F2IS94U
205,30,,1.0,10.0,GOLDEN_CHLOROPHONIA_5.jpg,VERMILION_FLYCATHER_5.jpg,3.0,,,,A50K26F2IS94U
206,31,,1.0,11.0,EASTERN_TOWEE_2.jpg,NORTHERN_BEARDLESS_TYRANNULET_5.jpg,3.0,,,,A50K26F2IS94U
207,32,,1.0,12.0,NORTHERN_JACANA_3.jpg,AMERICAN_GOLDFINCH_4.jpg,1.0,,,,A50K26F2IS94U
208,33,,1.0,13.0,MAGPIE_GOOSE_5.jpg,HAMERKOP_1.jpg,2.0,,,,A50K26F2IS94U
209,34,left,1.0,14.0,left.jpg,,,left,0.48,,A50K26F2IS94U
210,35,,1.0,15.0,WHITE_CHEEKED_TURACO_5.jpg,NORTHERN_MOCKINGBIRD_4.jpg,1.0,,,,A50K26F2IS94U
211,36,left,1.0,16.0,left.jpg,,,left,0.4801,,A50K26F2IS94U
212,37,,1.0,17.0,MALACHITE_KINGFISHER_2.jpg,AMERICAN_FLAMINGO_1.jpg,1.0,,,,A50K26F2IS94U
213,38,,1.0,18.0,VERMILION_FLYCATHER_3.jpg,CALIFORNIA_GULL_1.jpg,2.0,,,,A50K26F2IS94U
214,39,,1.0,19.0,OCELLATED_TURKEY_1.jpg,CHIPPING_SPARROW_1.jpg,1.0,,,,A50K26F2IS94U
215,40,,1.0,20.0,CERULEAN_WARBLER_1.jpg,BANANAQUIT_1.jpg,3.0,,,,A50K26F2IS94U
216,41,,1.0,21.0,KILLDEAR_2.jpg,CAATINGA_CACHOLOTE_4.jpg,2.0,,,,A50K26F2IS94U
217,42,,1.0,22.0,LESSER_ADJUTANT_5.jpg,GAMBELS_QUAIL_1.jpg,2.0,,,,A50K26F2IS94U
218,43,,1.0,23.0,IVORY_GULL_3.jpg,SNOWY_EGRET_4.jpg,3.0,,,,A50K26F2IS94U
219,44,,1.0,24.0,DOUBLE_BRESTED_CORMARANT_5.jpg,CHINESE_POND_HERON_2.jpg,3.0,,,,A50K26F2IS94U
220,45,,1.0,25.0,BALI_STARLING_1.jpg,CAPE_LONGCLAW_5.jpg,1.0,,,,A50K26F2IS94U
221,46,,1.0,26.0,LESSER_ADJUTANT_4.jpg,RAINBOW_LORIKEET_5.jpg,2.0,,,,A50K26F2IS94U
222,47,,1.0,27.0,CASPIAN_TERN_1.jpg,EUROPEAN_GOLDFINCH_4.jpg,2.0,,,,A50K26F2IS94U
223,48,,1.0,28.0,ASIAN_DOLLARD_BIRD_2.jpg,LOGGERHEAD_SHRIKE_4.jpg,2.0,,,,A50K26F2IS94U
224,49,,1.0,29.0,CRESTED_NUTHATCH_2.jpg,CANARY_1.jpg,3.0,,,,A50K26F2IS94U
225,50,,1.0,30.0,AFRICAN_PIED_HORNBILL_5.jpg,CAPUCHINBIRD_2.jpg,3.0,,,,A50K26F2IS94U
226,51,,1.0,31.0,SPLENDID_WREN_1.jpg,POMARINE_JAEGER_5.jpg,1.0,,,,A50K26F2IS94U
227,52,left,1.0,32.0,left.jpg,,,left,0.4499,,A50K26F2IS94U
228,53,,1.0,33.0,RUBY_THROATED_HUMMINGBIRD_3.jpg,MYNA_5.jpg,2.0,,,,A50K26F2IS94U
229,54,,1.0,34.0,INLAND_DOTTEREL_4.jpg,CRESTED_KINGFISHER_1.jpg,3.0,,,,A50K26F2IS94U
230,55,,1.0,35.0,ALPINE_CHOUGH_4.jpg,BOBOLINK_3.jpg,3.0,,,,A50K26F2IS94U
231,56,,1.0,36.0,BROWN_NOODY_3.jpg,PEACOCK_2.jpg,1.0,,,,A50K26F2IS94U
232,57,,1.0,37.0,MYNA_1.jpg,PARADISE_TANAGER_3.jpg,3.0,,,,A50K26F2IS94U
233,58,,1.0,38.0,GYRFALCON_1.jpg,FAIRY_TERN_1.jpg,3.0,,,,A50K26F2IS94U
234,59,right,1.0,39.0,right.jpg,,,right,0.4976,,A50K26F2IS94U
235,60,,1.0,40.0,STRIPPED_SWALLOW_1.jpg,MAGPIE_GOOSE_4.jpg,2.0,,,,A50K26F2IS94U
236,61,,1.0,41.0,HAWAIIAN_GOOSE_4.jpg,CUBAN_TODY_3.jpg,1.0,,,,A50K26F2IS94U
237,62,,1.0,42.0,ASIAN_CRESTED_IBIS_4.jpg,OYSTER_CATCHER_2.jpg,2.0,,,,A50K26F2IS94U
238,63,,1.0,43.0,GRAY_KINGBIRD_5.jpg,AFRICAN_FIREFINCH_3.jpg,3.0,,,,A50K26F2IS94U
239,64,,1.0,44.0,PYGMY_KINGFISHER_5.jpg,DOUBLE_EYED_FIG_PARROT_4.jpg,3.0,,,,A50K26F2IS94U
240,65,,1.0,45.0,BREWERS_BLACKBIRD_3.jpg,GUINEA_TURACO_3.jpg,1.0,,,,A50K26F2IS94U
241,66,,1.0,46.0,EUROPEAN_TURTLE_DOVE_3.jpg,PAINTED_BUNTING_3.jpg,2.0,,,,A50K26F2IS94U
242,67,,1.0,47.0,LITTLE_AUK_5.jpg,ORANGE_BRESTED_BUNTING_3.jpg,2.0,,,,A50K26F2IS94U
243,68,,1.0,48.0,BROWN_THRASHER_3.jpg,DOUBLE_EYED_FIG_PARROT_3.jpg,1.0,,,,A50K26F2IS94U
244,69,,1.0,49.0,GREY_PLOVER_1.jpg,GOULDIAN_FINCH_4.jpg,2.0,,,,A50K26F2IS94U
245,70,,1.0,50.0,IVORY_GULL_1.jpg,FAIRY_TERN_4.jpg,3.0,,,,A50K26F2IS94U
246,71,left,1.0,51.0,left.jpg,,,left,0.4917,,A50K26F2IS94U
247,72,,1.0,52.0,FLAME_BOWERBIRD_3.jpg,INDIAN_BUSTARD_2.jpg,1.0,,,,A50K26F2IS94U
248,73,,1.0,53.0,CASSOWARY_1.jpg,SCARLET_MACAW_1.jpg,2.0,,,,A50K26F2IS94U
249,74,,1.0,54.0,RUBY_THROATED_HUMMINGBIRD_2.jpg,DUSKY_ROBIN_5.jpg,3.0,,,,A50K26F2IS94U
250,75,,1.0,55.0,RUBY_THROATED_HUMMINGBIRD_1.jpg,BANANAQUIT_2.jpg,1.0,,,,A50K26F2IS94U
251,76,,1.0,56.0,CRESTED_CARACARA_4.jpg,FAIRY_PENGUIN_5.jpg,1.0,,,,A50K26F2IS94U
252,77,,1.0,57.0,OVENBIRD_5.jpg,FAIRY_PENGUIN_1.jpg,2.0,,,,A50K26F2IS94U
253,78,,1.0,58.0,PINK_ROBIN_4.jpg,ALBATROSS_4.jpg,2.0,,,,A50K26F2IS94U
254,79,,1.0,59.0,ARARIPE_MANAKIN_4.jpg,BORNEAN_LEAFBIRD_3.jpg,3.0,,,,A50K26F2IS94U
255,80,,1.0,60.0,PEACOCK_3.jpg,ANIANIAU_2.jpg,1.0,,,,A50K26F2IS94U
256,81,,1.0,61.0,TASMANIAN_HEN_5.jpg,GREEN_BROADBILL_1.jpg,1.0,,,,A50K26F2IS94U
257,82,,1.0,62.0,SHOEBILL_3.jpg,BALD_EAGLE_5.jpg,3.0,,,,A50K26F2IS94U
258,83,,1.0,63.0,AMERICAN_PIPIT_5.jpg,EMU_2.jpg,1.0,,,,A50K26F2IS94U
259,84,,1.0,64.0,INCA_TERN_4.jpg,SMITHS_LONGSPUR_5.jpg,2.0,,,,A50K26F2IS94U
260,20,,1.0,0.0,MAGPIE_GOOSE_5.jpg,HAMERKOP_1.jpg,2.0,,,,A33YJIL8ZY6XSB
261,21,,1.0,1.0,ALPINE_CHOUGH_4.jpg,BOBOLINK_3.jpg,3.0,,,,A33YJIL8ZY6XSB
262,22,,1.0,2.0,EUROPEAN_TURTLE_DOVE_3.jpg,TEAL_DUCK_2.jpg,1.0,,,,A33YJIL8ZY6XSB
263,23,,1.0,3.0,VERMILION_FLYCATHER_3.jpg,CALIFORNIA_GULL_1.jpg,2.0,,,,A33YJIL8ZY6XSB
264,24,,1.0,4.0,STRIPPED_SWALLOW_1.jpg,DOUBLE_BRESTED_CORMARANT_4.jpg,1.0,,,,A33YJIL8ZY6XSB
265,25,,1.0,5.0,IVORY_GULL_3.jpg,SNOWY_EGRET_4.jpg,3.0,,,,A33YJIL8ZY6XSB
266,26,left,1.0,6.0,left.jpg,,,left,1.627799999,,A33YJIL8ZY6XSB
267,27,,1.0,7.0,ECUADORIAN_HILLSTAR_5.jpg,CRIMSON_SUNBIRD_5.jpg,3.0,,,,A33YJIL8ZY6XSB
268,28,,1.0,8.0,MYNA_1.jpg,GREY_PLOVER_4.jpg,2.0,,,,A33YJIL8ZY6XSB
269,29,,1.0,9.0,LITTLE_AUK_5.jpg,ORANGE_BRESTED_BUNTING_3.jpg,2.0,,,,A33YJIL8ZY6XSB
270,30,,1.0,10.0,BROWN_NOODY_3.jpg,PEACOCK_2.jpg,1.0,,,,A33YJIL8ZY6XSB
271,31,,1.0,11.0,NORTHERN_JACANA_3.jpg,SCARLET_IBIS_4.jpg,3.0,,,,A33YJIL8ZY6XSB
272,32,,1.0,12.0,HAWAIIAN_GOOSE_4.jpg,HIMALAYAN_MONAL_2.jpg,2.0,,,,A33YJIL8ZY6XSB
273,33,,1.0,13.0,GOLDEN_CHEEKED_WARBLER_2.jpg,SPOONBILL_1.jpg,1.0,,,,A33YJIL8ZY6XSB
274,34,,1.0,14.0,EASTERN_TOWEE_2.jpg,NORTHERN_BEARDLESS_TYRANNULET_5.jpg,3.0,,,,A33YJIL8ZY6XSB
275,35,,1.0,15.0,RUBY_THROATED_HUMMINGBIRD_3.jpg,MALAGASY_WHITE_EYE_2.jpg,1.0,,,,A33YJIL8ZY6XSB
276,36,,1.0,16.0,FLAME_BOWERBIRD_3.jpg,QUETZAL_3.jpg,3.0,,,,A33YJIL8ZY6XSB
277,37,,1.0,17.0,PEACOCK_3.jpg,STRAWBERRY_FINCH_4.jpg,2.0,,,,A33YJIL8ZY6XSB
278,38,,1.0,18.0,KILLDEAR_2.jpg,CAATINGA_CACHOLOTE_4.jpg,2.0,,,,A33YJIL8ZY6XSB
279,39,,1.0,19.0,WHITE_CHEEKED_TURACO_5.jpg,NORTHERN_MOCKINGBIRD_4.jpg,1.0,,,,A33YJIL8ZY6XSB
280,40,,1.0,20.0,INDIGO_BUNTING_1.jpg,FRIGATE_4.jpg,1.0,,,,A33YJIL8ZY6XSB
281,41,,1.0,21.0,TASMANIAN_HEN_5.jpg,COPPERY_TAILED_COUCAL_1.jpg,3.0,,,,A33YJIL8ZY6XSB
282,42,,1.0,22.0,RUBY_THROATED_HUMMINGBIRD_1.jpg,BANANAQUIT_2.jpg,1.0,,,,A33YJIL8ZY6XSB
283,43,right,1.0,23.0,right.jpg,,,right,2.475599998,,A33YJIL8ZY6XSB
284,44,,1.0,24.0,ASIAN_CRESTED_IBIS_4.jpg,IVORY_GULL_2.jpg,3.0,,,,A33YJIL8ZY6XSB
285,45,,1.0,25.0,PINK_ROBIN_4.jpg,COMMON_IORA_4.jpg,3.0,,,,A33YJIL8ZY6XSB
286,46,right,1.0,26.0,right.jpg,,,right,2.2569,,A33YJIL8ZY6XSB
287,47,,1.0,27.0,BROWN_THRASHER_3.jpg,OYSTER_CATCHER_4.jpg,2.0,,,,A33YJIL8ZY6XSB
288,48,,1.0,28.0,IVORY_GULL_1.jpg,WILSONS_BIRD_OF_PARADISE_4.jpg,1.0,,,,A33YJIL8ZY6XSB
289,49,,1.0,29.0,SHOEBILL_3.jpg,GILDED_FLICKER_5.jpg,2.0,,,,A33YJIL8ZY6XSB
290,50,,1.0,30.0,GREY_PLOVER_1.jpg,HYACINTH_MACAW_3.jpg,1.0,,,,A33YJIL8ZY6XSB
291,51,,1.0,31.0,SPLENDID_WREN_1.jpg,DOUBLE_BRESTED_CORMARANT_1.jpg,2.0,,,,A33YJIL8ZY6XSB
292,52,,1.0,32.0,AMERICAN_PIPIT_5.jpg,EMU_2.jpg,1.0,,,,A33YJIL8ZY6XSB
293,53,,1.0,33.0,SCARLET_TANAGER_2.jpg,BEARDED_BARBET_2.jpg,1.0,,,,A33YJIL8ZY6XSB
294,54,,1.0,34.0,AFRICAN_PIED_HORNBILL_5.jpg,CAPUCHINBIRD_2.jpg,3.0,,,,A33YJIL8ZY6XSB
295,55,,1.0,35.0,CRESTED_CARACARA_4.jpg,INDIAN_PITTA_2.jpg,2.0,,,,A33YJIL8ZY6XSB
296,56,left,1.0,36.0,left.jpg,,,left,2.420700001,,A33YJIL8ZY6XSB
297,57,,1.0,37.0,MALACHITE_KINGFISHER_2.jpg,GREEN_BROADBILL_5.jpg,3.0,,,,A33YJIL8ZY6XSB
298,58,,1.0,38.0,CASPIAN_TERN_1.jpg,GREAT_GRAY_OWL_4.jpg,1.0,,,,A33YJIL8ZY6XSB
299,59,,1.0,39.0,INLAND_DOTTEREL_4.jpg,CASSOWARY_2.jpg,1.0,,,,A33YJIL8ZY6XSB
300,60,,1.0,40.0,BREWERS_BLACKBIRD_3.jpg,GUINEA_TURACO_3.jpg,1.0,,,,A33YJIL8ZY6XSB
301,61,,1.0,41.0,LESSER_ADJUTANT_4.jpg,FAIRY_TERN_3.jpg,3.0,,,,A33YJIL8ZY6XSB
302,62,,1.0,42.0,ASIAN_DOLLARD_BIRD_2.jpg,ALBATROSS_2.jpg,1.0,,,,A33YJIL8ZY6XSB
303,63,,1.0,43.0,PYGMY_KINGFISHER_5.jpg,MASKED_BOOBY_5.jpg,2.0,,,,A33YJIL8ZY6XSB
304,64,,1.0,44.0,CRESTED_NUTHATCH_2.jpg,SCARLET_IBIS_3.jpg,1.0,,,,A33YJIL8ZY6XSB
305,65,,1.0,45.0,RUBY_THROATED_HUMMINGBIRD_2.jpg,GOLDEN_CHLOROPHONIA_2.jpg,1.0,,,,A33YJIL8ZY6XSB
306,66,,1.0,46.0,LESSER_ADJUTANT_5.jpg,GREEN_BROADBILL_4.jpg,1.0,,,,A33YJIL8ZY6XSB
307,67,,1.0,47.0,CASSOWARY_1.jpg,SCARLET_MACAW_1.jpg,2.0,,,,A33YJIL8ZY6XSB
308,68,,1.0,48.0,KAGU_5.jpg,ASHY_STORM_PETREL_1.jpg,2.0,,,,A33YJIL8ZY6XSB
309,69,left,1.0,49.0,left.jpg,,,left,2.2629,,A33YJIL8ZY6XSB
310,70,,1.0,50.0,GOLDEN_CHLOROPHONIA_5.jpg,COMMON_HOUSE_MARTIN_4.jpg,2.0,,,,A33YJIL8ZY6XSB
311,71,,1.0,51.0,OCELLATED_TURKEY_1.jpg,AMERICAN_PIPIT_1.jpg,2.0,,,,A33YJIL8ZY6XSB
312,72,,1.0,52.0,DOUBLE_BRESTED_CORMARANT_5.jpg,CHINESE_POND_HERON_2.jpg,3.0,,,,A33YJIL8ZY6XSB
313,73,,1.0,53.0,BALI_STARLING_1.jpg,PURPLE_FINCH_2.jpg,2.0,,,,A33YJIL8ZY6XSB
314,74,,1.0,54.0,CERULEAN_WARBLER_1.jpg,AMERICAN_FLAMINGO_2.jpg,1.0,,,,A33YJIL8ZY6XSB
315,75,,1.0,55.0,ARARIPE_MANAKIN_4.jpg,BORNEAN_LEAFBIRD_3.jpg,3.0,,,,A33YJIL8ZY6XSB
316,76,,1.0,56.0,INCA_TERN_4.jpg,BORNEAN_BRISTLEHEAD_5.jpg,3.0,,,,A33YJIL8ZY6XSB
317,77,,1.0,57.0,RED_HEADED_WOODPECKER_5.jpg,COLLARED_ARACARI_1.jpg,3.0,,,,A33YJIL8ZY6XSB
318,78,,1.0,58.0,GYRFALCON_1.jpg,FAIRY_TERN_1.jpg,3.0,,,,A33YJIL8ZY6XSB
319,79,,1.0,59.0,LARK_BUNTING_2.jpg,KING_VULTURE_3.jpg,2.0,,,,A33YJIL8ZY6XSB
320,80,,1.0,60.0,PARUS_MAJOR_1.jpg,PINK_ROBIN_3.jpg,3.0,,,,A33YJIL8ZY6XSB
321,81,,1.0,61.0,OVENBIRD_5.jpg,SHORT_BILLED_DOWITCHER_5.jpg,3.0,,,,A33YJIL8ZY6XSB
322,82,,1.0,62.0,GRAY_KINGBIRD_5.jpg,AFRICAN_FIREFINCH_3.jpg,3.0,,,,A33YJIL8ZY6XSB
323,83,,1.0,63.0,CHUKAR_PARTRIDGE_5.jpg,RAZORBILL_1.jpg,2.0,,,,A33YJIL8ZY6XSB
324,84,,1.0,64.0,RUFOUS_KINGFISHER_1.jpg,MAGPIE_GOOSE_3.jpg,2.0,,,,A33YJIL8ZY6XSB
325,20,,1.0,0.0,STRIPPED_SWALLOW_1.jpg,MAGPIE_GOOSE_4.jpg,2.0,,,,A306SRE7WZDAZS
326,21,,1.0,1.0,BALI_STARLING_1.jpg,IBERIAN_MAGPIE_1.jpg,3.0,,,,A306SRE7WZDAZS
327,22,,1.0,2.0,RUBY_THROATED_HUMMINGBIRD_3.jpg,MYNA_5.jpg,2.0,,,,A306SRE7WZDAZS
328,23,,1.0,3.0,LARK_BUNTING_2.jpg,PEACOCK_1.jpg,1.0,,,,A306SRE7WZDAZS
329,24,,1.0,4.0,HAWAIIAN_GOOSE_4.jpg,HIMALAYAN_MONAL_2.jpg,2.0,,,,A306SRE7WZDAZS
330,25,,1.0,5.0,GOLDEN_CHLOROPHONIA_5.jpg,COMMON_HOUSE_MARTIN_4.jpg,2.0,,,,A306SRE7WZDAZS
331,26,,1.0,6.0,LESSER_ADJUTANT_5.jpg,GREEN_BROADBILL_4.jpg,1.0,,,,A306SRE7WZDAZS
332,27,,1.0,7.0,PEACOCK_3.jpg,CHATTERING_LORY_2.jpg,3.0,,,,A306SRE7WZDAZS
333,28,,1.0,8.0,OCELLATED_TURKEY_1.jpg,CHIPPING_SPARROW_1.jpg,1.0,,,,A306SRE7WZDAZS
334,29,,1.0,9.0,CERULEAN_WARBLER_1.jpg,AMERICAN_FLAMINGO_2.jpg,1.0,,,,A306SRE7WZDAZS
335,30,,1.0,10.0,SCARLET_TANAGER_2.jpg,BORNEAN_LEAFBIRD_1.jpg,3.0,,,,A306SRE7WZDAZS
336,31,right,1.0,11.0,right.jpg,,,right,1.6411,,A306SRE7WZDAZS
337,32,,1.0,12.0,BREWERS_BLACKBIRD_3.jpg,GOLDEN_CHEEKED_WARBLER_3.jpg,2.0,,,,A306SRE7WZDAZS
338,33,,1.0,13.0,GOLDEN_CHEEKED_WARBLER_2.jpg,WHITE_THROATED_BEE_EATER_1.jpg,3.0,,,,A306SRE7WZDAZS
339,34,,1.0,14.0,MALACHITE_KINGFISHER_2.jpg,INCA_TERN_2.jpg,2.0,,,,A306SRE7WZDAZS
340,35,,1.0,15.0,GREY_PLOVER_1.jpg,HYACINTH_MACAW_3.jpg,1.0,,,,A306SRE7WZDAZS
341,36,,1.0,16.0,CASPIAN_TERN_1.jpg,EUROPEAN_GOLDFINCH_4.jpg,2.0,,,,A306SRE7WZDAZS
342,37,,1.0,17.0,MYNA_1.jpg,GREY_PLOVER_4.jpg,2.0,,,,A306SRE7WZDAZS
343,38,,1.0,18.0,OVENBIRD_5.jpg,FAIRY_PENGUIN_1.jpg,2.0,,,,A306SRE7WZDAZS
344,39,,1.0,19.0,INCA_TERN_4.jpg,SMITHS_LONGSPUR_5.jpg,2.0,,,,A306SRE7WZDAZS
345,40,,1.0,20.0,PYGMY_KINGFISHER_5.jpg,MASKED_BOOBY_5.jpg,2.0,,,,A306SRE7WZDAZS
346,41,,1.0,21.0,BROWN_NOODY_3.jpg,PEACOCK_2.jpg,1.0,,,,A306SRE7WZDAZS
347,42,,1.0,22.0,ASIAN_CRESTED_IBIS_4.jpg,CANARY_2.jpg,1.0,,,,A306SRE7WZDAZS
348,43,,1.0,23.0,ASIAN_DOLLARD_BIRD_2.jpg,VIOLET_GREEN_SWALLOW_4.jpg,3.0,,,,A306SRE7WZDAZS
349,44,left,1.0,24.0,left.jpg,,,left,1.7412,,A306SRE7WZDAZS
350,45,,1.0,25.0,RUFOUS_KINGFISHER_1.jpg,SNOWY_OWL_5.jpg,1.0,,,,A306SRE7WZDAZS
351,46,,1.0,26.0,AMERICAN_PIPIT_5.jpg,EMU_2.jpg,1.0,,,,A306SRE7WZDAZS
352,47,,1.0,27.0,RUBY_THROATED_HUMMINGBIRD_2.jpg,DUSKY_ROBIN_5.jpg,3.0,,,,A306SRE7WZDAZS
353,48,,1.0,28.0,GYRFALCON_1.jpg,OSTRICH_1.jpg,1.0,,,,A306SRE7WZDAZS
354,49,,1.0,29.0,INLAND_DOTTEREL_4.jpg,CASSOWARY_2.jpg,1.0,,,,A306SRE7WZDAZS
355,50,,1.0,30.0,BROWN_THRASHER_3.jpg,BLACK_BAZA_4.jpg,3.0,,,,A306SRE7WZDAZS
356,51,,1.0,31.0,MAGPIE_GOOSE_5.jpg,OYSTER_CATCHER_3.jpg,3.0,,,,A306SRE7WZDAZS
357,52,,1.0,32.0,VERMILION_FLYCATHER_3.jpg,RED_BEARDED_BEE_EATER_1.jpg,3.0,,,,A306SRE7WZDAZS
358,53,right,1.0,33.0,right.jpg,,,right,1.8087,,A306SRE7WZDAZS
359,54,,1.0,34.0,ARARIPE_MANAKIN_4.jpg,KIWI_3.jpg,1.0,,,,A306SRE7WZDAZS
360,55,,1.0,35.0,PINK_ROBIN_4.jpg,SPOONBILL_3.jpg,1.0,,,,A306SRE7WZDAZS
361,56,,1.0,36.0,ALPINE_CHOUGH_4.jpg,BOBOLINK_3.jpg,3.0,,,,A306SRE7WZDAZS
362,57,,1.0,37.0,NORTHERN_JACANA_3.jpg,CRAB_PLOVER_3.jpg,2.0,,,,A306SRE7WZDAZS
363,58,,1.0,38.0,KAGU_5.jpg,RED_BEARDED_BEE_EATER_3.jpg,1.0,,,,A306SRE7WZDAZS
364,59,,1.0,39.0,IVORY_GULL_3.jpg,INDIGO_FLYCATCHER_2.jpg,1.0,,,,A306SRE7WZDAZS
365,60,,1.0,40.0,IVORY_GULL_1.jpg,EASTERN_GOLDEN_WEAVER_5.jpg,2.0,,,,A306SRE7WZDAZS
366,61,,1.0,41.0,RUBY_THROATED_HUMMINGBIRD_1.jpg,FRIGATE_1.jpg,3.0,,,,A306SRE7WZDAZS
367,62,,1.0,42.0,INDIGO_BUNTING_1.jpg,NORTHERN_GANNET_1.jpg,2.0,,,,A306SRE7WZDAZS
368,63,left,1.0,43.0,left.jpg,,,left,1.8154,,A306SRE7WZDAZS
369,64,,1.0,44.0,SPLENDID_WREN_1.jpg,CUBAN_TODY_4.jpg,3.0,,,,A306SRE7WZDAZS
370,65,,1.0,45.0,AFRICAN_PIED_HORNBILL_5.jpg,ALEXANDRINE_PARAKEET_1.jpg,2.0,,,,A306SRE7WZDAZS
371,66,,1.0,46.0,KILLDEAR_2.jpg,AZURE_TIT_5.jpg,3.0,,,,A306SRE7WZDAZS
372,67,,1.0,47.0,LITTLE_AUK_5.jpg,BEARDED_BELLBIRD_1.jpg,3.0,,,,A306SRE7WZDAZS
373,68,,1.0,48.0,CHUKAR_PARTRIDGE_5.jpg,RAZORBILL_1.jpg,2.0,,,,A306SRE7WZDAZS
374,69,,1.0,49.0,ECUADORIAN_HILLSTAR_5.jpg,SCARLET_IBIS_2.jpg,1.0,,,,A306SRE7WZDAZS
375,70,,1.0,50.0,CRESTED_NUTHATCH_2.jpg,SCARLET_IBIS_3.jpg,1.0,,,,A306SRE7WZDAZS
376,71,,1.0,51.0,DOUBLE_BRESTED_CORMARANT_5.jpg,GILDED_FLICKER_2.jpg,1.0,,,,A306SRE7WZDAZS
377,72,,1.0,52.0,TASMANIAN_HEN_5.jpg,COPPERY_TAILED_COUCAL_1.jpg,3.0,,,,A306SRE7WZDAZS
378,73,,1.0,53.0,RED_HEADED_WOODPECKER_5.jpg,ASHY_STORM_PETREL_2.jpg,1.0,,,,A306SRE7WZDAZS
379,74,right,1.0,54.0,right.jpg,,,right,1.8369,,A306SRE7WZDAZS
380,75,,1.0,55.0,LESSER_ADJUTANT_4.jpg,FAIRY_TERN_3.jpg,3.0,,,,A306SRE7WZDAZS
381,76,,1.0,56.0,EUROPEAN_TURTLE_DOVE_3.jpg,MALABAR_HORNBILL_2.jpg,3.0,,,,A306SRE7WZDAZS
382,77,,1.0,57.0,PARUS_MAJOR_1.jpg,PINK_ROBIN_3.jpg,3.0,,,,A306SRE7WZDAZS
383,78,,1.0,58.0,CRESTED_CARACARA_4.jpg,FAIRY_PENGUIN_5.jpg,1.0,,,,A306SRE7WZDAZS
384,79,,1.0,59.0,FLAME_BOWERBIRD_3.jpg,QUETZAL_3.jpg,3.0,,,,A306SRE7WZDAZS
385,80,,1.0,60.0,CASSOWARY_1.jpg,SCARLET_MACAW_1.jpg,2.0,,,,A306SRE7WZDAZS
386,81,,1.0,61.0,SHOEBILL_3.jpg,BALD_EAGLE_5.jpg,3.0,,,,A306SRE7WZDAZS
387,82,,1.0,62.0,WHITE_CHEEKED_TURACO_5.jpg,GREAT_POTOO_3.jpg,2.0,,,,A306SRE7WZDAZS
388,83,,1.0,63.0,EASTERN_TOWEE_2.jpg,GOLDEN_CHLOROPHONIA_1.jpg,2.0,,,,A306SRE7WZDAZS
389,84,,1.0,64.0,GRAY_KINGBIRD_5.jpg,COCK_OF_THE__ROCK_4.jpg,2.0,,,,A306SRE7WZDAZS
390,20,,1.0,0.0,GREY_PLOVER_1.jpg,GOULDIAN_FINCH_4.jpg,2.0,,,,A15UAR6NM0QVQN
391,21,,1.0,1.0,GRAY_KINGBIRD_5.jpg,COCK_OF_THE__ROCK_4.jpg,2.0,,,,A15UAR6NM0QVQN
392,22,,1.0,2.0,RUFOUS_KINGFISHER_1.jpg,HORNED_SUNGEM_4.jpg,3.0,,,,A15UAR6NM0QVQN
393,23,,1.0,3.0,KILLDEAR_2.jpg,AZURE_TIT_5.jpg,3.0,,,,A15UAR6NM0QVQN
394,24,,1.0,4.0,BROWN_NOODY_3.jpg,PEACOCK_2.jpg,1.0,,,,A15UAR6NM0QVQN
395,25,,1.0,5.0,RUBY_THROATED_HUMMINGBIRD_2.jpg,GOLDEN_CHLOROPHONIA_2.jpg,1.0,,,,A15UAR6NM0QVQN
396,26,,1.0,6.0,AFRICAN_PIED_HORNBILL_5.jpg,ALEXANDRINE_PARAKEET_1.jpg,2.0,,,,A15UAR6NM0QVQN
397,27,,1.0,7.0,ASIAN_CRESTED_IBIS_4.jpg,OYSTER_CATCHER_2.jpg,2.0,,,,A15UAR6NM0QVQN
398,28,,1.0,8.0,INLAND_DOTTEREL_4.jpg,CRESTED_KINGFISHER_1.jpg,3.0,,,,A15UAR6NM0QVQN
399,29,,1.0,9.0,DOUBLE_BRESTED_CORMARANT_5.jpg,EURASIAN_MAGPIE_4.jpg,2.0,,,,A15UAR6NM0QVQN
400,30,,1.0,10.0,CASSOWARY_1.jpg,ROSY_FACED_LOVEBIRD_4.jpg,1.0,,,,A15UAR6NM0QVQN
401,31,,1.0,11.0,PEACOCK_3.jpg,CHATTERING_LORY_2.jpg,3.0,,,,A15UAR6NM0QVQN
402,32,,1.0,12.0,ARARIPE_MANAKIN_4.jpg,BORNEAN_LEAFBIRD_3.jpg,3.0,,,,A15UAR6NM0QVQN
403,33,,1.0,13.0,SHOEBILL_3.jpg,EASTERN_MEADOWLARK_1.jpg,1.0,,,,A15UAR6NM0QVQN
404,34,left,1.0,14.0,left.jpg,,,left,0.9399,,A15UAR6NM0QVQN
405,35,,1.0,15.0,PINK_ROBIN_4.jpg,ALBATROSS_4.jpg,2.0,,,,A15UAR6NM0QVQN
406,36,,1.0,16.0,MYNA_1.jpg,PARADISE_TANAGER_3.jpg,3.0,,,,A15UAR6NM0QVQN
407,37,,1.0,17.0,ASIAN_DOLLARD_BIRD_2.jpg,VIOLET_GREEN_SWALLOW_4.jpg,3.0,,,,A15UAR6NM0QVQN
408,38,,1.0,18.0,OVENBIRD_5.jpg,SHORT_BILLED_DOWITCHER_5.jpg,3.0,,,,A15UAR6NM0QVQN
409,39,,1.0,19.0,IVORY_GULL_3.jpg,SNOWY_EGRET_4.jpg,3.0,,,,A15UAR6NM0QVQN
410,40,left,1.0,20.0,left.jpg,,,left,2.3569,,A15UAR6NM0QVQN
411,41,,1.0,21.0,KAGU_5.jpg,ASHY_STORM_PETREL_1.jpg,2.0,,,,A15UAR6NM0QVQN
412,42,,1.0,22.0,BALI_STARLING_1.jpg,IBERIAN_MAGPIE_1.jpg,3.0,,,,A15UAR6NM0QVQN
413,43,,1.0,23.0,LARK_BUNTING_2.jpg,PEACOCK_1.jpg,1.0,,,,A15UAR6NM0QVQN
414,44,,1.0,24.0,MAGPIE_GOOSE_5.jpg,HAMERKOP_1.jpg,2.0,,,,A15UAR6NM0QVQN
415,45,,1.0,25.0,NORTHERN_JACANA_3.jpg,CRAB_PLOVER_3.jpg,2.0,,,,A15UAR6NM0QVQN
416,46,,1.0,26.0,BREWERS_BLACKBIRD_3.jpg,GOLDEN_CHEEKED_WARBLER_3.jpg,2.0,,,,A15UAR6NM0QVQN
417,47,,1.0,27.0,RUBY_THROATED_HUMMINGBIRD_3.jpg,NORTHERN_SHOVELER_1.jpg,3.0,,,,A15UAR6NM0QVQN
418,48,,1.0,28.0,CRESTED_CARACARA_4.jpg,TOUCHAN_4.jpg,3.0,,,,A15UAR6NM0QVQN
419,49,,1.0,29.0,CHUKAR_PARTRIDGE_5.jpg,OSTRICH_5.jpg,1.0,,,,A15UAR6NM0QVQN
420,50,,1.0,30.0,EUROPEAN_TURTLE_DOVE_3.jpg,MALABAR_HORNBILL_2.jpg,3.0,,,,A15UAR6NM0QVQN
421,51,,1.0,31.0,LITTLE_AUK_5.jpg,ORANGE_BRESTED_BUNTING_3.jpg,2.0,,,,A15UAR6NM0QVQN
422,52,left,1.0,32.0,left.jpg,,,left,1.0651,,A15UAR6NM0QVQN
423,53,,1.0,33.0,VERMILION_FLYCATHER_3.jpg,INDIAN_BUSTARD_1.jpg,1.0,,,,A15UAR6NM0QVQN
424,54,,1.0,34.0,FLAME_BOWERBIRD_3.jpg,INDIAN_BUSTARD_2.jpg,1.0,,,,A15UAR6NM0QVQN
425,55,,1.0,35.0,STRIPPED_SWALLOW_1.jpg,DOUBLE_BRESTED_CORMARANT_4.jpg,1.0,,,,A15UAR6NM0QVQN
426,56,left,1.0,36.0,left.jpg,,,left,1.0996,,A15UAR6NM0QVQN
427,57,,1.0,37.0,SCARLET_TANAGER_2.jpg,BORNEAN_LEAFBIRD_1.jpg,3.0,,,,A15UAR6NM0QVQN
428,58,,1.0,38.0,INCA_TERN_4.jpg,ELLIOTS__PHEASANT_4.jpg,1.0,,,,A15UAR6NM0QVQN
429,59,,1.0,39.0,CASPIAN_TERN_1.jpg,COMMON_LOON_2.jpg,3.0,,,,A15UAR6NM0QVQN
430,60,,1.0,40.0,HAWAIIAN_GOOSE_4.jpg,HIMALAYAN_MONAL_2.jpg,2.0,,,,A15UAR6NM0QVQN
431,61,,1.0,41.0,SPLENDID_WREN_1.jpg,DOUBLE_BRESTED_CORMARANT_1.jpg,2.0,,,,A15UAR6NM0QVQN
432,62,,1.0,42.0,BROWN_THRASHER_3.jpg,DOUBLE_EYED_FIG_PARROT_3.jpg,1.0,,,,A15UAR6NM0QVQN
433,63,,1.0,43.0,RED_HEADED_WOODPECKER_5.jpg,ASHY_STORM_PETREL_2.jpg,1.0,,,,A15UAR6NM0QVQN
434,64,,1.0,44.0,OCELLATED_TURKEY_1.jpg,CHIPPING_SPARROW_1.jpg,1.0,,,,A15UAR6NM0QVQN
435,65,,1.0,45.0,PARUS_MAJOR_1.jpg,SANDHILL_CRANE_4.jpg,1.0,,,,A15UAR6NM0QVQN
436,66,,1.0,46.0,CRESTED_NUTHATCH_2.jpg,CANARY_1.jpg,3.0,,,,A15UAR6NM0QVQN
437,67,,1.0,47.0,INDIGO_BUNTING_1.jpg,FRIGATE_4.jpg,1.0,,,,A15UAR6NM0QVQN
438,68,,1.0,48.0,AMERICAN_PIPIT_5.jpg,GREEN_MAGPIE_1.jpg,2.0,,,,A15UAR6NM0QVQN
439,69,,1.0,49.0,LESSER_ADJUTANT_5.jpg,GREEN_BROADBILL_4.jpg,1.0,,,,A15UAR6NM0QVQN
440,70,,1.0,50.0,PYGMY_KINGFISHER_5.jpg,GRANDALA_2.jpg,1.0,,,,A15UAR6NM0QVQN
441,71,,1.0,51.0,ECUADORIAN_HILLSTAR_5.jpg,BOBOLINK_5.jpg,2.0,,,,A15UAR6NM0QVQN
442,72,,1.0,52.0,LESSER_ADJUTANT_4.jpg,ALTAMIRA_YELLOWTHROAT_5.jpg,1.0,,,,A15UAR6NM0QVQN
443,73,,1.0,53.0,WHITE_CHEEKED_TURACO_5.jpg,GREAT_POTOO_3.jpg,2.0,,,,A15UAR6NM0QVQN
444,74,right,1.0,54.0,right.jpg,,,right,1.1417,,A15UAR6NM0QVQN
445,75,,1.0,55.0,IVORY_GULL_1.jpg,EASTERN_GOLDEN_WEAVER_5.jpg,2.0,,,,A15UAR6NM0QVQN
446,76,,1.0,56.0,ALPINE_CHOUGH_4.jpg,EUROPEAN_GOLDFINCH_3.jpg,2.0,,,,A15UAR6NM0QVQN
447,77,,1.0,57.0,TASMANIAN_HEN_5.jpg,COPPERY_TAILED_COUCAL_1.jpg,3.0,,,,A15UAR6NM0QVQN
448,78,,1.0,58.0,GYRFALCON_1.jpg,OSTRICH_1.jpg,1.0,,,,A15UAR6NM0QVQN
449,79,,1.0,59.0,RUBY_THROATED_HUMMINGBIRD_1.jpg,BANANAQUIT_2.jpg,1.0,,,,A15UAR6NM0QVQN
450,80,,1.0,60.0,CERULEAN_WARBLER_1.jpg,BANANAQUIT_1.jpg,3.0,,,,A15UAR6NM0QVQN
451,81,,1.0,61.0,MALACHITE_KINGFISHER_2.jpg,GREEN_BROADBILL_5.jpg,3.0,,,,A15UAR6NM0QVQN
452,82,,1.0,62.0,GOLDEN_CHLOROPHONIA_5.jpg,VERMILION_FLYCATHER_5.jpg,3.0,,,,A15UAR6NM0QVQN
453,83,,1.0,63.0,GOLDEN_CHEEKED_WARBLER_2.jpg,HOUSE_FINCH_2.jpg,2.0,,,,A15UAR6NM0QVQN
454,84,,1.0,64.0,EASTERN_TOWEE_2.jpg,GOLDEN_CHLOROPHONIA_1.jpg,2.0,,,,A15UAR6NM0QVQN
455,20,,1.0,0.0,PINK_ROBIN_4.jpg,SPOONBILL_3.jpg,1.0,,,,AIXO7JFFSBR5O
456,21,,1.0,1.0,LITTLE_AUK_5.jpg,BEARDED_BELLBIRD_1.jpg,3.0,,,,AIXO7JFFSBR5O
457,22,,1.0,2.0,CRESTED_NUTHATCH_2.jpg,CANARY_1.jpg,3.0,,,,AIXO7JFFSBR5O
458,23,,1.0,3.0,PARUS_MAJOR_1.jpg,CALIFORNIA_GULL_2.jpg,2.0,,,,AIXO7JFFSBR5O
459,24,,1.0,4.0,IVORY_GULL_1.jpg,FAIRY_TERN_4.jpg,3.0,,,,AIXO7JFFSBR5O
460,25,,1.0,5.0,WHITE_CHEEKED_TURACO_5.jpg,GREAT_POTOO_3.jpg,2.0,,,,AIXO7JFFSBR5O
461,26,,1.0,6.0,SPLENDID_WREN_1.jpg,DOUBLE_BRESTED_CORMARANT_1.jpg,2.0,,,,AIXO7JFFSBR5O
462,27,,1.0,7.0,IVORY_GULL_3.jpg,SNOWY_EGRET_4.jpg,3.0,,,,AIXO7JFFSBR5O
463,28,right,1.0,8.0,right.jpg,,,right,0.841,,AIXO7JFFSBR5O
464,29,,1.0,9.0,ECUADORIAN_HILLSTAR_5.jpg,CRIMSON_SUNBIRD_5.jpg,3.0,,,,AIXO7JFFSBR5O
465,30,,1.0,10.0,CERULEAN_WARBLER_1.jpg,AMERICAN_FLAMINGO_2.jpg,1.0,,,,AIXO7JFFSBR5O
466,31,,1.0,11.0,OVENBIRD_5.jpg,MYNA_4.jpg,1.0,,,,AIXO7JFFSBR5O
467,32,,1.0,12.0,CHUKAR_PARTRIDGE_5.jpg,OSTRICH_5.jpg,1.0,,,,AIXO7JFFSBR5O
468,33,,1.0,13.0,CASSOWARY_1.jpg,SCARLET_MACAW_1.jpg,2.0,,,,AIXO7JFFSBR5O
469,34,,1.0,14.0,AMERICAN_PIPIT_5.jpg,GREEN_MAGPIE_1.jpg,2.0,,,,AIXO7JFFSBR5O
470,35,,1.0,15.0,OCELLATED_TURKEY_1.jpg,AMERICAN_PIPIT_1.jpg,2.0,,,,AIXO7JFFSBR5O
471,36,,1.0,16.0,EUROPEAN_TURTLE_DOVE_3.jpg,TEAL_DUCK_2.jpg,1.0,,,,AIXO7JFFSBR5O
472,37,,1.0,17.0,BROWN_NOODY_3.jpg,SPANGLED_COTINGA_4.jpg,2.0,,,,AIXO7JFFSBR5O
473,38,,1.0,18.0,BREWERS_BLACKBIRD_3.jpg,CAPE_LONGCLAW_2.jpg,3.0,,,,AIXO7JFFSBR5O
474,39,,1.0,19.0,GRAY_KINGBIRD_5.jpg,AFRICAN_FIREFINCH_3.jpg,3.0,,,,AIXO7JFFSBR5O
475,40,,1.0,20.0,GREY_PLOVER_1.jpg,HYACINTH_MACAW_3.jpg,1.0,,,,AIXO7JFFSBR5O
476,41,,1.0,21.0,LARK_BUNTING_2.jpg,PEACOCK_1.jpg,1.0,,,,AIXO7JFFSBR5O
477,42,right,1.0,22.0,right.jpg,,,right,0.813,,AIXO7JFFSBR5O
478,43,,1.0,23.0,RUBY_THROATED_HUMMINGBIRD_2.jpg,APAPANE_4.jpg,2.0,,,,AIXO7JFFSBR5O
479,44,,1.0,24.0,NORTHERN_JACANA_3.jpg,CRAB_PLOVER_3.jpg,2.0,,,,AIXO7JFFSBR5O
480,45,,1.0,25.0,RUBY_THROATED_HUMMINGBIRD_1.jpg,BANANAQUIT_2.jpg,1.0,,,,AIXO7JFFSBR5O
481,46,left,1.0,26.0,left.jpg,,,left,0.639,,AIXO7JFFSBR5O
482,47,,1.0,27.0,AFRICAN_PIED_HORNBILL_5.jpg,KIWI_4.jpg,1.0,,,,AIXO7JFFSBR5O
483,48,,1.0,28.0,GOLDEN_CHLOROPHONIA_5.jpg,COMMON_HOUSE_MARTIN_4.jpg,2.0,,,,AIXO7JFFSBR5O
484,49,,1.0,29.0,RUFOUS_KINGFISHER_1.jpg,MAGPIE_GOOSE_3.jpg,2.0,,,,AIXO7JFFSBR5O
485,50,,1.0,30.0,CRESTED_CARACARA_4.jpg,TOUCHAN_4.jpg,3.0,,,,AIXO7JFFSBR5O
486,51,,1.0,31.0,INCA_TERN_4.jpg,SMITHS_LONGSPUR_5.jpg,2.0,,,,AIXO7JFFSBR5O
487,52,,1.0,32.0,KAGU_5.jpg,ASHY_STORM_PETREL_1.jpg,2.0,,,,AIXO7JFFSBR5O
488,53,,1.0,33.0,DOUBLE_BRESTED_CORMARANT_5.jpg,CHINESE_POND_HERON_2.jpg,3.0,,,,AIXO7JFFSBR5O
489,54,,1.0,34.0,LESSER_ADJUTANT_5.jpg,RED_HEADED_WOODPECKER_1.jpg,3.0,,,,AIXO7JFFSBR5O
490,55,,1.0,35.0,INLAND_DOTTEREL_4.jpg,CRESTED_KINGFISHER_1.jpg,3.0,,,,AIXO7JFFSBR5O
491,56,,1.0,36.0,ARARIPE_MANAKIN_4.jpg,BLACK_VULTURE_1.jpg,2.0,,,,AIXO7JFFSBR5O
492,57,,1.0,37.0,VERMILION_FLYCATHER_3.jpg,INDIAN_BUSTARD_1.jpg,1.0,,,,AIXO7JFFSBR5O
493,58,,1.0,38.0,GYRFALCON_1.jpg,FAIRY_TERN_1.jpg,3.0,,,,AIXO7JFFSBR5O
494,59,,1.0,39.0,ALPINE_CHOUGH_4.jpg,BOBOLINK_3.jpg,3.0,,,,AIXO7JFFSBR5O
495,60,right,1.0,40.0,right.jpg,,,right,0.744,,AIXO7JFFSBR5O
496,61,,1.0,41.0,SCARLET_TANAGER_2.jpg,BORNEAN_LEAFBIRD_1.jpg,3.0,,,,AIXO7JFFSBR5O
497,62,,1.0,42.0,MYNA_1.jpg,GREY_PLOVER_4.jpg,2.0,,,,AIXO7JFFSBR5O
498,63,,1.0,43.0,MAGPIE_GOOSE_5.jpg,DOUBLE_EYED_FIG_PARROT_5.jpg,1.0,,,,AIXO7JFFSBR5O
499,64,,1.0,44.0,LESSER_ADJUTANT_4.jpg,RAINBOW_LORIKEET_5.jpg,2.0,,,,AIXO7JFFSBR5O
500,65,,1.0,45.0,RED_HEADED_WOODPECKER_5.jpg,ASHY_STORM_PETREL_2.jpg,1.0,,,,AIXO7JFFSBR5O
501,66,,1.0,46.0,KILLDEAR_2.jpg,PEACOCK_5.jpg,1.0,,,,AIXO7JFFSBR5O
502,67,,1.0,47.0,INDIGO_BUNTING_1.jpg,NORTHERN_GANNET_1.jpg,2.0,,,,AIXO7JFFSBR5O
503,68,,1.0,48.0,BALI_STARLING_1.jpg,IBERIAN_MAGPIE_1.jpg,3.0,,,,AIXO7JFFSBR5O
504,69,,1.0,49.0,GOLDEN_CHEEKED_WARBLER_2.jpg,SPOONBILL_1.jpg,1.0,,,,AIXO7JFFSBR5O
505,70,,1.0,50.0,SHOEBILL_3.jpg,BALD_EAGLE_5.jpg,3.0,,,,AIXO7JFFSBR5O
506,71,left,1.0,51.0,left.jpg,,,left,0.723,,AIXO7JFFSBR5O
507,72,,1.0,52.0,CASPIAN_TERN_1.jpg,COMMON_LOON_2.jpg,3.0,,,,AIXO7JFFSBR5O
508,73,,1.0,53.0,STRIPPED_SWALLOW_1.jpg,GO_AWAY_BIRD_5.jpg,3.0,,,,AIXO7JFFSBR5O
509,74,,1.0,54.0,EASTERN_TOWEE_2.jpg,GOLDEN_CHLOROPHONIA_1.jpg,2.0,,,,AIXO7JFFSBR5O
510,75,,1.0,55.0,TASMANIAN_HEN_5.jpg,AFRICAN_EMERALD_CUCKOO_5.jpg,2.0,,,,AIXO7JFFSBR5O
511,76,,1.0,56.0,HAWAIIAN_GOOSE_4.jpg,CUBAN_TODY_3.jpg,1.0,,,,AIXO7JFFSBR5O
512,77,,1.0,57.0,PYGMY_KINGFISHER_5.jpg,GRANDALA_2.jpg,1.0,,,,AIXO7JFFSBR5O
513,78,,1.0,58.0,BROWN_THRASHER_3.jpg,OYSTER_CATCHER_4.jpg,2.0,,,,AIXO7JFFSBR5O
514,79,,1.0,59.0,FLAME_BOWERBIRD_3.jpg,INDIAN_BUSTARD_2.jpg,1.0,,,,AIXO7JFFSBR5O
515,80,,1.0,60.0,RUBY_THROATED_HUMMINGBIRD_3.jpg,NORTHERN_SHOVELER_1.jpg,3.0,,,,AIXO7JFFSBR5O
516,81,,1.0,61.0,MALACHITE_KINGFISHER_2.jpg,AMERICAN_FLAMINGO_1.jpg,1.0,,,,AIXO7JFFSBR5O
517,82,,1.0,62.0,ASIAN_DOLLARD_BIRD_2.jpg,VIOLET_GREEN_SWALLOW_4.jpg,3.0,,,,AIXO7JFFSBR5O
518,83,,1.0,63.0,PEACOCK_3.jpg,ANIANIAU_2.jpg,1.0,,,,AIXO7JFFSBR5O
519,84,,1.0,64.0,ASIAN_CRESTED_IBIS_4.jpg,CANARY_2.jpg,1.0,,,,AIXO7JFFSBR5O
520,20,,1.0,0.0,STRIPPED_SWALLOW_1.jpg,MAGPIE_GOOSE_4.jpg,2.0,,,,A1C508BB6CF8VR
521,21,,1.0,1.0,GOLDEN_CHLOROPHONIA_5.jpg,VERMILION_FLYCATHER_5.jpg,3.0,,,,A1C508BB6CF8VR
522,22,,1.0,2.0,RUBY_THROATED_HUMMINGBIRD_3.jpg,MYNA_5.jpg,2.0,,,,A1C508BB6CF8VR
523,23,,1.0,3.0,ARARIPE_MANAKIN_4.jpg,KIWI_3.jpg,1.0,,,,A1C508BB6CF8VR
524,24,,1.0,4.0,FLAME_BOWERBIRD_3.jpg,BROWN_THRASHER_4.jpg,2.0,,,,A1C508BB6CF8VR
525,25,,1.0,5.0,MALACHITE_KINGFISHER_2.jpg,INCA_TERN_2.jpg,2.0,,,,A1C508BB6CF8VR
526,26,,1.0,6.0,RUBY_THROATED_HUMMINGBIRD_2.jpg,APAPANE_4.jpg,2.0,,,,A1C508BB6CF8VR
527,27,,1.0,7.0,PINK_ROBIN_4.jpg,COMMON_IORA_4.jpg,3.0,,,,A1C508BB6CF8VR
528,28,,1.0,8.0,INCA_TERN_4.jpg,SMITHS_LONGSPUR_5.jpg,2.0,,,,A1C508BB6CF8VR
529,29,right,1.0,9.0,right.jpg,,,right,2.075,,A1C508BB6CF8VR
530,30,,1.0,10.0,NORTHERN_JACANA_3.jpg,CRAB_PLOVER_3.jpg,2.0,,,,A1C508BB6CF8VR
531,31,,1.0,11.0,BREWERS_BLACKBIRD_3.jpg,CAPE_LONGCLAW_2.jpg,3.0,,,,A1C508BB6CF8VR
532,32,,1.0,12.0,PEACOCK_3.jpg,CHATTERING_LORY_2.jpg,3.0,,,,A1C508BB6CF8VR
533,33,,1.0,13.0,TASMANIAN_HEN_5.jpg,AFRICAN_EMERALD_CUCKOO_5.jpg,2.0,,,,A1C508BB6CF8VR
534,34,,1.0,14.0,KILLDEAR_2.jpg,CAATINGA_CACHOLOTE_4.jpg,2.0,,,,A1C508BB6CF8VR
535,35,,1.0,15.0,GYRFALCON_1.jpg,OSTRICH_1.jpg,1.0,,,,A1C508BB6CF8VR
536,36,,1.0,16.0,BROWN_NOODY_3.jpg,PEACOCK_2.jpg,1.0,,,,A1C508BB6CF8VR
537,37,,1.0,17.0,MYNA_1.jpg,GREY_PLOVER_4.jpg,2.0,,,,A1C508BB6CF8VR
538,38,,1.0,18.0,SCARLET_TANAGER_2.jpg,NORTHERN_GANNET_2.jpg,2.0,,,,A1C508BB6CF8VR
539,39,,1.0,19.0,CERULEAN_WARBLER_1.jpg,AMERICAN_FLAMINGO_2.jpg,1.0,,,,A1C508BB6CF8VR
540,40,left,1.0,20.0,left.jpg,,,left,2.028,,A1C508BB6CF8VR
541,41,,1.0,21.0,OCELLATED_TURKEY_1.jpg,PURPLE_SWAMPHEN_4.jpg,3.0,,,,A1C508BB6CF8VR
542,42,,1.0,22.0,ASIAN_CRESTED_IBIS_4.jpg,IVORY_GULL_2.jpg,3.0,,,,A1C508BB6CF8VR
543,43,,1.0,23.0,ASIAN_DOLLARD_BIRD_2.jpg,ALBATROSS_2.jpg,1.0,,,,A1C508BB6CF8VR
544,44,,1.0,24.0,VERMILION_FLYCATHER_3.jpg,RED_BEARDED_BEE_EATER_1.jpg,3.0,,,,A1C508BB6CF8VR
545,45,,1.0,25.0,INLAND_DOTTEREL_4.jpg,CRESTED_KINGFISHER_1.jpg,3.0,,,,A1C508BB6CF8VR
546,46,,1.0,26.0,PYGMY_KINGFISHER_5.jpg,MASKED_BOOBY_5.jpg,2.0,,,,A1C508BB6CF8VR
547,47,,1.0,27.0,IVORY_GULL_3.jpg,FLAME_TANAGER_3.jpg,2.0,,,,A1C508BB6CF8VR
548,48,,1.0,28.0,SHOEBILL_3.jpg,EASTERN_MEADOWLARK_1.jpg,1.0,,,,A1C508BB6CF8VR
549,49,,1.0,29.0,CRESTED_CARACARA_4.jpg,TOUCHAN_4.jpg,3.0,,,,A1C508BB6CF8VR
550,50,right,1.0,30.0,right.jpg,,,right,1.878,,A1C508BB6CF8VR
551,51,,1.0,31.0,SPLENDID_WREN_1.jpg,DOUBLE_BRESTED_CORMARANT_1.jpg,2.0,,,,A1C508BB6CF8VR
552,52,,1.0,32.0,CASSOWARY_1.jpg,ROSY_FACED_LOVEBIRD_4.jpg,1.0,,,,A1C508BB6CF8VR
553,53,,1.0,33.0,KAGU_5.jpg,RED_BEARDED_BEE_EATER_3.jpg,1.0,,,,A1C508BB6CF8VR
554,54,,1.0,34.0,EASTERN_TOWEE_2.jpg,NORTHERN_BEARDLESS_TYRANNULET_5.jpg,3.0,,,,A1C508BB6CF8VR
555,55,,1.0,35.0,BROWN_THRASHER_3.jpg,BLACK_BAZA_4.jpg,3.0,,,,A1C508BB6CF8VR
556,56,,1.0,36.0,EUROPEAN_TURTLE_DOVE_3.jpg,TEAL_DUCK_2.jpg,1.0,,,,A1C508BB6CF8VR
557,57,,1.0,37.0,CASPIAN_TERN_1.jpg,COMMON_LOON_2.jpg,3.0,,,,A1C508BB6CF8VR
558,58,,1.0,38.0,LESSER_ADJUTANT_5.jpg,GREEN_BROADBILL_4.jpg,1.0,,,,A1C508BB6CF8VR
559,59,,1.0,39.0,HAWAIIAN_GOOSE_4.jpg,CUBAN_TODY_3.jpg,1.0,,,,A1C508BB6CF8VR
560,60,,1.0,40.0,OVENBIRD_5.jpg,MYNA_4.jpg,1.0,,,,A1C508BB6CF8VR
561,61,,1.0,41.0,CHUKAR_PARTRIDGE_5.jpg,RAZORBILL_1.jpg,2.0,,,,A1C508BB6CF8VR
562,62,left,1.0,42.0,left.jpg,,,left,2.084,,A1C508BB6CF8VR
563,63,,1.0,43.0,LITTLE_AUK_5.jpg,ORANGE_BRESTED_BUNTING_3.jpg,2.0,,,,A1C508BB6CF8VR
564,64,,1.0,44.0,LARK_BUNTING_2.jpg,CACTUS_WREN_3.jpg,3.0,,,,A1C508BB6CF8VR
565,65,,1.0,45.0,INDIGO_BUNTING_1.jpg,DARWINS_FLYCATCHER_2.jpg,3.0,,,,A1C508BB6CF8VR
566,66,,1.0,46.0,GOLDEN_CHEEKED_WARBLER_2.jpg,SPOONBILL_1.jpg,1.0,,,,A1C508BB6CF8VR
567,67,,1.0,47.0,ECUADORIAN_HILLSTAR_5.jpg,CRIMSON_SUNBIRD_5.jpg,3.0,,,,A1C508BB6CF8VR
568,68,,1.0,48.0,LESSER_ADJUTANT_4.jpg,RAINBOW_LORIKEET_5.jpg,2.0,,,,A1C508BB6CF8VR
569,69,,1.0,49.0,IVORY_GULL_1.jpg,EASTERN_GOLDEN_WEAVER_5.jpg,2.0,,,,A1C508BB6CF8VR
570,70,,1.0,50.0,AMERICAN_PIPIT_5.jpg,HEPATIC_TANAGER_5.jpg,3.0,,,,A1C508BB6CF8VR
571,71,,1.0,51.0,CRESTED_NUTHATCH_2.jpg,SCARLET_IBIS_3.jpg,1.0,,,,A1C508BB6CF8VR
572,72,,1.0,52.0,MAGPIE_GOOSE_5.jpg,OYSTER_CATCHER_3.jpg,3.0,,,,A1C508BB6CF8VR
573,73,,1.0,53.0,DOUBLE_BRESTED_CORMARANT_5.jpg,GILDED_FLICKER_2.jpg,1.0,,,,A1C508BB6CF8VR
574,74,left,1.0,54.0,left.jpg,,,left,1.666,,A1C508BB6CF8VR
575,75,,1.0,55.0,RUFOUS_KINGFISHER_1.jpg,HORNED_SUNGEM_4.jpg,3.0,,,,A1C508BB6CF8VR
576,76,,1.0,56.0,RUBY_THROATED_HUMMINGBIRD_1.jpg,BANANAQUIT_2.jpg,1.0,,,,A1C508BB6CF8VR
577,77,,1.0,57.0,AFRICAN_PIED_HORNBILL_5.jpg,CAPUCHINBIRD_2.jpg,3.0,,,,A1C508BB6CF8VR
578,78,,1.0,58.0,BALI_STARLING_1.jpg,PURPLE_FINCH_2.jpg,2.0,,,,A1C508BB6CF8VR
579,79,,1.0,59.0,GREY_PLOVER_1.jpg,HYACINTH_MACAW_3.jpg,1.0,,,,A1C508BB6CF8VR
580,80,,1.0,60.0,WHITE_CHEEKED_TURACO_5.jpg,PYGMY_KINGFISHER_2.jpg,3.0,,,,A1C508BB6CF8VR
581,81,,1.0,61.0,ALPINE_CHOUGH_4.jpg,EUROPEAN_GOLDFINCH_3.jpg,2.0,,,,A1C508BB6CF8VR
582,82,,1.0,62.0,RED_HEADED_WOODPECKER_5.jpg,ASHY_STORM_PETREL_2.jpg,1.0,,,,A1C508BB6CF8VR
583,83,,1.0,63.0,GRAY_KINGBIRD_5.jpg,BALD_EAGLE_2.jpg,1.0,,,,A1C508BB6CF8VR
584,84,,1.0,64.0,PARUS_MAJOR_1.jpg,SANDHILL_CRANE_4.jpg,1.0,,,,A1C508BB6CF8VR
585,20,,1.0,0.0,INLAND_DOTTEREL_4.jpg,CRESTED_KINGFISHER_1.jpg,3.0,,,,A1AKL5YH9NLD2V
586,21,,1.0,1.0,BROWN_NOODY_3.jpg,PEACOCK_2.jpg,1.0,,,,A1AKL5YH9NLD2V
587,22,,1.0,2.0,GREY_PLOVER_1.jpg,ECUADORIAN_HILLSTAR_3.jpg,3.0,,,,A1AKL5YH9NLD2V
588,23,,1.0,3.0,TASMANIAN_HEN_5.jpg,AFRICAN_EMERALD_CUCKOO_5.jpg,2.0,,,,A1AKL5YH9NLD2V
589,24,,1.0,4.0,KAGU_5.jpg,DEMOISELLE_CRANE_1.jpg,3.0,,,,A1AKL5YH9NLD2V
590,25,,1.0,5.0,CHUKAR_PARTRIDGE_5.jpg,OSTRICH_5.jpg,1.0,,,,A1AKL5YH9NLD2V
591,26,,1.0,6.0,OVENBIRD_5.jpg,FAIRY_PENGUIN_1.jpg,2.0,,,,A1AKL5YH9NLD2V
592,27,right,1.0,7.0,right.jpg,,,right,0.4565,,A1AKL5YH9NLD2V
593,28,,1.0,8.0,BROWN_THRASHER_3.jpg,BLACK_BAZA_4.jpg,3.0,,,,A1AKL5YH9NLD2V
594,29,,1.0,9.0,GYRFALCON_1.jpg,FAIRY_TERN_1.jpg,3.0,,,,A1AKL5YH9NLD2V
595,30,,1.0,10.0,CERULEAN_WARBLER_1.jpg,BANANAQUIT_1.jpg,3.0,,,,A1AKL5YH9NLD2V
596,31,,1.0,11.0,PARUS_MAJOR_1.jpg,PINK_ROBIN_3.jpg,3.0,,,,A1AKL5YH9NLD2V
597,32,,1.0,12.0,GOLDEN_CHLOROPHONIA_5.jpg,ROADRUNNER_2.jpg,1.0,,,,A1AKL5YH9NLD2V
598,33,,1.0,13.0,SCARLET_TANAGER_2.jpg,BORNEAN_LEAFBIRD_1.jpg,3.0,,,,A1AKL5YH9NLD2V
599,34,,1.0,14.0,LESSER_ADJUTANT_5.jpg,RED_HEADED_WOODPECKER_1.jpg,3.0,,,,A1AKL5YH9NLD2V
600,35,,1.0,15.0,ARARIPE_MANAKIN_4.jpg,BLACK_VULTURE_1.jpg,2.0,,,,A1AKL5YH9NLD2V
601,36,,1.0,16.0,CASPIAN_TERN_1.jpg,EUROPEAN_GOLDFINCH_4.jpg,2.0,,,,A1AKL5YH9NLD2V
602,37,,1.0,17.0,PINK_ROBIN_4.jpg,COMMON_IORA_4.jpg,3.0,,,,A1AKL5YH9NLD2V
603,38,left,1.0,18.0,left.jpg,,,left,0.4994,,A1AKL5YH9NLD2V
604,39,,1.0,19.0,PYGMY_KINGFISHER_5.jpg,GRANDALA_2.jpg,1.0,,,,A1AKL5YH9NLD2V
605,40,,1.0,20.0,INDIGO_BUNTING_1.jpg,FRIGATE_4.jpg,1.0,,,,A1AKL5YH9NLD2V
606,41,,1.0,21.0,HAWAIIAN_GOOSE_4.jpg,HIMALAYAN_MONAL_2.jpg,2.0,,,,A1AKL5YH9NLD2V
607,42,,1.0,22.0,LESSER_ADJUTANT_4.jpg,RAINBOW_LORIKEET_5.jpg,2.0,,,,A1AKL5YH9NLD2V
608,43,,1.0,23.0,ECUADORIAN_HILLSTAR_5.jpg,BOBOLINK_5.jpg,2.0,,,,A1AKL5YH9NLD2V
609,44,,1.0,24.0,RUBY_THROATED_HUMMINGBIRD_1.jpg,BANANAQUIT_2.jpg,1.0,,,,A1AKL5YH9NLD2V
610,45,,1.0,25.0,PEACOCK_3.jpg,ANIANIAU_2.jpg,1.0,,,,A1AKL5YH9NLD2V
611,46,,1.0,26.0,GOLDEN_CHEEKED_WARBLER_2.jpg,SPOONBILL_1.jpg,1.0,,,,A1AKL5YH9NLD2V
612,47,,1.0,27.0,WHITE_CHEEKED_TURACO_5.jpg,NORTHERN_MOCKINGBIRD_4.jpg,1.0,,,,A1AKL5YH9NLD2V
613,48,,1.0,28.0,OCELLATED_TURKEY_1.jpg,CHIPPING_SPARROW_1.jpg,1.0,,,,A1AKL5YH9NLD2V
614,49,right,1.0,29.0,right.jpg,,,right,0.4505,,A1AKL5YH9NLD2V
615,50,,1.0,30.0,ASIAN_CRESTED_IBIS_4.jpg,OYSTER_CATCHER_2.jpg,2.0,,,,A1AKL5YH9NLD2V
616,51,,1.0,31.0,RED_HEADED_WOODPECKER_5.jpg,ASHY_STORM_PETREL_2.jpg,1.0,,,,A1AKL5YH9NLD2V
617,52,,1.0,32.0,CASSOWARY_1.jpg,SCARLET_MACAW_1.jpg,2.0,,,,A1AKL5YH9NLD2V
618,53,,1.0,33.0,LARK_BUNTING_2.jpg,KING_VULTURE_3.jpg,2.0,,,,A1AKL5YH9NLD2V
619,54,,1.0,34.0,VERMILION_FLYCATHER_3.jpg,INDIAN_BUSTARD_1.jpg,1.0,,,,A1AKL5YH9NLD2V
620,55,,1.0,35.0,CRESTED_CARACARA_4.jpg,INDIAN_PITTA_2.jpg,2.0,,,,A1AKL5YH9NLD2V
621,56,,1.0,36.0,AFRICAN_PIED_HORNBILL_5.jpg,CAPUCHINBIRD_2.jpg,3.0,,,,A1AKL5YH9NLD2V
622,57,,1.0,37.0,BREWERS_BLACKBIRD_3.jpg,GOLDEN_CHEEKED_WARBLER_3.jpg,2.0,,,,A1AKL5YH9NLD2V
623,58,,1.0,38.0,LITTLE_AUK_5.jpg,SANDHILL_CRANE_3.jpg,1.0,,,,A1AKL5YH9NLD2V
624,59,right,1.0,39.0,right.jpg,,,right,0.5168,,A1AKL5YH9NLD2V
625,60,,1.0,40.0,NORTHERN_JACANA_3.jpg,CRAB_PLOVER_3.jpg,2.0,,,,A1AKL5YH9NLD2V
626,61,,1.0,41.0,CRESTED_NUTHATCH_2.jpg,AFRICAN_FIREFINCH_1.jpg,2.0,,,,A1AKL5YH9NLD2V
627,62,,1.0,42.0,ALPINE_CHOUGH_4.jpg,BOBOLINK_3.jpg,3.0,,,,A1AKL5YH9NLD2V
628,63,,1.0,43.0,AMERICAN_PIPIT_5.jpg,GREEN_MAGPIE_1.jpg,2.0,,,,A1AKL5YH9NLD2V
629,64,,1.0,44.0,FLAME_BOWERBIRD_3.jpg,QUETZAL_3.jpg,3.0,,,,A1AKL5YH9NLD2V
630,65,,1.0,45.0,INCA_TERN_4.jpg,ELLIOTS__PHEASANT_4.jpg,1.0,,,,A1AKL5YH9NLD2V
631,66,,1.0,46.0,MAGPIE_GOOSE_5.jpg,OYSTER_CATCHER_3.jpg,3.0,,,,A1AKL5YH9NLD2V
632,67,,1.0,47.0,SHOEBILL_3.jpg,EASTERN_MEADOWLARK_1.jpg,1.0,,,,A1AKL5YH9NLD2V
633,68,,1.0,48.0,STRIPPED_SWALLOW_1.jpg,DOUBLE_BRESTED_CORMARANT_4.jpg,1.0,,,,A1AKL5YH9NLD2V
634,69,,1.0,49.0,RUFOUS_KINGFISHER_1.jpg,HORNED_SUNGEM_4.jpg,3.0,,,,A1AKL5YH9NLD2V
635,70,,1.0,50.0,RUBY_THROATED_HUMMINGBIRD_2.jpg,APAPANE_4.jpg,2.0,,,,A1AKL5YH9NLD2V
636,71,,1.0,51.0,KILLDEAR_2.jpg,AZURE_TIT_5.jpg,3.0,,,,A1AKL5YH9NLD2V
637,72,left,1.0,52.0,left.jpg,,,left,0.4692,,A1AKL5YH9NLD2V
638,73,,1.0,53.0,IVORY_GULL_1.jpg,FAIRY_TERN_4.jpg,3.0,,,,A1AKL5YH9NLD2V
639,74,,1.0,54.0,ASIAN_DOLLARD_BIRD_2.jpg,ALBATROSS_2.jpg,1.0,,,,A1AKL5YH9NLD2V
640,75,,1.0,55.0,EUROPEAN_TURTLE_DOVE_3.jpg,MALABAR_HORNBILL_2.jpg,3.0,,,,A1AKL5YH9NLD2V
641,76,,1.0,56.0,DOUBLE_BRESTED_CORMARANT_5.jpg,EURASIAN_MAGPIE_4.jpg,2.0,,,,A1AKL5YH9NLD2V
642,77,,1.0,57.0,SPLENDID_WREN_1.jpg,POMARINE_JAEGER_5.jpg,1.0,,,,A1AKL5YH9NLD2V
643,78,,1.0,58.0,BALI_STARLING_1.jpg,CAPE_LONGCLAW_5.jpg,1.0,,,,A1AKL5YH9NLD2V
644,79,,1.0,59.0,RUBY_THROATED_HUMMINGBIRD_3.jpg,MYNA_5.jpg,2.0,,,,A1AKL5YH9NLD2V
645,80,,1.0,60.0,MALACHITE_KINGFISHER_2.jpg,GREEN_BROADBILL_5.jpg,3.0,,,,A1AKL5YH9NLD2V
646,81,,1.0,61.0,GRAY_KINGBIRD_5.jpg,COCK_OF_THE__ROCK_4.jpg,2.0,,,,A1AKL5YH9NLD2V
647,82,,1.0,62.0,EASTERN_TOWEE_2.jpg,SANDHILL_CRANE_2.jpg,1.0,,,,A1AKL5YH9NLD2V
648,83,,1.0,63.0,MYNA_1.jpg,PARADISE_TANAGER_3.jpg,3.0,,,,A1AKL5YH9NLD2V
649,84,,1.0,64.0,IVORY_GULL_3.jpg,FLAME_TANAGER_3.jpg,2.0,,,,A1AKL5YH9NLD2V
650,20,,1.0,0.0,BALI_STARLING_1.jpg,CAPE_LONGCLAW_5.jpg,1.0,,,,A3E0IFFHYQPLFE
651,21,,1.0,1.0,LESSER_ADJUTANT_4.jpg,ALTAMIRA_YELLOWTHROAT_5.jpg,1.0,,,,A3E0IFFHYQPLFE
652,22,,1.0,2.0,EASTERN_TOWEE_2.jpg,NORTHERN_BEARDLESS_TYRANNULET_5.jpg,3.0,,,,A3E0IFFHYQPLFE
653,23,,1.0,3.0,EUROPEAN_TURTLE_DOVE_3.jpg,TEAL_DUCK_2.jpg,1.0,,,,A3E0IFFHYQPLFE
654,24,,1.0,4.0,LITTLE_AUK_5.jpg,ORANGE_BRESTED_BUNTING_3.jpg,2.0,,,,A3E0IFFHYQPLFE
655,25,,1.0,5.0,GYRFALCON_1.jpg,FAIRY_TERN_1.jpg,3.0,,,,A3E0IFFHYQPLFE
656,26,,1.0,6.0,ALPINE_CHOUGH_4.jpg,BOBOLINK_3.jpg,3.0,,,,A3E0IFFHYQPLFE
657,27,,1.0,7.0,GREY_PLOVER_1.jpg,ECUADORIAN_HILLSTAR_3.jpg,3.0,,,,A3E0IFFHYQPLFE
658,28,,1.0,8.0,ASIAN_CRESTED_IBIS_4.jpg,OYSTER_CATCHER_2.jpg,2.0,,,,A3E0IFFHYQPLFE
659,29,,1.0,9.0,WHITE_CHEEKED_TURACO_5.jpg,PYGMY_KINGFISHER_2.jpg,3.0,,,,A3E0IFFHYQPLFE
660,30,left,1.0,10.0,left.jpg,,,left,1.0647,,A3E0IFFHYQPLFE
661,31,,1.0,11.0,NORTHERN_JACANA_3.jpg,AMERICAN_GOLDFINCH_4.jpg,1.0,,,,A3E0IFFHYQPLFE
662,32,,1.0,12.0,STRIPPED_SWALLOW_1.jpg,MAGPIE_GOOSE_4.jpg,2.0,,,,A3E0IFFHYQPLFE
663,33,,1.0,13.0,OVENBIRD_5.jpg,SHORT_BILLED_DOWITCHER_5.jpg,3.0,,,,A3E0IFFHYQPLFE
664,34,,1.0,14.0,PARUS_MAJOR_1.jpg,CALIFORNIA_GULL_2.jpg,2.0,,,,A3E0IFFHYQPLFE
665,35,,1.0,15.0,INLAND_DOTTEREL_4.jpg,CASSOWARY_2.jpg,1.0,,,,A3E0IFFHYQPLFE
666,36,left,0.0,16.0,right.jpg,,,right,0.082,,A3E0IFFHYQPLFE
667,37,,1.0,17.0,BREWERS_BLACKBIRD_3.jpg,GOLDEN_CHEEKED_WARBLER_3.jpg,2.0,,,,A3E0IFFHYQPLFE
668,38,,1.0,18.0,INDIGO_BUNTING_1.jpg,DARWINS_FLYCATCHER_2.jpg,3.0,,,,A3E0IFFHYQPLFE
669,39,,1.0,19.0,IVORY_GULL_3.jpg,FLAME_TANAGER_3.jpg,2.0,,,,A3E0IFFHYQPLFE
670,40,,1.0,20.0,HAWAIIAN_GOOSE_4.jpg,HIMALAYAN_MONAL_2.jpg,2.0,,,,A3E0IFFHYQPLFE
671,41,,1.0,21.0,CHUKAR_PARTRIDGE_5.jpg,BLACK_THROATED_BUSHTIT_1.jpg,3.0,,,,A3E0IFFHYQPLFE
672,42,,1.0,22.0,TASMANIAN_HEN_5.jpg,AFRICAN_EMERALD_CUCKOO_5.jpg,2.0,,,,A3E0IFFHYQPLFE
673,43,,1.0,23.0,KILLDEAR_2.jpg,CAATINGA_CACHOLOTE_4.jpg,2.0,,,,A3E0IFFHYQPLFE
674,44,,1.0,24.0,PINK_ROBIN_4.jpg,SPOONBILL_3.jpg,1.0,,,,A3E0IFFHYQPLFE
675,45,,1.0,25.0,RUBY_THROATED_HUMMINGBIRD_1.jpg,FRIGATE_1.jpg,3.0,,,,A3E0IFFHYQPLFE
676,46,,1.0,26.0,RUBY_THROATED_HUMMINGBIRD_2.jpg,GOLDEN_CHLOROPHONIA_2.jpg,1.0,,,,A3E0IFFHYQPLFE
677,47,,1.0,27.0,MYNA_1.jpg,PARADISE_TANAGER_3.jpg,3.0,,,,A3E0IFFHYQPLFE
678,48,,1.0,28.0,CRESTED_CARACARA_4.jpg,INDIAN_PITTA_2.jpg,2.0,,,,A3E0IFFHYQPLFE
679,49,,1.0,29.0,BROWN_THRASHER_3.jpg,OYSTER_CATCHER_4.jpg,2.0,,,,A3E0IFFHYQPLFE
680,50,,1.0,30.0,AFRICAN_PIED_HORNBILL_5.jpg,ALEXANDRINE_PARAKEET_1.jpg,2.0,,,,A3E0IFFHYQPLFE
681,51,,1.0,31.0,SPLENDID_WREN_1.jpg,DOUBLE_BRESTED_CORMARANT_1.jpg,2.0,,,,A3E0IFFHYQPLFE
682,52,,1.0,32.0,PEACOCK_3.jpg,STRAWBERRY_FINCH_4.jpg,2.0,,,,A3E0IFFHYQPLFE
683,53,,1.0,33.0,MAGPIE_GOOSE_5.jpg,HAMERKOP_1.jpg,2.0,,,,A3E0IFFHYQPLFE
684,54,right,1.0,34.0,right.jpg,,,right,0.0075,,A3E0IFFHYQPLFE
685,55,,1.0,35.0,DOUBLE_BRESTED_CORMARANT_5.jpg,GILDED_FLICKER_2.jpg,1.0,,,,A3E0IFFHYQPLFE
686,56,,1.0,36.0,CERULEAN_WARBLER_1.jpg,AMERICAN_FLAMINGO_2.jpg,1.0,,,,A3E0IFFHYQPLFE
687,57,,1.0,37.0,VERMILION_FLYCATHER_3.jpg,RED_BEARDED_BEE_EATER_1.jpg,3.0,,,,A3E0IFFHYQPLFE
688,58,left,1.0,38.0,left.jpg,,,left,0.2283,,A3E0IFFHYQPLFE
689,59,,1.0,39.0,LARK_BUNTING_2.jpg,CACTUS_WREN_3.jpg,3.0,,,,A3E0IFFHYQPLFE
690,60,,1.0,40.0,ECUADORIAN_HILLSTAR_5.jpg,CRIMSON_SUNBIRD_5.jpg,3.0,,,,A3E0IFFHYQPLFE
691,61,,1.0,41.0,MALACHITE_KINGFISHER_2.jpg,INCA_TERN_2.jpg,2.0,,,,A3E0IFFHYQPLFE
692,62,,1.0,42.0,SCARLET_TANAGER_2.jpg,BEARDED_BARBET_2.jpg,1.0,,,,A3E0IFFHYQPLFE
693,63,,1.0,43.0,INCA_TERN_4.jpg,BORNEAN_BRISTLEHEAD_5.jpg,3.0,,,,A3E0IFFHYQPLFE
694,64,,1.0,44.0,CASSOWARY_1.jpg,ROSY_FACED_LOVEBIRD_4.jpg,1.0,,,,A3E0IFFHYQPLFE
695,65,,1.0,45.0,IVORY_GULL_1.jpg,FAIRY_TERN_4.jpg,3.0,,,,A3E0IFFHYQPLFE
696,66,,1.0,46.0,RUBY_THROATED_HUMMINGBIRD_3.jpg,MYNA_5.jpg,2.0,,,,A3E0IFFHYQPLFE
697,67,,1.0,47.0,GOLDEN_CHLOROPHONIA_5.jpg,ROADRUNNER_2.jpg,1.0,,,,A3E0IFFHYQPLFE
698,68,,1.0,48.0,CASPIAN_TERN_1.jpg,GREAT_GRAY_OWL_4.jpg,1.0,,,,A3E0IFFHYQPLFE
699,69,,1.0,49.0,OCELLATED_TURKEY_1.jpg,PURPLE_SWAMPHEN_4.jpg,3.0,,,,A3E0IFFHYQPLFE
700,70,,1.0,50.0,RED_HEADED_WOODPECKER_5.jpg,ASHY_STORM_PETREL_2.jpg,1.0,,,,A3E0IFFHYQPLFE
701,71,,1.0,51.0,ASIAN_DOLLARD_BIRD_2.jpg,VIOLET_GREEN_SWALLOW_4.jpg,3.0,,,,A3E0IFFHYQPLFE
702,72,,1.0,52.0,KAGU_5.jpg,ASHY_STORM_PETREL_1.jpg,2.0,,,,A3E0IFFHYQPLFE
703,73,,1.0,53.0,PYGMY_KINGFISHER_5.jpg,MASKED_BOOBY_5.jpg,2.0,,,,A3E0IFFHYQPLFE
704,74,left,1.0,54.0,left.jpg,,,left,0.0075,,A3E0IFFHYQPLFE
705,75,,1.0,55.0,RUFOUS_KINGFISHER_1.jpg,SNOWY_OWL_5.jpg,1.0,,,,A3E0IFFHYQPLFE
706,76,,1.0,56.0,SHOEBILL_3.jpg,BALD_EAGLE_5.jpg,3.0,,,,A3E0IFFHYQPLFE
707,77,,1.0,57.0,ARARIPE_MANAKIN_4.jpg,BLACK_VULTURE_1.jpg,2.0,,,,A3E0IFFHYQPLFE
708,78,,1.0,58.0,CRESTED_NUTHATCH_2.jpg,SCARLET_IBIS_3.jpg,1.0,,,,A3E0IFFHYQPLFE
709,79,,1.0,59.0,AMERICAN_PIPIT_5.jpg,EMU_2.jpg,1.0,,,,A3E0IFFHYQPLFE
710,80,,1.0,60.0,GOLDEN_CHEEKED_WARBLER_2.jpg,SPOONBILL_1.jpg,1.0,,,,A3E0IFFHYQPLFE
711,81,,1.0,61.0,FLAME_BOWERBIRD_3.jpg,INDIAN_BUSTARD_2.jpg,1.0,,,,A3E0IFFHYQPLFE
712,82,,1.0,62.0,LESSER_ADJUTANT_5.jpg,GREEN_BROADBILL_4.jpg,1.0,,,,A3E0IFFHYQPLFE
713,83,,1.0,63.0,GRAY_KINGBIRD_5.jpg,AFRICAN_FIREFINCH_3.jpg,3.0,,,,A3E0IFFHYQPLFE
714,84,,1.0,64.0,BROWN_NOODY_3.jpg,GUINEA_TURACO_5.jpg,3.0,,,,A3E0IFFHYQPLFE
715,20,,1.0,0.0,INDIGO_BUNTING_1.jpg,DARWINS_FLYCATCHER_2.jpg,3.0,,,,A3DW6KSQPG6GVQ
716,21,,1.0,1.0,WHITE_CHEEKED_TURACO_5.jpg,PYGMY_KINGFISHER_2.jpg,3.0,,,,A3DW6KSQPG6GVQ
717,22,,1.0,2.0,BALI_STARLING_1.jpg,PURPLE_FINCH_2.jpg,2.0,,,,A3DW6KSQPG6GVQ
718,23,,1.0,3.0,AFRICAN_PIED_HORNBILL_5.jpg,KIWI_4.jpg,1.0,,,,A3DW6KSQPG6GVQ
719,24,,1.0,4.0,PYGMY_KINGFISHER_5.jpg,DOUBLE_EYED_FIG_PARROT_4.jpg,3.0,,,,A3DW6KSQPG6GVQ
720,25,,1.0,5.0,MALACHITE_KINGFISHER_2.jpg,AMERICAN_FLAMINGO_1.jpg,1.0,,,,A3DW6KSQPG6GVQ
721,26,,1.0,6.0,VERMILION_FLYCATHER_3.jpg,INDIAN_BUSTARD_1.jpg,1.0,,,,A3DW6KSQPG6GVQ
722,27,,1.0,7.0,ALPINE_CHOUGH_4.jpg,BOBOLINK_3.jpg,3.0,,,,A3DW6KSQPG6GVQ
723,28,,1.0,8.0,MAGPIE_GOOSE_5.jpg,DOUBLE_EYED_FIG_PARROT_5.jpg,1.0,,,,A3DW6KSQPG6GVQ
724,29,,1.0,9.0,ARARIPE_MANAKIN_4.jpg,KIWI_3.jpg,1.0,,,,A3DW6KSQPG6GVQ
725,30,,1.0,10.0,OCELLATED_TURKEY_1.jpg,PURPLE_SWAMPHEN_4.jpg,3.0,,,,A3DW6KSQPG6GVQ
726,31,,1.0,11.0,NORTHERN_JACANA_3.jpg,CRAB_PLOVER_3.jpg,2.0,,,,A3DW6KSQPG6GVQ
727,32,,1.0,12.0,HAWAIIAN_GOOSE_4.jpg,CUBAN_TODY_3.jpg,1.0,,,,A3DW6KSQPG6GVQ
728,33,,1.0,13.0,RUBY_THROATED_HUMMINGBIRD_3.jpg,MYNA_5.jpg,2.0,,,,A3DW6KSQPG6GVQ
729,34,right,1.0,14.0,right.jpg,,,right,0.8172,,A3DW6KSQPG6GVQ
730,35,,1.0,15.0,EUROPEAN_TURTLE_DOVE_3.jpg,PAINTED_BUNTING_3.jpg,2.0,,,,A3DW6KSQPG6GVQ
731,36,,1.0,16.0,RED_HEADED_WOODPECKER_5.jpg,ASHY_STORM_PETREL_2.jpg,1.0,,,,A3DW6KSQPG6GVQ
732,37,,1.0,17.0,GRAY_KINGBIRD_5.jpg,AFRICAN_FIREFINCH_3.jpg,3.0,,,,A3DW6KSQPG6GVQ
733,38,,1.0,18.0,CRESTED_CARACARA_4.jpg,FAIRY_PENGUIN_5.jpg,1.0,,,,A3DW6KSQPG6GVQ
734,39,,1.0,19.0,KAGU_5.jpg,RED_BEARDED_BEE_EATER_3.jpg,1.0,,,,A3DW6KSQPG6GVQ
735,40,,1.0,20.0,DOUBLE_BRESTED_CORMARANT_5.jpg,EURASIAN_MAGPIE_4.jpg,2.0,,,,A3DW6KSQPG6GVQ
736,41,,1.0,21.0,STRIPPED_SWALLOW_1.jpg,MAGPIE_GOOSE_4.jpg,2.0,,,,A3DW6KSQPG6GVQ
737,42,,1.0,22.0,PINK_ROBIN_4.jpg,SPOONBILL_3.jpg,1.0,,,,A3DW6KSQPG6GVQ
738,43,,1.0,23.0,PARUS_MAJOR_1.jpg,CALIFORNIA_GULL_2.jpg,2.0,,,,A3DW6KSQPG6GVQ
739,44,right,1.0,24.0,right.jpg,,,right,2.0928,,A3DW6KSQPG6GVQ
740,45,,1.0,25.0,CASPIAN_TERN_1.jpg,COMMON_LOON_2.jpg,3.0,,,,A3DW6KSQPG6GVQ
741,46,,1.0,26.0,FLAME_BOWERBIRD_3.jpg,BROWN_THRASHER_4.jpg,2.0,,,,A3DW6KSQPG6GVQ
742,47,,1.0,27.0,CRESTED_NUTHATCH_2.jpg,CANARY_1.jpg,3.0,,,,A3DW6KSQPG6GVQ
743,48,,1.0,28.0,INCA_TERN_4.jpg,BORNEAN_BRISTLEHEAD_5.jpg,3.0,,,,A3DW6KSQPG6GVQ
744,49,,1.0,29.0,RUBY_THROATED_HUMMINGBIRD_1.jpg,BANANAQUIT_2.jpg,1.0,,,,A3DW6KSQPG6GVQ
745,50,,1.0,30.0,PEACOCK_3.jpg,CHATTERING_LORY_2.jpg,3.0,,,,A3DW6KSQPG6GVQ
746,51,,1.0,31.0,LITTLE_AUK_5.jpg,ORANGE_BRESTED_BUNTING_3.jpg,2.0,,,,A3DW6KSQPG6GVQ
747,52,,1.0,32.0,ASIAN_DOLLARD_BIRD_2.jpg,VIOLET_GREEN_SWALLOW_4.jpg,3.0,,,,A3DW6KSQPG6GVQ
748,53,,1.0,33.0,INLAND_DOTTEREL_4.jpg,CRESTED_KINGFISHER_1.jpg,3.0,,,,A3DW6KSQPG6GVQ
749,54,right,1.0,34.0,right.jpg,,,right,1.6493,,A3DW6KSQPG6GVQ
750,55,,1.0,35.0,SHOEBILL_3.jpg,BALD_EAGLE_5.jpg,3.0,,,,A3DW6KSQPG6GVQ
751,56,,1.0,36.0,RUBY_THROATED_HUMMINGBIRD_2.jpg,GOLDEN_CHLOROPHONIA_2.jpg,1.0,,,,A3DW6KSQPG6GVQ
752,57,,1.0,37.0,OVENBIRD_5.jpg,FAIRY_PENGUIN_1.jpg,2.0,,,,A3DW6KSQPG6GVQ
753,58,left,1.0,38.0,left.jpg,,,left,0.6327,,A3DW6KSQPG6GVQ
754,59,,1.0,39.0,MYNA_1.jpg,OSTRICH_3.jpg,1.0,,,,A3DW6KSQPG6GVQ
755,60,,1.0,40.0,CHUKAR_PARTRIDGE_5.jpg,RAZORBILL_1.jpg,2.0,,,,A3DW6KSQPG6GVQ
756,61,,1.0,41.0,CASSOWARY_1.jpg,AFRICAN_OYSTER_CATCHER_2.jpg,3.0,,,,A3DW6KSQPG6GVQ
757,62,,1.0,42.0,BREWERS_BLACKBIRD_3.jpg,GUINEA_TURACO_3.jpg,1.0,,,,A3DW6KSQPG6GVQ
758,63,,1.0,43.0,GOLDEN_CHLOROPHONIA_5.jpg,VERMILION_FLYCATHER_5.jpg,3.0,,,,A3DW6KSQPG6GVQ
759,64,,1.0,44.0,GREY_PLOVER_1.jpg,GOULDIAN_FINCH_4.jpg,2.0,,,,A3DW6KSQPG6GVQ
760,65,,1.0,45.0,GOLDEN_CHEEKED_WARBLER_2.jpg,HOUSE_FINCH_2.jpg,2.0,,,,A3DW6KSQPG6GVQ
761,66,,1.0,46.0,EASTERN_TOWEE_2.jpg,GOLDEN_CHLOROPHONIA_1.jpg,2.0,,,,A3DW6KSQPG6GVQ
762,67,,1.0,47.0,BROWN_NOODY_3.jpg,PEACOCK_2.jpg,1.0,,,,A3DW6KSQPG6GVQ
763,68,,1.0,48.0,LESSER_ADJUTANT_4.jpg,FAIRY_TERN_3.jpg,3.0,,,,A3DW6KSQPG6GVQ
764,69,,1.0,49.0,LESSER_ADJUTANT_5.jpg,GREEN_BROADBILL_4.jpg,1.0,,,,A3DW6KSQPG6GVQ
765,70,,1.0,50.0,RUFOUS_KINGFISHER_1.jpg,MAGPIE_GOOSE_3.jpg,2.0,,,,A3DW6KSQPG6GVQ
766,71,,1.0,51.0,CERULEAN_WARBLER_1.jpg,AMERICAN_FLAMINGO_5.jpg,2.0,,,,A3DW6KSQPG6GVQ
767,72,,1.0,52.0,GYRFALCON_1.jpg,OSTRICH_1.jpg,1.0,,,,A3DW6KSQPG6GVQ
768,73,,1.0,53.0,IVORY_GULL_3.jpg,SNOWY_EGRET_4.jpg,3.0,,,,A3DW6KSQPG6GVQ
769,74,left,1.0,54.0,left.jpg,,,left,0.9666,,A3DW6KSQPG6GVQ
770,75,,1.0,55.0,LARK_BUNTING_2.jpg,KING_VULTURE_3.jpg,2.0,,,,A3DW6KSQPG6GVQ
771,76,,1.0,56.0,IVORY_GULL_1.jpg,FAIRY_TERN_4.jpg,3.0,,,,A3DW6KSQPG6GVQ
772,77,,1.0,57.0,TASMANIAN_HEN_5.jpg,GREEN_BROADBILL_1.jpg,1.0,,,,A3DW6KSQPG6GVQ
773,78,,1.0,58.0,SPLENDID_WREN_1.jpg,CUBAN_TODY_4.jpg,3.0,,,,A3DW6KSQPG6GVQ
774,79,,1.0,59.0,KILLDEAR_2.jpg,CAATINGA_CACHOLOTE_4.jpg,2.0,,,,A3DW6KSQPG6GVQ
775,80,,1.0,60.0,BROWN_THRASHER_3.jpg,DOUBLE_EYED_FIG_PARROT_3.jpg,1.0,,,,A3DW6KSQPG6GVQ
776,81,,1.0,61.0,SCARLET_TANAGER_2.jpg,BORNEAN_LEAFBIRD_1.jpg,3.0,,,,A3DW6KSQPG6GVQ
777,82,,1.0,62.0,AMERICAN_PIPIT_5.jpg,EMU_2.jpg,1.0,,,,A3DW6KSQPG6GVQ
778,83,,1.0,63.0,ASIAN_CRESTED_IBIS_4.jpg,OYSTER_CATCHER_2.jpg,2.0,,,,A3DW6KSQPG6GVQ
779,84,,1.0,64.0,ECUADORIAN_HILLSTAR_5.jpg,BOBOLINK_5.jpg,2.0,,,,A3DW6KSQPG6GVQ
780,20,,1.0,0.0,MALACHITE_KINGFISHER_2.jpg,INCA_TERN_2.jpg,2.0,,,,A1MD74JPL7E9PK
781,21,,1.0,1.0,CRESTED_NUTHATCH_2.jpg,SCARLET_IBIS_3.jpg,1.0,,,,A1MD74JPL7E9PK
782,22,,1.0,2.0,VERMILION_FLYCATHER_3.jpg,INDIAN_BUSTARD_1.jpg,1.0,,,,A1MD74JPL7E9PK
783,23,,1.0,3.0,ASIAN_CRESTED_IBIS_4.jpg,CANARY_2.jpg,1.0,,,,A1MD74JPL7E9PK
784,24,,1.0,4.0,RUBY_THROATED_HUMMINGBIRD_2.jpg,DUSKY_ROBIN_5.jpg,3.0,,,,A1MD74JPL7E9PK
785,25,,1.0,5.0,SCARLET_TANAGER_2.jpg,BEARDED_BARBET_2.jpg,1.0,,,,A1MD74JPL7E9PK
786,26,right,1.0,6.0,right.jpg,,,right,1.7337,,A1MD74JPL7E9PK
787,27,,1.0,7.0,DOUBLE_BRESTED_CORMARANT_5.jpg,EURASIAN_MAGPIE_4.jpg,2.0,,,,A1MD74JPL7E9PK
788,28,,1.0,8.0,KILLDEAR_2.jpg,PEACOCK_5.jpg,1.0,,,,A1MD74JPL7E9PK
789,29,,1.0,9.0,GYRFALCON_1.jpg,CINNAMON_ATTILA_2.jpg,2.0,,,,A1MD74JPL7E9PK
790,30,,1.0,10.0,BROWN_THRASHER_3.jpg,BLACK_BAZA_4.jpg,3.0,,,,A1MD74JPL7E9PK
791,31,,1.0,11.0,CASSOWARY_1.jpg,SCARLET_MACAW_1.jpg,2.0,,,,A1MD74JPL7E9PK
792,32,,1.0,12.0,EASTERN_TOWEE_2.jpg,GOLDEN_CHLOROPHONIA_1.jpg,2.0,,,,A1MD74JPL7E9PK
793,33,,1.0,13.0,PARUS_MAJOR_1.jpg,SANDHILL_CRANE_4.jpg,1.0,,,,A1MD74JPL7E9PK
794,34,,1.0,14.0,GOLDEN_CHEEKED_WARBLER_2.jpg,HOUSE_FINCH_2.jpg,2.0,,,,A1MD74JPL7E9PK
795,35,,1.0,15.0,LARK_BUNTING_2.jpg,KING_VULTURE_3.jpg,2.0,,,,A1MD74JPL7E9PK
796,36,,1.0,16.0,NORTHERN_JACANA_3.jpg,AMERICAN_GOLDFINCH_4.jpg,1.0,,,,A1MD74JPL7E9PK
797,37,,1.0,17.0,OVENBIRD_5.jpg,MYNA_4.jpg,1.0,,,,A1MD74JPL7E9PK
798,38,,1.0,18.0,BROWN_NOODY_3.jpg,SPANGLED_COTINGA_4.jpg,2.0,,,,A1MD74JPL7E9PK
799,39,,1.0,19.0,MAGPIE_GOOSE_5.jpg,HAMERKOP_1.jpg,2.0,,,,A1MD74JPL7E9PK
800,40,,1.0,20.0,INLAND_DOTTEREL_4.jpg,NICOBAR_PIGEON_4.jpg,2.0,,,,A1MD74JPL7E9PK
801,41,,1.0,21.0,ASIAN_DOLLARD_BIRD_2.jpg,VIOLET_GREEN_SWALLOW_4.jpg,3.0,,,,A1MD74JPL7E9PK
802,42,,1.0,22.0,INCA_TERN_4.jpg,BORNEAN_BRISTLEHEAD_5.jpg,3.0,,,,A1MD74JPL7E9PK
803,43,right,1.0,23.0,right.jpg,,,right,1.6026,,A1MD74JPL7E9PK
804,44,,1.0,24.0,AFRICAN_PIED_HORNBILL_5.jpg,ALEXANDRINE_PARAKEET_1.jpg,2.0,,,,A1MD74JPL7E9PK
805,45,,1.0,25.0,ALPINE_CHOUGH_4.jpg,BOBOLINK_3.jpg,3.0,,,,A1MD74JPL7E9PK
806,46,,1.0,26.0,KAGU_5.jpg,DEMOISELLE_CRANE_1.jpg,3.0,,,,A1MD74JPL7E9PK
807,47,,1.0,27.0,SHOEBILL_3.jpg,BALD_EAGLE_5.jpg,3.0,,,,A1MD74JPL7E9PK
808,48,,1.0,28.0,SPLENDID_WREN_1.jpg,POMARINE_JAEGER_5.jpg,1.0,,,,A1MD74JPL7E9PK
809,49,,1.0,29.0,ECUADORIAN_HILLSTAR_5.jpg,BOBOLINK_5.jpg,2.0,,,,A1MD74JPL7E9PK
810,50,,1.0,30.0,BREWERS_BLACKBIRD_3.jpg,GOLDEN_CHEEKED_WARBLER_3.jpg,2.0,,,,A1MD74JPL7E9PK
811,51,,1.0,31.0,TASMANIAN_HEN_5.jpg,AFRICAN_EMERALD_CUCKOO_5.jpg,2.0,,,,A1MD74JPL7E9PK
812,52,,1.0,32.0,IVORY_GULL_1.jpg,FAIRY_TERN_4.jpg,3.0,,,,A1MD74JPL7E9PK
813,53,right,1.0,33.0,right.jpg,,,right,1.6348,,A1MD74JPL7E9PK
814,54,,1.0,34.0,RUBY_THROATED_HUMMINGBIRD_1.jpg,FRIGATE_1.jpg,3.0,,,,A1MD74JPL7E9PK
815,55,,1.0,35.0,BALI_STARLING_1.jpg,CAPE_LONGCLAW_5.jpg,1.0,,,,A1MD74JPL7E9PK
816,56,left,1.0,36.0,left.jpg,,,left,1.6607,,A1MD74JPL7E9PK
817,57,,1.0,37.0,LESSER_ADJUTANT_4.jpg,RAINBOW_LORIKEET_5.jpg,2.0,,,,A1MD74JPL7E9PK
818,58,,1.0,38.0,AMERICAN_PIPIT_5.jpg,GREEN_MAGPIE_1.jpg,2.0,,,,A1MD74JPL7E9PK
819,59,,1.0,39.0,CERULEAN_WARBLER_1.jpg,BANANAQUIT_1.jpg,3.0,,,,A1MD74JPL7E9PK
820,60,,1.0,40.0,INDIGO_BUNTING_1.jpg,DARWINS_FLYCATCHER_2.jpg,3.0,,,,A1MD74JPL7E9PK
821,61,,1.0,41.0,RED_HEADED_WOODPECKER_5.jpg,CRIMSON_CHAT_3.jpg,2.0,,,,A1MD74JPL7E9PK
822,62,,1.0,42.0,GOLDEN_CHLOROPHONIA_5.jpg,ROADRUNNER_2.jpg,1.0,,,,A1MD74JPL7E9PK
823,63,,1.0,43.0,MYNA_1.jpg,PARADISE_TANAGER_3.jpg,3.0,,,,A1MD74JPL7E9PK
824,64,,1.0,44.0,PYGMY_KINGFISHER_5.jpg,DOUBLE_EYED_FIG_PARROT_4.jpg,3.0,,,,A1MD74JPL7E9PK
825,65,,1.0,45.0,HAWAIIAN_GOOSE_4.jpg,CUBAN_TODY_3.jpg,1.0,,,,A1MD74JPL7E9PK
826,66,,1.0,46.0,EUROPEAN_TURTLE_DOVE_3.jpg,TEAL_DUCK_2.jpg,1.0,,,,A1MD74JPL7E9PK
827,67,left,1.0,47.0,left.jpg,,,left,1.9422,,A1MD74JPL7E9PK
828,68,,1.0,48.0,WHITE_CHEEKED_TURACO_5.jpg,PYGMY_KINGFISHER_2.jpg,3.0,,,,A1MD74JPL7E9PK
829,69,,1.0,49.0,LESSER_ADJUTANT_5.jpg,GREEN_BROADBILL_4.jpg,1.0,,,,A1MD74JPL7E9PK
830,70,,1.0,50.0,RUBY_THROATED_HUMMINGBIRD_3.jpg,NORTHERN_SHOVELER_1.jpg,3.0,,,,A1MD74JPL7E9PK
831,71,,1.0,51.0,LITTLE_AUK_5.jpg,BEARDED_BELLBIRD_1.jpg,3.0,,,,A1MD74JPL7E9PK
832,72,,1.0,52.0,CRESTED_CARACARA_4.jpg,INDIAN_PITTA_2.jpg,2.0,,,,A1MD74JPL7E9PK
833,73,,1.0,53.0,PEACOCK_3.jpg,ANIANIAU_2.jpg,1.0,,,,A1MD74JPL7E9PK
834,74,,1.0,54.0,CHUKAR_PARTRIDGE_5.jpg,OSTRICH_5.jpg,1.0,,,,A1MD74JPL7E9PK
835,75,,1.0,55.0,RUFOUS_KINGFISHER_1.jpg,SNOWY_OWL_5.jpg,1.0,,,,A1MD74JPL7E9PK
836,76,,1.0,56.0,GREY_PLOVER_1.jpg,GOULDIAN_FINCH_4.jpg,2.0,,,,A1MD74JPL7E9PK
837,77,,1.0,57.0,ARARIPE_MANAKIN_4.jpg,KIWI_3.jpg,1.0,,,,A1MD74JPL7E9PK
838,78,,1.0,58.0,OCELLATED_TURKEY_1.jpg,CHIPPING_SPARROW_1.jpg,1.0,,,,A1MD74JPL7E9PK
839,79,,1.0,59.0,FLAME_BOWERBIRD_3.jpg,QUETZAL_3.jpg,3.0,,,,A1MD74JPL7E9PK
840,80,,1.0,60.0,PINK_ROBIN_4.jpg,ALBATROSS_4.jpg,2.0,,,,A1MD74JPL7E9PK
841,81,,1.0,61.0,GRAY_KINGBIRD_5.jpg,AFRICAN_FIREFINCH_3.jpg,3.0,,,,A1MD74JPL7E9PK
842,82,,1.0,62.0,STRIPPED_SWALLOW_1.jpg,DOUBLE_BRESTED_CORMARANT_4.jpg,1.0,,,,A1MD74JPL7E9PK
843,83,,1.0,63.0,IVORY_GULL_3.jpg,SNOWY_EGRET_4.jpg,3.0,,,,A1MD74JPL7E9PK
844,84,,1.0,64.0,CASPIAN_TERN_1.jpg,COMMON_LOON_2.jpg,3.0,,,,A1MD74JPL7E9PK
845,20,,1.0,0.0,PINK_ROBIN_4.jpg,ALBATROSS_4.jpg,2.0,,,,A2GYZK79RQAH4I
846,21,,1.0,1.0,CRESTED_CARACARA_4.jpg,INDIAN_PITTA_2.jpg,2.0,,,,A2GYZK79RQAH4I
847,22,,1.0,2.0,MAGPIE_GOOSE_5.jpg,DOUBLE_EYED_FIG_PARROT_5.jpg,1.0,,,,A2GYZK79RQAH4I
848,23,,1.0,3.0,RUBY_THROATED_HUMMINGBIRD_2.jpg,APAPANE_4.jpg,2.0,,,,A2GYZK79RQAH4I
849,24,,1.0,4.0,BREWERS_BLACKBIRD_3.jpg,GUINEA_TURACO_3.jpg,1.0,,,,A2GYZK79RQAH4I
850,25,,1.0,5.0,AFRICAN_PIED_HORNBILL_5.jpg,CAPUCHINBIRD_2.jpg,3.0,,,,A2GYZK79RQAH4I
851,26,,1.0,6.0,INLAND_DOTTEREL_4.jpg,CRESTED_KINGFISHER_1.jpg,3.0,,,,A2GYZK79RQAH4I
852,27,,1.0,7.0,GYRFALCON_1.jpg,CINNAMON_ATTILA_2.jpg,2.0,,,,A2GYZK79RQAH4I
853,28,,1.0,8.0,IVORY_GULL_1.jpg,WILSONS_BIRD_OF_PARADISE_4.jpg,1.0,,,,A2GYZK79RQAH4I
854,29,left,1.0,9.0,left.jpg,,,left,1.247,,A2GYZK79RQAH4I
855,30,,1.0,10.0,BALI_STARLING_1.jpg,IBERIAN_MAGPIE_1.jpg,3.0,,,,A2GYZK79RQAH4I
856,31,,1.0,11.0,GOLDEN_CHEEKED_WARBLER_2.jpg,WHITE_THROATED_BEE_EATER_1.jpg,3.0,,,,A2GYZK79RQAH4I
857,32,,1.0,12.0,ECUADORIAN_HILLSTAR_5.jpg,SCARLET_IBIS_2.jpg,1.0,,,,A2GYZK79RQAH4I
858,33,,1.0,13.0,MYNA_1.jpg,OSTRICH_3.jpg,1.0,,,,A2GYZK79RQAH4I
859,34,,1.0,14.0,IVORY_GULL_3.jpg,INDIGO_FLYCATCHER_2.jpg,1.0,,,,A2GYZK79RQAH4I
860,35,,1.0,15.0,STRIPPED_SWALLOW_1.jpg,MAGPIE_GOOSE_4.jpg,2.0,,,,A2GYZK79RQAH4I
861,36,,1.0,16.0,KILLDEAR_2.jpg,CAATINGA_CACHOLOTE_4.jpg,2.0,,,,A2GYZK79RQAH4I
862,37,,1.0,17.0,LITTLE_AUK_5.jpg,SANDHILL_CRANE_3.jpg,1.0,,,,A2GYZK79RQAH4I
863,38,,1.0,18.0,SCARLET_TANAGER_2.jpg,BORNEAN_LEAFBIRD_1.jpg,3.0,,,,A2GYZK79RQAH4I
864,39,,1.0,19.0,CERULEAN_WARBLER_1.jpg,AMERICAN_FLAMINGO_5.jpg,2.0,,,,A2GYZK79RQAH4I
865,40,,1.0,20.0,ASIAN_DOLLARD_BIRD_2.jpg,LOGGERHEAD_SHRIKE_4.jpg,2.0,,,,A2GYZK79RQAH4I
866,41,,1.0,21.0,RED_HEADED_WOODPECKER_5.jpg,COLLARED_ARACARI_1.jpg,3.0,,,,A2GYZK79RQAH4I
867,42,left,1.0,22.0,left.jpg,,,left,1.1596,,A2GYZK79RQAH4I
868,43,,1.0,23.0,ALPINE_CHOUGH_4.jpg,BOBOLINK_3.jpg,3.0,,,,A2GYZK79RQAH4I
869,44,,1.0,24.0,AMERICAN_PIPIT_5.jpg,EMU_2.jpg,1.0,,,,A2GYZK79RQAH4I
870,45,,1.0,25.0,RUFOUS_KINGFISHER_1.jpg,SNOWY_OWL_5.jpg,1.0,,,,A2GYZK79RQAH4I
871,46,,1.0,26.0,GRAY_KINGBIRD_5.jpg,COCK_OF_THE__ROCK_4.jpg,2.0,,,,A2GYZK79RQAH4I
872,47,,1.0,27.0,DOUBLE_BRESTED_CORMARANT_5.jpg,CHINESE_POND_HERON_2.jpg,3.0,,,,A2GYZK79RQAH4I
873,48,,1.0,28.0,RUBY_THROATED_HUMMINGBIRD_3.jpg,MYNA_5.jpg,2.0,,,,A2GYZK79RQAH4I
874,49,,1.0,29.0,LESSER_ADJUTANT_5.jpg,RED_HEADED_WOODPECKER_1.jpg,3.0,,,,A2GYZK79RQAH4I
875,50,,1.0,30.0,NORTHERN_JACANA_3.jpg,SCARLET_IBIS_4.jpg,3.0,,,,A2GYZK79RQAH4I
876,51,left,1.0,31.0,left.jpg,,,left,0.9528,,A2GYZK79RQAH4I
877,52,,1.0,32.0,PARUS_MAJOR_1.jpg,CALIFORNIA_GULL_2.jpg,2.0,,,,A2GYZK79RQAH4I
878,53,,1.0,33.0,OVENBIRD_5.jpg,SHORT_BILLED_DOWITCHER_5.jpg,3.0,,,,A2GYZK79RQAH4I
879,54,,1.0,34.0,RUBY_THROATED_HUMMINGBIRD_1.jpg,BANANAQUIT_2.jpg,1.0,,,,A2GYZK79RQAH4I
880,55,,1.0,35.0,LARK_BUNTING_2.jpg,KING_VULTURE_3.jpg,2.0,,,,A2GYZK79RQAH4I
881,56,,1.0,36.0,LESSER_ADJUTANT_4.jpg,ALTAMIRA_YELLOWTHROAT_5.jpg,1.0,,,,A2GYZK79RQAH4I
882,57,,1.0,37.0,GOLDEN_CHLOROPHONIA_5.jpg,VERMILION_FLYCATHER_5.jpg,3.0,,,,A2GYZK79RQAH4I
883,58,left,1.0,38.0,left.jpg,,,left,1.0788,,A2GYZK79RQAH4I
884,59,,1.0,39.0,SHOEBILL_3.jpg,GILDED_FLICKER_5.jpg,2.0,,,,A2GYZK79RQAH4I
885,60,,1.0,40.0,INCA_TERN_4.jpg,BORNEAN_BRISTLEHEAD_5.jpg,3.0,,,,A2GYZK79RQAH4I
886,61,,1.0,41.0,CASSOWARY_1.jpg,ROSY_FACED_LOVEBIRD_4.jpg,1.0,,,,A2GYZK79RQAH4I
887,62,,1.0,42.0,GREY_PLOVER_1.jpg,HYACINTH_MACAW_3.jpg,1.0,,,,A2GYZK79RQAH4I
888,63,,1.0,43.0,PEACOCK_3.jpg,STRAWBERRY_FINCH_4.jpg,2.0,,,,A2GYZK79RQAH4I
889,64,,1.0,44.0,ASIAN_CRESTED_IBIS_4.jpg,IVORY_GULL_2.jpg,3.0,,,,A2GYZK79RQAH4I
890,65,,1.0,45.0,EUROPEAN_TURTLE_DOVE_3.jpg,TEAL_DUCK_2.jpg,1.0,,,,A2GYZK79RQAH4I
891,66,,1.0,46.0,INDIGO_BUNTING_1.jpg,NORTHERN_GANNET_1.jpg,2.0,,,,A2GYZK79RQAH4I
892,67,right,1.0,47.0,right.jpg,,,right,1.1932,,A2GYZK79RQAH4I
893,68,,1.0,48.0,FLAME_BOWERBIRD_3.jpg,INDIAN_BUSTARD_2.jpg,1.0,,,,A2GYZK79RQAH4I
894,69,,1.0,49.0,CHUKAR_PARTRIDGE_5.jpg,BLACK_THROATED_BUSHTIT_1.jpg,3.0,,,,A2GYZK79RQAH4I
895,70,,1.0,50.0,CRESTED_NUTHATCH_2.jpg,CANARY_1.jpg,3.0,,,,A2GYZK79RQAH4I
896,71,,1.0,51.0,BROWN_THRASHER_3.jpg,DOUBLE_EYED_FIG_PARROT_3.jpg,1.0,,,,A2GYZK79RQAH4I
897,72,,1.0,52.0,BROWN_NOODY_3.jpg,SPANGLED_COTINGA_4.jpg,2.0,,,,A2GYZK79RQAH4I
898,73,,1.0,53.0,KAGU_5.jpg,ASHY_STORM_PETREL_1.jpg,2.0,,,,A2GYZK79RQAH4I
899,74,,1.0,54.0,SPLENDID_WREN_1.jpg,POMARINE_JAEGER_5.jpg,1.0,,,,A2GYZK79RQAH4I
900,75,,1.0,55.0,WHITE_CHEEKED_TURACO_5.jpg,GREAT_POTOO_3.jpg,2.0,,,,A2GYZK79RQAH4I
901,76,,1.0,56.0,OCELLATED_TURKEY_1.jpg,PURPLE_SWAMPHEN_4.jpg,3.0,,,,A2GYZK79RQAH4I
902,77,,1.0,57.0,VERMILION_FLYCATHER_3.jpg,RED_BEARDED_BEE_EATER_1.jpg,3.0,,,,A2GYZK79RQAH4I
903,78,,1.0,58.0,HAWAIIAN_GOOSE_4.jpg,WATTLED_LAPWING_3.jpg,3.0,,,,A2GYZK79RQAH4I
904,79,,1.0,59.0,TASMANIAN_HEN_5.jpg,AFRICAN_EMERALD_CUCKOO_5.jpg,2.0,,,,A2GYZK79RQAH4I
905,80,,1.0,60.0,CASPIAN_TERN_1.jpg,COMMON_LOON_2.jpg,3.0,,,,A2GYZK79RQAH4I
906,81,,1.0,61.0,MALACHITE_KINGFISHER_2.jpg,INCA_TERN_2.jpg,2.0,,,,A2GYZK79RQAH4I
907,82,,1.0,62.0,EASTERN_TOWEE_2.jpg,SANDHILL_CRANE_2.jpg,1.0,,,,A2GYZK79RQAH4I
908,83,,1.0,63.0,ARARIPE_MANAKIN_4.jpg,KIWI_3.jpg,1.0,,,,A2GYZK79RQAH4I
909,84,,1.0,64.0,PYGMY_KINGFISHER_5.jpg,GRANDALA_2.jpg,1.0,,,,A2GYZK79RQAH4I
910,20,,1.0,0.0,AFRICAN_PIED_HORNBILL_5.jpg,KIWI_4.jpg,1.0,,,,A3YG4NM3FQQQY
911,21,,1.0,1.0,AMERICAN_PIPIT_5.jpg,EMU_2.jpg,1.0,,,,A3YG4NM3FQQQY
912,22,,1.0,2.0,CASSOWARY_1.jpg,ROSY_FACED_LOVEBIRD_4.jpg,1.0,,,,A3YG4NM3FQQQY
913,23,,1.0,3.0,KILLDEAR_2.jpg,PEACOCK_5.jpg,1.0,,,,A3YG4NM3FQQQY
914,24,,1.0,4.0,INDIGO_BUNTING_1.jpg,FRIGATE_4.jpg,1.0,,,,A3YG4NM3FQQQY
915,25,,1.0,5.0,ASIAN_DOLLARD_BIRD_2.jpg,ALBATROSS_2.jpg,1.0,,,,A3YG4NM3FQQQY
916,26,,1.0,6.0,INLAND_DOTTEREL_4.jpg,NICOBAR_PIGEON_4.jpg,2.0,,,,A3YG4NM3FQQQY
917,27,,1.0,7.0,EUROPEAN_TURTLE_DOVE_3.jpg,PAINTED_BUNTING_3.jpg,2.0,,,,A3YG4NM3FQQQY
918,28,,1.0,8.0,SPLENDID_WREN_1.jpg,DOUBLE_BRESTED_CORMARANT_1.jpg,2.0,,,,A3YG4NM3FQQQY
919,29,,0.0,9.0,right.jpg,,,right,,,A3YG4NM3FQQQY
920,30,,1.0,10.0,STRIPPED_SWALLOW_1.jpg,DOUBLE_BRESTED_CORMARANT_4.jpg,1.0,,,,A3YG4NM3FQQQY
921,31,,1.0,11.0,CHUKAR_PARTRIDGE_5.jpg,BLACK_THROATED_BUSHTIT_1.jpg,3.0,,,,A3YG4NM3FQQQY
922,32,,1.0,12.0,PEACOCK_3.jpg,CHATTERING_LORY_2.jpg,3.0,,,,A3YG4NM3FQQQY
923,33,,1.0,13.0,ECUADORIAN_HILLSTAR_5.jpg,SCARLET_IBIS_2.jpg,1.0,,,,A3YG4NM3FQQQY
924,34,,1.0,14.0,DOUBLE_BRESTED_CORMARANT_5.jpg,EURASIAN_MAGPIE_4.jpg,2.0,,,,A3YG4NM3FQQQY
925,35,,1.0,15.0,IVORY_GULL_3.jpg,FLAME_TANAGER_3.jpg,2.0,,,,A3YG4NM3FQQQY
926,36,,1.0,16.0,CRESTED_NUTHATCH_2.jpg,AFRICAN_FIREFINCH_1.jpg,2.0,,,,A3YG4NM3FQQQY
927,37,,1.0,17.0,MAGPIE_GOOSE_5.jpg,OYSTER_CATCHER_3.jpg,3.0,,,,A3YG4NM3FQQQY
928,38,,1.0,18.0,PYGMY_KINGFISHER_5.jpg,DOUBLE_EYED_FIG_PARROT_4.jpg,3.0,,,,A3YG4NM3FQQQY
929,39,,1.0,19.0,RUFOUS_KINGFISHER_1.jpg,SNOWY_OWL_5.jpg,1.0,,,,A3YG4NM3FQQQY
930,40,,1.0,20.0,RED_HEADED_WOODPECKER_5.jpg,CRIMSON_CHAT_3.jpg,2.0,,,,A3YG4NM3FQQQY
931,41,right,1.0,21.0,right.jpg,,,right,1.1463,,A3YG4NM3FQQQY
932,42,,1.0,22.0,GREY_PLOVER_1.jpg,GOULDIAN_FINCH_4.jpg,2.0,,,,A3YG4NM3FQQQY
933,43,,1.0,23.0,IVORY_GULL_1.jpg,FAIRY_TERN_4.jpg,3.0,,,,A3YG4NM3FQQQY
934,44,,1.0,24.0,FLAME_BOWERBIRD_3.jpg,INDIAN_BUSTARD_2.jpg,1.0,,,,A3YG4NM3FQQQY
935,45,,1.0,25.0,BALI_STARLING_1.jpg,PURPLE_FINCH_2.jpg,2.0,,,,A3YG4NM3FQQQY
936,46,,1.0,26.0,PARUS_MAJOR_1.jpg,PINK_ROBIN_3.jpg,3.0,,,,A3YG4NM3FQQQY
937,47,,1.0,27.0,BROWN_NOODY_3.jpg,PEACOCK_2.jpg,1.0,,,,A3YG4NM3FQQQY
938,48,,1.0,28.0,OVENBIRD_5.jpg,SHORT_BILLED_DOWITCHER_5.jpg,3.0,,,,A3YG4NM3FQQQY
939,49,,1.0,29.0,HAWAIIAN_GOOSE_4.jpg,CUBAN_TODY_3.jpg,1.0,,,,A3YG4NM3FQQQY
940,50,,1.0,30.0,MALACHITE_KINGFISHER_2.jpg,GREEN_BROADBILL_5.jpg,3.0,,,,A3YG4NM3FQQQY
941,51,,1.0,31.0,CERULEAN_WARBLER_1.jpg,AMERICAN_FLAMINGO_2.jpg,1.0,,,,A3YG4NM3FQQQY
942,52,,1.0,32.0,GOLDEN_CHEEKED_WARBLER_2.jpg,HOUSE_FINCH_2.jpg,2.0,,,,A3YG4NM3FQQQY
943,53,right,1.0,33.0,right.jpg,,,right,1.2803,,A3YG4NM3FQQQY
944,54,,1.0,34.0,KAGU_5.jpg,DEMOISELLE_CRANE_1.jpg,3.0,,,,A3YG4NM3FQQQY
945,55,,1.0,35.0,LITTLE_AUK_5.jpg,ORANGE_BRESTED_BUNTING_3.jpg,2.0,,,,A3YG4NM3FQQQY
946,56,,1.0,36.0,MYNA_1.jpg,GREY_PLOVER_4.jpg,2.0,,,,A3YG4NM3FQQQY
947,57,,1.0,37.0,SCARLET_TANAGER_2.jpg,BORNEAN_LEAFBIRD_1.jpg,3.0,,,,A3YG4NM3FQQQY
948,58,,1.0,38.0,LESSER_ADJUTANT_4.jpg,RAINBOW_LORIKEET_5.jpg,2.0,,,,A3YG4NM3FQQQY
949,59,,1.0,39.0,ASIAN_CRESTED_IBIS_4.jpg,IVORY_GULL_2.jpg,3.0,,,,A3YG4NM3FQQQY
950,60,,1.0,40.0,RUBY_THROATED_HUMMINGBIRD_1.jpg,FRIGATE_1.jpg,3.0,,,,A3YG4NM3FQQQY
951,61,right,1.0,41.0,right.jpg,,,right,2.3604,,A3YG4NM3FQQQY
952,62,,1.0,42.0,OCELLATED_TURKEY_1.jpg,PURPLE_SWAMPHEN_4.jpg,3.0,,,,A3YG4NM3FQQQY
953,63,,1.0,43.0,ALPINE_CHOUGH_4.jpg,BOBOLINK_3.jpg,3.0,,,,A3YG4NM3FQQQY
954,64,,1.0,44.0,BROWN_THRASHER_3.jpg,DOUBLE_EYED_FIG_PARROT_3.jpg,1.0,,,,A3YG4NM3FQQQY
955,65,,1.0,45.0,INCA_TERN_4.jpg,SMITHS_LONGSPUR_5.jpg,2.0,,,,A3YG4NM3FQQQY
956,66,,1.0,46.0,WHITE_CHEEKED_TURACO_5.jpg,GREAT_POTOO_3.jpg,2.0,,,,A3YG4NM3FQQQY
957,67,,1.0,47.0,SHOEBILL_3.jpg,BALD_EAGLE_5.jpg,3.0,,,,A3YG4NM3FQQQY
958,68,,1.0,48.0,EASTERN_TOWEE_2.jpg,GOLDEN_CHLOROPHONIA_1.jpg,2.0,,,,A3YG4NM3FQQQY
959,69,,1.0,49.0,BREWERS_BLACKBIRD_3.jpg,GUINEA_TURACO_3.jpg,1.0,,,,A3YG4NM3FQQQY
960,70,,1.0,50.0,CASPIAN_TERN_1.jpg,COMMON_LOON_2.jpg,3.0,,,,A3YG4NM3FQQQY
961,71,,1.0,51.0,RUBY_THROATED_HUMMINGBIRD_2.jpg,GOLDEN_CHLOROPHONIA_2.jpg,1.0,,,,A3YG4NM3FQQQY
962,72,,1.0,52.0,PINK_ROBIN_4.jpg,ALBATROSS_4.jpg,2.0,,,,A3YG4NM3FQQQY
963,73,,1.0,53.0,GYRFALCON_1.jpg,FAIRY_TERN_1.jpg,3.0,,,,A3YG4NM3FQQQY
964,74,left,1.0,54.0,left.jpg,,,left,1.8301,,A3YG4NM3FQQQY
965,75,,1.0,55.0,RUBY_THROATED_HUMMINGBIRD_3.jpg,MALAGASY_WHITE_EYE_2.jpg,1.0,,,,A3YG4NM3FQQQY
966,76,,1.0,56.0,LESSER_ADJUTANT_5.jpg,GREEN_BROADBILL_4.jpg,1.0,,,,A3YG4NM3FQQQY
967,77,,1.0,57.0,GRAY_KINGBIRD_5.jpg,COCK_OF_THE__ROCK_4.jpg,2.0,,,,A3YG4NM3FQQQY
968,78,,1.0,58.0,NORTHERN_JACANA_3.jpg,AMERICAN_GOLDFINCH_4.jpg,1.0,,,,A3YG4NM3FQQQY
969,79,,1.0,59.0,TASMANIAN_HEN_5.jpg,COPPERY_TAILED_COUCAL_1.jpg,3.0,,,,A3YG4NM3FQQQY
970,80,,1.0,60.0,ARARIPE_MANAKIN_4.jpg,BORNEAN_LEAFBIRD_3.jpg,3.0,,,,A3YG4NM3FQQQY
971,81,,1.0,61.0,VERMILION_FLYCATHER_3.jpg,INDIAN_BUSTARD_1.jpg,1.0,,,,A3YG4NM3FQQQY
972,82,,1.0,62.0,GOLDEN_CHLOROPHONIA_5.jpg,COMMON_HOUSE_MARTIN_4.jpg,2.0,,,,A3YG4NM3FQQQY
973,83,,1.0,63.0,CRESTED_CARACARA_4.jpg,TOUCHAN_4.jpg,3.0,,,,A3YG4NM3FQQQY
974,84,,1.0,64.0,LARK_BUNTING_2.jpg,KING_VULTURE_3.jpg,2.0,,,,A3YG4NM3FQQQY
975,20,,1.0,0.0,AMERICAN_PIPIT_5.jpg,HEPATIC_TANAGER_5.jpg,3.0,,,,A2CZ8O9PGNTC2L
976,21,,1.0,1.0,CRESTED_CARACARA_4.jpg,FAIRY_PENGUIN_5.jpg,1.0,,,,A2CZ8O9PGNTC2L
977,22,,1.0,2.0,NORTHERN_JACANA_3.jpg,CRAB_PLOVER_3.jpg,2.0,,,,A2CZ8O9PGNTC2L
978,23,,1.0,3.0,SHOEBILL_3.jpg,EASTERN_MEADOWLARK_1.jpg,1.0,,,,A2CZ8O9PGNTC2L
979,24,,1.0,4.0,ASIAN_DOLLARD_BIRD_2.jpg,ALBATROSS_2.jpg,1.0,,,,A2CZ8O9PGNTC2L
980,25,,1.0,5.0,CRESTED_NUTHATCH_2.jpg,CANARY_1.jpg,3.0,,,,A2CZ8O9PGNTC2L
981,26,,1.0,6.0,RUBY_THROATED_HUMMINGBIRD_3.jpg,MALAGASY_WHITE_EYE_2.jpg,1.0,,,,A2CZ8O9PGNTC2L
982,27,,1.0,7.0,RUBY_THROATED_HUMMINGBIRD_2.jpg,DUSKY_ROBIN_5.jpg,3.0,,,,A2CZ8O9PGNTC2L
983,28,,1.0,8.0,RED_HEADED_WOODPECKER_5.jpg,CRIMSON_CHAT_3.jpg,2.0,,,,A2CZ8O9PGNTC2L
984,29,,1.0,9.0,GOLDEN_CHEEKED_WARBLER_2.jpg,WHITE_THROATED_BEE_EATER_1.jpg,3.0,,,,A2CZ8O9PGNTC2L
985,30,,1.0,10.0,BROWN_NOODY_3.jpg,SPANGLED_COTINGA_4.jpg,2.0,,,,A2CZ8O9PGNTC2L
986,31,left,1.0,11.0,left.jpg,,,left,0.956,,A2CZ8O9PGNTC2L
987,32,,1.0,12.0,LESSER_ADJUTANT_5.jpg,GREEN_BROADBILL_4.jpg,1.0,,,,A2CZ8O9PGNTC2L
988,33,,1.0,13.0,CERULEAN_WARBLER_1.jpg,AMERICAN_FLAMINGO_5.jpg,2.0,,,,A2CZ8O9PGNTC2L
989,34,,1.0,14.0,MALACHITE_KINGFISHER_2.jpg,GREEN_BROADBILL_5.jpg,3.0,,,,A2CZ8O9PGNTC2L
990,35,,1.0,15.0,PYGMY_KINGFISHER_5.jpg,GRANDALA_2.jpg,1.0,,,,A2CZ8O9PGNTC2L
991,36,right,1.0,16.0,right.jpg,,,right,1.746,,A2CZ8O9PGNTC2L
992,37,,1.0,17.0,EUROPEAN_TURTLE_DOVE_3.jpg,PAINTED_BUNTING_3.jpg,2.0,,,,A2CZ8O9PGNTC2L
993,38,,1.0,18.0,HAWAIIAN_GOOSE_4.jpg,HIMALAYAN_MONAL_2.jpg,2.0,,,,A2CZ8O9PGNTC2L
994,39,,1.0,19.0,PEACOCK_3.jpg,CHATTERING_LORY_2.jpg,3.0,,,,A2CZ8O9PGNTC2L
995,40,,1.0,20.0,IVORY_GULL_1.jpg,EASTERN_GOLDEN_WEAVER_5.jpg,2.0,,,,A2CZ8O9PGNTC2L
996,41,,1.0,21.0,WHITE_CHEEKED_TURACO_5.jpg,PYGMY_KINGFISHER_2.jpg,3.0,,,,A2CZ8O9PGNTC2L
997,42,,1.0,22.0,GYRFALCON_1.jpg,CINNAMON_ATTILA_2.jpg,2.0,,,,A2CZ8O9PGNTC2L
998,43,,1.0,23.0,BALI_STARLING_1.jpg,IBERIAN_MAGPIE_1.jpg,3.0,,,,A2CZ8O9PGNTC2L
999,44,,1.0,24.0,RUBY_THROATED_HUMMINGBIRD_1.jpg,VULTURINE_GUINEAFOWL_4.jpg,2.0,,,,A2CZ8O9PGNTC2L
1000,45,,1.0,25.0,LITTLE_AUK_5.jpg,ORANGE_BRESTED_BUNTING_3.jpg,2.0,,,,A2CZ8O9PGNTC2L
1001,46,,1.0,26.0,RUFOUS_KINGFISHER_1.jpg,MAGPIE_GOOSE_3.jpg,2.0,,,,A2CZ8O9PGNTC2L
1002,47,,1.0,27.0,IVORY_GULL_3.jpg,SNOWY_EGRET_4.jpg,3.0,,,,A2CZ8O9PGNTC2L
1003,48,,1.0,28.0,OCELLATED_TURKEY_1.jpg,CHIPPING_SPARROW_1.jpg,1.0,,,,A2CZ8O9PGNTC2L
1004,49,,1.0,29.0,KILLDEAR_2.jpg,AZURE_TIT_5.jpg,3.0,,,,A2CZ8O9PGNTC2L
1005,50,,1.0,30.0,INCA_TERN_4.jpg,ELLIOTS__PHEASANT_4.jpg,1.0,,,,A2CZ8O9PGNTC2L
1006,51,,1.0,31.0,SPLENDID_WREN_1.jpg,POMARINE_JAEGER_5.jpg,1.0,,,,A2CZ8O9PGNTC2L
1007,52,,1.0,32.0,SCARLET_TANAGER_2.jpg,BEARDED_BARBET_2.jpg,1.0,,,,A2CZ8O9PGNTC2L
1008,53,left,1.0,33.0,left.jpg,,,left,1.156,,A2CZ8O9PGNTC2L
1009,54,,1.0,34.0,TASMANIAN_HEN_5.jpg,GREEN_BROADBILL_1.jpg,1.0,,,,A2CZ8O9PGNTC2L
1010,55,,1.0,35.0,LESSER_ADJUTANT_4.jpg,RAINBOW_LORIKEET_5.jpg,2.0,,,,A2CZ8O9PGNTC2L
1011,56,,1.0,36.0,ECUADORIAN_HILLSTAR_5.jpg,SCARLET_IBIS_2.jpg,1.0,,,,A2CZ8O9PGNTC2L
1012,57,left,1.0,37.0,left.jpg,,,left,1.834,,A2CZ8O9PGNTC2L
1013,58,,1.0,38.0,INLAND_DOTTEREL_4.jpg,CRESTED_KINGFISHER_1.jpg,3.0,,,,A2CZ8O9PGNTC2L
1014,59,,1.0,39.0,BROWN_THRASHER_3.jpg,BLACK_BAZA_4.jpg,3.0,,,,A2CZ8O9PGNTC2L
1015,60,,1.0,40.0,BREWERS_BLACKBIRD_3.jpg,GOLDEN_CHEEKED_WARBLER_3.jpg,2.0,,,,A2CZ8O9PGNTC2L
1016,61,,1.0,41.0,PINK_ROBIN_4.jpg,COMMON_IORA_4.jpg,3.0,,,,A2CZ8O9PGNTC2L
1017,62,,1.0,42.0,MAGPIE_GOOSE_5.jpg,DOUBLE_EYED_FIG_PARROT_5.jpg,1.0,,,,A2CZ8O9PGNTC2L
1018,63,,1.0,43.0,KAGU_5.jpg,ASHY_STORM_PETREL_1.jpg,2.0,,,,A2CZ8O9PGNTC2L
1019,64,,1.0,44.0,GRAY_KINGBIRD_5.jpg,AFRICAN_FIREFINCH_3.jpg,3.0,,,,A2CZ8O9PGNTC2L
1020,65,,1.0,45.0,DOUBLE_BRESTED_CORMARANT_5.jpg,GILDED_FLICKER_2.jpg,1.0,,,,A2CZ8O9PGNTC2L
1021,66,,1.0,46.0,CASPIAN_TERN_1.jpg,COMMON_LOON_2.jpg,3.0,,,,A2CZ8O9PGNTC2L
1022,67,,1.0,47.0,STRIPPED_SWALLOW_1.jpg,MAGPIE_GOOSE_4.jpg,2.0,,,,A2CZ8O9PGNTC2L
1023,68,,1.0,48.0,GOLDEN_CHLOROPHONIA_5.jpg,COMMON_HOUSE_MARTIN_4.jpg,2.0,,,,A2CZ8O9PGNTC2L
1024,69,,1.0,49.0,AFRICAN_PIED_HORNBILL_5.jpg,ALEXANDRINE_PARAKEET_1.jpg,2.0,,,,A2CZ8O9PGNTC2L
1025,70,,1.0,50.0,ALPINE_CHOUGH_4.jpg,BOBOLINK_3.jpg,3.0,,,,A2CZ8O9PGNTC2L
1026,71,,1.0,51.0,ASIAN_CRESTED_IBIS_4.jpg,CANARY_2.jpg,1.0,,,,A2CZ8O9PGNTC2L
1027,72,left,1.0,52.0,left.jpg,,,left,1.25,,A2CZ8O9PGNTC2L
1028,73,,1.0,53.0,LARK_BUNTING_2.jpg,PEACOCK_1.jpg,1.0,,,,A2CZ8O9PGNTC2L
1029,74,,1.0,54.0,CHUKAR_PARTRIDGE_5.jpg,BLACK_THROATED_BUSHTIT_1.jpg,3.0,,,,A2CZ8O9PGNTC2L
1030,75,,1.0,55.0,OVENBIRD_5.jpg,MYNA_4.jpg,1.0,,,,A2CZ8O9PGNTC2L
1031,76,,1.0,56.0,ARARIPE_MANAKIN_4.jpg,KIWI_3.jpg,1.0,,,,A2CZ8O9PGNTC2L
1032,77,,1.0,57.0,PARUS_MAJOR_1.jpg,SANDHILL_CRANE_4.jpg,1.0,,,,A2CZ8O9PGNTC2L
1033,78,,1.0,58.0,FLAME_BOWERBIRD_3.jpg,BROWN_THRASHER_4.jpg,2.0,,,,A2CZ8O9PGNTC2L
1034,79,,1.0,59.0,CASSOWARY_1.jpg,ROSY_FACED_LOVEBIRD_4.jpg,1.0,,,,A2CZ8O9PGNTC2L
1035,80,,1.0,60.0,INDIGO_BUNTING_1.jpg,DARWINS_FLYCATCHER_2.jpg,3.0,,,,A2CZ8O9PGNTC2L
1036,81,,1.0,61.0,MYNA_1.jpg,GREY_PLOVER_4.jpg,2.0,,,,A2CZ8O9PGNTC2L
1037,82,,1.0,62.0,EASTERN_TOWEE_2.jpg,GOLDEN_CHLOROPHONIA_1.jpg,2.0,,,,A2CZ8O9PGNTC2L
1038,83,,1.0,63.0,GREY_PLOVER_1.jpg,ECUADORIAN_HILLSTAR_3.jpg,3.0,,,,A2CZ8O9PGNTC2L
1039,84,,1.0,64.0,VERMILION_FLYCATHER_3.jpg,RED_BEARDED_BEE_EATER_1.jpg,3.0,,,,A2CZ8O9PGNTC2L
1040,20,,1.0,0.0,GYRFALCON_1.jpg,OSTRICH_1.jpg,1.0,,,,A2LMSIDVE4E4IO
1041,21,,1.0,1.0,CERULEAN_WARBLER_1.jpg,AMERICAN_FLAMINGO_5.jpg,2.0,,,,A2LMSIDVE4E4IO
1042,22,,1.0,2.0,SPLENDID_WREN_1.jpg,DOUBLE_BRESTED_CORMARANT_1.jpg,2.0,,,,A2LMSIDVE4E4IO
1043,23,,1.0,3.0,RUBY_THROATED_HUMMINGBIRD_2.jpg,DUSKY_ROBIN_5.jpg,3.0,,,,A2LMSIDVE4E4IO
1044,24,,1.0,4.0,BALI_STARLING_1.jpg,PURPLE_FINCH_2.jpg,2.0,,,,A2LMSIDVE4E4IO
1045,25,,1.0,5.0,INDIGO_BUNTING_1.jpg,FRIGATE_4.jpg,1.0,,,,A2LMSIDVE4E4IO
1046,26,,1.0,6.0,SHOEBILL_3.jpg,EASTERN_MEADOWLARK_1.jpg,1.0,,,,A2LMSIDVE4E4IO
1047,27,,1.0,7.0,RUFOUS_KINGFISHER_1.jpg,SNOWY_OWL_5.jpg,1.0,,,,A2LMSIDVE4E4IO
1048,28,,1.0,8.0,AMERICAN_PIPIT_5.jpg,GREEN_MAGPIE_1.jpg,2.0,,,,A2LMSIDVE4E4IO
1049,29,,1.0,9.0,ALPINE_CHOUGH_4.jpg,EUROPEAN_GOLDFINCH_3.jpg,2.0,,,,A2LMSIDVE4E4IO
1050,30,,1.0,10.0,INLAND_DOTTEREL_4.jpg,NICOBAR_PIGEON_4.jpg,2.0,,,,A2LMSIDVE4E4IO
1051,31,,1.0,11.0,ASIAN_CRESTED_IBIS_4.jpg,OYSTER_CATCHER_2.jpg,2.0,,,,A2LMSIDVE4E4IO
1052,32,,1.0,12.0,VERMILION_FLYCATHER_3.jpg,CALIFORNIA_GULL_1.jpg,2.0,,,,A2LMSIDVE4E4IO
1053,33,,1.0,13.0,RUBY_THROATED_HUMMINGBIRD_1.jpg,FRIGATE_1.jpg,3.0,,,,A2LMSIDVE4E4IO
1054,34,left,1.0,14.0,left.jpg,,,left,2.0515,,A2LMSIDVE4E4IO
1055,35,,1.0,15.0,MAGPIE_GOOSE_5.jpg,OYSTER_CATCHER_3.jpg,3.0,,,,A2LMSIDVE4E4IO
1056,36,right,1.0,16.0,right.jpg,,,right,1.776400001,,A2LMSIDVE4E4IO
1057,37,,1.0,17.0,TASMANIAN_HEN_5.jpg,GREEN_BROADBILL_1.jpg,1.0,,,,A2LMSIDVE4E4IO
1058,38,,1.0,18.0,RUBY_THROATED_HUMMINGBIRD_3.jpg,MYNA_5.jpg,2.0,,,,A2LMSIDVE4E4IO
1059,39,,1.0,19.0,KAGU_5.jpg,DEMOISELLE_CRANE_1.jpg,3.0,,,,A2LMSIDVE4E4IO
1060,40,,1.0,20.0,BROWN_NOODY_3.jpg,GUINEA_TURACO_5.jpg,3.0,,,,A2LMSIDVE4E4IO
1061,41,,1.0,21.0,MYNA_1.jpg,OSTRICH_3.jpg,1.0,,,,A2LMSIDVE4E4IO
1062,42,,1.0,22.0,ECUADORIAN_HILLSTAR_5.jpg,CRIMSON_SUNBIRD_5.jpg,3.0,,,,A2LMSIDVE4E4IO
1063,43,,1.0,23.0,CASPIAN_TERN_1.jpg,EUROPEAN_GOLDFINCH_4.jpg,2.0,,,,A2LMSIDVE4E4IO
1064,44,,1.0,24.0,AFRICAN_PIED_HORNBILL_5.jpg,KIWI_4.jpg,1.0,,,,A2LMSIDVE4E4IO
1065,45,,1.0,25.0,INCA_TERN_4.jpg,BORNEAN_BRISTLEHEAD_5.jpg,3.0,,,,A2LMSIDVE4E4IO
1066,46,,1.0,26.0,GREY_PLOVER_1.jpg,GOULDIAN_FINCH_4.jpg,2.0,,,,A2LMSIDVE4E4IO
1067,47,,1.0,27.0,NORTHERN_JACANA_3.jpg,SCARLET_IBIS_4.jpg,3.0,,,,A2LMSIDVE4E4IO
1068,48,,1.0,28.0,PINK_ROBIN_4.jpg,COMMON_IORA_4.jpg,3.0,,,,A2LMSIDVE4E4IO
1069,49,,1.0,29.0,CHUKAR_PARTRIDGE_5.jpg,RAZORBILL_1.jpg,2.0,,,,A2LMSIDVE4E4IO
1070,50,,1.0,30.0,ARARIPE_MANAKIN_4.jpg,BORNEAN_LEAFBIRD_3.jpg,3.0,,,,A2LMSIDVE4E4IO
1071,51,,1.0,31.0,GOLDEN_CHLOROPHONIA_5.jpg,ROADRUNNER_2.jpg,1.0,,,,A2LMSIDVE4E4IO
1072,52,,1.0,32.0,ASIAN_DOLLARD_BIRD_2.jpg,ALBATROSS_2.jpg,1.0,,,,A2LMSIDVE4E4IO
1073,53,right,1.0,33.0,right.jpg,,,right,2.230200001,,A2LMSIDVE4E4IO
1074,54,,1.0,34.0,MALACHITE_KINGFISHER_2.jpg,AMERICAN_FLAMINGO_1.jpg,1.0,,,,A2LMSIDVE4E4IO
1075,55,,1.0,35.0,OCELLATED_TURKEY_1.jpg,AMERICAN_PIPIT_1.jpg,2.0,,,,A2LMSIDVE4E4IO
1076,56,,1.0,36.0,LESSER_ADJUTANT_5.jpg,RED_HEADED_WOODPECKER_1.jpg,3.0,,,,A2LMSIDVE4E4IO
1077,57,right,1.0,37.0,right.jpg,,,right,1.672599999,,A2LMSIDVE4E4IO
1078,58,,1.0,38.0,PEACOCK_3.jpg,ANIANIAU_2.jpg,1.0,,,,A2LMSIDVE4E4IO
1079,59,,1.0,39.0,IVORY_GULL_1.jpg,WILSONS_BIRD_OF_PARADISE_4.jpg,1.0,,,,A2LMSIDVE4E4IO
1080,60,,1.0,40.0,KILLDEAR_2.jpg,AZURE_TIT_5.jpg,3.0,,,,A2LMSIDVE4E4IO
1081,61,,1.0,41.0,CRESTED_NUTHATCH_2.jpg,AFRICAN_FIREFINCH_1.jpg,2.0,,,,A2LMSIDVE4E4IO
1082,62,,1.0,42.0,HAWAIIAN_GOOSE_4.jpg,CUBAN_TODY_3.jpg,1.0,,,,A2LMSIDVE4E4IO
1083,63,,1.0,43.0,BREWERS_BLACKBIRD_3.jpg,GUINEA_TURACO_3.jpg,1.0,,,,A2LMSIDVE4E4IO
1084,64,,1.0,44.0,GRAY_KINGBIRD_5.jpg,COCK_OF_THE__ROCK_4.jpg,2.0,,,,A2LMSIDVE4E4IO
1085,65,,1.0,45.0,LARK_BUNTING_2.jpg,KING_VULTURE_3.jpg,2.0,,,,A2LMSIDVE4E4IO
1086,66,,1.0,46.0,FLAME_BOWERBIRD_3.jpg,INDIAN_BUSTARD_2.jpg,1.0,,,,A2LMSIDVE4E4IO
1087,67,,1.0,47.0,PYGMY_KINGFISHER_5.jpg,DOUBLE_EYED_FIG_PARROT_4.jpg,3.0,,,,A2LMSIDVE4E4IO
1088,68,,1.0,48.0,SCARLET_TANAGER_2.jpg,NORTHERN_GANNET_2.jpg,2.0,,,,A2LMSIDVE4E4IO
1089,69,,1.0,49.0,IVORY_GULL_3.jpg,SNOWY_EGRET_4.jpg,3.0,,,,A2LMSIDVE4E4IO
1090,70,,1.0,50.0,GOLDEN_CHEEKED_WARBLER_2.jpg,SPOONBILL_1.jpg,1.0,,,,A2LMSIDVE4E4IO
1091,71,left,1.0,51.0,left.jpg,,,left,1.5886,,A2LMSIDVE4E4IO
1092,72,,1.0,52.0,RED_HEADED_WOODPECKER_5.jpg,COLLARED_ARACARI_1.jpg,3.0,,,,A2LMSIDVE4E4IO
1093,73,,1.0,53.0,DOUBLE_BRESTED_CORMARANT_5.jpg,EURASIAN_MAGPIE_4.jpg,2.0,,,,A2LMSIDVE4E4IO
1094,74,,1.0,54.0,EASTERN_TOWEE_2.jpg,SANDHILL_CRANE_2.jpg,1.0,,,,A2LMSIDVE4E4IO
1095,75,,1.0,55.0,LITTLE_AUK_5.jpg,SANDHILL_CRANE_3.jpg,1.0,,,,A2LMSIDVE4E4IO
1096,76,,1.0,56.0,CASSOWARY_1.jpg,ROSY_FACED_LOVEBIRD_4.jpg,1.0,,,,A2LMSIDVE4E4IO
1097,77,,1.0,57.0,OVENBIRD_5.jpg,SHORT_BILLED_DOWITCHER_5.jpg,3.0,,,,A2LMSIDVE4E4IO
1098,78,,1.0,58.0,BROWN_THRASHER_3.jpg,BLACK_BAZA_4.jpg,3.0,,,,A2LMSIDVE4E4IO
1099,79,,1.0,59.0,EUROPEAN_TURTLE_DOVE_3.jpg,MALABAR_HORNBILL_2.jpg,3.0,,,,A2LMSIDVE4E4IO
1100,80,,1.0,60.0,STRIPPED_SWALLOW_1.jpg,DOUBLE_BRESTED_CORMARANT_4.jpg,1.0,,,,A2LMSIDVE4E4IO
1101,81,,1.0,61.0,CRESTED_CARACARA_4.jpg,TOUCHAN_4.jpg,3.0,,,,A2LMSIDVE4E4IO
1102,82,,1.0,62.0,LESSER_ADJUTANT_4.jpg,FAIRY_TERN_3.jpg,3.0,,,,A2LMSIDVE4E4IO
1103,83,,1.0,63.0,WHITE_CHEEKED_TURACO_5.jpg,GREAT_POTOO_3.jpg,2.0,,,,A2LMSIDVE4E4IO
1104,84,,1.0,64.0,PARUS_MAJOR_1.jpg,CALIFORNIA_GULL_2.jpg,2.0,,,,A2LMSIDVE4E4IO
1105,20,,1.0,0.0,KAGU_5.jpg,RED_BEARDED_BEE_EATER_3.jpg,1.0,,,,AH7Z2M3KSQ4DW
1106,21,,1.0,1.0,FLAME_BOWERBIRD_3.jpg,QUETZAL_3.jpg,3.0,,,,AH7Z2M3KSQ4DW
1107,22,,1.0,2.0,AMERICAN_PIPIT_5.jpg,HEPATIC_TANAGER_5.jpg,3.0,,,,AH7Z2M3KSQ4DW
1108,23,,1.0,3.0,OVENBIRD_5.jpg,FAIRY_PENGUIN_1.jpg,2.0,,,,AH7Z2M3KSQ4DW
1109,24,,1.0,4.0,RUFOUS_KINGFISHER_1.jpg,HORNED_SUNGEM_4.jpg,3.0,,,,AH7Z2M3KSQ4DW
1110,25,,1.0,5.0,NORTHERN_JACANA_3.jpg,AMERICAN_GOLDFINCH_4.jpg,1.0,,,,AH7Z2M3KSQ4DW
1111,26,,1.0,6.0,ASIAN_DOLLARD_BIRD_2.jpg,VIOLET_GREEN_SWALLOW_4.jpg,3.0,,,,AH7Z2M3KSQ4DW
1112,27,,1.0,7.0,KILLDEAR_2.jpg,AZURE_TIT_5.jpg,3.0,,,,AH7Z2M3KSQ4DW
1113,28,,1.0,8.0,PARUS_MAJOR_1.jpg,SANDHILL_CRANE_4.jpg,1.0,,,,AH7Z2M3KSQ4DW
1114,29,right,1.0,9.0,right.jpg,,,right,0.5774,,AH7Z2M3KSQ4DW
1115,30,,1.0,10.0,IVORY_GULL_1.jpg,WILSONS_BIRD_OF_PARADISE_4.jpg,1.0,,,,AH7Z2M3KSQ4DW
1116,31,,1.0,11.0,STRIPPED_SWALLOW_1.jpg,GO_AWAY_BIRD_5.jpg,3.0,,,,AH7Z2M3KSQ4DW
1117,32,,1.0,12.0,GRAY_KINGBIRD_5.jpg,COCK_OF_THE__ROCK_4.jpg,2.0,,,,AH7Z2M3KSQ4DW
1118,33,,1.0,13.0,INLAND_DOTTEREL_4.jpg,CASSOWARY_2.jpg,1.0,,,,AH7Z2M3KSQ4DW
1119,34,,1.0,14.0,MAGPIE_GOOSE_5.jpg,HAMERKOP_1.jpg,2.0,,,,AH7Z2M3KSQ4DW
1120,35,,1.0,15.0,INDIGO_BUNTING_1.jpg,NORTHERN_GANNET_1.jpg,2.0,,,,AH7Z2M3KSQ4DW
1121,36,,1.0,16.0,LESSER_ADJUTANT_5.jpg,RED_HEADED_WOODPECKER_1.jpg,3.0,,,,AH7Z2M3KSQ4DW
1122,37,,1.0,17.0,ECUADORIAN_HILLSTAR_5.jpg,BOBOLINK_5.jpg,2.0,,,,AH7Z2M3KSQ4DW
1123,38,left,1.0,18.0,left.jpg,,,left,0.5418,,AH7Z2M3KSQ4DW
1124,39,,1.0,19.0,ARARIPE_MANAKIN_4.jpg,KIWI_3.jpg,1.0,,,,AH7Z2M3KSQ4DW
1125,40,,1.0,20.0,WHITE_CHEEKED_TURACO_5.jpg,GREAT_POTOO_3.jpg,2.0,,,,AH7Z2M3KSQ4DW
1126,41,,1.0,21.0,SCARLET_TANAGER_2.jpg,NORTHERN_GANNET_2.jpg,2.0,,,,AH7Z2M3KSQ4DW
1127,42,,1.0,22.0,RUBY_THROATED_HUMMINGBIRD_1.jpg,BANANAQUIT_2.jpg,1.0,,,,AH7Z2M3KSQ4DW
1128,43,,1.0,23.0,MYNA_1.jpg,GREY_PLOVER_4.jpg,2.0,,,,AH7Z2M3KSQ4DW
1129,44,,1.0,24.0,GYRFALCON_1.jpg,OSTRICH_1.jpg,1.0,,,,AH7Z2M3KSQ4DW
1130,45,,1.0,25.0,PINK_ROBIN_4.jpg,COMMON_IORA_4.jpg,3.0,,,,AH7Z2M3KSQ4DW
1131,46,,1.0,26.0,GREY_PLOVER_1.jpg,HYACINTH_MACAW_3.jpg,1.0,,,,AH7Z2M3KSQ4DW
1132,47,right,1.0,27.0,right.jpg,,,right,0.6164,,AH7Z2M3KSQ4DW
1133,48,,1.0,28.0,GOLDEN_CHLOROPHONIA_5.jpg,VERMILION_FLYCATHER_5.jpg,3.0,,,,AH7Z2M3KSQ4DW
1134,49,,1.0,29.0,SPLENDID_WREN_1.jpg,CUBAN_TODY_4.jpg,3.0,,,,AH7Z2M3KSQ4DW
1135,50,,1.0,30.0,EUROPEAN_TURTLE_DOVE_3.jpg,TEAL_DUCK_2.jpg,1.0,,,,AH7Z2M3KSQ4DW
1136,51,,1.0,31.0,PEACOCK_3.jpg,STRAWBERRY_FINCH_4.jpg,2.0,,,,AH7Z2M3KSQ4DW
1137,52,,1.0,32.0,CERULEAN_WARBLER_1.jpg,BANANAQUIT_1.jpg,3.0,,,,AH7Z2M3KSQ4DW
1138,53,,1.0,33.0,BREWERS_BLACKBIRD_3.jpg,CAPE_LONGCLAW_2.jpg,3.0,,,,AH7Z2M3KSQ4DW
1139,54,,1.0,34.0,LITTLE_AUK_5.jpg,BEARDED_BELLBIRD_1.jpg,3.0,,,,AH7Z2M3KSQ4DW
1140,55,,1.0,35.0,GOLDEN_CHEEKED_WARBLER_2.jpg,HOUSE_FINCH_2.jpg,2.0,,,,AH7Z2M3KSQ4DW
1141,56,right,1.0,36.0,right.jpg,,,right,0.6444,,AH7Z2M3KSQ4DW
1142,57,,1.0,37.0,CRESTED_CARACARA_4.jpg,FAIRY_PENGUIN_5.jpg,1.0,,,,AH7Z2M3KSQ4DW
1143,58,,1.0,38.0,CASPIAN_TERN_1.jpg,EUROPEAN_GOLDFINCH_4.jpg,2.0,,,,AH7Z2M3KSQ4DW
1144,59,,1.0,39.0,PYGMY_KINGFISHER_5.jpg,DOUBLE_EYED_FIG_PARROT_4.jpg,3.0,,,,AH7Z2M3KSQ4DW
1145,60,,1.0,40.0,LARK_BUNTING_2.jpg,CACTUS_WREN_3.jpg,3.0,,,,AH7Z2M3KSQ4DW
1146,61,,1.0,41.0,RUBY_THROATED_HUMMINGBIRD_2.jpg,APAPANE_4.jpg,2.0,,,,AH7Z2M3KSQ4DW
1147,62,,1.0,42.0,BALI_STARLING_1.jpg,PURPLE_FINCH_2.jpg,2.0,,,,AH7Z2M3KSQ4DW
1148,63,,1.0,43.0,EASTERN_TOWEE_2.jpg,GOLDEN_CHLOROPHONIA_1.jpg,2.0,,,,AH7Z2M3KSQ4DW
1149,64,,1.0,44.0,CRESTED_NUTHATCH_2.jpg,CANARY_1.jpg,3.0,,,,AH7Z2M3KSQ4DW
1150,65,,1.0,45.0,VERMILION_FLYCATHER_3.jpg,INDIAN_BUSTARD_1.jpg,1.0,,,,AH7Z2M3KSQ4DW
1151,66,,1.0,46.0,HAWAIIAN_GOOSE_4.jpg,HIMALAYAN_MONAL_2.jpg,2.0,,,,AH7Z2M3KSQ4DW
1152,67,,1.0,47.0,BROWN_NOODY_3.jpg,SPANGLED_COTINGA_4.jpg,2.0,,,,AH7Z2M3KSQ4DW
1153,68,,1.0,48.0,ASIAN_CRESTED_IBIS_4.jpg,CANARY_2.jpg,1.0,,,,AH7Z2M3KSQ4DW
1154,69,,1.0,49.0,IVORY_GULL_3.jpg,FLAME_TANAGER_3.jpg,2.0,,,,AH7Z2M3KSQ4DW
1155,70,,1.0,50.0,RED_HEADED_WOODPECKER_5.jpg,ASHY_STORM_PETREL_2.jpg,1.0,,,,AH7Z2M3KSQ4DW
1156,71,left,1.0,51.0,left.jpg,,,left,0.5646,,AH7Z2M3KSQ4DW
1157,72,,1.0,52.0,MALACHITE_KINGFISHER_2.jpg,GREEN_BROADBILL_5.jpg,3.0,,,,AH7Z2M3KSQ4DW
1158,73,,1.0,53.0,CASSOWARY_1.jpg,AFRICAN_OYSTER_CATCHER_2.jpg,3.0,,,,AH7Z2M3KSQ4DW
1159,74,,1.0,54.0,DOUBLE_BRESTED_CORMARANT_5.jpg,GILDED_FLICKER_2.jpg,1.0,,,,AH7Z2M3KSQ4DW
1160,75,,1.0,55.0,ALPINE_CHOUGH_4.jpg,SNOWY_EGRET_2.jpg,1.0,,,,AH7Z2M3KSQ4DW
1161,76,,1.0,56.0,TASMANIAN_HEN_5.jpg,AFRICAN_EMERALD_CUCKOO_5.jpg,2.0,,,,AH7Z2M3KSQ4DW
1162,77,,1.0,57.0,AFRICAN_PIED_HORNBILL_5.jpg,ALEXANDRINE_PARAKEET_1.jpg,2.0,,,,AH7Z2M3KSQ4DW
1163,78,,1.0,58.0,LESSER_ADJUTANT_4.jpg,FAIRY_TERN_3.jpg,3.0,,,,AH7Z2M3KSQ4DW
1164,79,,1.0,59.0,BROWN_THRASHER_3.jpg,OYSTER_CATCHER_4.jpg,2.0,,,,AH7Z2M3KSQ4DW
1165,80,,1.0,60.0,SHOEBILL_3.jpg,EASTERN_MEADOWLARK_1.jpg,1.0,,,,AH7Z2M3KSQ4DW
1166,81,,1.0,61.0,RUBY_THROATED_HUMMINGBIRD_3.jpg,MALAGASY_WHITE_EYE_2.jpg,1.0,,,,AH7Z2M3KSQ4DW
1167,82,,1.0,62.0,CHUKAR_PARTRIDGE_5.jpg,OSTRICH_5.jpg,1.0,,,,AH7Z2M3KSQ4DW
1168,83,,1.0,63.0,OCELLATED_TURKEY_1.jpg,CHIPPING_SPARROW_1.jpg,1.0,,,,AH7Z2M3KSQ4DW
1169,84,,1.0,64.0,INCA_TERN_4.jpg,BORNEAN_BRISTLEHEAD_5.jpg,3.0,,,,AH7Z2M3KSQ4DW
1170,20,,1.0,0.0,GREY_PLOVER_1.jpg,GOULDIAN_FINCH_4.jpg,2.0,,,,AX27MR7AMU52H
1171,21,,1.0,1.0,LARK_BUNTING_2.jpg,PEACOCK_1.jpg,1.0,,,,AX27MR7AMU52H
1172,22,,1.0,2.0,BREWERS_BLACKBIRD_3.jpg,GUINEA_TURACO_3.jpg,1.0,,,,AX27MR7AMU52H
1173,23,,1.0,3.0,ALPINE_CHOUGH_4.jpg,SNOWY_EGRET_2.jpg,1.0,,,,AX27MR7AMU52H
1174,24,,1.0,4.0,RED_HEADED_WOODPECKER_5.jpg,ASHY_STORM_PETREL_2.jpg,1.0,,,,AX27MR7AMU52H
1175,25,,1.0,5.0,TASMANIAN_HEN_5.jpg,COPPERY_TAILED_COUCAL_1.jpg,3.0,,,,AX27MR7AMU52H
1176,26,,1.0,6.0,BROWN_NOODY_3.jpg,SPANGLED_COTINGA_4.jpg,2.0,,,,AX27MR7AMU52H
1177,27,,1.0,7.0,PEACOCK_3.jpg,ANIANIAU_2.jpg,1.0,,,,AX27MR7AMU52H
1178,28,,1.0,8.0,GRAY_KINGBIRD_5.jpg,AFRICAN_FIREFINCH_3.jpg,3.0,,,,AX27MR7AMU52H
1179,29,,1.0,9.0,MAGPIE_GOOSE_5.jpg,HAMERKOP_1.jpg,2.0,,,,AX27MR7AMU52H
1180,30,,1.0,10.0,PARUS_MAJOR_1.jpg,PINK_ROBIN_3.jpg,3.0,,,,AX27MR7AMU52H
1181,31,,1.0,11.0,GOLDEN_CHEEKED_WARBLER_2.jpg,HOUSE_FINCH_2.jpg,2.0,,,,AX27MR7AMU52H
1182,32,,1.0,12.0,SCARLET_TANAGER_2.jpg,BEARDED_BARBET_2.jpg,1.0,,,,AX27MR7AMU52H
1183,33,,1.0,13.0,EASTERN_TOWEE_2.jpg,NORTHERN_BEARDLESS_TYRANNULET_5.jpg,3.0,,,,AX27MR7AMU52H
1184,34,left,1.0,14.0,left.jpg,,,left,0.6487,,AX27MR7AMU52H
1185,35,,1.0,15.0,SHOEBILL_3.jpg,BALD_EAGLE_5.jpg,3.0,,,,AX27MR7AMU52H
1186,36,right,1.0,16.0,right.jpg,,,right,0.5715,,AX27MR7AMU52H
1187,37,,1.0,17.0,KAGU_5.jpg,ASHY_STORM_PETREL_1.jpg,2.0,,,,AX27MR7AMU52H
1188,38,,1.0,18.0,BROWN_THRASHER_3.jpg,OYSTER_CATCHER_4.jpg,2.0,,,,AX27MR7AMU52H
1189,39,,1.0,19.0,CHUKAR_PARTRIDGE_5.jpg,BLACK_THROATED_BUSHTIT_1.jpg,3.0,,,,AX27MR7AMU52H
1190,40,,1.0,20.0,ARARIPE_MANAKIN_4.jpg,BORNEAN_LEAFBIRD_3.jpg,3.0,,,,AX27MR7AMU52H
1191,41,,1.0,21.0,INCA_TERN_4.jpg,SMITHS_LONGSPUR_5.jpg,2.0,,,,AX27MR7AMU52H
1192,42,,1.0,22.0,HAWAIIAN_GOOSE_4.jpg,WATTLED_LAPWING_3.jpg,3.0,,,,AX27MR7AMU52H
1193,43,,1.0,23.0,RUBY_THROATED_HUMMINGBIRD_2.jpg,GOLDEN_CHLOROPHONIA_2.jpg,1.0,,,,AX27MR7AMU52H
1194,44,,1.0,24.0,RUBY_THROATED_HUMMINGBIRD_1.jpg,FRIGATE_1.jpg,3.0,,,,AX27MR7AMU52H
1195,45,,1.0,25.0,AMERICAN_PIPIT_5.jpg,HEPATIC_TANAGER_5.jpg,3.0,,,,AX27MR7AMU52H
1196,46,,1.0,26.0,CRESTED_NUTHATCH_2.jpg,SCARLET_IBIS_3.jpg,1.0,,,,AX27MR7AMU52H
1197,47,,1.0,27.0,VERMILION_FLYCATHER_3.jpg,INDIAN_BUSTARD_1.jpg,1.0,,,,AX27MR7AMU52H
1198,48,right,1.0,28.0,right.jpg,,,right,0.5822,,AX27MR7AMU52H
1199,49,,1.0,29.0,CASPIAN_TERN_1.jpg,COMMON_LOON_2.jpg,3.0,,,,AX27MR7AMU52H
1200,50,,1.0,30.0,SPLENDID_WREN_1.jpg,DOUBLE_BRESTED_CORMARANT_1.jpg,2.0,,,,AX27MR7AMU52H
1201,51,,1.0,31.0,GYRFALCON_1.jpg,CINNAMON_ATTILA_2.jpg,2.0,,,,AX27MR7AMU52H
1202,52,,1.0,32.0,FLAME_BOWERBIRD_3.jpg,QUETZAL_3.jpg,3.0,,,,AX27MR7AMU52H
1203,53,,1.0,33.0,PYGMY_KINGFISHER_5.jpg,MASKED_BOOBY_5.jpg,2.0,,,,AX27MR7AMU52H
1204,54,,1.0,34.0,EUROPEAN_TURTLE_DOVE_3.jpg,PAINTED_BUNTING_3.jpg,2.0,,,,AX27MR7AMU52H
1205,55,,1.0,35.0,RUBY_THROATED_HUMMINGBIRD_3.jpg,NORTHERN_SHOVELER_1.jpg,3.0,,,,AX27MR7AMU52H
1206,56,,1.0,36.0,AFRICAN_PIED_HORNBILL_5.jpg,KIWI_4.jpg,1.0,,,,AX27MR7AMU52H
1207,57,right,1.0,37.0,right.jpg,,,right,0.5785,,AX27MR7AMU52H
1208,58,,1.0,38.0,STRIPPED_SWALLOW_1.jpg,MAGPIE_GOOSE_4.jpg,2.0,,,,AX27MR7AMU52H
1209,59,,1.0,39.0,MALACHITE_KINGFISHER_2.jpg,AMERICAN_FLAMINGO_1.jpg,1.0,,,,AX27MR7AMU52H
1210,60,,1.0,40.0,INLAND_DOTTEREL_4.jpg,CASSOWARY_2.jpg,1.0,,,,AX27MR7AMU52H
1211,61,,1.0,41.0,LESSER_ADJUTANT_4.jpg,RAINBOW_LORIKEET_5.jpg,2.0,,,,AX27MR7AMU52H
1212,62,,1.0,42.0,LITTLE_AUK_5.jpg,BEARDED_BELLBIRD_1.jpg,3.0,,,,AX27MR7AMU52H
1213,63,,1.0,43.0,IVORY_GULL_1.jpg,WILSONS_BIRD_OF_PARADISE_4.jpg,1.0,,,,AX27MR7AMU52H
1214,64,,1.0,44.0,INDIGO_BUNTING_1.jpg,FRIGATE_4.jpg,1.0,,,,AX27MR7AMU52H
1215,65,,1.0,45.0,GOLDEN_CHLOROPHONIA_5.jpg,COMMON_HOUSE_MARTIN_4.jpg,2.0,,,,AX27MR7AMU52H
1216,66,,1.0,46.0,CRESTED_CARACARA_4.jpg,INDIAN_PITTA_2.jpg,2.0,,,,AX27MR7AMU52H
1217,67,,1.0,47.0,ECUADORIAN_HILLSTAR_5.jpg,SCARLET_IBIS_2.jpg,1.0,,,,AX27MR7AMU52H
1218,68,right,1.0,48.0,right.jpg,,,right,0.599,,AX27MR7AMU52H
1219,69,,1.0,49.0,IVORY_GULL_3.jpg,INDIGO_FLYCATCHER_2.jpg,1.0,,,,AX27MR7AMU52H
1220,70,,1.0,50.0,NORTHERN_JACANA_3.jpg,SCARLET_IBIS_4.jpg,3.0,,,,AX27MR7AMU52H
1221,71,,1.0,51.0,BALI_STARLING_1.jpg,CAPE_LONGCLAW_5.jpg,1.0,,,,AX27MR7AMU52H
1222,72,,1.0,52.0,CASSOWARY_1.jpg,SCARLET_MACAW_1.jpg,2.0,,,,AX27MR7AMU52H
1223,73,,1.0,53.0,ASIAN_DOLLARD_BIRD_2.jpg,ALBATROSS_2.jpg,1.0,,,,AX27MR7AMU52H
1224,74,,1.0,54.0,CERULEAN_WARBLER_1.jpg,AMERICAN_FLAMINGO_5.jpg,2.0,,,,AX27MR7AMU52H
1225,75,,1.0,55.0,PINK_ROBIN_4.jpg,ALBATROSS_4.jpg,2.0,,,,AX27MR7AMU52H
1226,76,,1.0,56.0,ASIAN_CRESTED_IBIS_4.jpg,OYSTER_CATCHER_2.jpg,2.0,,,,AX27MR7AMU52H
1227,77,,1.0,57.0,LESSER_ADJUTANT_5.jpg,GREEN_BROADBILL_4.jpg,1.0,,,,AX27MR7AMU52H
1228,78,,1.0,58.0,MYNA_1.jpg,OSTRICH_3.jpg,1.0,,,,AX27MR7AMU52H
1229,79,,1.0,59.0,KILLDEAR_2.jpg,AZURE_TIT_5.jpg,3.0,,,,AX27MR7AMU52H
1230,80,,1.0,60.0,DOUBLE_BRESTED_CORMARANT_5.jpg,CHINESE_POND_HERON_2.jpg,3.0,,,,AX27MR7AMU52H
1231,81,,1.0,61.0,OCELLATED_TURKEY_1.jpg,PURPLE_SWAMPHEN_4.jpg,3.0,,,,AX27MR7AMU52H
1232,82,,1.0,62.0,WHITE_CHEEKED_TURACO_5.jpg,PYGMY_KINGFISHER_2.jpg,3.0,,,,AX27MR7AMU52H
1233,83,,1.0,63.0,RUFOUS_KINGFISHER_1.jpg,HORNED_SUNGEM_4.jpg,3.0,,,,AX27MR7AMU52H
1234,84,,1.0,64.0,OVENBIRD_5.jpg,FAIRY_PENGUIN_1.jpg,2.0,,,,AX27MR7AMU52H
1235,20,,1.0,0.0,BROWN_THRASHER_3.jpg,DOUBLE_EYED_FIG_PARROT_3.jpg,1.0,,,,A209V2VHLLQ59W
1236,21,,1.0,1.0,LESSER_ADJUTANT_4.jpg,FAIRY_TERN_3.jpg,3.0,,,,A209V2VHLLQ59W
1237,22,,1.0,2.0,KAGU_5.jpg,ASHY_STORM_PETREL_1.jpg,2.0,,,,A209V2VHLLQ59W
1238,23,,1.0,3.0,MALACHITE_KINGFISHER_2.jpg,AMERICAN_FLAMINGO_1.jpg,1.0,,,,A209V2VHLLQ59W
1239,24,,1.0,4.0,RUBY_THROATED_HUMMINGBIRD_3.jpg,MALAGASY_WHITE_EYE_2.jpg,1.0,,,,A209V2VHLLQ59W
1240,25,,1.0,5.0,TASMANIAN_HEN_5.jpg,GREEN_BROADBILL_1.jpg,1.0,,,,A209V2VHLLQ59W
1241,26,,1.0,6.0,INDIGO_BUNTING_1.jpg,NORTHERN_GANNET_1.jpg,2.0,,,,A209V2VHLLQ59W
1242,27,,1.0,7.0,ALPINE_CHOUGH_4.jpg,SNOWY_EGRET_2.jpg,1.0,,,,A209V2VHLLQ59W
1243,28,,1.0,8.0,MYNA_1.jpg,PARADISE_TANAGER_3.jpg,3.0,,,,A209V2VHLLQ59W
1244,29,,1.0,9.0,BREWERS_BLACKBIRD_3.jpg,GOLDEN_CHEEKED_WARBLER_3.jpg,2.0,,,,A209V2VHLLQ59W
1245,30,,1.0,10.0,AMERICAN_PIPIT_5.jpg,HEPATIC_TANAGER_5.jpg,3.0,,,,A209V2VHLLQ59W
1246,31,,1.0,11.0,EUROPEAN_TURTLE_DOVE_3.jpg,PAINTED_BUNTING_3.jpg,2.0,,,,A209V2VHLLQ59W
1247,32,,1.0,12.0,AFRICAN_PIED_HORNBILL_5.jpg,KIWI_4.jpg,1.0,,,,A209V2VHLLQ59W
1248,33,left,1.0,13.0,left.jpg,,,left,0.741,,A209V2VHLLQ59W
1249,34,,1.0,14.0,ECUADORIAN_HILLSTAR_5.jpg,BOBOLINK_5.jpg,2.0,,,,A209V2VHLLQ59W
1250,35,,1.0,15.0,BROWN_NOODY_3.jpg,GUINEA_TURACO_5.jpg,3.0,,,,A209V2VHLLQ59W
1251,36,,1.0,16.0,NORTHERN_JACANA_3.jpg,CRAB_PLOVER_3.jpg,2.0,,,,A209V2VHLLQ59W
1252,37,,1.0,17.0,GOLDEN_CHLOROPHONIA_5.jpg,COMMON_HOUSE_MARTIN_4.jpg,2.0,,,,A209V2VHLLQ59W
1253,38,,1.0,18.0,SCARLET_TANAGER_2.jpg,BEARDED_BARBET_2.jpg,1.0,,,,A209V2VHLLQ59W
