,layer,correct,test_test_response.keys,test_test_response.corr,test_test_response.rt,trials_2.thisRepN,trials_2.thisTrialN,trials_2.thisN,trials_2.thisIndex,trials_2.ran,image1,image2,subject
0,3.0,left,left,1.0,1.6517,0.0,0.0,0.0,0.0,1.0,NORTHERN_JACANA_3.jpg,SCARLET_IBIS_4.jpg,A37R0JYAB3QEX9
1,3.0,right,right,1.0,2.4888,0.0,1.0,1.0,1.0,1.0,QUETZAL_3.jpg,FLAME_BOWERBIRD_3.jpg,A37R0JYAB3QEX9
2,2.0,right,right,1.0,2.6457,0.0,2.0,2.0,2.0,1.0,MASKED_BOOBY_5.jpg,PYGMY_KINGFISHER_5.jpg,A37R0JYAB3QEX9
3,2.0,right,right,1.0,1.8734,0.0,3.0,3.0,3.0,1.0,SCARLET_MACAW_1.jpg,CASSOWARY_1.jpg,A37R0JYAB3QEX9
4,2.0,right,left,0.0,1.6992,0.0,4.0,4.0,4.0,1.0,BOBOLINK_5.jpg,ECUADORIAN_HILLSTAR_5.jpg,A37R0JYAB3QEX9
5,3.0,right,right,1.0,1.8649,0.0,5.0,5.0,5.0,1.0,WATTLED_LAPWING_3.jpg,HAWAIIAN_GOOSE_4.jpg,A37R0JYAB3QEX9
6,2.0,right,left,0.0,2.875,0.0,6.0,6.0,6.0,1.0,CALIFORNIA_GULL_1.jpg,VERMILION_FLYCATHER_3.jpg,A37R0JYAB3QEX9
7,3.0,left,left,1.0,2.2603,0.0,7.0,7.0,7.0,1.0,MYNA_1.jpg,PARADISE_TANAGER_3.jpg,A37R0JYAB3QEX9
8,3.0,left,left,1.0,1.6143,0.0,8.0,8.0,8.0,1.0,AFRICAN_PIED_HORNBILL_5.jpg,CAPUCHINBIRD_2.jpg,A37R0JYAB3QEX9
9,1.0,left,right,0.0,1.3964,0.0,9.0,9.0,9.0,1.0,EASTERN_TOWEE_2.jpg,SANDHILL_CRANE_2.jpg,A37R0JYAB3QEX9
10,2.0,left,right,0.0,1.6881,0.0,10.0,10.0,10.0,1.0,ARARIPE_MANAKIN_4.jpg,BLACK_VULTURE_1.jpg,A37R0JYAB3QEX9
11,2.0,right,left,0.0,2.1583,0.0,11.0,11.0,11.0,1.0,NORTHERN_GANNET_2.jpg,SCARLET_TANAGER_2.jpg,A37R0JYAB3QEX9
12,2.0,left,left,1.0,1.8666,0.0,12.0,12.0,12.0,1.0,RED_HEADED_WOODPECKER_5.jpg,CRIMSON_CHAT_3.jpg,A37R0JYAB3QEX9
13,3.0,right,right,1.0,2.4479,0.0,13.0,13.0,13.0,1.0,CAPE_LONGCLAW_2.jpg,BREWERS_BLACKBIRD_3.jpg,A37R0JYAB3QEX9
14,1.0,left,right,0.0,1.8999,0.0,14.0,14.0,14.0,1.0,AMERICAN_PIPIT_5.jpg,EMU_2.jpg,A37R0JYAB3QEX9
15,2.0,right,right,1.0,1.4996,0.0,15.0,15.0,15.0,1.0,NICOBAR_PIGEON_4.jpg,INLAND_DOTTEREL_4.jpg,A37R0JYAB3QEX9
16,1.0,right,right,1.0,1.6828,0.0,16.0,16.0,16.0,1.0,TEAL_DUCK_2.jpg,EUROPEAN_TURTLE_DOVE_3.jpg,A37R0JYAB3QEX9
17,3.0,left,left,1.0,1.4453,0.0,17.0,17.0,17.0,1.0,RUBY_THROATED_HUMMINGBIRD_2.jpg,DUSKY_ROBIN_5.jpg,A37R0JYAB3QEX9
18,1.0,right,right,1.0,1.5438,0.0,18.0,18.0,18.0,1.0,SPOONBILL_3.jpg,PINK_ROBIN_4.jpg,A37R0JYAB3QEX9
19,2.0,right,right,1.0,2.3236,0.0,19.0,19.0,19.0,1.0,ASHY_STORM_PETREL_1.jpg,KAGU_5.jpg,A37R0JYAB3QEX9
20,3.0,right,left,0.0,2.1954,0.0,20.0,20.0,20.0,1.0,PINK_ROBIN_3.jpg,PARUS_MAJOR_1.jpg,A37R0JYAB3QEX9
21,3.0,left,left,1.0,1.616,0.0,21.0,21.0,21.0,1.0,ASIAN_CRESTED_IBIS_4.jpg,IVORY_GULL_2.jpg,A37R0JYAB3QEX9
22,2.0,right,right,1.0,3.238,0.0,22.0,22.0,22.0,1.0,EUROPEAN_GOLDFINCH_3.jpg,ALPINE_CHOUGH_4.jpg,A37R0JYAB3QEX9
23,2.0,right,right,1.0,1.4619,0.0,23.0,23.0,23.0,1.0,SPANGLED_COTINGA_4.jpg,BROWN_NOODY_3.jpg,A37R0JYAB3QEX9
24,1.0,left,left,1.0,1.4572,0.0,24.0,24.0,24.0,1.0,KILLDEAR_2.jpg,PEACOCK_5.jpg,A37R0JYAB3QEX9
25,3.0,left,left,1.0,1.7514,0.0,25.0,25.0,25.0,1.0,DOUBLE_BRESTED_CORMARANT_5.jpg,CHINESE_POND_HERON_2.jpg,A37R0JYAB3QEX9
26,1.0,right,right,1.0,1.3516,0.0,26.0,26.0,26.0,1.0,EASTERN_MEADOWLARK_1.jpg,SHOEBILL_3.jpg,A37R0JYAB3QEX9
27,1.0,right,right,1.0,1.4299,0.0,27.0,27.0,27.0,1.0,ALTAMIRA_YELLOWTHROAT_5.jpg,LESSER_ADJUTANT_4.jpg,A37R0JYAB3QEX9
28,1.0,left,left,1.0,1.5007,0.0,28.0,28.0,28.0,1.0,RUBY_THROATED_HUMMINGBIRD_3.jpg,MALAGASY_WHITE_EYE_2.jpg,A37R0JYAB3QEX9
29,1.0,left,left,1.0,3.0794,0.0,29.0,29.0,29.0,1.0,LITTLE_AUK_5.jpg,SANDHILL_CRANE_3.jpg,A37R0JYAB3QEX9
30,2.0,right,right,1.0,1.9336,0.0,30.0,30.0,30.0,1.0,AFRICAN_FIREFINCH_1.jpg,CRESTED_NUTHATCH_2.jpg,A37R0JYAB3QEX9
31,2.0,right,left,0.0,1.5884,0.0,31.0,31.0,31.0,1.0,NORTHERN_GANNET_1.jpg,INDIGO_BUNTING_1.jpg,A37R0JYAB3QEX9
32,3.0,left,left,1.0,1.3283,0.0,32.0,32.0,32.0,1.0,LESSER_ADJUTANT_5.jpg,RED_HEADED_WOODPECKER_1.jpg,A37R0JYAB3QEX9
33,1.0,left,left,1.0,1.6503,0.0,33.0,33.0,33.0,1.0,ASIAN_DOLLARD_BIRD_2.jpg,ALBATROSS_2.jpg,A37R0JYAB3QEX9
34,3.0,right,right,1.0,2.9977,0.0,34.0,34.0,34.0,1.0,OYSTER_CATCHER_3.jpg,MAGPIE_GOOSE_5.jpg,A37R0JYAB3QEX9
35,1.0,right,right,1.0,2.3707,0.0,35.0,35.0,35.0,1.0,INDIGO_FLYCATCHER_2.jpg,IVORY_GULL_3.jpg,A37R0JYAB3QEX9
36,1.0,right,right,1.0,1.2664,0.0,36.0,36.0,36.0,1.0,SNOWY_OWL_5.jpg,RUFOUS_KINGFISHER_1.jpg,A37R0JYAB3QEX9
37,3.0,right,right,1.0,2.3949,0.0,37.0,37.0,37.0,1.0,AFRICAN_FIREFINCH_3.jpg,GRAY_KINGBIRD_5.jpg,A37R0JYAB3QEX9
38,2.0,right,right,1.0,1.4389,0.0,38.0,38.0,38.0,1.0,GOULDIAN_FINCH_4.jpg,GREY_PLOVER_1.jpg,A37R0JYAB3QEX9
39,1.0,right,right,1.0,2.7477,0.0,39.0,39.0,39.0,1.0,ROADRUNNER_2.jpg,GOLDEN_CHLOROPHONIA_5.jpg,A37R0JYAB3QEX9
40,2.0,right,left,0.0,3.2691,0.0,40.0,40.0,40.0,1.0,SMITHS_LONGSPUR_5.jpg,INCA_TERN_4.jpg,A37R0JYAB3QEX9
41,1.0,right,left,0.0,1.442,0.0,41.0,41.0,41.0,1.0,OSTRICH_5.jpg,CHUKAR_PARTRIDGE_5.jpg,A37R0JYAB3QEX9
42,3.0,left,left,1.0,2.9292,0.0,42.0,42.0,42.0,1.0,BALI_STARLING_1.jpg,IBERIAN_MAGPIE_1.jpg,A37R0JYAB3QEX9
43,3.0,right,right,1.0,5.6517,0.0,43.0,43.0,43.0,1.0,COPPERY_TAILED_COUCAL_1.jpg,TASMANIAN_HEN_5.jpg,A37R0JYAB3QEX9
44,3.0,right,right,1.0,1.6319,0.0,44.0,44.0,44.0,1.0,FAIRY_TERN_4.jpg,IVORY_GULL_1.jpg,A37R0JYAB3QEX9
45,1.0,left,right,0.0,2.5986,0.0,45.0,45.0,45.0,1.0,LARK_BUNTING_2.jpg,PEACOCK_1.jpg,A37R0JYAB3QEX9
46,2.0,left,left,1.0,1.8786,0.0,46.0,46.0,46.0,1.0,GOLDEN_CHEEKED_WARBLER_2.jpg,HOUSE_FINCH_2.jpg,A37R0JYAB3QEX9
47,3.0,left,left,1.0,1.8177,0.0,47.0,47.0,47.0,1.0,WHITE_CHEEKED_TURACO_5.jpg,PYGMY_KINGFISHER_2.jpg,A37R0JYAB3QEX9
48,1.0,left,right,0.0,1.4617,0.0,48.0,48.0,48.0,1.0,STRIPPED_SWALLOW_1.jpg,DOUBLE_BRESTED_CORMARANT_4.jpg,A37R0JYAB3QEX9
49,2.0,left,left,1.0,1.8643,0.0,49.0,49.0,49.0,1.0,CASPIAN_TERN_1.jpg,EUROPEAN_GOLDFINCH_4.jpg,A37R0JYAB3QEX9
50,3.0,right,right,1.0,2.0516,0.0,50.0,50.0,50.0,1.0,BLACK_BAZA_4.jpg,BROWN_THRASHER_3.jpg,A37R0JYAB3QEX9
51,2.0,right,left,0.0,1.4401,0.0,51.0,51.0,51.0,1.0,AMERICAN_PIPIT_1.jpg,OCELLATED_TURKEY_1.jpg,A37R0JYAB3QEX9
52,1.0,left,left,1.0,1.758,0.0,52.0,52.0,52.0,1.0,MALACHITE_KINGFISHER_2.jpg,AMERICAN_FLAMINGO_1.jpg,A37R0JYAB3QEX9
53,1.0,left,left,1.0,1.6645,0.0,53.0,53.0,53.0,1.0,CERULEAN_WARBLER_1.jpg,AMERICAN_FLAMINGO_2.jpg,A37R0JYAB3QEX9
54,3.0,right,right,1.0,1.2227,0.0,54.0,54.0,54.0,1.0,CHATTERING_LORY_2.jpg,PEACOCK_3.jpg,A37R0JYAB3QEX9
55,2.0,left,left,1.0,5.3885,0.0,55.0,55.0,55.0,1.0,GYRFALCON_1.jpg,CINNAMON_ATTILA_2.jpg,A37R0JYAB3QEX9
56,1.0,left,left,1.0,2.0951,0.0,56.0,56.0,56.0,1.0,RUBY_THROATED_HUMMINGBIRD_1.jpg,BANANAQUIT_2.jpg,A37R0JYAB3QEX9
57,1.0,right,right,1.0,1.7157,0.0,57.0,57.0,57.0,1.0,FAIRY_PENGUIN_5.jpg,CRESTED_CARACARA_4.jpg,A37R0JYAB3QEX9
58,3.0,right,right,1.0,1.4938,0.0,58.0,58.0,58.0,1.0,CUBAN_TODY_4.jpg,SPLENDID_WREN_1.jpg,A37R0JYAB3QEX9
59,2.0,right,right,1.0,1.5,0.0,59.0,59.0,59.0,1.0,FAIRY_PENGUIN_1.jpg,OVENBIRD_5.jpg,A37R0JYAB3QEX9
60,1.0,right,right,1.0,3.6058,0.0,0.0,0.0,0.0,1.0,SCARLET_IBIS_3.jpg,CRESTED_NUTHATCH_2.jpg,A3TBG0S2IEBVHU
61,2.0,left,left,1.0,1.5511,0.0,1.0,1.0,1.0,1.0,AMERICAN_PIPIT_5.jpg,GREEN_MAGPIE_1.jpg,A3TBG0S2IEBVHU
62,1.0,left,left,1.0,1.1666,0.0,2.0,2.0,2.0,1.0,GRAY_KINGBIRD_5.jpg,BALD_EAGLE_2.jpg,A3TBG0S2IEBVHU
63,3.0,right,right,1.0,1.2271,0.0,3.0,3.0,3.0,1.0,NORTHERN_BEARDLESS_TYRANNULET_5.jpg,EASTERN_TOWEE_2.jpg,A3TBG0S2IEBVHU
64,3.0,right,left,0.0,2.1374,0.0,4.0,4.0,4.0,1.0,IBERIAN_MAGPIE_1.jpg,BALI_STARLING_1.jpg,A3TBG0S2IEBVHU
65,2.0,right,left,0.0,1.8374,0.0,5.0,5.0,5.0,1.0,AMERICAN_FLAMINGO_5.jpg,CERULEAN_WARBLER_1.jpg,A3TBG0S2IEBVHU
66,1.0,left,right,0.0,2.9899,0.0,6.0,6.0,6.0,1.0,MYNA_1.jpg,OSTRICH_3.jpg,A3TBG0S2IEBVHU
67,3.0,left,left,1.0,1.4804,0.0,7.0,7.0,7.0,1.0,CASSOWARY_1.jpg,AFRICAN_OYSTER_CATCHER_2.jpg,A3TBG0S2IEBVHU
68,1.0,right,right,1.0,1.833,0.0,8.0,8.0,8.0,1.0,GILDED_FLICKER_2.jpg,DOUBLE_BRESTED_CORMARANT_5.jpg,A3TBG0S2IEBVHU
69,3.0,right,right,1.0,1.9488,0.0,9.0,9.0,9.0,1.0,FRIGATE_1.jpg,RUBY_THROATED_HUMMINGBIRD_1.jpg,A3TBG0S2IEBVHU
70,2.0,right,left,0.0,1.4273,0.0,10.0,10.0,10.0,1.0,INDIAN_PITTA_2.jpg,CRESTED_CARACARA_4.jpg,A3TBG0S2IEBVHU
71,1.0,right,right,1.0,1.3283,0.0,11.0,11.0,11.0,1.0,FRIGATE_4.jpg,INDIGO_BUNTING_1.jpg,A3TBG0S2IEBVHU
72,3.0,left,left,1.0,1.8793,0.0,12.0,12.0,12.0,1.0,LITTLE_AUK_5.jpg,BEARDED_BELLBIRD_1.jpg,A3TBG0S2IEBVHU
73,3.0,right,right,1.0,1.1769,0.0,13.0,13.0,13.0,1.0,SNOWY_EGRET_4.jpg,IVORY_GULL_3.jpg,A3TBG0S2IEBVHU
74,2.0,left,left,1.0,1.6823,0.0,14.0,14.0,14.0,1.0,AFRICAN_PIED_HORNBILL_5.jpg,ALEXANDRINE_PARAKEET_1.jpg,A3TBG0S2IEBVHU
75,3.0,left,left,1.0,1.0271,0.0,15.0,15.0,15.0,1.0,PARUS_MAJOR_1.jpg,PINK_ROBIN_3.jpg,A3TBG0S2IEBVHU
76,3.0,right,right,1.0,1.7328,0.0,16.0,16.0,16.0,1.0,BORNEAN_LEAFBIRD_1.jpg,SCARLET_TANAGER_2.jpg,A3TBG0S2IEBVHU
77,2.0,right,right,1.0,1.6487,0.0,17.0,17.0,17.0,1.0,CRAB_PLOVER_3.jpg,NORTHERN_JACANA_3.jpg,A3TBG0S2IEBVHU
78,1.0,left,left,1.0,2.0623,0.0,18.0,18.0,18.0,1.0,TASMANIAN_HEN_5.jpg,GREEN_BROADBILL_1.jpg,A3TBG0S2IEBVHU
79,2.0,right,right,1.0,1.5567,0.0,19.0,19.0,19.0,1.0,SPANGLED_COTINGA_4.jpg,BROWN_NOODY_3.jpg,A3TBG0S2IEBVHU
80,1.0,right,left,0.0,1.1245,0.0,20.0,20.0,20.0,1.0,NORTHERN_MOCKINGBIRD_4.jpg,WHITE_CHEEKED_TURACO_5.jpg,A3TBG0S2IEBVHU
81,3.0,right,right,1.0,1.9531,0.0,21.0,21.0,21.0,1.0,QUETZAL_3.jpg,FLAME_BOWERBIRD_3.jpg,A3TBG0S2IEBVHU
82,1.0,right,left,0.0,0.9203,0.0,22.0,22.0,22.0,1.0,PEACOCK_1.jpg,LARK_BUNTING_2.jpg,A3TBG0S2IEBVHU
83,3.0,left,left,1.0,1.2251,0.0,23.0,23.0,23.0,1.0,BROWN_THRASHER_3.jpg,BLACK_BAZA_4.jpg,A3TBG0S2IEBVHU
84,3.0,left,right,0.0,1.4315,0.0,24.0,24.0,24.0,1.0,HAWAIIAN_GOOSE_4.jpg,WATTLED_LAPWING_3.jpg,A3TBG0S2IEBVHU
85,1.0,right,right,1.0,1.1442,0.0,25.0,25.0,25.0,1.0,GRANDALA_2.jpg,PYGMY_KINGFISHER_5.jpg,A3TBG0S2IEBVHU
86,3.0,left,right,0.0,1.6418,0.0,26.0,26.0,26.0,1.0,ALPINE_CHOUGH_4.jpg,BOBOLINK_3.jpg,A3TBG0S2IEBVHU
87,2.0,right,right,1.0,1.1336,0.0,27.0,27.0,27.0,1.0,RAINBOW_LORIKEET_5.jpg,LESSER_ADJUTANT_4.jpg,A3TBG0S2IEBVHU
88,1.0,right,right,1.0,1.7303,0.0,28.0,28.0,28.0,1.0,TEAL_DUCK_2.jpg,EUROPEAN_TURTLE_DOVE_3.jpg,A3TBG0S2IEBVHU
89,2.0,left,right,0.0,1.2366,0.0,29.0,29.0,29.0,1.0,ECUADORIAN_HILLSTAR_5.jpg,BOBOLINK_5.jpg,A3TBG0S2IEBVHU
90,3.0,left,left,1.0,1.0344,0.0,30.0,30.0,30.0,1.0,LESSER_ADJUTANT_5.jpg,RED_HEADED_WOODPECKER_1.jpg,A3TBG0S2IEBVHU
91,2.0,right,left,0.0,1.5298,0.0,31.0,31.0,31.0,1.0,OYSTER_CATCHER_2.jpg,ASIAN_CRESTED_IBIS_4.jpg,A3TBG0S2IEBVHU
92,1.0,left,left,1.0,1.0443,0.0,32.0,32.0,32.0,1.0,GOLDEN_CHEEKED_WARBLER_2.jpg,SPOONBILL_1.jpg,A3TBG0S2IEBVHU
93,2.0,right,left,0.0,1.1444,0.0,33.0,33.0,33.0,1.0,AMERICAN_PIPIT_1.jpg,OCELLATED_TURKEY_1.jpg,A3TBG0S2IEBVHU
94,2.0,right,right,1.0,1.401,0.0,34.0,34.0,34.0,1.0,FAIRY_PENGUIN_1.jpg,OVENBIRD_5.jpg,A3TBG0S2IEBVHU
95,1.0,left,left,1.0,1.125,0.0,35.0,35.0,35.0,1.0,RUBY_THROATED_HUMMINGBIRD_3.jpg,MALAGASY_WHITE_EYE_2.jpg,A3TBG0S2IEBVHU
96,3.0,right,left,0.0,1.4373,0.0,36.0,36.0,36.0,1.0,BLACK_THROATED_BUSHTIT_1.jpg,CHUKAR_PARTRIDGE_5.jpg,A3TBG0S2IEBVHU
97,3.0,right,left,0.0,1.1247,0.0,37.0,37.0,37.0,1.0,VIOLET_GREEN_SWALLOW_4.jpg,ASIAN_DOLLARD_BIRD_2.jpg,A3TBG0S2IEBVHU
98,3.0,right,right,1.0,1.2316,0.0,38.0,38.0,38.0,1.0,COLLARED_ARACARI_1.jpg,RED_HEADED_WOODPECKER_5.jpg,A3TBG0S2IEBVHU
99,2.0,left,left,1.0,0.9464,0.0,39.0,39.0,39.0,1.0,CASPIAN_TERN_1.jpg,EUROPEAN_GOLDFINCH_4.jpg,A3TBG0S2IEBVHU
100,2.0,left,right,0.0,1.1674,0.0,40.0,40.0,40.0,1.0,BREWERS_BLACKBIRD_3.jpg,GOLDEN_CHEEKED_WARBLER_3.jpg,A3TBG0S2IEBVHU
101,2.0,left,left,1.0,1.2408,0.0,41.0,41.0,41.0,1.0,MALACHITE_KINGFISHER_2.jpg,INCA_TERN_2.jpg,A3TBG0S2IEBVHU
102,3.0,left,right,0.0,1.638,0.0,42.0,42.0,42.0,1.0,INCA_TERN_4.jpg,BORNEAN_BRISTLEHEAD_5.jpg,A3TBG0S2IEBVHU
103,2.0,right,right,1.0,1.5439,0.0,43.0,43.0,43.0,1.0,EASTERN_GOLDEN_WEAVER_5.jpg,IVORY_GULL_1.jpg,A3TBG0S2IEBVHU
104,3.0,left,left,1.0,0.7169,0.0,44.0,44.0,44.0,1.0,GREY_PLOVER_1.jpg,ECUADORIAN_HILLSTAR_3.jpg,A3TBG0S2IEBVHU
105,2.0,left,left,1.0,1.135,0.0,45.0,45.0,45.0,1.0,RUBY_THROATED_HUMMINGBIRD_2.jpg,APAPANE_4.jpg,A3TBG0S2IEBVHU
106,2.0,right,right,1.0,1.1255,0.0,46.0,46.0,46.0,1.0,HAMERKOP_1.jpg,MAGPIE_GOOSE_5.jpg,A3TBG0S2IEBVHU
107,3.0,right,right,1.0,1.3458,0.0,47.0,47.0,47.0,1.0,AZURE_TIT_5.jpg,KILLDEAR_2.jpg,A3TBG0S2IEBVHU
108,1.0,left,left,1.0,1.0952,0.0,48.0,48.0,48.0,1.0,PEACOCK_3.jpg,ANIANIAU_2.jpg,A3TBG0S2IEBVHU
109,1.0,right,right,1.0,1.3302,0.0,49.0,49.0,49.0,1.0,DOUBLE_BRESTED_CORMARANT_4.jpg,STRIPPED_SWALLOW_1.jpg,A3TBG0S2IEBVHU
110,2.0,left,left,1.0,1.4323,0.0,50.0,50.0,50.0,1.0,VERMILION_FLYCATHER_3.jpg,CALIFORNIA_GULL_1.jpg,A3TBG0S2IEBVHU
111,2.0,right,right,1.0,1.1248,0.0,51.0,51.0,51.0,1.0,BLACK_VULTURE_1.jpg,ARARIPE_MANAKIN_4.jpg,A3TBG0S2IEBVHU
112,3.0,right,left,0.0,0.9225,0.0,52.0,52.0,52.0,1.0,COMMON_IORA_4.jpg,PINK_ROBIN_4.jpg,A3TBG0S2IEBVHU
113,1.0,right,right,1.0,1.0216,0.0,53.0,53.0,53.0,1.0,SNOWY_OWL_5.jpg,RUFOUS_KINGFISHER_1.jpg,A3TBG0S2IEBVHU
114,1.0,left,left,1.0,1.1222,0.0,54.0,54.0,54.0,1.0,INLAND_DOTTEREL_4.jpg,CASSOWARY_2.jpg,A3TBG0S2IEBVHU
115,1.0,right,left,0.0,0.734,0.0,55.0,55.0,55.0,1.0,RED_BEARDED_BEE_EATER_3.jpg,KAGU_5.jpg,A3TBG0S2IEBVHU
116,1.0,right,right,1.0,1.0557,0.0,56.0,56.0,56.0,1.0,POMARINE_JAEGER_5.jpg,SPLENDID_WREN_1.jpg,A3TBG0S2IEBVHU
117,1.0,right,right,1.0,1.9546,0.0,57.0,57.0,57.0,1.0,ROADRUNNER_2.jpg,GOLDEN_CHLOROPHONIA_5.jpg,A3TBG0S2IEBVHU
118,2.0,left,left,1.0,1.1238,0.0,58.0,58.0,58.0,1.0,SHOEBILL_3.jpg,GILDED_FLICKER_5.jpg,A3TBG0S2IEBVHU
119,1.0,left,left,1.0,1.3278,0.0,59.0,59.0,59.0,1.0,GYRFALCON_1.jpg,OSTRICH_1.jpg,A3TBG0S2IEBVHU
120,1.0,right,right,1.0,2.327,0.0,0.0,0.0,0.0,1.0,ALTAMIRA_YELLOWTHROAT_5.jpg,LESSER_ADJUTANT_4.jpg,A1BRJXBMTURQNT
121,2.0,right,right,1.0,2.458,0.0,1.0,1.0,1.0,1.0,AFRICAN_FIREFINCH_1.jpg,CRESTED_NUTHATCH_2.jpg,A1BRJXBMTURQNT
122,1.0,right,right,1.0,1.591,0.0,2.0,2.0,2.0,1.0,WILSONS_BIRD_OF_PARADISE_4.jpg,IVORY_GULL_1.jpg,A1BRJXBMTURQNT
123,1.0,right,right,1.0,2.376,0.0,3.0,3.0,3.0,1.0,EMU_2.jpg,AMERICAN_PIPIT_5.jpg,A1BRJXBMTURQNT
124,3.0,right,right,1.0,1.775,0.0,4.0,4.0,4.0,1.0,RED_HEADED_WOODPECKER_1.jpg,LESSER_ADJUTANT_5.jpg,A1BRJXBMTURQNT
125,2.0,right,left,0.0,1.507,0.0,5.0,5.0,5.0,1.0,GREY_PLOVER_4.jpg,MYNA_1.jpg,A1BRJXBMTURQNT
126,3.0,right,right,1.0,1.364,0.0,6.0,6.0,6.0,1.0,CHATTERING_LORY_2.jpg,PEACOCK_3.jpg,A1BRJXBMTURQNT
127,3.0,left,left,1.0,2.268,0.0,7.0,7.0,7.0,1.0,NORTHERN_JACANA_3.jpg,SCARLET_IBIS_4.jpg,A1BRJXBMTURQNT
128,3.0,left,right,0.0,1.609,0.0,8.0,8.0,8.0,1.0,GOLDEN_CHLOROPHONIA_5.jpg,VERMILION_FLYCATHER_5.jpg,A1BRJXBMTURQNT
129,1.0,left,left,1.0,2.271,0.0,9.0,9.0,9.0,1.0,OVENBIRD_5.jpg,MYNA_4.jpg,A1BRJXBMTURQNT
130,3.0,left,right,0.0,3.699,0.0,10.0,10.0,10.0,1.0,KILLDEAR_2.jpg,AZURE_TIT_5.jpg,A1BRJXBMTURQNT
131,3.0,left,left,1.0,2.501,0.0,11.0,11.0,11.0,1.0,RUBY_THROATED_HUMMINGBIRD_1.jpg,FRIGATE_1.jpg,A1BRJXBMTURQNT
132,3.0,right,right,1.0,1.496,0.0,12.0,12.0,12.0,1.0,FAIRY_TERN_1.jpg,GYRFALCON_1.jpg,A1BRJXBMTURQNT
133,3.0,left,right,0.0,4.22,0.0,13.0,13.0,13.0,1.0,INDIGO_BUNTING_1.jpg,DARWINS_FLYCATCHER_2.jpg,A1BRJXBMTURQNT
134,3.0,left,left,1.0,2.308,0.0,14.0,14.0,14.0,1.0,MAGPIE_GOOSE_5.jpg,OYSTER_CATCHER_3.jpg,A1BRJXBMTURQNT
135,2.0,left,left,1.0,2.622,0.0,15.0,15.0,15.0,1.0,LARK_BUNTING_2.jpg,KING_VULTURE_3.jpg,A1BRJXBMTURQNT
136,1.0,right,left,0.0,3.096,0.0,16.0,16.0,16.0,1.0,CASSOWARY_2.jpg,INLAND_DOTTEREL_4.jpg,A1BRJXBMTURQNT
137,2.0,left,right,0.0,2.438,0.0,17.0,17.0,17.0,1.0,BROWN_THRASHER_3.jpg,OYSTER_CATCHER_4.jpg,A1BRJXBMTURQNT
138,2.0,right,right,1.0,1.747,0.0,18.0,18.0,18.0,1.0,SPANGLED_COTINGA_4.jpg,BROWN_NOODY_3.jpg,A1BRJXBMTURQNT
139,2.0,left,right,0.0,2.368,0.0,19.0,19.0,19.0,1.0,OCELLATED_TURKEY_1.jpg,AMERICAN_PIPIT_1.jpg,A1BRJXBMTURQNT
140,1.0,right,right,1.0,2.869,0.0,20.0,20.0,20.0,1.0,INDIAN_BUSTARD_2.jpg,FLAME_BOWERBIRD_3.jpg,A1BRJXBMTURQNT
141,1.0,left,left,1.0,3.942,0.0,21.0,21.0,21.0,1.0,PYGMY_KINGFISHER_5.jpg,GRANDALA_2.jpg,A1BRJXBMTURQNT
142,2.0,left,left,1.0,2.268,0.0,22.0,22.0,22.0,1.0,VERMILION_FLYCATHER_3.jpg,CALIFORNIA_GULL_1.jpg,A1BRJXBMTURQNT
143,1.0,right,right,1.0,1.431,0.0,23.0,23.0,23.0,1.0,HYACINTH_MACAW_3.jpg,GREY_PLOVER_1.jpg,A1BRJXBMTURQNT
144,1.0,left,left,1.0,1.683,0.0,24.0,24.0,24.0,1.0,PINK_ROBIN_4.jpg,SPOONBILL_3.jpg,A1BRJXBMTURQNT
145,1.0,left,left,1.0,4.261,0.0,25.0,25.0,25.0,1.0,DOUBLE_BRESTED_CORMARANT_5.jpg,GILDED_FLICKER_2.jpg,A1BRJXBMTURQNT
146,3.0,right,right,1.0,4.146,0.0,26.0,26.0,26.0,1.0,VIOLET_GREEN_SWALLOW_4.jpg,ASIAN_DOLLARD_BIRD_2.jpg,A1BRJXBMTURQNT
147,2.0,left,left,1.0,2.635,0.0,27.0,27.0,27.0,1.0,ARARIPE_MANAKIN_4.jpg,BLACK_VULTURE_1.jpg,A1BRJXBMTURQNT
148,1.0,right,right,1.0,1.539,0.0,28.0,28.0,28.0,1.0,BALD_EAGLE_2.jpg,GRAY_KINGBIRD_5.jpg,A1BRJXBMTURQNT
149,3.0,left,left,1.0,2.987,0.0,29.0,29.0,29.0,1.0,RUBY_THROATED_HUMMINGBIRD_3.jpg,NORTHERN_SHOVELER_1.jpg,A1BRJXBMTURQNT
150,3.0,right,left,0.0,2.351,0.0,30.0,30.0,30.0,1.0,NORTHERN_BEARDLESS_TYRANNULET_5.jpg,EASTERN_TOWEE_2.jpg,A1BRJXBMTURQNT
151,2.0,right,right,1.0,2.574,0.0,31.0,31.0,31.0,1.0,DOUBLE_BRESTED_CORMARANT_1.jpg,SPLENDID_WREN_1.jpg,A1BRJXBMTURQNT
152,3.0,left,left,1.0,5.1,0.0,32.0,32.0,32.0,1.0,IVORY_GULL_3.jpg,SNOWY_EGRET_4.jpg,A1BRJXBMTURQNT
153,1.0,left,left,1.0,2.615,0.0,33.0,33.0,33.0,1.0,RED_HEADED_WOODPECKER_5.jpg,ASHY_STORM_PETREL_2.jpg,A1BRJXBMTURQNT
154,2.0,left,left,1.0,2.01,0.0,34.0,34.0,34.0,1.0,MALACHITE_KINGFISHER_2.jpg,INCA_TERN_2.jpg,A1BRJXBMTURQNT
155,2.0,left,left,1.0,2.456,0.0,35.0,35.0,35.0,1.0,ECUADORIAN_HILLSTAR_5.jpg,BOBOLINK_5.jpg,A1BRJXBMTURQNT
156,2.0,right,right,1.0,2.506,0.0,36.0,36.0,36.0,1.0,ALEXANDRINE_PARAKEET_1.jpg,AFRICAN_PIED_HORNBILL_5.jpg,A1BRJXBMTURQNT
157,2.0,right,left,0.0,1.926,0.0,37.0,37.0,37.0,1.0,APAPANE_4.jpg,RUBY_THROATED_HUMMINGBIRD_2.jpg,A1BRJXBMTURQNT
158,2.0,right,left,0.0,3.268,0.0,38.0,38.0,38.0,1.0,AFRICAN_EMERALD_CUCKOO_5.jpg,TASMANIAN_HEN_5.jpg,A1BRJXBMTURQNT
159,1.0,left,left,1.0,4.091,0.0,39.0,39.0,39.0,1.0,SCARLET_TANAGER_2.jpg,BEARDED_BARBET_2.jpg,A1BRJXBMTURQNT
160,2.0,left,left,1.0,1.79,0.0,40.0,40.0,40.0,1.0,CERULEAN_WARBLER_1.jpg,AMERICAN_FLAMINGO_5.jpg,A1BRJXBMTURQNT
161,2.0,left,left,1.0,1.816,0.0,41.0,41.0,41.0,1.0,LITTLE_AUK_5.jpg,ORANGE_BRESTED_BUNTING_3.jpg,A1BRJXBMTURQNT
162,1.0,right,right,1.0,2.291,0.0,42.0,42.0,42.0,1.0,CUBAN_TODY_3.jpg,HAWAIIAN_GOOSE_4.jpg,A1BRJXBMTURQNT
163,2.0,left,left,1.0,2.31,0.0,43.0,43.0,43.0,1.0,ALPINE_CHOUGH_4.jpg,EUROPEAN_GOLDFINCH_3.jpg,A1BRJXBMTURQNT
164,3.0,left,right,0.0,4.084,0.0,44.0,44.0,44.0,1.0,CRESTED_CARACARA_4.jpg,TOUCHAN_4.jpg,A1BRJXBMTURQNT
165,3.0,right,right,1.0,2.633,0.0,45.0,45.0,45.0,1.0,DEMOISELLE_CRANE_1.jpg,KAGU_5.jpg,A1BRJXBMTURQNT
166,3.0,left,left,1.0,1.512,0.0,46.0,46.0,46.0,1.0,GOLDEN_CHEEKED_WARBLER_2.jpg,WHITE_THROATED_BEE_EATER_1.jpg,A1BRJXBMTURQNT
167,2.0,left,left,1.0,2.558,0.0,47.0,47.0,47.0,1.0,PARUS_MAJOR_1.jpg,CALIFORNIA_GULL_2.jpg,A1BRJXBMTURQNT
168,1.0,right,right,1.0,1.273,0.0,48.0,48.0,48.0,1.0,CAPE_LONGCLAW_5.jpg,BALI_STARLING_1.jpg,A1BRJXBMTURQNT
169,2.0,left,left,1.0,3.856,0.0,49.0,49.0,49.0,1.0,INCA_TERN_4.jpg,SMITHS_LONGSPUR_5.jpg,A1BRJXBMTURQNT
170,1.0,left,left,1.0,1.925,0.0,50.0,50.0,50.0,1.0,BREWERS_BLACKBIRD_3.jpg,GUINEA_TURACO_3.jpg,A1BRJXBMTURQNT
171,3.0,right,right,1.0,1.648,0.0,51.0,51.0,51.0,1.0,AFRICAN_OYSTER_CATCHER_2.jpg,CASSOWARY_1.jpg,A1BRJXBMTURQNT
172,1.0,left,left,1.0,2.21,0.0,52.0,52.0,52.0,1.0,CHUKAR_PARTRIDGE_5.jpg,OSTRICH_5.jpg,A1BRJXBMTURQNT
173,3.0,left,left,1.0,1.91,0.0,53.0,53.0,53.0,1.0,SHOEBILL_3.jpg,BALD_EAGLE_5.jpg,A1BRJXBMTURQNT
174,2.0,right,right,1.0,1.827,0.0,54.0,54.0,54.0,1.0,EUROPEAN_GOLDFINCH_4.jpg,CASPIAN_TERN_1.jpg,A1BRJXBMTURQNT
175,3.0,left,left,1.0,1.653,0.0,55.0,55.0,55.0,1.0,EUROPEAN_TURTLE_DOVE_3.jpg,MALABAR_HORNBILL_2.jpg,A1BRJXBMTURQNT
176,3.0,right,right,1.0,1.495,0.0,56.0,56.0,56.0,1.0,GO_AWAY_BIRD_5.jpg,STRIPPED_SWALLOW_1.jpg,A1BRJXBMTURQNT
177,1.0,left,left,1.0,1.321,0.0,57.0,57.0,57.0,1.0,RUFOUS_KINGFISHER_1.jpg,SNOWY_OWL_5.jpg,A1BRJXBMTURQNT
178,1.0,right,right,1.0,4.733,0.0,58.0,58.0,58.0,1.0,NORTHERN_MOCKINGBIRD_4.jpg,WHITE_CHEEKED_TURACO_5.jpg,A1BRJXBMTURQNT
179,1.0,right,left,0.0,2.245,0.0,59.0,59.0,59.0,1.0,CANARY_2.jpg,ASIAN_CRESTED_IBIS_4.jpg,A1BRJXBMTURQNT
180,3.0,right,right,1.0,2.1522,0.0,0.0,0.0,0.0,1.0,CHINESE_POND_HERON_2.jpg,DOUBLE_BRESTED_CORMARANT_5.jpg,A50K26F2IS94U
181,2.0,right,right,1.0,1.8922,0.0,1.0,1.0,1.0,1.0,OYSTER_CATCHER_2.jpg,ASIAN_CRESTED_IBIS_4.jpg,A50K26F2IS94U
182,3.0,right,right,1.0,1.0759,0.0,2.0,2.0,2.0,1.0,BALD_EAGLE_5.jpg,SHOEBILL_3.jpg,A50K26F2IS94U
183,2.0,left,left,1.0,1.7832,0.0,3.0,3.0,3.0,1.0,LESSER_ADJUTANT_4.jpg,RAINBOW_LORIKEET_5.jpg,A50K26F2IS94U
184,3.0,left,left,1.0,1.6827,0.0,4.0,4.0,4.0,1.0,GOLDEN_CHLOROPHONIA_5.jpg,VERMILION_FLYCATHER_5.jpg,A50K26F2IS94U
185,1.0,left,left,1.0,0.9946,0.0,5.0,5.0,5.0,1.0,TASMANIAN_HEN_5.jpg,GREEN_BROADBILL_1.jpg,A50K26F2IS94U
186,3.0,left,right,0.0,1.0886,0.0,6.0,6.0,6.0,1.0,PARUS_MAJOR_1.jpg,PINK_ROBIN_3.jpg,A50K26F2IS94U
187,2.0,left,right,0.0,1.623,0.0,7.0,7.0,7.0,1.0,ASIAN_DOLLARD_BIRD_2.jpg,LOGGERHEAD_SHRIKE_4.jpg,A50K26F2IS94U
188,3.0,left,left,1.0,0.8554,0.0,8.0,8.0,8.0,1.0,GYRFALCON_1.jpg,FAIRY_TERN_1.jpg,A50K26F2IS94U
189,3.0,right,right,1.0,1.4952,0.0,9.0,9.0,9.0,1.0,CRESTED_KINGFISHER_1.jpg,INLAND_DOTTEREL_4.jpg,A50K26F2IS94U
190,1.0,right,right,1.0,1.2776,0.0,10.0,10.0,10.0,1.0,AMERICAN_GOLDFINCH_4.jpg,NORTHERN_JACANA_3.jpg,A50K26F2IS94U
191,1.0,right,right,1.0,2.0102,0.0,11.0,11.0,11.0,1.0,OSTRICH_5.jpg,CHUKAR_PARTRIDGE_5.jpg,A50K26F2IS94U
192,1.0,right,right,1.0,1.0265,0.0,12.0,12.0,12.0,1.0,FRIGATE_4.jpg,INDIGO_BUNTING_1.jpg,A50K26F2IS94U
193,1.0,left,left,1.0,1.224,0.0,13.0,13.0,13.0,1.0,RUBY_THROATED_HUMMINGBIRD_1.jpg,BANANAQUIT_2.jpg,A50K26F2IS94U
194,2.0,left,left,1.0,1.7097,0.0,14.0,14.0,14.0,1.0,KILLDEAR_2.jpg,CAATINGA_CACHOLOTE_4.jpg,A50K26F2IS94U
195,3.0,left,left,1.0,1.0363,0.0,15.0,15.0,15.0,1.0,ARARIPE_MANAKIN_4.jpg,BORNEAN_LEAFBIRD_3.jpg,A50K26F2IS94U
196,3.0,left,right,0.0,2.6416,0.0,16.0,16.0,16.0,1.0,ALPINE_CHOUGH_4.jpg,BOBOLINK_3.jpg,A50K26F2IS94U
197,2.0,left,left,1.0,1.7938,0.0,17.0,17.0,17.0,1.0,INCA_TERN_4.jpg,SMITHS_LONGSPUR_5.jpg,A50K26F2IS94U
198,1.0,right,right,1.0,1.0871,0.0,18.0,18.0,18.0,1.0,PEACOCK_2.jpg,BROWN_NOODY_3.jpg,A50K26F2IS94U
199,1.0,right,right,1.0,2.2846,0.0,19.0,19.0,19.0,1.0,DOUBLE_EYED_FIG_PARROT_3.jpg,BROWN_THRASHER_3.jpg,A50K26F2IS94U
200,2.0,right,right,1.0,1.2797,0.0,20.0,20.0,20.0,1.0,KING_VULTURE_3.jpg,LARK_BUNTING_2.jpg,A50K26F2IS94U
201,3.0,right,right,1.0,1.9498,0.0,21.0,21.0,21.0,1.0,DOUBLE_EYED_FIG_PARROT_4.jpg,PYGMY_KINGFISHER_5.jpg,A50K26F2IS94U
202,1.0,left,left,1.0,1.3746,0.0,22.0,22.0,22.0,1.0,SPLENDID_WREN_1.jpg,POMARINE_JAEGER_5.jpg,A50K26F2IS94U
203,3.0,right,right,1.0,2.0947,0.0,23.0,23.0,23.0,1.0,PARADISE_TANAGER_3.jpg,MYNA_1.jpg,A50K26F2IS94U
204,3.0,left,left,1.0,4.3046,0.0,24.0,24.0,24.0,1.0,EASTERN_TOWEE_2.jpg,NORTHERN_BEARDLESS_TYRANNULET_5.jpg,A50K26F2IS94U
205,1.0,right,right,1.0,1.423,0.0,25.0,25.0,25.0,1.0,CAPE_LONGCLAW_5.jpg,BALI_STARLING_1.jpg,A50K26F2IS94U
206,1.0,right,right,1.0,1.2,0.0,26.0,26.0,26.0,1.0,NORTHERN_MOCKINGBIRD_4.jpg,WHITE_CHEEKED_TURACO_5.jpg,A50K26F2IS94U
207,2.0,right,right,1.0,0.8302,0.0,27.0,27.0,27.0,1.0,ALBATROSS_4.jpg,PINK_ROBIN_4.jpg,A50K26F2IS94U
208,1.0,right,right,1.0,2.2916,0.0,28.0,28.0,28.0,1.0,FAIRY_PENGUIN_5.jpg,CRESTED_CARACARA_4.jpg,A50K26F2IS94U
209,3.0,left,left,1.0,2.0627,0.0,29.0,29.0,29.0,1.0,GOLDEN_CHEEKED_WARBLER_2.jpg,WHITE_THROATED_BEE_EATER_1.jpg,A50K26F2IS94U
210,2.0,left,left,1.0,1.671,0.0,30.0,30.0,30.0,1.0,RUBY_THROATED_HUMMINGBIRD_3.jpg,MYNA_5.jpg,A50K26F2IS94U
211,3.0,right,left,0.0,2.253,0.0,31.0,31.0,31.0,1.0,DUSKY_ROBIN_5.jpg,RUBY_THROATED_HUMMINGBIRD_2.jpg,A50K26F2IS94U
212,3.0,left,left,1.0,1.8291,0.0,32.0,32.0,32.0,1.0,IVORY_GULL_3.jpg,SNOWY_EGRET_4.jpg,A50K26F2IS94U
213,1.0,left,left,1.0,1.7044,0.0,33.0,33.0,33.0,1.0,OCELLATED_TURKEY_1.jpg,CHIPPING_SPARROW_1.jpg,A50K26F2IS94U
214,2.0,left,left,1.0,1.4894,0.0,34.0,34.0,34.0,1.0,RUFOUS_KINGFISHER_1.jpg,MAGPIE_GOOSE_3.jpg,A50K26F2IS94U
215,1.0,left,left,1.0,1.3207,0.0,35.0,35.0,35.0,1.0,ECUADORIAN_HILLSTAR_5.jpg,SCARLET_IBIS_2.jpg,A50K26F2IS94U
216,2.0,left,left,1.0,2.0536,0.0,36.0,36.0,36.0,1.0,VERMILION_FLYCATHER_3.jpg,CALIFORNIA_GULL_1.jpg,A50K26F2IS94U
217,3.0,right,left,0.0,2.58,0.0,37.0,37.0,37.0,1.0,CAPUCHINBIRD_2.jpg,AFRICAN_PIED_HORNBILL_5.jpg,A50K26F2IS94U
218,2.0,right,right,1.0,1.6484,0.0,38.0,38.0,38.0,1.0,EUROPEAN_GOLDFINCH_4.jpg,CASPIAN_TERN_1.jpg,A50K26F2IS94U
219,2.0,left,left,1.0,1.3956,0.0,39.0,39.0,39.0,1.0,OVENBIRD_5.jpg,FAIRY_PENGUIN_1.jpg,A50K26F2IS94U
220,3.0,right,left,0.0,3.2403,0.0,40.0,40.0,40.0,1.0,AFRICAN_FIREFINCH_3.jpg,GRAY_KINGBIRD_5.jpg,A50K26F2IS94U
221,3.0,left,left,1.0,0.0532,0.0,41.0,41.0,41.0,1.0,CRESTED_NUTHATCH_2.jpg,CANARY_1.jpg,A50K26F2IS94U
222,2.0,right,right,1.0,3.5249,0.0,42.0,42.0,42.0,1.0,GAMBELS_QUAIL_1.jpg,LESSER_ADJUTANT_5.jpg,A50K26F2IS94U
223,2.0,left,left,1.0,1.0316,0.0,43.0,43.0,43.0,1.0,MAGPIE_GOOSE_5.jpg,HAMERKOP_1.jpg,A50K26F2IS94U
224,1.0,left,right,0.0,1.806,0.0,44.0,44.0,44.0,1.0,HAWAIIAN_GOOSE_4.jpg,CUBAN_TODY_3.jpg,A50K26F2IS94U
225,2.0,right,left,0.0,2.2633,0.0,45.0,45.0,45.0,1.0,ORANGE_BRESTED_BUNTING_3.jpg,LITTLE_AUK_5.jpg,A50K26F2IS94U
226,2.0,right,right,1.0,1.2687,0.0,46.0,46.0,46.0,1.0,CRIMSON_CHAT_3.jpg,RED_HEADED_WOODPECKER_5.jpg,A50K26F2IS94U
227,3.0,left,left,1.0,1.2779,0.0,47.0,47.0,47.0,1.0,IVORY_GULL_1.jpg,FAIRY_TERN_4.jpg,A50K26F2IS94U
228,2.0,left,right,0.0,2.2153,0.0,48.0,48.0,48.0,1.0,GREY_PLOVER_1.jpg,GOULDIAN_FINCH_4.jpg,A50K26F2IS94U
229,3.0,right,right,1.0,1.7987,0.0,49.0,49.0,49.0,1.0,BORNEAN_LEAFBIRD_1.jpg,SCARLET_TANAGER_2.jpg,A50K26F2IS94U
230,3.0,left,left,1.0,2.0227,0.0,50.0,50.0,50.0,1.0,CERULEAN_WARBLER_1.jpg,BANANAQUIT_1.jpg,A50K26F2IS94U
231,2.0,left,left,1.0,1.5151,0.0,51.0,51.0,51.0,1.0,EUROPEAN_TURTLE_DOVE_3.jpg,PAINTED_BUNTING_3.jpg,A50K26F2IS94U
232,1.0,right,right,1.0,1.8428,0.0,52.0,52.0,52.0,1.0,GUINEA_TURACO_3.jpg,BREWERS_BLACKBIRD_3.jpg,A50K26F2IS94U
233,1.0,left,left,1.0,2.7147,0.0,53.0,53.0,53.0,1.0,AMERICAN_PIPIT_5.jpg,EMU_2.jpg,A50K26F2IS94U
234,1.0,right,right,1.0,2.514,0.0,54.0,54.0,54.0,1.0,INDIAN_BUSTARD_2.jpg,FLAME_BOWERBIRD_3.jpg,A50K26F2IS94U
235,1.0,left,left,1.0,2.0305,0.0,55.0,55.0,55.0,1.0,MALACHITE_KINGFISHER_2.jpg,AMERICAN_FLAMINGO_1.jpg,A50K26F2IS94U
236,2.0,left,right,0.0,2.8032,0.0,56.0,56.0,56.0,1.0,STRIPPED_SWALLOW_1.jpg,MAGPIE_GOOSE_4.jpg,A50K26F2IS94U
237,2.0,left,left,1.0,1.3286,0.0,57.0,57.0,57.0,1.0,CASSOWARY_1.jpg,SCARLET_MACAW_1.jpg,A50K26F2IS94U
238,1.0,left,left,1.0,1.4885,0.0,58.0,58.0,58.0,1.0,KAGU_5.jpg,RED_BEARDED_BEE_EATER_3.jpg,A50K26F2IS94U
239,1.0,right,right,1.0,2.1554,0.0,59.0,59.0,59.0,1.0,ANIANIAU_2.jpg,PEACOCK_3.jpg,A50K26F2IS94U
240,2.0,right,right,1.0,5.509099998,0.0,0.0,0.0,0.0,1.0,INDIAN_PITTA_2.jpg,CRESTED_CARACARA_4.jpg,A33YJIL8ZY6XSB
241,1.0,right,right,1.0,1.798299999,0.0,1.0,1.0,1.0,1.0,GUINEA_TURACO_3.jpg,BREWERS_BLACKBIRD_3.jpg,A33YJIL8ZY6XSB
242,1.0,right,right,1.0,1.8141,0.0,2.0,2.0,2.0,1.0,EMU_2.jpg,AMERICAN_PIPIT_5.jpg,A33YJIL8ZY6XSB
243,3.0,right,right,1.0,2.8125,0.0,3.0,3.0,3.0,1.0,QUETZAL_3.jpg,FLAME_BOWERBIRD_3.jpg,A33YJIL8ZY6XSB
244,1.0,right,right,1.0,3.0074,0.0,4.0,4.0,4.0,1.0,PEACOCK_2.jpg,BROWN_NOODY_3.jpg,A33YJIL8ZY6XSB
245,1.0,right,right,1.0,2.803700001,0.0,5.0,5.0,5.0,1.0,FRIGATE_4.jpg,INDIGO_BUNTING_1.jpg,A33YJIL8ZY6XSB
246,2.0,right,right,1.0,2.799599998,0.0,6.0,6.0,6.0,1.0,GILDED_FLICKER_5.jpg,SHOEBILL_3.jpg,A33YJIL8ZY6XSB
247,2.0,left,left,1.0,2.958800001,0.0,7.0,7.0,7.0,1.0,PYGMY_KINGFISHER_5.jpg,MASKED_BOOBY_5.jpg,A33YJIL8ZY6XSB
248,1.0,left,left,1.0,2.624699999,0.0,8.0,8.0,8.0,1.0,CRESTED_NUTHATCH_2.jpg,SCARLET_IBIS_3.jpg,A33YJIL8ZY6XSB
249,3.0,left,left,1.0,2.796,0.0,9.0,9.0,9.0,1.0,LESSER_ADJUTANT_4.jpg,FAIRY_TERN_3.jpg,A33YJIL8ZY6XSB
250,3.0,right,left,0.0,2.861299999,0.0,10.0,10.0,10.0,1.0,BORNEAN_LEAFBIRD_3.jpg,ARARIPE_MANAKIN_4.jpg,A33YJIL8ZY6XSB
251,1.0,left,left,1.0,2.022,0.0,11.0,11.0,11.0,1.0,GREY_PLOVER_1.jpg,HYACINTH_MACAW_3.jpg,A33YJIL8ZY6XSB
252,2.0,right,right,1.0,3.127699999,0.0,12.0,12.0,12.0,1.0,DOUBLE_BRESTED_CORMARANT_1.jpg,SPLENDID_WREN_1.jpg,A33YJIL8ZY6XSB
253,2.0,right,right,1.0,3.6985,0.0,13.0,13.0,13.0,1.0,SCARLET_MACAW_1.jpg,CASSOWARY_1.jpg,A33YJIL8ZY6XSB
254,3.0,left,left,1.0,2.6529,0.0,14.0,14.0,14.0,1.0,EASTERN_TOWEE_2.jpg,NORTHERN_BEARDLESS_TYRANNULET_5.jpg,A33YJIL8ZY6XSB
255,1.0,right,right,1.0,2.1215,0.0,15.0,15.0,15.0,1.0,WILSONS_BIRD_OF_PARADISE_4.jpg,IVORY_GULL_1.jpg,A33YJIL8ZY6XSB
256,1.0,left,left,1.0,3.490300001,0.0,16.0,16.0,16.0,1.0,ASIAN_DOLLARD_BIRD_2.jpg,ALBATROSS_2.jpg,A33YJIL8ZY6XSB
257,2.0,left,right,0.0,3.0154,0.0,17.0,17.0,17.0,1.0,CHUKAR_PARTRIDGE_5.jpg,RAZORBILL_1.jpg,A33YJIL8ZY6XSB
258,2.0,left,left,1.0,4.183,0.0,18.0,18.0,18.0,1.0,OCELLATED_TURKEY_1.jpg,AMERICAN_PIPIT_1.jpg,A33YJIL8ZY6XSB
259,3.0,left,right,0.0,4.180300001,0.0,19.0,19.0,19.0,1.0,ALPINE_CHOUGH_4.jpg,BOBOLINK_3.jpg,A33YJIL8ZY6XSB
260,1.0,right,right,1.0,2.1291,0.0,20.0,20.0,20.0,1.0,GREEN_BROADBILL_4.jpg,LESSER_ADJUTANT_5.jpg,A33YJIL8ZY6XSB
261,3.0,right,right,1.0,3.1114,0.0,21.0,21.0,21.0,1.0,CAPUCHINBIRD_2.jpg,AFRICAN_PIED_HORNBILL_5.jpg,A33YJIL8ZY6XSB
262,3.0,right,right,1.0,2.1839,0.0,22.0,22.0,22.0,1.0,COLLARED_ARACARI_1.jpg,RED_HEADED_WOODPECKER_5.jpg,A33YJIL8ZY6XSB
263,1.0,left,left,1.0,6.0074,0.0,23.0,23.0,23.0,1.0,RUBY_THROATED_HUMMINGBIRD_3.jpg,MALAGASY_WHITE_EYE_2.jpg,A33YJIL8ZY6XSB
264,2.0,right,left,0.0,1.868,0.0,24.0,24.0,24.0,1.0,OYSTER_CATCHER_4.jpg,BROWN_THRASHER_3.jpg,A33YJIL8ZY6XSB
265,2.0,left,right,0.0,2.201200001,0.0,25.0,25.0,25.0,1.0,BALI_STARLING_1.jpg,PURPLE_FINCH_2.jpg,A33YJIL8ZY6XSB
266,1.0,right,right,1.0,2.1311,0.0,26.0,26.0,26.0,1.0,SPOONBILL_1.jpg,GOLDEN_CHEEKED_WARBLER_2.jpg,A33YJIL8ZY6XSB
267,3.0,left,left,1.0,2.680299999,0.0,27.0,27.0,27.0,1.0,GYRFALCON_1.jpg,FAIRY_TERN_1.jpg,A33YJIL8ZY6XSB
268,3.0,left,right,0.0,2.3854,0.0,28.0,28.0,28.0,1.0,INCA_TERN_4.jpg,BORNEAN_BRISTLEHEAD_5.jpg,A33YJIL8ZY6XSB
269,2.0,left,right,0.0,2.645299999,0.0,29.0,29.0,29.0,1.0,KAGU_5.jpg,ASHY_STORM_PETREL_1.jpg,A33YJIL8ZY6XSB
270,3.0,left,left,1.0,5.0591,0.0,30.0,30.0,30.0,1.0,ECUADORIAN_HILLSTAR_5.jpg,CRIMSON_SUNBIRD_5.jpg,A33YJIL8ZY6XSB
271,2.0,left,right,0.0,2.706599998,0.0,31.0,31.0,31.0,1.0,RUFOUS_KINGFISHER_1.jpg,MAGPIE_GOOSE_3.jpg,A33YJIL8ZY6XSB
272,3.0,right,right,1.0,1.956299999,0.0,32.0,32.0,32.0,1.0,AFRICAN_FIREFINCH_3.jpg,GRAY_KINGBIRD_5.jpg,A33YJIL8ZY6XSB
273,1.0,right,left,0.0,4.391699999,0.0,33.0,33.0,33.0,1.0,DOUBLE_BRESTED_CORMARANT_4.jpg,STRIPPED_SWALLOW_1.jpg,A33YJIL8ZY6XSB
274,3.0,left,left,1.0,3.0479,0.0,34.0,34.0,34.0,1.0,MALACHITE_KINGFISHER_2.jpg,GREEN_BROADBILL_5.jpg,A33YJIL8ZY6XSB
275,2.0,left,left,1.0,2.286299999,0.0,35.0,35.0,35.0,1.0,LITTLE_AUK_5.jpg,ORANGE_BRESTED_BUNTING_3.jpg,A33YJIL8ZY6XSB
276,1.0,right,right,1.0,2.268900002,0.0,36.0,36.0,36.0,1.0,AMERICAN_FLAMINGO_2.jpg,CERULEAN_WARBLER_1.jpg,A33YJIL8ZY6XSB
277,1.0,left,right,0.0,2.5076,0.0,37.0,37.0,37.0,1.0,RUBY_THROATED_HUMMINGBIRD_2.jpg,GOLDEN_CHLOROPHONIA_2.jpg,A33YJIL8ZY6XSB
278,2.0,left,left,1.0,2.3021,0.0,38.0,38.0,38.0,1.0,KILLDEAR_2.jpg,CAATINGA_CACHOLOTE_4.jpg,A33YJIL8ZY6XSB
279,2.0,left,left,1.0,3.7006,0.0,39.0,39.0,39.0,1.0,PEACOCK_3.jpg,STRAWBERRY_FINCH_4.jpg,A33YJIL8ZY6XSB
280,3.0,left,left,1.0,4.762099998,0.0,40.0,40.0,40.0,1.0,DOUBLE_BRESTED_CORMARANT_5.jpg,CHINESE_POND_HERON_2.jpg,A33YJIL8ZY6XSB
281,1.0,left,left,1.0,2.521199999,0.0,41.0,41.0,41.0,1.0,EUROPEAN_TURTLE_DOVE_3.jpg,TEAL_DUCK_2.jpg,A33YJIL8ZY6XSB
282,2.0,right,right,1.0,2.2856,0.0,42.0,42.0,42.0,1.0,CALIFORNIA_GULL_1.jpg,VERMILION_FLYCATHER_3.jpg,A33YJIL8ZY6XSB
283,3.0,left,right,0.0,3.465,0.0,43.0,43.0,43.0,1.0,ASIAN_CRESTED_IBIS_4.jpg,IVORY_GULL_2.jpg,A33YJIL8ZY6XSB
284,2.0,left,left,1.0,2.822700001,0.0,44.0,44.0,44.0,1.0,MAGPIE_GOOSE_5.jpg,HAMERKOP_1.jpg,A33YJIL8ZY6XSB
285,1.0,left,left,1.0,2.379,0.0,45.0,45.0,45.0,1.0,SCARLET_TANAGER_2.jpg,BEARDED_BARBET_2.jpg,A33YJIL8ZY6XSB
286,1.0,left,left,1.0,1.812,0.0,46.0,46.0,46.0,1.0,CASPIAN_TERN_1.jpg,GREAT_GRAY_OWL_4.jpg,A33YJIL8ZY6XSB
287,1.0,left,left,1.0,3.2881,0.0,47.0,47.0,47.0,1.0,INLAND_DOTTEREL_4.jpg,CASSOWARY_2.jpg,A33YJIL8ZY6XSB
288,3.0,left,right,0.0,3.4584,0.0,48.0,48.0,48.0,1.0,PINK_ROBIN_4.jpg,COMMON_IORA_4.jpg,A33YJIL8ZY6XSB
289,3.0,left,left,1.0,2.4971,0.0,49.0,49.0,49.0,1.0,PARUS_MAJOR_1.jpg,PINK_ROBIN_3.jpg,A33YJIL8ZY6XSB
290,2.0,left,left,1.0,3.328,0.0,50.0,50.0,50.0,1.0,HAWAIIAN_GOOSE_4.jpg,HIMALAYAN_MONAL_2.jpg,A33YJIL8ZY6XSB
291,3.0,right,left,0.0,3.5086,0.0,51.0,51.0,51.0,1.0,COPPERY_TAILED_COUCAL_1.jpg,TASMANIAN_HEN_5.jpg,A33YJIL8ZY6XSB
292,1.0,right,left,0.0,2.9056,0.0,52.0,52.0,52.0,1.0,BANANAQUIT_2.jpg,RUBY_THROATED_HUMMINGBIRD_1.jpg,A33YJIL8ZY6XSB
293,3.0,left,right,0.0,3.349800001,0.0,53.0,53.0,53.0,1.0,NORTHERN_JACANA_3.jpg,SCARLET_IBIS_4.jpg,A33YJIL8ZY6XSB
294,2.0,left,left,1.0,3.0644,0.0,54.0,54.0,54.0,1.0,LARK_BUNTING_2.jpg,KING_VULTURE_3.jpg,A33YJIL8ZY6XSB
295,3.0,right,right,1.0,2.4765,0.0,55.0,55.0,55.0,1.0,SNOWY_EGRET_4.jpg,IVORY_GULL_3.jpg,A33YJIL8ZY6XSB
296,2.0,right,right,1.0,2.221,0.0,56.0,56.0,56.0,1.0,GREY_PLOVER_4.jpg,MYNA_1.jpg,A33YJIL8ZY6XSB
297,1.0,left,right,0.0,2.6076,0.0,57.0,57.0,57.0,1.0,WHITE_CHEEKED_TURACO_5.jpg,NORTHERN_MOCKINGBIRD_4.jpg,A33YJIL8ZY6XSB
298,2.0,right,left,0.0,2.9699,0.0,58.0,58.0,58.0,1.0,COMMON_HOUSE_MARTIN_4.jpg,GOLDEN_CHLOROPHONIA_5.jpg,A33YJIL8ZY6XSB
299,3.0,right,left,0.0,6.376,0.0,59.0,59.0,59.0,1.0,SHORT_BILLED_DOWITCHER_5.jpg,OVENBIRD_5.jpg,A33YJIL8ZY6XSB
300,1.0,left,left,1.0,2.0796,0.0,0.0,0.0,0.0,1.0,GYRFALCON_1.jpg,OSTRICH_1.jpg,A306SRE7WZDAZS
301,3.0,left,left,1.0,3.2901,0.0,1.0,1.0,1.0,1.0,ASIAN_DOLLARD_BIRD_2.jpg,VIOLET_GREEN_SWALLOW_4.jpg,A306SRE7WZDAZS
302,1.0,right,right,1.0,2.0822,0.0,2.0,2.0,2.0,1.0,KIWI_3.jpg,ARARIPE_MANAKIN_4.jpg,A306SRE7WZDAZS
303,2.0,left,left,1.0,1.8647,0.0,3.0,3.0,3.0,1.0,CASSOWARY_1.jpg,SCARLET_MACAW_1.jpg,A306SRE7WZDAZS
304,3.0,left,left,1.0,2.0999,0.0,4.0,4.0,4.0,1.0,ALPINE_CHOUGH_4.jpg,BOBOLINK_3.jpg,A306SRE7WZDAZS
305,2.0,left,left,1.0,2.6427,0.0,5.0,5.0,5.0,1.0,STRIPPED_SWALLOW_1.jpg,MAGPIE_GOOSE_4.jpg,A306SRE7WZDAZS
306,2.0,left,left,1.0,1.8343,0.0,6.0,6.0,6.0,1.0,AFRICAN_PIED_HORNBILL_5.jpg,ALEXANDRINE_PARAKEET_1.jpg,A306SRE7WZDAZS
307,3.0,right,right,1.0,2.9277,0.0,7.0,7.0,7.0,1.0,BORNEAN_LEAFBIRD_1.jpg,SCARLET_TANAGER_2.jpg,A306SRE7WZDAZS
308,3.0,right,right,1.0,1.7523,0.0,8.0,8.0,8.0,1.0,FRIGATE_1.jpg,RUBY_THROATED_HUMMINGBIRD_1.jpg,A306SRE7WZDAZS
309,1.0,left,left,1.0,2.6096,0.0,9.0,9.0,9.0,1.0,INLAND_DOTTEREL_4.jpg,CASSOWARY_2.jpg,A306SRE7WZDAZS
310,1.0,left,left,1.0,1.6343,0.0,10.0,10.0,10.0,1.0,PINK_ROBIN_4.jpg,SPOONBILL_3.jpg,A306SRE7WZDAZS
311,2.0,right,right,1.0,4.4903,0.0,11.0,11.0,11.0,1.0,RAZORBILL_1.jpg,CHUKAR_PARTRIDGE_5.jpg,A306SRE7WZDAZS
312,1.0,left,left,1.0,2.4257,0.0,12.0,12.0,12.0,1.0,CRESTED_NUTHATCH_2.jpg,SCARLET_IBIS_3.jpg,A306SRE7WZDAZS
313,1.0,left,left,1.0,1.9822,0.0,13.0,13.0,13.0,1.0,AMERICAN_PIPIT_5.jpg,EMU_2.jpg,A306SRE7WZDAZS
314,2.0,left,left,1.0,1.9813,0.0,14.0,14.0,14.0,1.0,NORTHERN_JACANA_3.jpg,CRAB_PLOVER_3.jpg,A306SRE7WZDAZS
315,3.0,left,left,1.0,1.6394,0.0,15.0,15.0,15.0,1.0,BROWN_THRASHER_3.jpg,BLACK_BAZA_4.jpg,A306SRE7WZDAZS
316,2.0,right,right,1.0,1.8531,0.0,16.0,16.0,16.0,1.0,GREAT_POTOO_3.jpg,WHITE_CHEEKED_TURACO_5.jpg,A306SRE7WZDAZS
317,1.0,left,left,1.0,3.5166,0.0,17.0,17.0,17.0,1.0,ECUADORIAN_HILLSTAR_5.jpg,SCARLET_IBIS_2.jpg,A306SRE7WZDAZS
318,2.0,left,left,1.0,1.66,0.0,18.0,18.0,18.0,1.0,GRAY_KINGBIRD_5.jpg,COCK_OF_THE__ROCK_4.jpg,A306SRE7WZDAZS
319,3.0,left,left,1.0,3.2789,0.0,19.0,19.0,19.0,1.0,TASMANIAN_HEN_5.jpg,COPPERY_TAILED_COUCAL_1.jpg,A306SRE7WZDAZS
320,2.0,right,right,1.0,2.5189,0.0,20.0,20.0,20.0,1.0,SMITHS_LONGSPUR_5.jpg,INCA_TERN_4.jpg,A306SRE7WZDAZS
321,2.0,right,right,1.0,1.835,0.0,21.0,21.0,21.0,1.0,MYNA_5.jpg,RUBY_THROATED_HUMMINGBIRD_3.jpg,A306SRE7WZDAZS
322,2.0,left,left,1.0,1.7517,0.0,22.0,22.0,22.0,1.0,OVENBIRD_5.jpg,FAIRY_PENGUIN_1.jpg,A306SRE7WZDAZS
323,3.0,right,right,1.0,1.7428,0.0,23.0,23.0,23.0,1.0,BEARDED_BELLBIRD_1.jpg,LITTLE_AUK_5.jpg,A306SRE7WZDAZS
324,1.0,left,right,0.0,2.1948,0.0,24.0,24.0,24.0,1.0,OCELLATED_TURKEY_1.jpg,CHIPPING_SPARROW_1.jpg,A306SRE7WZDAZS
325,1.0,right,right,1.0,1.6537,0.0,25.0,25.0,25.0,1.0,CANARY_2.jpg,ASIAN_CRESTED_IBIS_4.jpg,A306SRE7WZDAZS
326,2.0,right,right,1.0,1.5585,0.0,26.0,26.0,26.0,1.0,EASTERN_GOLDEN_WEAVER_5.jpg,IVORY_GULL_1.jpg,A306SRE7WZDAZS
327,1.0,left,left,1.0,1.6965,0.0,27.0,27.0,27.0,1.0,GREY_PLOVER_1.jpg,HYACINTH_MACAW_3.jpg,A306SRE7WZDAZS
328,3.0,right,right,1.0,1.6543,0.0,28.0,28.0,28.0,1.0,IBERIAN_MAGPIE_1.jpg,BALI_STARLING_1.jpg,A306SRE7WZDAZS
329,3.0,left,left,1.0,2.0712,0.0,29.0,29.0,29.0,1.0,VERMILION_FLYCATHER_3.jpg,RED_BEARDED_BEE_EATER_1.jpg,A306SRE7WZDAZS
330,2.0,left,left,1.0,1.5452,0.0,30.0,30.0,30.0,1.0,BREWERS_BLACKBIRD_3.jpg,GOLDEN_CHEEKED_WARBLER_3.jpg,A306SRE7WZDAZS
331,1.0,right,right,1.0,1.4352,0.0,31.0,31.0,31.0,1.0,RED_BEARDED_BEE_EATER_3.jpg,KAGU_5.jpg,A306SRE7WZDAZS
332,1.0,left,left,1.0,3.0683,0.0,32.0,32.0,32.0,1.0,CRESTED_CARACARA_4.jpg,FAIRY_PENGUIN_5.jpg,A306SRE7WZDAZS
333,2.0,left,left,1.0,2.3369,0.0,33.0,33.0,33.0,1.0,CASPIAN_TERN_1.jpg,EUROPEAN_GOLDFINCH_4.jpg,A306SRE7WZDAZS
334,3.0,right,right,1.0,1.79,0.0,34.0,34.0,34.0,1.0,QUETZAL_3.jpg,FLAME_BOWERBIRD_3.jpg,A306SRE7WZDAZS
335,2.0,right,right,1.0,2.175,0.0,35.0,35.0,35.0,1.0,INCA_TERN_2.jpg,MALACHITE_KINGFISHER_2.jpg,A306SRE7WZDAZS
336,2.0,right,right,1.0,2.6239,0.0,36.0,36.0,36.0,1.0,COMMON_HOUSE_MARTIN_4.jpg,GOLDEN_CHLOROPHONIA_5.jpg,A306SRE7WZDAZS
337,3.0,right,right,1.0,1.6446,0.0,37.0,37.0,37.0,1.0,DUSKY_ROBIN_5.jpg,RUBY_THROATED_HUMMINGBIRD_2.jpg,A306SRE7WZDAZS
338,3.0,right,right,1.0,2.2969,0.0,38.0,38.0,38.0,1.0,FAIRY_TERN_3.jpg,LESSER_ADJUTANT_4.jpg,A306SRE7WZDAZS
339,3.0,right,right,1.0,1.5398,0.0,39.0,39.0,39.0,1.0,MALABAR_HORNBILL_2.jpg,EUROPEAN_TURTLE_DOVE_3.jpg,A306SRE7WZDAZS
340,3.0,left,left,1.0,1.9357,0.0,40.0,40.0,40.0,1.0,SHOEBILL_3.jpg,BALD_EAGLE_5.jpg,A306SRE7WZDAZS
341,3.0,right,right,1.0,2.0772,0.0,41.0,41.0,41.0,1.0,PINK_ROBIN_3.jpg,PARUS_MAJOR_1.jpg,A306SRE7WZDAZS
342,3.0,right,left,0.0,2.9403,0.0,42.0,42.0,42.0,1.0,WHITE_THROATED_BEE_EATER_1.jpg,GOLDEN_CHEEKED_WARBLER_2.jpg,A306SRE7WZDAZS
343,3.0,right,right,1.0,3.0419,0.0,43.0,43.0,43.0,1.0,AZURE_TIT_5.jpg,KILLDEAR_2.jpg,A306SRE7WZDAZS
344,3.0,right,right,1.0,2.7382,0.0,44.0,44.0,44.0,1.0,CHATTERING_LORY_2.jpg,PEACOCK_3.jpg,A306SRE7WZDAZS
345,2.0,right,right,1.0,2.1781,0.0,45.0,45.0,45.0,1.0,MASKED_BOOBY_5.jpg,PYGMY_KINGFISHER_5.jpg,A306SRE7WZDAZS
346,1.0,left,left,1.0,1.5374,0.0,46.0,46.0,46.0,1.0,IVORY_GULL_3.jpg,INDIGO_FLYCATCHER_2.jpg,A306SRE7WZDAZS
347,2.0,left,left,1.0,1.8864,0.0,47.0,47.0,47.0,1.0,HAWAIIAN_GOOSE_4.jpg,HIMALAYAN_MONAL_2.jpg,A306SRE7WZDAZS
348,2.0,left,right,0.0,1.761,0.0,48.0,48.0,48.0,1.0,EASTERN_TOWEE_2.jpg,GOLDEN_CHLOROPHONIA_1.jpg,A306SRE7WZDAZS
349,1.0,right,right,1.0,1.7554,0.0,49.0,49.0,49.0,1.0,PEACOCK_1.jpg,LARK_BUNTING_2.jpg,A306SRE7WZDAZS
350,3.0,left,left,1.0,1.6513,0.0,50.0,50.0,50.0,1.0,MAGPIE_GOOSE_5.jpg,OYSTER_CATCHER_3.jpg,A306SRE7WZDAZS
351,1.0,right,right,1.0,1.431,0.0,51.0,51.0,51.0,1.0,GREEN_BROADBILL_4.jpg,LESSER_ADJUTANT_5.jpg,A306SRE7WZDAZS
352,1.0,right,right,1.0,2.7479,0.0,52.0,52.0,52.0,1.0,GILDED_FLICKER_2.jpg,DOUBLE_BRESTED_CORMARANT_5.jpg,A306SRE7WZDAZS
353,3.0,right,right,1.0,2.1833,0.0,53.0,53.0,53.0,1.0,CUBAN_TODY_4.jpg,SPLENDID_WREN_1.jpg,A306SRE7WZDAZS
354,1.0,right,right,1.0,2.5194,0.0,54.0,54.0,54.0,1.0,AMERICAN_FLAMINGO_2.jpg,CERULEAN_WARBLER_1.jpg,A306SRE7WZDAZS
355,2.0,right,right,1.0,1.7367,0.0,55.0,55.0,55.0,1.0,NORTHERN_GANNET_1.jpg,INDIGO_BUNTING_1.jpg,A306SRE7WZDAZS
356,1.0,right,right,1.0,1.9637,0.0,56.0,56.0,56.0,1.0,ASHY_STORM_PETREL_2.jpg,RED_HEADED_WOODPECKER_5.jpg,A306SRE7WZDAZS
357,1.0,right,right,1.0,1.4266,0.0,57.0,57.0,57.0,1.0,PEACOCK_2.jpg,BROWN_NOODY_3.jpg,A306SRE7WZDAZS
358,1.0,left,left,1.0,2.0922,0.0,58.0,58.0,58.0,1.0,RUFOUS_KINGFISHER_1.jpg,SNOWY_OWL_5.jpg,A306SRE7WZDAZS
359,2.0,right,right,1.0,3.0331,0.0,59.0,59.0,59.0,1.0,GREY_PLOVER_4.jpg,MYNA_1.jpg,A306SRE7WZDAZS
360,3.0,left,left,1.0,2.4138,0.0,0.0,0.0,0.0,1.0,CASPIAN_TERN_1.jpg,COMMON_LOON_2.jpg,A15UAR6NM0QVQN
361,2.0,right,right,1.0,1.1325,0.0,1.0,1.0,1.0,1.0,ALEXANDRINE_PARAKEET_1.jpg,AFRICAN_PIED_HORNBILL_5.jpg,A15UAR6NM0QVQN
362,2.0,left,left,1.0,1.4217,0.0,2.0,2.0,2.0,1.0,MAGPIE_GOOSE_5.jpg,HAMERKOP_1.jpg,A15UAR6NM0QVQN
363,1.0,left,left,1.0,1.4767,0.0,3.0,3.0,3.0,1.0,CHUKAR_PARTRIDGE_5.jpg,OSTRICH_5.jpg,A15UAR6NM0QVQN
364,1.0,left,right,0.0,1.84,0.0,4.0,4.0,4.0,1.0,LESSER_ADJUTANT_4.jpg,ALTAMIRA_YELLOWTHROAT_5.jpg,A15UAR6NM0QVQN
365,2.0,right,left,0.0,1.46,0.0,5.0,5.0,5.0,1.0,GOLDEN_CHLOROPHONIA_1.jpg,EASTERN_TOWEE_2.jpg,A15UAR6NM0QVQN
366,2.0,right,left,0.0,1.9998,0.0,6.0,6.0,6.0,1.0,GREEN_MAGPIE_1.jpg,AMERICAN_PIPIT_5.jpg,A15UAR6NM0QVQN
367,2.0,left,right,0.0,1.0261,0.0,7.0,7.0,7.0,1.0,GRAY_KINGBIRD_5.jpg,COCK_OF_THE__ROCK_4.jpg,A15UAR6NM0QVQN
368,3.0,right,left,0.0,0.8602,0.0,8.0,8.0,8.0,1.0,MALABAR_HORNBILL_2.jpg,EUROPEAN_TURTLE_DOVE_3.jpg,A15UAR6NM0QVQN
369,1.0,left,left,1.0,0.7085,0.0,9.0,9.0,9.0,1.0,BROWN_NOODY_3.jpg,PEACOCK_2.jpg,A15UAR6NM0QVQN
370,3.0,right,right,1.0,0.9738,0.0,10.0,10.0,10.0,1.0,CHATTERING_LORY_2.jpg,PEACOCK_3.jpg,A15UAR6NM0QVQN
371,2.0,left,left,1.0,0.8424,0.0,11.0,11.0,11.0,1.0,ALPINE_CHOUGH_4.jpg,EUROPEAN_GOLDFINCH_3.jpg,A15UAR6NM0QVQN
372,3.0,right,right,1.0,0.8433,0.0,12.0,12.0,12.0,1.0,TOUCHAN_4.jpg,CRESTED_CARACARA_4.jpg,A15UAR6NM0QVQN
373,3.0,right,left,0.0,0.9746,0.0,13.0,13.0,13.0,1.0,GREEN_BROADBILL_5.jpg,MALACHITE_KINGFISHER_2.jpg,A15UAR6NM0QVQN
374,1.0,right,left,0.0,1.4377,0.0,14.0,14.0,14.0,1.0,INDIAN_BUSTARD_2.jpg,FLAME_BOWERBIRD_3.jpg,A15UAR6NM0QVQN
375,1.0,left,left,1.0,0.8084,0.0,15.0,15.0,15.0,1.0,PARUS_MAJOR_1.jpg,SANDHILL_CRANE_4.jpg,A15UAR6NM0QVQN
376,1.0,right,left,0.0,0.9011,0.0,16.0,16.0,16.0,1.0,ROSY_FACED_LOVEBIRD_4.jpg,CASSOWARY_1.jpg,A15UAR6NM0QVQN
377,3.0,right,right,1.0,0.8694,0.0,17.0,17.0,17.0,1.0,VIOLET_GREEN_SWALLOW_4.jpg,ASIAN_DOLLARD_BIRD_2.jpg,A15UAR6NM0QVQN
378,2.0,left,left,1.0,0.9976,0.0,18.0,18.0,18.0,1.0,WHITE_CHEEKED_TURACO_5.jpg,GREAT_POTOO_3.jpg,A15UAR6NM0QVQN
379,3.0,left,right,0.0,0.8535,0.0,19.0,19.0,19.0,1.0,BALI_STARLING_1.jpg,IBERIAN_MAGPIE_1.jpg,A15UAR6NM0QVQN
380,1.0,right,left,0.0,0.8386,0.0,20.0,20.0,20.0,1.0,DOUBLE_EYED_FIG_PARROT_3.jpg,BROWN_THRASHER_3.jpg,A15UAR6NM0QVQN
381,2.0,right,left,0.0,0.8626,0.0,21.0,21.0,21.0,1.0,EURASIAN_MAGPIE_4.jpg,DOUBLE_BRESTED_CORMARANT_5.jpg,A15UAR6NM0QVQN
382,2.0,left,right,0.0,0.9334,0.0,22.0,22.0,22.0,1.0,KAGU_5.jpg,ASHY_STORM_PETREL_1.jpg,A15UAR6NM0QVQN
383,2.0,left,right,0.0,1.1447,0.0,23.0,23.0,23.0,1.0,ASIAN_CRESTED_IBIS_4.jpg,OYSTER_CATCHER_2.jpg,A15UAR6NM0QVQN
384,1.0,left,left,1.0,0.4565,0.0,24.0,24.0,24.0,1.0,VERMILION_FLYCATHER_3.jpg,INDIAN_BUSTARD_1.jpg,A15UAR6NM0QVQN
385,2.0,right,right,1.0,1.1516,0.0,25.0,25.0,25.0,1.0,DOUBLE_BRESTED_CORMARANT_1.jpg,SPLENDID_WREN_1.jpg,A15UAR6NM0QVQN
386,3.0,right,left,0.0,1.0724,0.0,26.0,26.0,26.0,1.0,BORNEAN_LEAFBIRD_1.jpg,SCARLET_TANAGER_2.jpg,A15UAR6NM0QVQN
387,1.0,right,left,0.0,1.4331,0.0,27.0,27.0,27.0,1.0,EASTERN_MEADOWLARK_1.jpg,SHOEBILL_3.jpg,A15UAR6NM0QVQN
388,3.0,right,left,0.0,1.3499,0.0,28.0,28.0,28.0,1.0,BORNEAN_LEAFBIRD_3.jpg,ARARIPE_MANAKIN_4.jpg,A15UAR6NM0QVQN
389,2.0,left,left,1.0,1.4729,0.0,29.0,29.0,29.0,1.0,ECUADORIAN_HILLSTAR_5.jpg,BOBOLINK_5.jpg,A15UAR6NM0QVQN
390,3.0,right,left,0.0,1.6229,0.0,30.0,30.0,30.0,1.0,VERMILION_FLYCATHER_5.jpg,GOLDEN_CHLOROPHONIA_5.jpg,A15UAR6NM0QVQN
391,1.0,right,right,1.0,0.49,0.0,31.0,31.0,31.0,1.0,GOLDEN_CHLOROPHONIA_2.jpg,RUBY_THROATED_HUMMINGBIRD_2.jpg,A15UAR6NM0QVQN
392,3.0,left,right,0.0,1.4383,0.0,32.0,32.0,32.0,1.0,MYNA_1.jpg,PARADISE_TANAGER_3.jpg,A15UAR6NM0QVQN
393,1.0,left,left,1.0,0.859,0.0,33.0,33.0,33.0,1.0,LESSER_ADJUTANT_5.jpg,GREEN_BROADBILL_4.jpg,A15UAR6NM0QVQN
394,3.0,left,left,1.0,1.5764,0.0,34.0,34.0,34.0,1.0,INLAND_DOTTEREL_4.jpg,CRESTED_KINGFISHER_1.jpg,A15UAR6NM0QVQN
395,3.0,left,right,0.0,1.1089,0.0,35.0,35.0,35.0,1.0,RUBY_THROATED_HUMMINGBIRD_3.jpg,NORTHERN_SHOVELER_1.jpg,A15UAR6NM0QVQN
396,1.0,right,left,0.0,1.0429,0.0,36.0,36.0,36.0,1.0,ELLIOTS__PHEASANT_4.jpg,INCA_TERN_4.jpg,A15UAR6NM0QVQN
397,1.0,right,right,1.0,1.2687,0.0,37.0,37.0,37.0,1.0,DOUBLE_BRESTED_CORMARANT_4.jpg,STRIPPED_SWALLOW_1.jpg,A15UAR6NM0QVQN
398,3.0,left,left,1.0,1.7723,0.0,38.0,38.0,38.0,1.0,CERULEAN_WARBLER_1.jpg,BANANAQUIT_1.jpg,A15UAR6NM0QVQN
399,1.0,right,left,0.0,0.9705,0.0,39.0,39.0,39.0,1.0,CHIPPING_SPARROW_1.jpg,OCELLATED_TURKEY_1.jpg,A15UAR6NM0QVQN
400,2.0,left,left,1.0,1.8437,0.0,40.0,40.0,40.0,1.0,GREY_PLOVER_1.jpg,GOULDIAN_FINCH_4.jpg,A15UAR6NM0QVQN
401,2.0,left,right,0.0,0.2971,0.0,41.0,41.0,41.0,1.0,LITTLE_AUK_5.jpg,ORANGE_BRESTED_BUNTING_3.jpg,A15UAR6NM0QVQN
402,1.0,left,left,1.0,1.0994,0.0,42.0,42.0,42.0,1.0,RUBY_THROATED_HUMMINGBIRD_1.jpg,BANANAQUIT_2.jpg,A15UAR6NM0QVQN
403,2.0,right,right,1.0,1.2937,0.0,43.0,43.0,43.0,1.0,HOUSE_FINCH_2.jpg,GOLDEN_CHEEKED_WARBLER_2.jpg,A15UAR6NM0QVQN
404,1.0,left,left,1.0,1.8004,0.0,44.0,44.0,44.0,1.0,PYGMY_KINGFISHER_5.jpg,GRANDALA_2.jpg,A15UAR6NM0QVQN
405,1.0,left,left,1.0,0.7358,0.0,45.0,45.0,45.0,1.0,RED_HEADED_WOODPECKER_5.jpg,ASHY_STORM_PETREL_2.jpg,A15UAR6NM0QVQN
406,2.0,right,left,0.0,0.9403,0.0,46.0,46.0,46.0,1.0,EASTERN_GOLDEN_WEAVER_5.jpg,IVORY_GULL_1.jpg,A15UAR6NM0QVQN
407,1.0,right,left,0.0,1.4818,0.0,47.0,47.0,47.0,1.0,OSTRICH_1.jpg,GYRFALCON_1.jpg,A15UAR6NM0QVQN
408,3.0,left,right,0.0,0.4809,0.0,48.0,48.0,48.0,1.0,CRESTED_NUTHATCH_2.jpg,CANARY_1.jpg,A15UAR6NM0QVQN
409,3.0,right,left,0.0,1.0089,0.0,49.0,49.0,49.0,1.0,AZURE_TIT_5.jpg,KILLDEAR_2.jpg,A15UAR6NM0QVQN
410,3.0,left,right,0.0,0.0176,0.0,50.0,50.0,50.0,1.0,TASMANIAN_HEN_5.jpg,COPPERY_TAILED_COUCAL_1.jpg,A15UAR6NM0QVQN
411,3.0,right,left,0.0,1.0801,0.0,51.0,51.0,51.0,1.0,HORNED_SUNGEM_4.jpg,RUFOUS_KINGFISHER_1.jpg,A15UAR6NM0QVQN
412,2.0,right,right,1.0,1.1837,0.0,52.0,52.0,52.0,1.0,GOLDEN_CHEEKED_WARBLER_3.jpg,BREWERS_BLACKBIRD_3.jpg,A15UAR6NM0QVQN
413,1.0,left,left,1.0,0.8862,0.0,53.0,53.0,53.0,1.0,LARK_BUNTING_2.jpg,PEACOCK_1.jpg,A15UAR6NM0QVQN
414,2.0,left,right,0.0,1.0111,0.0,54.0,54.0,54.0,1.0,PINK_ROBIN_4.jpg,ALBATROSS_4.jpg,A15UAR6NM0QVQN
415,2.0,right,right,1.0,0.8598,0.0,55.0,55.0,55.0,1.0,CRAB_PLOVER_3.jpg,NORTHERN_JACANA_3.jpg,A15UAR6NM0QVQN
416,3.0,right,right,1.0,1.3858,0.0,56.0,56.0,56.0,1.0,SHORT_BILLED_DOWITCHER_5.jpg,OVENBIRD_5.jpg,A15UAR6NM0QVQN
417,3.0,left,left,1.0,0.6948,0.0,57.0,57.0,57.0,1.0,IVORY_GULL_3.jpg,SNOWY_EGRET_4.jpg,A15UAR6NM0QVQN
418,2.0,left,right,0.0,1.0025,0.0,58.0,58.0,58.0,1.0,HAWAIIAN_GOOSE_4.jpg,HIMALAYAN_MONAL_2.jpg,A15UAR6NM0QVQN
419,1.0,right,left,0.0,0.7547,0.0,59.0,59.0,59.0,1.0,FRIGATE_4.jpg,INDIGO_BUNTING_1.jpg,A15UAR6NM0QVQN
420,3.0,left,left,1.0,4.974,0.0,0.0,0.0,0.0,1.0,LITTLE_AUK_5.jpg,BEARDED_BELLBIRD_1.jpg,AIXO7JFFSBR5O
421,2.0,right,left,0.0,2.323,0.0,1.0,1.0,1.0,1.0,OYSTER_CATCHER_4.jpg,BROWN_THRASHER_3.jpg,AIXO7JFFSBR5O
422,1.0,right,left,0.0,2.782,0.0,2.0,2.0,2.0,1.0,BANANAQUIT_2.jpg,RUBY_THROATED_HUMMINGBIRD_1.jpg,AIXO7JFFSBR5O
423,2.0,right,right,1.0,2.172,0.0,3.0,3.0,3.0,1.0,DOUBLE_BRESTED_CORMARANT_1.jpg,SPLENDID_WREN_1.jpg,AIXO7JFFSBR5O
424,2.0,right,right,1.0,1.689,0.0,4.0,4.0,4.0,1.0,GREAT_POTOO_3.jpg,WHITE_CHEEKED_TURACO_5.jpg,AIXO7JFFSBR5O
425,2.0,right,right,1.0,1.959,0.0,5.0,5.0,5.0,1.0,MAGPIE_GOOSE_3.jpg,RUFOUS_KINGFISHER_1.jpg,AIXO7JFFSBR5O
426,1.0,right,right,1.0,1.588,0.0,6.0,6.0,6.0,1.0,INDIAN_BUSTARD_2.jpg,FLAME_BOWERBIRD_3.jpg,AIXO7JFFSBR5O
427,3.0,right,right,1.0,3.541,0.0,7.0,7.0,7.0,1.0,FAIRY_TERN_4.jpg,IVORY_GULL_1.jpg,AIXO7JFFSBR5O
428,2.0,right,right,1.0,2.156,0.0,8.0,8.0,8.0,1.0,CRAB_PLOVER_3.jpg,NORTHERN_JACANA_3.jpg,AIXO7JFFSBR5O
429,2.0,right,left,0.0,2.389,0.0,9.0,9.0,9.0,1.0,CALIFORNIA_GULL_2.jpg,PARUS_MAJOR_1.jpg,AIXO7JFFSBR5O
430,2.0,left,left,1.0,1.705,0.0,10.0,10.0,10.0,1.0,LESSER_ADJUTANT_4.jpg,RAINBOW_LORIKEET_5.jpg,AIXO7JFFSBR5O
431,2.0,left,left,1.0,1.823,0.0,11.0,11.0,11.0,1.0,GOLDEN_CHLOROPHONIA_5.jpg,COMMON_HOUSE_MARTIN_4.jpg,AIXO7JFFSBR5O
432,1.0,right,right,1.0,2.235,0.0,12.0,12.0,12.0,1.0,GRANDALA_2.jpg,PYGMY_KINGFISHER_5.jpg,AIXO7JFFSBR5O
433,3.0,right,right,1.0,1.845,0.0,13.0,13.0,13.0,1.0,CRESTED_KINGFISHER_1.jpg,INLAND_DOTTEREL_4.jpg,AIXO7JFFSBR5O
434,1.0,left,left,1.0,1.591,0.0,14.0,14.0,14.0,1.0,GOLDEN_CHEEKED_WARBLER_2.jpg,SPOONBILL_1.jpg,AIXO7JFFSBR5O
435,3.0,left,left,1.0,1.686,0.0,15.0,15.0,15.0,1.0,BREWERS_BLACKBIRD_3.jpg,CAPE_LONGCLAW_2.jpg,AIXO7JFFSBR5O
436,1.0,left,right,0.0,1.308,0.0,16.0,16.0,16.0,1.0,CHUKAR_PARTRIDGE_5.jpg,OSTRICH_5.jpg,AIXO7JFFSBR5O
437,1.0,left,left,1.0,1.683,0.0,17.0,17.0,17.0,1.0,EUROPEAN_TURTLE_DOVE_3.jpg,TEAL_DUCK_2.jpg,AIXO7JFFSBR5O
438,2.0,right,right,1.0,1.587,0.0,18.0,18.0,18.0,1.0,NORTHERN_GANNET_1.jpg,INDIGO_BUNTING_1.jpg,AIXO7JFFSBR5O
439,3.0,right,left,0.0,2.189,0.0,19.0,19.0,19.0,1.0,BORNEAN_LEAFBIRD_1.jpg,SCARLET_TANAGER_2.jpg,AIXO7JFFSBR5O
440,2.0,right,left,0.0,2.235,0.0,20.0,20.0,20.0,1.0,BLACK_VULTURE_1.jpg,ARARIPE_MANAKIN_4.jpg,AIXO7JFFSBR5O
441,1.0,left,left,1.0,1.053,0.0,21.0,21.0,21.0,1.0,PEACOCK_3.jpg,ANIANIAU_2.jpg,AIXO7JFFSBR5O
442,2.0,left,right,0.0,1.419,0.0,22.0,22.0,22.0,1.0,AMERICAN_PIPIT_5.jpg,GREEN_MAGPIE_1.jpg,AIXO7JFFSBR5O
443,1.0,right,right,1.0,2.171,0.0,23.0,23.0,23.0,1.0,DOUBLE_EYED_FIG_PARROT_5.jpg,MAGPIE_GOOSE_5.jpg,AIXO7JFFSBR5O
444,1.0,left,left,1.0,1.436,0.0,24.0,24.0,24.0,1.0,CERULEAN_WARBLER_1.jpg,AMERICAN_FLAMINGO_2.jpg,AIXO7JFFSBR5O
445,2.0,left,left,1.0,1.941,0.0,25.0,25.0,25.0,1.0,MYNA_1.jpg,GREY_PLOVER_4.jpg,AIXO7JFFSBR5O
446,3.0,left,left,1.0,2.302,0.0,26.0,26.0,26.0,1.0,DOUBLE_BRESTED_CORMARANT_5.jpg,CHINESE_POND_HERON_2.jpg,AIXO7JFFSBR5O
447,1.0,left,left,1.0,2.489,0.0,27.0,27.0,27.0,1.0,RED_HEADED_WOODPECKER_5.jpg,ASHY_STORM_PETREL_2.jpg,AIXO7JFFSBR5O
448,3.0,left,right,0.0,2.391,0.0,28.0,28.0,28.0,1.0,IVORY_GULL_3.jpg,SNOWY_EGRET_4.jpg,AIXO7JFFSBR5O
449,3.0,left,right,0.0,1.457,0.0,29.0,29.0,29.0,1.0,GRAY_KINGBIRD_5.jpg,AFRICAN_FIREFINCH_3.jpg,AIXO7JFFSBR5O
450,3.0,right,left,0.0,2.092,0.0,30.0,30.0,30.0,1.0,CANARY_1.jpg,CRESTED_NUTHATCH_2.jpg,AIXO7JFFSBR5O
451,3.0,right,left,0.0,2.386,0.0,31.0,31.0,31.0,1.0,GO_AWAY_BIRD_5.jpg,STRIPPED_SWALLOW_1.jpg,AIXO7JFFSBR5O
452,3.0,right,right,1.0,1.421,0.0,32.0,32.0,32.0,1.0,CRIMSON_SUNBIRD_5.jpg,ECUADORIAN_HILLSTAR_5.jpg,AIXO7JFFSBR5O
453,1.0,left,left,1.0,1.471,0.0,33.0,33.0,33.0,1.0,KILLDEAR_2.jpg,PEACOCK_5.jpg,AIXO7JFFSBR5O
454,2.0,right,left,0.0,1.481,0.0,34.0,34.0,34.0,1.0,SMITHS_LONGSPUR_5.jpg,INCA_TERN_4.jpg,AIXO7JFFSBR5O
455,2.0,left,left,1.0,1.789,0.0,35.0,35.0,35.0,1.0,TASMANIAN_HEN_5.jpg,AFRICAN_EMERALD_CUCKOO_5.jpg,AIXO7JFFSBR5O
456,2.0,left,left,1.0,1.372,0.0,36.0,36.0,36.0,1.0,OCELLATED_TURKEY_1.jpg,AMERICAN_PIPIT_1.jpg,AIXO7JFFSBR5O
457,2.0,right,right,1.0,1.387,0.0,37.0,37.0,37.0,1.0,SPANGLED_COTINGA_4.jpg,BROWN_NOODY_3.jpg,AIXO7JFFSBR5O
458,2.0,left,right,0.0,1.973,0.0,38.0,38.0,38.0,1.0,EASTERN_TOWEE_2.jpg,GOLDEN_CHLOROPHONIA_1.jpg,AIXO7JFFSBR5O
459,2.0,left,right,0.0,1.267,0.0,39.0,39.0,39.0,1.0,CASSOWARY_1.jpg,SCARLET_MACAW_1.jpg,AIXO7JFFSBR5O
460,3.0,right,right,1.0,1.672,0.0,40.0,40.0,40.0,1.0,BALD_EAGLE_5.jpg,SHOEBILL_3.jpg,AIXO7JFFSBR5O
461,1.0,left,left,1.0,1.985,0.0,41.0,41.0,41.0,1.0,PINK_ROBIN_4.jpg,SPOONBILL_3.jpg,AIXO7JFFSBR5O
462,1.0,left,right,0.0,2.238,0.0,42.0,42.0,42.0,1.0,GREY_PLOVER_1.jpg,HYACINTH_MACAW_3.jpg,AIXO7JFFSBR5O
463,3.0,left,right,0.0,2.527,0.0,43.0,43.0,43.0,1.0,CRESTED_CARACARA_4.jpg,TOUCHAN_4.jpg,AIXO7JFFSBR5O
464,3.0,left,left,1.0,1.869,0.0,44.0,44.0,44.0,1.0,CASPIAN_TERN_1.jpg,COMMON_LOON_2.jpg,AIXO7JFFSBR5O
465,2.0,right,right,1.0,1.973,0.0,45.0,45.0,45.0,1.0,APAPANE_4.jpg,RUBY_THROATED_HUMMINGBIRD_2.jpg,AIXO7JFFSBR5O
466,1.0,right,left,0.0,1.554,0.0,46.0,46.0,46.0,1.0,CUBAN_TODY_3.jpg,HAWAIIAN_GOOSE_4.jpg,AIXO7JFFSBR5O
467,3.0,right,right,1.0,2.257,0.0,47.0,47.0,47.0,1.0,FAIRY_TERN_1.jpg,GYRFALCON_1.jpg,AIXO7JFFSBR5O
468,3.0,right,right,1.0,1.456,0.0,48.0,48.0,48.0,1.0,BOBOLINK_3.jpg,ALPINE_CHOUGH_4.jpg,AIXO7JFFSBR5O
469,1.0,right,right,1.0,1.318,0.0,49.0,49.0,49.0,1.0,PEACOCK_1.jpg,LARK_BUNTING_2.jpg,AIXO7JFFSBR5O
470,1.0,right,left,0.0,1.343,0.0,50.0,50.0,50.0,1.0,CANARY_2.jpg,ASIAN_CRESTED_IBIS_4.jpg,AIXO7JFFSBR5O
471,1.0,left,left,1.0,1.94,0.0,51.0,51.0,51.0,1.0,VERMILION_FLYCATHER_3.jpg,INDIAN_BUSTARD_1.jpg,AIXO7JFFSBR5O
472,1.0,left,right,0.0,1.469,0.0,52.0,52.0,52.0,1.0,MALACHITE_KINGFISHER_2.jpg,AMERICAN_FLAMINGO_1.jpg,AIXO7JFFSBR5O
473,2.0,right,left,0.0,1.451,0.0,53.0,53.0,53.0,1.0,ASHY_STORM_PETREL_1.jpg,KAGU_5.jpg,AIXO7JFFSBR5O
474,3.0,left,right,0.0,1.369,0.0,54.0,54.0,54.0,1.0,BALI_STARLING_1.jpg,IBERIAN_MAGPIE_1.jpg,AIXO7JFFSBR5O
475,1.0,right,left,0.0,1.587,0.0,55.0,55.0,55.0,1.0,KIWI_4.jpg,AFRICAN_PIED_HORNBILL_5.jpg,AIXO7JFFSBR5O
476,3.0,left,left,1.0,1.87,0.0,56.0,56.0,56.0,1.0,LESSER_ADJUTANT_5.jpg,RED_HEADED_WOODPECKER_1.jpg,AIXO7JFFSBR5O
477,3.0,right,right,1.0,0.917,0.0,57.0,57.0,57.0,1.0,NORTHERN_SHOVELER_1.jpg,RUBY_THROATED_HUMMINGBIRD_3.jpg,AIXO7JFFSBR5O
478,1.0,right,left,0.0,1.173,0.0,58.0,58.0,58.0,1.0,MYNA_4.jpg,OVENBIRD_5.jpg,AIXO7JFFSBR5O
479,3.0,right,left,0.0,1.337,0.0,59.0,59.0,59.0,1.0,VIOLET_GREEN_SWALLOW_4.jpg,ASIAN_DOLLARD_BIRD_2.jpg,AIXO7JFFSBR5O
480,2.0,left,left,1.0,3.026,0.0,0.0,0.0,0.0,1.0,RUBY_THROATED_HUMMINGBIRD_2.jpg,APAPANE_4.jpg,A1C508BB6CF8VR
481,1.0,left,right,0.0,3.559,0.0,1.0,1.0,1.0,1.0,CASSOWARY_1.jpg,ROSY_FACED_LOVEBIRD_4.jpg,A1C508BB6CF8VR
482,3.0,left,left,1.0,2.421,0.0,2.0,2.0,2.0,1.0,ECUADORIAN_HILLSTAR_5.jpg,CRIMSON_SUNBIRD_5.jpg,A1C508BB6CF8VR
483,1.0,right,right,1.0,2.914,0.0,3.0,3.0,3.0,1.0,GILDED_FLICKER_2.jpg,DOUBLE_BRESTED_CORMARANT_5.jpg,A1C508BB6CF8VR
484,2.0,right,right,1.0,2.42,0.0,4.0,4.0,4.0,1.0,INCA_TERN_2.jpg,MALACHITE_KINGFISHER_2.jpg,A1C508BB6CF8VR
485,1.0,left,left,1.0,2.418,0.0,5.0,5.0,5.0,1.0,RED_HEADED_WOODPECKER_5.jpg,ASHY_STORM_PETREL_2.jpg,A1C508BB6CF8VR
486,1.0,right,right,1.0,3.673,0.0,6.0,6.0,6.0,1.0,SANDHILL_CRANE_4.jpg,PARUS_MAJOR_1.jpg,A1C508BB6CF8VR
487,2.0,right,right,1.0,3.78,0.0,7.0,7.0,7.0,1.0,AFRICAN_EMERALD_CUCKOO_5.jpg,TASMANIAN_HEN_5.jpg,A1C508BB6CF8VR
488,2.0,right,left,0.0,3.046,0.0,8.0,8.0,8.0,1.0,CAATINGA_CACHOLOTE_4.jpg,KILLDEAR_2.jpg,A1C508BB6CF8VR
489,1.0,left,left,1.0,1.966,0.0,9.0,9.0,9.0,1.0,RUBY_THROATED_HUMMINGBIRD_1.jpg,BANANAQUIT_2.jpg,A1C508BB6CF8VR
490,3.0,left,left,1.0,6.381,0.0,10.0,10.0,10.0,1.0,LARK_BUNTING_2.jpg,CACTUS_WREN_3.jpg,A1C508BB6CF8VR
491,1.0,right,right,1.0,2.563,0.0,11.0,11.0,11.0,1.0,MYNA_4.jpg,OVENBIRD_5.jpg,A1C508BB6CF8VR
492,1.0,right,right,1.0,2.217,0.0,12.0,12.0,12.0,1.0,SPOONBILL_1.jpg,GOLDEN_CHEEKED_WARBLER_2.jpg,A1C508BB6CF8VR
493,3.0,right,right,1.0,4.798,0.0,13.0,13.0,13.0,1.0,BLACK_BAZA_4.jpg,BROWN_THRASHER_3.jpg,A1C508BB6CF8VR
494,1.0,right,right,1.0,2.768,0.0,14.0,14.0,14.0,1.0,PEACOCK_2.jpg,BROWN_NOODY_3.jpg,A1C508BB6CF8VR
495,3.0,right,right,1.0,2.275,0.0,15.0,15.0,15.0,1.0,CAPE_LONGCLAW_2.jpg,BREWERS_BLACKBIRD_3.jpg,A1C508BB6CF8VR
496,3.0,right,left,0.0,1.925,0.0,16.0,16.0,16.0,1.0,DARWINS_FLYCATCHER_2.jpg,INDIGO_BUNTING_1.jpg,A1C508BB6CF8VR
497,2.0,left,left,1.0,1.625,0.0,17.0,17.0,17.0,1.0,SCARLET_TANAGER_2.jpg,NORTHERN_GANNET_2.jpg,A1C508BB6CF8VR
498,3.0,left,left,1.0,2.445,0.0,18.0,18.0,18.0,1.0,ASIAN_CRESTED_IBIS_4.jpg,IVORY_GULL_2.jpg,A1C508BB6CF8VR
499,3.0,left,left,1.0,2.3,0.0,19.0,19.0,19.0,1.0,CRESTED_CARACARA_4.jpg,TOUCHAN_4.jpg,A1C508BB6CF8VR
500,3.0,right,right,1.0,2.718,0.0,20.0,20.0,20.0,1.0,CRESTED_KINGFISHER_1.jpg,INLAND_DOTTEREL_4.jpg,A1C508BB6CF8VR
501,2.0,right,left,0.0,3.64,0.0,21.0,21.0,21.0,1.0,PURPLE_FINCH_2.jpg,BALI_STARLING_1.jpg,A1C508BB6CF8VR
502,3.0,right,left,0.0,1.579,0.0,22.0,22.0,22.0,1.0,HEPATIC_TANAGER_5.jpg,AMERICAN_PIPIT_5.jpg,A1C508BB6CF8VR
503,1.0,right,right,1.0,2.429,0.0,23.0,23.0,23.0,1.0,SCARLET_IBIS_3.jpg,CRESTED_NUTHATCH_2.jpg,A1C508BB6CF8VR
504,1.0,left,left,1.0,1.978,0.0,24.0,24.0,24.0,1.0,SHOEBILL_3.jpg,EASTERN_MEADOWLARK_1.jpg,A1C508BB6CF8VR
505,3.0,right,left,0.0,2.174,0.0,25.0,25.0,25.0,1.0,VERMILION_FLYCATHER_5.jpg,GOLDEN_CHLOROPHONIA_5.jpg,A1C508BB6CF8VR
506,3.0,left,right,0.0,2.751,0.0,26.0,26.0,26.0,1.0,MAGPIE_GOOSE_5.jpg,OYSTER_CATCHER_3.jpg,A1C508BB6CF8VR
507,2.0,left,left,1.0,5.12,0.0,27.0,27.0,27.0,1.0,MYNA_1.jpg,GREY_PLOVER_4.jpg,A1C508BB6CF8VR
508,2.0,right,right,1.0,2.172,0.0,28.0,28.0,28.0,1.0,SMITHS_LONGSPUR_5.jpg,INCA_TERN_4.jpg,A1C508BB6CF8VR
509,3.0,right,left,0.0,2.043,0.0,29.0,29.0,29.0,1.0,PYGMY_KINGFISHER_2.jpg,WHITE_CHEEKED_TURACO_5.jpg,A1C508BB6CF8VR
510,1.0,left,left,1.0,3.96,0.0,30.0,30.0,30.0,1.0,HAWAIIAN_GOOSE_4.jpg,CUBAN_TODY_3.jpg,A1C508BB6CF8VR
511,2.0,left,left,1.0,2.891,0.0,31.0,31.0,31.0,1.0,NORTHERN_JACANA_3.jpg,CRAB_PLOVER_3.jpg,A1C508BB6CF8VR
512,2.0,right,right,1.0,3.016,0.0,32.0,32.0,32.0,1.0,FLAME_TANAGER_3.jpg,IVORY_GULL_3.jpg,A1C508BB6CF8VR
513,3.0,right,left,0.0,2.201,0.0,33.0,33.0,33.0,1.0,PURPLE_SWAMPHEN_4.jpg,OCELLATED_TURKEY_1.jpg,A1C508BB6CF8VR
514,1.0,left,left,1.0,1.841,0.0,34.0,34.0,34.0,1.0,EUROPEAN_TURTLE_DOVE_3.jpg,TEAL_DUCK_2.jpg,A1C508BB6CF8VR
515,1.0,left,right,0.0,2.179,0.0,35.0,35.0,35.0,1.0,LESSER_ADJUTANT_5.jpg,GREEN_BROADBILL_4.jpg,A1C508BB6CF8VR
516,3.0,left,left,1.0,2.047,0.0,36.0,36.0,36.0,1.0,CASPIAN_TERN_1.jpg,COMMON_LOON_2.jpg,A1C508BB6CF8VR
517,1.0,right,right,1.0,2.769,0.0,37.0,37.0,37.0,1.0,ALBATROSS_2.jpg,ASIAN_DOLLARD_BIRD_2.jpg,A1C508BB6CF8VR
518,3.0,left,right,0.0,2.718,0.0,38.0,38.0,38.0,1.0,PEACOCK_3.jpg,CHATTERING_LORY_2.jpg,A1C508BB6CF8VR
519,2.0,left,left,1.0,1.448,0.0,39.0,39.0,39.0,1.0,PYGMY_KINGFISHER_5.jpg,MASKED_BOOBY_5.jpg,A1C508BB6CF8VR
520,3.0,right,left,0.0,9.286,0.0,40.0,40.0,40.0,1.0,RED_BEARDED_BEE_EATER_1.jpg,VERMILION_FLYCATHER_3.jpg,A1C508BB6CF8VR
521,1.0,left,left,1.0,4.074,0.0,41.0,41.0,41.0,1.0,GYRFALCON_1.jpg,OSTRICH_1.jpg,A1C508BB6CF8VR
522,2.0,left,right,0.0,6.128,0.0,42.0,42.0,42.0,1.0,LESSER_ADJUTANT_4.jpg,RAINBOW_LORIKEET_5.jpg,A1C508BB6CF8VR
523,1.0,left,left,1.0,3.787,0.0,43.0,43.0,43.0,1.0,GREY_PLOVER_1.jpg,HYACINTH_MACAW_3.jpg,A1C508BB6CF8VR
524,2.0,left,left,1.0,1.993,0.0,44.0,44.0,44.0,1.0,RUBY_THROATED_HUMMINGBIRD_3.jpg,MYNA_5.jpg,A1C508BB6CF8VR
525,2.0,right,right,1.0,5.474,0.0,45.0,45.0,45.0,1.0,BROWN_THRASHER_4.jpg,FLAME_BOWERBIRD_3.jpg,A1C508BB6CF8VR
526,1.0,right,right,1.0,3.364,0.0,46.0,46.0,46.0,1.0,RED_BEARDED_BEE_EATER_3.jpg,KAGU_5.jpg,A1C508BB6CF8VR
527,3.0,left,left,1.0,2.228,0.0,47.0,47.0,47.0,1.0,AFRICAN_PIED_HORNBILL_5.jpg,CAPUCHINBIRD_2.jpg,A1C508BB6CF8VR
528,1.0,right,right,1.0,8.221,0.0,48.0,48.0,48.0,1.0,AMERICAN_FLAMINGO_2.jpg,CERULEAN_WARBLER_1.jpg,A1C508BB6CF8VR
529,2.0,right,left,0.0,4.451,0.0,49.0,49.0,49.0,1.0,MAGPIE_GOOSE_4.jpg,STRIPPED_SWALLOW_1.jpg,A1C508BB6CF8VR
530,1.0,left,left,1.0,2.59,0.0,50.0,50.0,50.0,1.0,ARARIPE_MANAKIN_4.jpg,KIWI_3.jpg,A1C508BB6CF8VR
531,2.0,right,right,1.0,2.738,0.0,51.0,51.0,51.0,1.0,RAZORBILL_1.jpg,CHUKAR_PARTRIDGE_5.jpg,A1C508BB6CF8VR
532,1.0,left,left,1.0,2.518,0.0,52.0,52.0,52.0,1.0,GRAY_KINGBIRD_5.jpg,BALD_EAGLE_2.jpg,A1C508BB6CF8VR
533,2.0,left,right,0.0,2.612,0.0,53.0,53.0,53.0,1.0,LITTLE_AUK_5.jpg,ORANGE_BRESTED_BUNTING_3.jpg,A1C508BB6CF8VR
534,3.0,left,right,0.0,3.697,0.0,54.0,54.0,54.0,1.0,EASTERN_TOWEE_2.jpg,NORTHERN_BEARDLESS_TYRANNULET_5.jpg,A1C508BB6CF8VR
535,3.0,left,left,1.0,5.902,0.0,55.0,55.0,55.0,1.0,PINK_ROBIN_4.jpg,COMMON_IORA_4.jpg,A1C508BB6CF8VR
536,2.0,left,left,1.0,4.106,0.0,56.0,56.0,56.0,1.0,ALPINE_CHOUGH_4.jpg,EUROPEAN_GOLDFINCH_3.jpg,A1C508BB6CF8VR
537,3.0,left,left,1.0,1.897,0.0,57.0,57.0,57.0,1.0,RUFOUS_KINGFISHER_1.jpg,HORNED_SUNGEM_4.jpg,A1C508BB6CF8VR
538,2.0,right,right,1.0,1.749,0.0,58.0,58.0,58.0,1.0,DOUBLE_BRESTED_CORMARANT_1.jpg,SPLENDID_WREN_1.jpg,A1C508BB6CF8VR
539,2.0,left,left,1.0,1.85,0.0,59.0,59.0,59.0,1.0,IVORY_GULL_1.jpg,EASTERN_GOLDEN_WEAVER_5.jpg,A1C508BB6CF8VR
540,3.0,right,right,1.0,1.072,0.0,0.0,0.0,0.0,1.0,QUETZAL_3.jpg,FLAME_BOWERBIRD_3.jpg,A1AKL5YH9NLD2V
541,3.0,left,left,1.0,2.0115,0.0,1.0,1.0,1.0,1.0,GREY_PLOVER_1.jpg,ECUADORIAN_HILLSTAR_3.jpg,A1AKL5YH9NLD2V
542,3.0,left,left,1.0,1.2547,0.0,2.0,2.0,2.0,1.0,INLAND_DOTTEREL_4.jpg,CRESTED_KINGFISHER_1.jpg,A1AKL5YH9NLD2V
543,1.0,right,right,1.0,1.2503,0.0,3.0,3.0,3.0,1.0,DOUBLE_BRESTED_CORMARANT_4.jpg,STRIPPED_SWALLOW_1.jpg,A1AKL5YH9NLD2V
544,2.0,right,right,1.0,1.5582,0.0,4.0,4.0,4.0,1.0,EUROPEAN_GOLDFINCH_4.jpg,CASPIAN_TERN_1.jpg,A1AKL5YH9NLD2V
545,1.0,right,right,1.0,1.1214,0.0,5.0,5.0,5.0,1.0,POMARINE_JAEGER_5.jpg,SPLENDID_WREN_1.jpg,A1AKL5YH9NLD2V
546,1.0,right,right,1.0,1.0991,0.0,6.0,6.0,6.0,1.0,PEACOCK_2.jpg,BROWN_NOODY_3.jpg,A1AKL5YH9NLD2V
547,1.0,right,right,1.0,0.9748,0.0,7.0,7.0,7.0,1.0,EASTERN_MEADOWLARK_1.jpg,SHOEBILL_3.jpg,A1AKL5YH9NLD2V
548,2.0,right,right,1.0,1.9517,0.0,8.0,8.0,8.0,1.0,CRAB_PLOVER_3.jpg,NORTHERN_JACANA_3.jpg,A1AKL5YH9NLD2V
549,1.0,right,right,1.0,0.858,0.0,9.0,9.0,9.0,1.0,INDIAN_BUSTARD_1.jpg,VERMILION_FLYCATHER_3.jpg,A1AKL5YH9NLD2V
550,1.0,right,right,1.0,1.1584,0.0,10.0,10.0,10.0,1.0,CHIPPING_SPARROW_1.jpg,OCELLATED_TURKEY_1.jpg,A1AKL5YH9NLD2V
551,3.0,right,right,1.0,1.2021,0.0,11.0,11.0,11.0,1.0,CAPUCHINBIRD_2.jpg,AFRICAN_PIED_HORNBILL_5.jpg,A1AKL5YH9NLD2V
552,3.0,left,left,1.0,1.2538,0.0,12.0,12.0,12.0,1.0,SCARLET_TANAGER_2.jpg,BORNEAN_LEAFBIRD_1.jpg,A1AKL5YH9NLD2V
553,1.0,left,right,0.0,1.8336,0.0,13.0,13.0,13.0,1.0,LITTLE_AUK_5.jpg,SANDHILL_CRANE_3.jpg,A1AKL5YH9NLD2V
554,1.0,right,right,1.0,1.4004,0.0,14.0,14.0,14.0,1.0,BANANAQUIT_2.jpg,RUBY_THROATED_HUMMINGBIRD_1.jpg,A1AKL5YH9NLD2V
555,2.0,right,right,1.0,1.4345,0.0,15.0,15.0,15.0,1.0,OYSTER_CATCHER_2.jpg,ASIAN_CRESTED_IBIS_4.jpg,A1AKL5YH9NLD2V
556,1.0,left,left,1.0,1.0609,0.0,16.0,16.0,16.0,1.0,RED_HEADED_WOODPECKER_5.jpg,ASHY_STORM_PETREL_2.jpg,A1AKL5YH9NLD2V
557,2.0,left,left,1.0,1.137,0.0,17.0,17.0,17.0,1.0,RUBY_THROATED_HUMMINGBIRD_3.jpg,MYNA_5.jpg,A1AKL5YH9NLD2V
558,3.0,left,right,0.0,1.5265,0.0,18.0,18.0,18.0,1.0,ALPINE_CHOUGH_4.jpg,BOBOLINK_3.jpg,A1AKL5YH9NLD2V
559,1.0,right,right,1.0,1.1211,0.0,19.0,19.0,19.0,1.0,GRANDALA_2.jpg,PYGMY_KINGFISHER_5.jpg,A1AKL5YH9NLD2V
560,3.0,right,right,1.0,1.0471,0.0,20.0,20.0,20.0,1.0,COMMON_IORA_4.jpg,PINK_ROBIN_4.jpg,A1AKL5YH9NLD2V
561,2.0,right,right,1.0,1.1757,0.0,21.0,21.0,21.0,1.0,BLACK_VULTURE_1.jpg,ARARIPE_MANAKIN_4.jpg,A1AKL5YH9NLD2V
562,2.0,left,left,1.0,1.286,0.0,22.0,22.0,22.0,1.0,TASMANIAN_HEN_5.jpg,AFRICAN_EMERALD_CUCKOO_5.jpg,A1AKL5YH9NLD2V
563,1.0,right,right,1.0,1.5804,0.0,23.0,23.0,23.0,1.0,OSTRICH_5.jpg,CHUKAR_PARTRIDGE_5.jpg,A1AKL5YH9NLD2V
564,3.0,right,right,1.0,1.8626,0.0,24.0,24.0,24.0,1.0,BLACK_BAZA_4.jpg,BROWN_THRASHER_3.jpg,A1AKL5YH9NLD2V
565,3.0,left,left,1.0,1.277,0.0,25.0,25.0,25.0,1.0,LESSER_ADJUTANT_5.jpg,RED_HEADED_WOODPECKER_1.jpg,A1AKL5YH9NLD2V
566,1.0,right,right,1.0,1.1689,0.0,26.0,26.0,26.0,1.0,SPOONBILL_1.jpg,GOLDEN_CHEEKED_WARBLER_2.jpg,A1AKL5YH9NLD2V
567,2.0,left,left,1.0,1.4,0.0,27.0,27.0,27.0,1.0,ECUADORIAN_HILLSTAR_5.jpg,BOBOLINK_5.jpg,A1AKL5YH9NLD2V
568,2.0,right,right,1.0,1.3671,0.0,28.0,28.0,28.0,1.0,GREEN_MAGPIE_1.jpg,AMERICAN_PIPIT_5.jpg,A1AKL5YH9NLD2V
569,2.0,right,right,1.0,1.2309,0.0,29.0,29.0,29.0,1.0,SCARLET_MACAW_1.jpg,CASSOWARY_1.jpg,A1AKL5YH9NLD2V
570,2.0,right,right,1.0,1.3501,0.0,30.0,30.0,30.0,1.0,RAINBOW_LORIKEET_5.jpg,LESSER_ADJUTANT_4.jpg,A1AKL5YH9NLD2V
571,3.0,right,right,1.0,1.5504,0.0,31.0,31.0,31.0,1.0,FAIRY_TERN_4.jpg,IVORY_GULL_1.jpg,A1AKL5YH9NLD2V
572,2.0,left,left,1.0,2.2009,0.0,32.0,32.0,32.0,1.0,DOUBLE_BRESTED_CORMARANT_5.jpg,EURASIAN_MAGPIE_4.jpg,A1AKL5YH9NLD2V
573,1.0,left,left,1.0,1.4022,0.0,33.0,33.0,33.0,1.0,ASIAN_DOLLARD_BIRD_2.jpg,ALBATROSS_2.jpg,A1AKL5YH9NLD2V
574,3.0,right,right,1.0,2.4667,0.0,34.0,34.0,34.0,1.0,MALABAR_HORNBILL_2.jpg,EUROPEAN_TURTLE_DOVE_3.jpg,A1AKL5YH9NLD2V
575,3.0,left,left,1.0,2.167,0.0,35.0,35.0,35.0,1.0,PARUS_MAJOR_1.jpg,PINK_ROBIN_3.jpg,A1AKL5YH9NLD2V
576,3.0,right,right,1.0,2.3578,0.0,36.0,36.0,36.0,1.0,FAIRY_TERN_1.jpg,GYRFALCON_1.jpg,A1AKL5YH9NLD2V
577,2.0,left,left,1.0,1.2541,0.0,37.0,37.0,37.0,1.0,LARK_BUNTING_2.jpg,KING_VULTURE_3.jpg,A1AKL5YH9NLD2V
578,2.0,left,left,1.0,2.1242,0.0,38.0,38.0,38.0,1.0,HAWAIIAN_GOOSE_4.jpg,HIMALAYAN_MONAL_2.jpg,A1AKL5YH9NLD2V
579,2.0,right,right,1.0,1.5262,0.0,39.0,39.0,39.0,1.0,APAPANE_4.jpg,RUBY_THROATED_HUMMINGBIRD_2.jpg,A1AKL5YH9NLD2V
580,3.0,right,right,1.0,1.5531,0.0,40.0,40.0,40.0,1.0,GREEN_BROADBILL_5.jpg,MALACHITE_KINGFISHER_2.jpg,A1AKL5YH9NLD2V
581,1.0,left,left,1.0,2.2955,0.0,41.0,41.0,41.0,1.0,INCA_TERN_4.jpg,ELLIOTS__PHEASANT_4.jpg,A1AKL5YH9NLD2V
582,1.0,right,right,1.0,1.9009,0.0,42.0,42.0,42.0,1.0,ROADRUNNER_2.jpg,GOLDEN_CHLOROPHONIA_5.jpg,A1AKL5YH9NLD2V
583,1.0,left,left,1.0,1.5788,0.0,43.0,43.0,43.0,1.0,PEACOCK_3.jpg,ANIANIAU_2.jpg,A1AKL5YH9NLD2V
584,1.0,left,left,1.0,1.0366,0.0,44.0,44.0,44.0,1.0,WHITE_CHEEKED_TURACO_5.jpg,NORTHERN_MOCKINGBIRD_4.jpg,A1AKL5YH9NLD2V
585,1.0,right,left,0.0,2.4833,0.0,45.0,45.0,45.0,1.0,SANDHILL_CRANE_2.jpg,EASTERN_TOWEE_2.jpg,A1AKL5YH9NLD2V
586,1.0,left,left,1.0,1.3837,0.0,46.0,46.0,46.0,1.0,INDIGO_BUNTING_1.jpg,FRIGATE_4.jpg,A1AKL5YH9NLD2V
587,2.0,right,right,1.0,1.8255,0.0,47.0,47.0,47.0,1.0,FAIRY_PENGUIN_1.jpg,OVENBIRD_5.jpg,A1AKL5YH9NLD2V
588,2.0,left,right,0.0,1.8181,0.0,48.0,48.0,48.0,1.0,IVORY_GULL_3.jpg,FLAME_TANAGER_3.jpg,A1AKL5YH9NLD2V
589,2.0,left,right,0.0,1.9311,0.0,49.0,49.0,49.0,1.0,BREWERS_BLACKBIRD_3.jpg,GOLDEN_CHEEKED_WARBLER_3.jpg,A1AKL5YH9NLD2V
590,3.0,right,left,0.0,2.737,0.0,50.0,50.0,50.0,1.0,DEMOISELLE_CRANE_1.jpg,KAGU_5.jpg,A1AKL5YH9NLD2V
591,2.0,right,right,1.0,2.303,0.0,51.0,51.0,51.0,1.0,AFRICAN_FIREFINCH_1.jpg,CRESTED_NUTHATCH_2.jpg,A1AKL5YH9NLD2V
592,2.0,left,right,0.0,2.4003,0.0,52.0,52.0,52.0,1.0,CRESTED_CARACARA_4.jpg,INDIAN_PITTA_2.jpg,A1AKL5YH9NLD2V
593,3.0,right,left,0.0,1.84,0.0,53.0,53.0,53.0,1.0,OYSTER_CATCHER_3.jpg,MAGPIE_GOOSE_5.jpg,A1AKL5YH9NLD2V
594,3.0,left,left,1.0,1.4833,0.0,54.0,54.0,54.0,1.0,CERULEAN_WARBLER_1.jpg,BANANAQUIT_1.jpg,A1AKL5YH9NLD2V
595,3.0,left,left,1.0,2.3342,0.0,55.0,55.0,55.0,1.0,MYNA_1.jpg,PARADISE_TANAGER_3.jpg,A1AKL5YH9NLD2V
596,3.0,right,left,0.0,1.8168,0.0,56.0,56.0,56.0,1.0,AZURE_TIT_5.jpg,KILLDEAR_2.jpg,A1AKL5YH9NLD2V
597,1.0,left,right,0.0,2.0087,0.0,57.0,57.0,57.0,1.0,BALI_STARLING_1.jpg,CAPE_LONGCLAW_5.jpg,A1AKL5YH9NLD2V
598,3.0,right,right,1.0,1.2401,0.0,58.0,58.0,58.0,1.0,HORNED_SUNGEM_4.jpg,RUFOUS_KINGFISHER_1.jpg,A1AKL5YH9NLD2V
599,2.0,right,right,1.0,2.3032,0.0,59.0,59.0,59.0,1.0,COCK_OF_THE__ROCK_4.jpg,GRAY_KINGBIRD_5.jpg,A1AKL5YH9NLD2V
600,1.0,left,left,1.0,11.0013,0.0,0.0,0.0,0.0,1.0,EUROPEAN_TURTLE_DOVE_3.jpg,TEAL_DUCK_2.jpg,A3E0IFFHYQPLFE
601,1.0,right,left,0.0,4.2953,0.0,1.0,1.0,1.0,1.0,ALTAMIRA_YELLOWTHROAT_5.jpg,LESSER_ADJUTANT_4.jpg,A3E0IFFHYQPLFE
602,1.0,left,right,0.0,2.0492,0.0,2.0,2.0,2.0,1.0,RUBY_THROATED_HUMMINGBIRD_2.jpg,GOLDEN_CHLOROPHONIA_2.jpg,A3E0IFFHYQPLFE
603,3.0,right,right,1.0,1.8846,0.0,3.0,3.0,3.0,1.0,BORNEAN_BRISTLEHEAD_5.jpg,INCA_TERN_4.jpg,A3E0IFFHYQPLFE
604,2.0,left,right,0.0,2.1276,0.0,4.0,4.0,4.0,1.0,BREWERS_BLACKBIRD_3.jpg,GOLDEN_CHEEKED_WARBLER_3.jpg,A3E0IFFHYQPLFE
605,1.0,left,left,1.0,1.8228,0.0,5.0,5.0,5.0,1.0,NORTHERN_JACANA_3.jpg,AMERICAN_GOLDFINCH_4.jpg,A3E0IFFHYQPLFE
606,2.0,right,right,1.0,2.5409,0.0,6.0,6.0,6.0,1.0,ORANGE_BRESTED_BUNTING_3.jpg,LITTLE_AUK_5.jpg,A3E0IFFHYQPLFE
607,2.0,right,right,1.0,1.5666,0.0,7.0,7.0,7.0,1.0,OYSTER_CATCHER_2.jpg,ASIAN_CRESTED_IBIS_4.jpg,A3E0IFFHYQPLFE
608,1.0,left,right,0.0,0.4234,0.0,8.0,8.0,8.0,1.0,AMERICAN_PIPIT_5.jpg,EMU_2.jpg,A3E0IFFHYQPLFE
609,3.0,right,left,0.0,0.1735,0.0,9.0,9.0,9.0,1.0,PURPLE_SWAMPHEN_4.jpg,OCELLATED_TURKEY_1.jpg,A3E0IFFHYQPLFE
610,2.0,right,right,1.0,0.0897,0.0,10.0,10.0,10.0,1.0,OYSTER_CATCHER_4.jpg,BROWN_THRASHER_3.jpg,A3E0IFFHYQPLFE
611,1.0,left,left,1.0,0.0075,0.0,11.0,11.0,11.0,1.0,LESSER_ADJUTANT_5.jpg,GREEN_BROADBILL_4.jpg,A3E0IFFHYQPLFE
612,3.0,left,right,0.0,0.0075,0.0,12.0,12.0,12.0,1.0,INDIGO_BUNTING_1.jpg,DARWINS_FLYCATCHER_2.jpg,A3E0IFFHYQPLFE
613,1.0,right,left,0.0,0.1745,0.0,13.0,13.0,13.0,1.0,SNOWY_OWL_5.jpg,RUFOUS_KINGFISHER_1.jpg,A3E0IFFHYQPLFE
614,2.0,left,left,1.0,0.1725,0.0,14.0,14.0,14.0,1.0,PARUS_MAJOR_1.jpg,CALIFORNIA_GULL_2.jpg,A3E0IFFHYQPLFE
615,3.0,left,left,1.0,0.4207,0.0,15.0,15.0,15.0,1.0,ECUADORIAN_HILLSTAR_5.jpg,CRIMSON_SUNBIRD_5.jpg,A3E0IFFHYQPLFE
616,3.0,left,right,0.0,0.1726,0.0,16.0,16.0,16.0,1.0,IVORY_GULL_1.jpg,FAIRY_TERN_4.jpg,A3E0IFFHYQPLFE
617,3.0,right,left,0.0,0.1697,0.0,17.0,17.0,17.0,1.0,FAIRY_TERN_1.jpg,GYRFALCON_1.jpg,A3E0IFFHYQPLFE
618,3.0,left,left,1.0,0.4165,0.0,18.0,18.0,18.0,1.0,ASIAN_DOLLARD_BIRD_2.jpg,VIOLET_GREEN_SWALLOW_4.jpg,A3E0IFFHYQPLFE
619,1.0,left,right,0.0,0.171,0.0,19.0,19.0,19.0,1.0,GOLDEN_CHEEKED_WARBLER_2.jpg,SPOONBILL_1.jpg,A3E0IFFHYQPLFE
620,3.0,left,left,1.0,0.0074,0.0,20.0,20.0,20.0,1.0,WHITE_CHEEKED_TURACO_5.jpg,PYGMY_KINGFISHER_2.jpg,A3E0IFFHYQPLFE
621,3.0,right,right,1.0,0.0074,0.0,21.0,21.0,21.0,1.0,NORTHERN_BEARDLESS_TYRANNULET_5.jpg,EASTERN_TOWEE_2.jpg,A3E0IFFHYQPLFE
622,3.0,right,left,0.0,0.0895,0.0,22.0,22.0,22.0,1.0,RED_BEARDED_BEE_EATER_1.jpg,VERMILION_FLYCATHER_3.jpg,A3E0IFFHYQPLFE
623,3.0,right,left,0.0,0.2513,0.0,23.0,23.0,23.0,1.0,BALD_EAGLE_5.jpg,SHOEBILL_3.jpg,A3E0IFFHYQPLFE
624,2.0,right,left,0.0,0.1718,0.0,24.0,24.0,24.0,1.0,INDIAN_PITTA_2.jpg,CRESTED_CARACARA_4.jpg,A3E0IFFHYQPLFE
625,3.0,right,right,1.0,0.0884,0.0,25.0,25.0,25.0,1.0,FRIGATE_1.jpg,RUBY_THROATED_HUMMINGBIRD_1.jpg,A3E0IFFHYQPLFE
626,3.0,right,left,0.0,0.0906,0.0,26.0,26.0,26.0,1.0,BOBOLINK_3.jpg,ALPINE_CHOUGH_4.jpg,A3E0IFFHYQPLFE
627,2.0,right,right,1.0,0.0074,0.0,27.0,27.0,27.0,1.0,CAATINGA_CACHOLOTE_4.jpg,KILLDEAR_2.jpg,A3E0IFFHYQPLFE
628,1.0,left,left,1.0,0.0076,0.0,28.0,28.0,28.0,1.0,GOLDEN_CHLOROPHONIA_5.jpg,ROADRUNNER_2.jpg,A3E0IFFHYQPLFE
629,2.0,right,left,0.0,0.1701,0.0,29.0,29.0,29.0,1.0,INCA_TERN_2.jpg,MALACHITE_KINGFISHER_2.jpg,A3E0IFFHYQPLFE
630,2.0,right,left,0.0,0.2531,0.0,30.0,30.0,30.0,1.0,ASHY_STORM_PETREL_1.jpg,KAGU_5.jpg,A3E0IFFHYQPLFE
631,2.0,left,right,0.0,0.0905,0.0,31.0,31.0,31.0,1.0,SPLENDID_WREN_1.jpg,DOUBLE_BRESTED_CORMARANT_1.jpg,A3E0IFFHYQPLFE
632,1.0,left,left,1.0,0.0073,0.0,32.0,32.0,32.0,1.0,CRESTED_NUTHATCH_2.jpg,SCARLET_IBIS_3.jpg,A3E0IFFHYQPLFE
633,1.0,left,right,0.0,0.0074,0.0,33.0,33.0,33.0,1.0,CASSOWARY_1.jpg,ROSY_FACED_LOVEBIRD_4.jpg,A3E0IFFHYQPLFE
634,1.0,left,left,1.0,0.0908,0.0,34.0,34.0,34.0,1.0,SCARLET_TANAGER_2.jpg,BEARDED_BARBET_2.jpg,A3E0IFFHYQPLFE
635,2.0,right,left,0.0,0.1705,0.0,35.0,35.0,35.0,1.0,HIMALAYAN_MONAL_2.jpg,HAWAIIAN_GOOSE_4.jpg,A3E0IFFHYQPLFE
636,2.0,right,left,0.0,0.1733,0.0,36.0,36.0,36.0,1.0,MAGPIE_GOOSE_4.jpg,STRIPPED_SWALLOW_1.jpg,A3E0IFFHYQPLFE
637,2.0,right,right,1.0,0.0894,0.0,37.0,37.0,37.0,1.0,MASKED_BOOBY_5.jpg,PYGMY_KINGFISHER_5.jpg,A3E0IFFHYQPLFE
638,3.0,left,left,1.0,0.0074,0.0,38.0,38.0,38.0,1.0,GRAY_KINGBIRD_5.jpg,AFRICAN_FIREFINCH_3.jpg,A3E0IFFHYQPLFE
639,2.0,left,right,0.0,0.0908,0.0,39.0,39.0,39.0,1.0,IVORY_GULL_3.jpg,FLAME_TANAGER_3.jpg,A3E0IFFHYQPLFE
640,2.0,right,left,0.0,0.0074,0.0,40.0,40.0,40.0,1.0,AFRICAN_EMERALD_CUCKOO_5.jpg,TASMANIAN_HEN_5.jpg,A3E0IFFHYQPLFE
641,1.0,left,left,1.0,0.1748,0.0,41.0,41.0,41.0,1.0,CERULEAN_WARBLER_1.jpg,AMERICAN_FLAMINGO_2.jpg,A3E0IFFHYQPLFE
642,1.0,right,left,0.0,0.171,0.0,42.0,42.0,42.0,1.0,INDIAN_BUSTARD_2.jpg,FLAME_BOWERBIRD_3.jpg,A3E0IFFHYQPLFE
643,1.0,right,left,0.0,0.1501,0.0,43.0,43.0,43.0,1.0,SPOONBILL_3.jpg,PINK_ROBIN_4.jpg,A3E0IFFHYQPLFE
644,1.0,right,right,1.0,0.0879,0.0,44.0,44.0,44.0,1.0,CASSOWARY_2.jpg,INLAND_DOTTEREL_4.jpg,A3E0IFFHYQPLFE
645,3.0,left,left,1.0,0.0074,0.0,45.0,45.0,45.0,1.0,LARK_BUNTING_2.jpg,CACTUS_WREN_3.jpg,A3E0IFFHYQPLFE
646,2.0,left,left,1.0,0.171,0.0,46.0,46.0,46.0,1.0,ARARIPE_MANAKIN_4.jpg,BLACK_VULTURE_1.jpg,A3E0IFFHYQPLFE
647,1.0,right,left,0.0,0.1724,0.0,47.0,47.0,47.0,1.0,GREAT_GRAY_OWL_4.jpg,CASPIAN_TERN_1.jpg,A3E0IFFHYQPLFE
648,1.0,left,left,1.0,0.1745,0.0,48.0,48.0,48.0,1.0,DOUBLE_BRESTED_CORMARANT_5.jpg,GILDED_FLICKER_2.jpg,A3E0IFFHYQPLFE
649,1.0,left,left,1.0,0.0903,0.0,49.0,49.0,49.0,1.0,BALI_STARLING_1.jpg,CAPE_LONGCLAW_5.jpg,A3E0IFFHYQPLFE
650,1.0,right,right,1.0,0.0892,0.0,50.0,50.0,50.0,1.0,ASHY_STORM_PETREL_2.jpg,RED_HEADED_WOODPECKER_5.jpg,A3E0IFFHYQPLFE
651,3.0,right,left,0.0,0.0075,0.0,51.0,51.0,51.0,1.0,GUINEA_TURACO_5.jpg,BROWN_NOODY_3.jpg,A3E0IFFHYQPLFE
652,2.0,left,left,1.0,0.1715,0.0,52.0,52.0,52.0,1.0,PEACOCK_3.jpg,STRAWBERRY_FINCH_4.jpg,A3E0IFFHYQPLFE
653,2.0,left,left,1.0,0.1707,0.0,53.0,53.0,53.0,1.0,RUBY_THROATED_HUMMINGBIRD_3.jpg,MYNA_5.jpg,A3E0IFFHYQPLFE
654,3.0,right,right,1.0,0.0896,0.0,54.0,54.0,54.0,1.0,SHORT_BILLED_DOWITCHER_5.jpg,OVENBIRD_5.jpg,A3E0IFFHYQPLFE
655,3.0,right,left,0.0,0.0074,0.0,55.0,55.0,55.0,1.0,BLACK_THROATED_BUSHTIT_1.jpg,CHUKAR_PARTRIDGE_5.jpg,A3E0IFFHYQPLFE
656,2.0,right,right,1.0,0.0075,0.0,56.0,56.0,56.0,1.0,HAMERKOP_1.jpg,MAGPIE_GOOSE_5.jpg,A3E0IFFHYQPLFE
657,3.0,left,left,1.0,0.0897,0.0,57.0,57.0,57.0,1.0,GREY_PLOVER_1.jpg,ECUADORIAN_HILLSTAR_3.jpg,A3E0IFFHYQPLFE
658,2.0,right,left,0.0,0.1766,0.0,58.0,58.0,58.0,1.0,ALEXANDRINE_PARAKEET_1.jpg,AFRICAN_PIED_HORNBILL_5.jpg,A3E0IFFHYQPLFE
659,3.0,left,left,1.0,0.0895,0.0,59.0,59.0,59.0,1.0,MYNA_1.jpg,PARADISE_TANAGER_3.jpg,A3E0IFFHYQPLFE
660,3.0,left,left,1.0,1.634,0.0,0.0,0.0,0.0,1.0,SCARLET_TANAGER_2.jpg,BORNEAN_LEAFBIRD_1.jpg,A3DW6KSQPG6GVQ
661,2.0,right,right,1.0,1.9221,0.0,1.0,1.0,1.0,1.0,AMERICAN_FLAMINGO_5.jpg,CERULEAN_WARBLER_1.jpg,A3DW6KSQPG6GVQ
662,3.0,right,right,1.0,1.6667,0.0,2.0,2.0,2.0,1.0,CRESTED_KINGFISHER_1.jpg,INLAND_DOTTEREL_4.jpg,A3DW6KSQPG6GVQ
663,1.0,right,right,1.0,2.1332,0.0,3.0,3.0,3.0,1.0,BANANAQUIT_2.jpg,RUBY_THROATED_HUMMINGBIRD_1.jpg,A3DW6KSQPG6GVQ
664,3.0,right,left,0.0,1.9502,0.0,4.0,4.0,4.0,1.0,DARWINS_FLYCATCHER_2.jpg,INDIGO_BUNTING_1.jpg,A3DW6KSQPG6GVQ
665,3.0,left,left,1.0,1.0337,0.0,5.0,5.0,5.0,1.0,SHOEBILL_3.jpg,BALD_EAGLE_5.jpg,A3DW6KSQPG6GVQ
666,2.0,right,right,1.0,1.5507,0.0,6.0,6.0,6.0,1.0,KING_VULTURE_3.jpg,LARK_BUNTING_2.jpg,A3DW6KSQPG6GVQ
667,1.0,left,left,1.0,1.1899,0.0,7.0,7.0,7.0,1.0,AFRICAN_PIED_HORNBILL_5.jpg,KIWI_4.jpg,A3DW6KSQPG6GVQ
668,1.0,left,left,1.0,1.5981,0.0,8.0,8.0,8.0,1.0,HAWAIIAN_GOOSE_4.jpg,CUBAN_TODY_3.jpg,A3DW6KSQPG6GVQ
669,1.0,right,right,1.0,3.5499,0.0,9.0,9.0,9.0,1.0,PEACOCK_2.jpg,BROWN_NOODY_3.jpg,A3DW6KSQPG6GVQ
670,1.0,left,left,1.0,2.2059,0.0,10.0,10.0,10.0,1.0,KAGU_5.jpg,RED_BEARDED_BEE_EATER_3.jpg,A3DW6KSQPG6GVQ
671,1.0,left,left,1.0,0.9839,0.0,11.0,11.0,11.0,1.0,RUBY_THROATED_HUMMINGBIRD_2.jpg,GOLDEN_CHLOROPHONIA_2.jpg,A3DW6KSQPG6GVQ
672,1.0,left,left,1.0,0.9278,0.0,12.0,12.0,12.0,1.0,LESSER_ADJUTANT_5.jpg,GREEN_BROADBILL_4.jpg,A3DW6KSQPG6GVQ
673,3.0,left,left,1.0,1.0856,0.0,13.0,13.0,13.0,1.0,LESSER_ADJUTANT_4.jpg,FAIRY_TERN_3.jpg,A3DW6KSQPG6GVQ
674,2.0,right,right,1.0,1.0943,0.0,14.0,14.0,14.0,1.0,ORANGE_BRESTED_BUNTING_3.jpg,LITTLE_AUK_5.jpg,A3DW6KSQPG6GVQ
675,3.0,left,left,1.0,1.2169,0.0,15.0,15.0,15.0,1.0,IVORY_GULL_3.jpg,SNOWY_EGRET_4.jpg,A3DW6KSQPG6GVQ
676,1.0,right,right,1.0,0.9839,0.0,16.0,16.0,16.0,1.0,FAIRY_PENGUIN_5.jpg,CRESTED_CARACARA_4.jpg,A3DW6KSQPG6GVQ
677,1.0,left,left,1.0,2.7361,0.0,17.0,17.0,17.0,1.0,MYNA_1.jpg,OSTRICH_3.jpg,A3DW6KSQPG6GVQ
678,3.0,left,left,1.0,1.2391,0.0,18.0,18.0,18.0,1.0,CASPIAN_TERN_1.jpg,COMMON_LOON_2.jpg,A3DW6KSQPG6GVQ
679,2.0,right,right,1.0,3.0977,0.0,19.0,19.0,19.0,1.0,RAZORBILL_1.jpg,CHUKAR_PARTRIDGE_5.jpg,A3DW6KSQPG6GVQ
680,2.0,left,left,1.0,1.2003,0.0,20.0,20.0,20.0,1.0,RUBY_THROATED_HUMMINGBIRD_3.jpg,MYNA_5.jpg,A3DW6KSQPG6GVQ
681,3.0,right,right,1.0,1.8333,0.0,21.0,21.0,21.0,1.0,BOBOLINK_3.jpg,ALPINE_CHOUGH_4.jpg,A3DW6KSQPG6GVQ
682,3.0,right,right,1.0,0.9004,0.0,22.0,22.0,22.0,1.0,FAIRY_TERN_4.jpg,IVORY_GULL_1.jpg,A3DW6KSQPG6GVQ
683,2.0,left,left,1.0,1.0835,0.0,23.0,23.0,23.0,1.0,GOLDEN_CHEEKED_WARBLER_2.jpg,HOUSE_FINCH_2.jpg,A3DW6KSQPG6GVQ
684,2.0,left,left,1.0,0.9981,0.0,24.0,24.0,24.0,1.0,OVENBIRD_5.jpg,FAIRY_PENGUIN_1.jpg,A3DW6KSQPG6GVQ
685,1.0,right,right,1.0,1.3013,0.0,25.0,25.0,25.0,1.0,EMU_2.jpg,AMERICAN_PIPIT_5.jpg,A3DW6KSQPG6GVQ
686,1.0,right,right,1.0,0.9668,0.0,26.0,26.0,26.0,1.0,OSTRICH_1.jpg,GYRFALCON_1.jpg,A3DW6KSQPG6GVQ
687,2.0,right,right,1.0,0.9779,0.0,27.0,27.0,27.0,1.0,GOULDIAN_FINCH_4.jpg,GREY_PLOVER_1.jpg,A3DW6KSQPG6GVQ
688,3.0,left,left,1.0,1.0832,0.0,28.0,28.0,28.0,1.0,OCELLATED_TURKEY_1.jpg,PURPLE_SWAMPHEN_4.jpg,A3DW6KSQPG6GVQ
689,3.0,left,left,1.0,0.8503,0.0,29.0,29.0,29.0,1.0,GOLDEN_CHLOROPHONIA_5.jpg,VERMILION_FLYCATHER_5.jpg,A3DW6KSQPG6GVQ
690,3.0,left,left,1.0,1.2537,0.0,30.0,30.0,30.0,1.0,WHITE_CHEEKED_TURACO_5.jpg,PYGMY_KINGFISHER_2.jpg,A3DW6KSQPG6GVQ
691,2.0,right,right,1.0,1.3501,0.0,31.0,31.0,31.0,1.0,MAGPIE_GOOSE_4.jpg,STRIPPED_SWALLOW_1.jpg,A3DW6KSQPG6GVQ
692,2.0,right,right,1.0,1.8745,0.0,32.0,32.0,32.0,1.0,CALIFORNIA_GULL_2.jpg,PARUS_MAJOR_1.jpg,A3DW6KSQPG6GVQ
693,2.0,right,right,1.0,3.1162,0.0,33.0,33.0,33.0,1.0,CRAB_PLOVER_3.jpg,NORTHERN_JACANA_3.jpg,A3DW6KSQPG6GVQ
694,3.0,right,right,1.0,1.7453,0.0,34.0,34.0,34.0,1.0,DOUBLE_EYED_FIG_PARROT_4.jpg,PYGMY_KINGFISHER_5.jpg,A3DW6KSQPG6GVQ
695,3.0,left,left,1.0,1.3344,0.0,35.0,35.0,35.0,1.0,CRESTED_NUTHATCH_2.jpg,CANARY_1.jpg,A3DW6KSQPG6GVQ
696,1.0,right,right,1.0,1.3172,0.0,36.0,36.0,36.0,1.0,KIWI_3.jpg,ARARIPE_MANAKIN_4.jpg,A3DW6KSQPG6GVQ
697,3.0,left,left,1.0,1.2344,0.0,37.0,37.0,37.0,1.0,ASIAN_DOLLARD_BIRD_2.jpg,VIOLET_GREEN_SWALLOW_4.jpg,A3DW6KSQPG6GVQ
698,2.0,left,left,1.0,1.15,0.0,38.0,38.0,38.0,1.0,ECUADORIAN_HILLSTAR_5.jpg,BOBOLINK_5.jpg,A3DW6KSQPG6GVQ
699,1.0,left,left,1.0,1.0906,0.0,39.0,39.0,39.0,1.0,TASMANIAN_HEN_5.jpg,GREEN_BROADBILL_1.jpg,A3DW6KSQPG6GVQ
700,2.0,left,left,1.0,0.8494,0.0,40.0,40.0,40.0,1.0,FLAME_BOWERBIRD_3.jpg,BROWN_THRASHER_4.jpg,A3DW6KSQPG6GVQ
701,1.0,left,left,1.0,0.8416,0.0,41.0,41.0,41.0,1.0,VERMILION_FLYCATHER_3.jpg,INDIAN_BUSTARD_1.jpg,A3DW6KSQPG6GVQ
702,2.0,right,right,1.0,1.2331,0.0,42.0,42.0,42.0,1.0,PURPLE_FINCH_2.jpg,BALI_STARLING_1.jpg,A3DW6KSQPG6GVQ
703,2.0,left,right,0.0,4.9159,0.0,43.0,43.0,43.0,1.0,EASTERN_TOWEE_2.jpg,GOLDEN_CHLOROPHONIA_1.jpg,A3DW6KSQPG6GVQ
704,1.0,left,left,1.0,1.6294,0.0,44.0,44.0,44.0,1.0,RED_HEADED_WOODPECKER_5.jpg,ASHY_STORM_PETREL_2.jpg,A3DW6KSQPG6GVQ
705,3.0,right,right,1.0,1.0347,0.0,45.0,45.0,45.0,1.0,BORNEAN_BRISTLEHEAD_5.jpg,INCA_TERN_4.jpg,A3DW6KSQPG6GVQ
706,1.0,right,right,1.0,2.4257,0.0,46.0,46.0,46.0,1.0,SPOONBILL_3.jpg,PINK_ROBIN_4.jpg,A3DW6KSQPG6GVQ
707,1.0,right,left,0.0,1.9313,0.0,47.0,47.0,47.0,1.0,AMERICAN_FLAMINGO_1.jpg,MALACHITE_KINGFISHER_2.jpg,A3DW6KSQPG6GVQ
708,2.0,left,left,1.0,0.8596,0.0,48.0,48.0,48.0,1.0,EUROPEAN_TURTLE_DOVE_3.jpg,PAINTED_BUNTING_3.jpg,A3DW6KSQPG6GVQ
709,2.0,left,left,1.0,1.5018,0.0,49.0,49.0,49.0,1.0,ASIAN_CRESTED_IBIS_4.jpg,OYSTER_CATCHER_2.jpg,A3DW6KSQPG6GVQ
710,2.0,left,left,1.0,1.9334,0.0,50.0,50.0,50.0,1.0,DOUBLE_BRESTED_CORMARANT_5.jpg,EURASIAN_MAGPIE_4.jpg,A3DW6KSQPG6GVQ
711,3.0,left,left,1.0,1.5828,0.0,51.0,51.0,51.0,1.0,SPLENDID_WREN_1.jpg,CUBAN_TODY_4.jpg,A3DW6KSQPG6GVQ
712,1.0,left,left,1.0,1.3397,0.0,52.0,52.0,52.0,1.0,BROWN_THRASHER_3.jpg,DOUBLE_EYED_FIG_PARROT_3.jpg,A3DW6KSQPG6GVQ
713,2.0,right,right,1.0,0.884,0.0,53.0,53.0,53.0,1.0,MAGPIE_GOOSE_3.jpg,RUFOUS_KINGFISHER_1.jpg,A3DW6KSQPG6GVQ
714,2.0,right,right,1.0,2.0664,0.0,54.0,54.0,54.0,1.0,CAATINGA_CACHOLOTE_4.jpg,KILLDEAR_2.jpg,A3DW6KSQPG6GVQ
715,1.0,right,left,0.0,0.6164,0.0,55.0,55.0,55.0,1.0,GUINEA_TURACO_3.jpg,BREWERS_BLACKBIRD_3.jpg,A3DW6KSQPG6GVQ
716,1.0,right,right,1.0,1.1052,0.0,56.0,56.0,56.0,1.0,DOUBLE_EYED_FIG_PARROT_5.jpg,MAGPIE_GOOSE_5.jpg,A3DW6KSQPG6GVQ
717,3.0,left,left,1.0,3.783,0.0,57.0,57.0,57.0,1.0,GRAY_KINGBIRD_5.jpg,AFRICAN_FIREFINCH_3.jpg,A3DW6KSQPG6GVQ
718,3.0,right,right,1.0,1.3445,0.0,58.0,58.0,58.0,1.0,CHATTERING_LORY_2.jpg,PEACOCK_3.jpg,A3DW6KSQPG6GVQ
719,3.0,left,left,1.0,1.2248,0.0,59.0,59.0,59.0,1.0,CASSOWARY_1.jpg,AFRICAN_OYSTER_CATCHER_2.jpg,A3DW6KSQPG6GVQ
720,3.0,left,left,1.0,2.4189,0.0,0.0,0.0,0.0,1.0,SHOEBILL_3.jpg,BALD_EAGLE_5.jpg,A1MD74JPL7E9PK
721,3.0,right,right,1.0,2.2949,0.0,1.0,1.0,1.0,1.0,SNOWY_EGRET_4.jpg,IVORY_GULL_3.jpg,A1MD74JPL7E9PK
722,1.0,left,left,1.0,2.6567,0.0,2.0,2.0,2.0,1.0,OVENBIRD_5.jpg,MYNA_4.jpg,A1MD74JPL7E9PK
723,1.0,left,left,1.0,3.3263,0.0,3.0,3.0,3.0,1.0,BALI_STARLING_1.jpg,CAPE_LONGCLAW_5.jpg,A1MD74JPL7E9PK
724,1.0,left,right,0.0,1.3729,0.0,4.0,4.0,4.0,1.0,CHUKAR_PARTRIDGE_5.jpg,OSTRICH_5.jpg,A1MD74JPL7E9PK
725,2.0,left,left,1.0,2.4333,0.0,5.0,5.0,5.0,1.0,CRESTED_CARACARA_4.jpg,INDIAN_PITTA_2.jpg,A1MD74JPL7E9PK
726,3.0,left,left,1.0,3.1057,0.0,6.0,6.0,6.0,1.0,CASPIAN_TERN_1.jpg,COMMON_LOON_2.jpg,A1MD74JPL7E9PK
727,2.0,left,left,1.0,1.8011,0.0,7.0,7.0,7.0,1.0,DOUBLE_BRESTED_CORMARANT_5.jpg,EURASIAN_MAGPIE_4.jpg,A1MD74JPL7E9PK
728,3.0,left,left,1.0,1.3705,0.0,8.0,8.0,8.0,1.0,INDIGO_BUNTING_1.jpg,DARWINS_FLYCATCHER_2.jpg,A1MD74JPL7E9PK
729,1.0,right,right,1.0,2.0349,0.0,9.0,9.0,9.0,1.0,GREEN_BROADBILL_4.jpg,LESSER_ADJUTANT_5.jpg,A1MD74JPL7E9PK
730,2.0,left,left,1.0,1.8268,0.0,10.0,10.0,10.0,1.0,LESSER_ADJUTANT_4.jpg,RAINBOW_LORIKEET_5.jpg,A1MD74JPL7E9PK
731,3.0,right,right,1.0,3.2933,0.0,11.0,11.0,11.0,1.0,BANANAQUIT_1.jpg,CERULEAN_WARBLER_1.jpg,A1MD74JPL7E9PK
732,2.0,right,right,1.0,3.0014,0.0,12.0,12.0,12.0,1.0,HOUSE_FINCH_2.jpg,GOLDEN_CHEEKED_WARBLER_2.jpg,A1MD74JPL7E9PK
733,1.0,left,left,1.0,2.0576,0.0,13.0,13.0,13.0,1.0,HAWAIIAN_GOOSE_4.jpg,CUBAN_TODY_3.jpg,A1MD74JPL7E9PK
734,1.0,right,right,1.0,1.9814,0.0,14.0,14.0,14.0,1.0,SANDHILL_CRANE_4.jpg,PARUS_MAJOR_1.jpg,A1MD74JPL7E9PK
735,3.0,left,left,1.0,2.2728,0.0,15.0,15.0,15.0,1.0,MYNA_1.jpg,PARADISE_TANAGER_3.jpg,A1MD74JPL7E9PK
736,2.0,left,left,1.0,1.9056,0.0,16.0,16.0,16.0,1.0,GYRFALCON_1.jpg,CINNAMON_ATTILA_2.jpg,A1MD74JPL7E9PK
737,2.0,left,left,1.0,1.3154,0.0,17.0,17.0,17.0,1.0,PINK_ROBIN_4.jpg,ALBATROSS_4.jpg,A1MD74JPL7E9PK
738,2.0,left,right,0.0,3.0949,0.0,18.0,18.0,18.0,1.0,ECUADORIAN_HILLSTAR_5.jpg,BOBOLINK_5.jpg,A1MD74JPL7E9PK
739,2.0,left,left,1.0,1.2672,0.0,19.0,19.0,19.0,1.0,LARK_BUNTING_2.jpg,KING_VULTURE_3.jpg,A1MD74JPL7E9PK
740,2.0,right,right,1.0,1.373,0.0,20.0,20.0,20.0,1.0,SCARLET_MACAW_1.jpg,CASSOWARY_1.jpg,A1MD74JPL7E9PK
741,3.0,left,left,1.0,2.1786,0.0,21.0,21.0,21.0,1.0,FLAME_BOWERBIRD_3.jpg,QUETZAL_3.jpg,A1MD74JPL7E9PK
742,3.0,left,left,1.0,2.2048,0.0,22.0,22.0,22.0,1.0,ASIAN_DOLLARD_BIRD_2.jpg,VIOLET_GREEN_SWALLOW_4.jpg,A1MD74JPL7E9PK
743,1.0,right,left,0.0,4.4593,0.0,23.0,23.0,23.0,1.0,INDIAN_BUSTARD_1.jpg,VERMILION_FLYCATHER_3.jpg,A1MD74JPL7E9PK
744,2.0,right,right,1.0,3.483,0.0,24.0,24.0,24.0,1.0,GOULDIAN_FINCH_4.jpg,GREY_PLOVER_1.jpg,A1MD74JPL7E9PK
745,3.0,right,right,1.0,1.2642,0.0,25.0,25.0,25.0,1.0,NORTHERN_SHOVELER_1.jpg,RUBY_THROATED_HUMMINGBIRD_3.jpg,A1MD74JPL7E9PK
746,3.0,left,left,1.0,1.3006,0.0,26.0,26.0,26.0,1.0,RUBY_THROATED_HUMMINGBIRD_2.jpg,DUSKY_ROBIN_5.jpg,A1MD74JPL7E9PK
747,1.0,right,right,1.0,2.6136,0.0,27.0,27.0,27.0,1.0,KIWI_3.jpg,ARARIPE_MANAKIN_4.jpg,A1MD74JPL7E9PK
748,1.0,left,left,1.0,1.1747,0.0,28.0,28.0,28.0,1.0,RUFOUS_KINGFISHER_1.jpg,SNOWY_OWL_5.jpg,A1MD74JPL7E9PK
749,2.0,left,left,1.0,1.6111,0.0,29.0,29.0,29.0,1.0,BREWERS_BLACKBIRD_3.jpg,GOLDEN_CHEEKED_WARBLER_3.jpg,A1MD74JPL7E9PK
750,3.0,left,left,1.0,3.8199,0.0,30.0,30.0,30.0,1.0,LITTLE_AUK_5.jpg,BEARDED_BELLBIRD_1.jpg,A1MD74JPL7E9PK
751,2.0,left,left,1.0,2.9883,0.0,31.0,31.0,31.0,1.0,EASTERN_TOWEE_2.jpg,GOLDEN_CHLOROPHONIA_1.jpg,A1MD74JPL7E9PK
752,2.0,right,right,1.0,1.949,0.0,32.0,32.0,32.0,1.0,SPANGLED_COTINGA_4.jpg,BROWN_NOODY_3.jpg,A1MD74JPL7E9PK
753,1.0,left,left,1.0,1.735,0.0,33.0,33.0,33.0,1.0,NORTHERN_JACANA_3.jpg,AMERICAN_GOLDFINCH_4.jpg,A1MD74JPL7E9PK
754,3.0,right,right,1.0,1.8839,0.0,34.0,34.0,34.0,1.0,BORNEAN_BRISTLEHEAD_5.jpg,INCA_TERN_4.jpg,A1MD74JPL7E9PK
755,3.0,left,left,1.0,1.0356,0.0,35.0,35.0,35.0,1.0,KAGU_5.jpg,DEMOISELLE_CRANE_1.jpg,A1MD74JPL7E9PK
756,2.0,left,left,1.0,1.5739,0.0,36.0,36.0,36.0,1.0,TASMANIAN_HEN_5.jpg,AFRICAN_EMERALD_CUCKOO_5.jpg,A1MD74JPL7E9PK
757,3.0,left,left,1.0,2.2854,0.0,37.0,37.0,37.0,1.0,WHITE_CHEEKED_TURACO_5.jpg,PYGMY_KINGFISHER_2.jpg,A1MD74JPL7E9PK
758,1.0,right,right,1.0,3.2586,0.0,38.0,38.0,38.0,1.0,CANARY_2.jpg,ASIAN_CRESTED_IBIS_4.jpg,A1MD74JPL7E9PK
759,1.0,left,right,0.0,2.7185,0.0,39.0,39.0,39.0,1.0,OCELLATED_TURKEY_1.jpg,CHIPPING_SPARROW_1.jpg,A1MD74JPL7E9PK
760,1.0,right,right,1.0,1.2711,0.0,40.0,40.0,40.0,1.0,ROADRUNNER_2.jpg,GOLDEN_CHLOROPHONIA_5.jpg,A1MD74JPL7E9PK
761,3.0,left,left,1.0,1.9512,0.0,41.0,41.0,41.0,1.0,IVORY_GULL_1.jpg,FAIRY_TERN_4.jpg,A1MD74JPL7E9PK
762,3.0,right,right,1.0,2.2102,0.0,42.0,42.0,42.0,1.0,AFRICAN_FIREFINCH_3.jpg,GRAY_KINGBIRD_5.jpg,A1MD74JPL7E9PK
763,1.0,left,left,1.0,2.0127,0.0,43.0,43.0,43.0,1.0,EUROPEAN_TURTLE_DOVE_3.jpg,TEAL_DUCK_2.jpg,A1MD74JPL7E9PK
764,3.0,left,left,1.0,3.2679,0.0,44.0,44.0,44.0,1.0,BROWN_THRASHER_3.jpg,BLACK_BAZA_4.jpg,A1MD74JPL7E9PK
765,3.0,right,right,1.0,1.6014,0.0,45.0,45.0,45.0,1.0,DOUBLE_EYED_FIG_PARROT_4.jpg,PYGMY_KINGFISHER_5.jpg,A1MD74JPL7E9PK
766,2.0,left,left,1.0,2.7267,0.0,46.0,46.0,46.0,1.0,AMERICAN_PIPIT_5.jpg,GREEN_MAGPIE_1.jpg,A1MD74JPL7E9PK
767,1.0,left,left,1.0,0.0079,0.0,47.0,47.0,47.0,1.0,SPLENDID_WREN_1.jpg,POMARINE_JAEGER_5.jpg,A1MD74JPL7E9PK
768,1.0,left,right,0.0,1.498,0.0,48.0,48.0,48.0,1.0,KILLDEAR_2.jpg,PEACOCK_5.jpg,A1MD74JPL7E9PK
769,1.0,left,left,1.0,1.7465,0.0,49.0,49.0,49.0,1.0,PEACOCK_3.jpg,ANIANIAU_2.jpg,A1MD74JPL7E9PK
770,2.0,right,right,1.0,2.7575,0.0,50.0,50.0,50.0,1.0,CRIMSON_CHAT_3.jpg,RED_HEADED_WOODPECKER_5.jpg,A1MD74JPL7E9PK
771,2.0,left,left,1.0,2.4847,0.0,51.0,51.0,51.0,1.0,AFRICAN_PIED_HORNBILL_5.jpg,ALEXANDRINE_PARAKEET_1.jpg,A1MD74JPL7E9PK
772,2.0,right,right,1.0,1.8341,0.0,52.0,52.0,52.0,1.0,NICOBAR_PIGEON_4.jpg,INLAND_DOTTEREL_4.jpg,A1MD74JPL7E9PK
773,3.0,right,right,1.0,1.9017,0.0,53.0,53.0,53.0,1.0,FRIGATE_1.jpg,RUBY_THROATED_HUMMINGBIRD_1.jpg,A1MD74JPL7E9PK
774,1.0,right,right,1.0,3.4693,0.0,54.0,54.0,54.0,1.0,DOUBLE_BRESTED_CORMARANT_4.jpg,STRIPPED_SWALLOW_1.jpg,A1MD74JPL7E9PK
775,3.0,left,left,1.0,2.8912,0.0,55.0,55.0,55.0,1.0,ALPINE_CHOUGH_4.jpg,BOBOLINK_3.jpg,A1MD74JPL7E9PK
776,2.0,right,right,1.0,1.8043,0.0,56.0,56.0,56.0,1.0,HAMERKOP_1.jpg,MAGPIE_GOOSE_5.jpg,A1MD74JPL7E9PK
777,1.0,right,right,1.0,1.9323,0.0,57.0,57.0,57.0,1.0,BEARDED_BARBET_2.jpg,SCARLET_TANAGER_2.jpg,A1MD74JPL7E9PK
778,2.0,left,left,1.0,4.2863,0.0,58.0,58.0,58.0,1.0,MALACHITE_KINGFISHER_2.jpg,INCA_TERN_2.jpg,A1MD74JPL7E9PK
779,1.0,right,right,1.0,3.0502,0.0,59.0,59.0,59.0,1.0,SCARLET_IBIS_3.jpg,CRESTED_NUTHATCH_2.jpg,A1MD74JPL7E9PK
780,1.0,right,right,1.0,6.3283,0.0,0.0,0.0,0.0,1.0,HYACINTH_MACAW_3.jpg,GREY_PLOVER_1.jpg,A2GYZK79RQAH4I
781,1.0,right,right,1.0,8.0411,0.0,1.0,1.0,1.0,1.0,INDIAN_BUSTARD_2.jpg,FLAME_BOWERBIRD_3.jpg,A2GYZK79RQAH4I
782,3.0,right,right,1.0,3.3363,0.0,2.0,2.0,2.0,1.0,COMMON_LOON_2.jpg,CASPIAN_TERN_1.jpg,A2GYZK79RQAH4I
783,2.0,left,left,1.0,2.0312,0.0,3.0,3.0,3.0,1.0,KILLDEAR_2.jpg,CAATINGA_CACHOLOTE_4.jpg,A2GYZK79RQAH4I
784,3.0,right,left,0.0,5.6678,0.0,4.0,4.0,4.0,1.0,CAPUCHINBIRD_2.jpg,AFRICAN_PIED_HORNBILL_5.jpg,A2GYZK79RQAH4I
785,1.0,right,right,1.0,3.0796,0.0,5.0,5.0,5.0,1.0,POMARINE_JAEGER_5.jpg,SPLENDID_WREN_1.jpg,A2GYZK79RQAH4I
786,1.0,right,right,1.0,4.6125,0.0,6.0,6.0,6.0,1.0,TEAL_DUCK_2.jpg,EUROPEAN_TURTLE_DOVE_3.jpg,A2GYZK79RQAH4I
787,3.0,left,left,1.0,2.2935,0.0,7.0,7.0,7.0,1.0,ASIAN_CRESTED_IBIS_4.jpg,IVORY_GULL_2.jpg,A2GYZK79RQAH4I
788,1.0,right,right,1.0,2.4391,0.0,8.0,8.0,8.0,1.0,ALTAMIRA_YELLOWTHROAT_5.jpg,LESSER_ADJUTANT_4.jpg,A2GYZK79RQAH4I
789,2.0,left,left,1.0,2.4673,0.0,9.0,9.0,9.0,1.0,KAGU_5.jpg,ASHY_STORM_PETREL_1.jpg,A2GYZK79RQAH4I
790,2.0,right,right,1.0,2.1351,0.0,10.0,10.0,10.0,1.0,MYNA_5.jpg,RUBY_THROATED_HUMMINGBIRD_3.jpg,A2GYZK79RQAH4I
791,2.0,left,left,1.0,1.8082,0.0,11.0,11.0,11.0,1.0,SHOEBILL_3.jpg,GILDED_FLICKER_5.jpg,A2GYZK79RQAH4I
792,1.0,right,right,1.0,3.1555,0.0,12.0,12.0,12.0,1.0,DOUBLE_EYED_FIG_PARROT_5.jpg,MAGPIE_GOOSE_5.jpg,A2GYZK79RQAH4I
793,2.0,left,right,0.0,2.3515,0.0,13.0,13.0,13.0,1.0,GYRFALCON_1.jpg,CINNAMON_ATTILA_2.jpg,A2GYZK79RQAH4I
794,2.0,right,right,1.0,2.8149,0.0,14.0,14.0,14.0,1.0,LOGGERHEAD_SHRIKE_4.jpg,ASIAN_DOLLARD_BIRD_2.jpg,A2GYZK79RQAH4I
795,2.0,left,left,1.0,2.499,0.0,15.0,15.0,15.0,1.0,PINK_ROBIN_4.jpg,ALBATROSS_4.jpg,A2GYZK79RQAH4I
796,2.0,right,right,1.0,1.6186,0.0,16.0,16.0,16.0,1.0,APAPANE_4.jpg,RUBY_THROATED_HUMMINGBIRD_2.jpg,A2GYZK79RQAH4I
797,3.0,right,right,1.0,3.54,0.0,17.0,17.0,17.0,1.0,CHINESE_POND_HERON_2.jpg,DOUBLE_BRESTED_CORMARANT_5.jpg,A2GYZK79RQAH4I
798,3.0,right,right,1.0,2.3622,0.0,18.0,18.0,18.0,1.0,WATTLED_LAPWING_3.jpg,HAWAIIAN_GOOSE_4.jpg,A2GYZK79RQAH4I
799,3.0,left,left,1.0,2.6258,0.0,19.0,19.0,19.0,1.0,LESSER_ADJUTANT_5.jpg,RED_HEADED_WOODPECKER_1.jpg,A2GYZK79RQAH4I
800,3.0,right,right,1.0,2.2931,0.0,20.0,20.0,20.0,1.0,VERMILION_FLYCATHER_5.jpg,GOLDEN_CHLOROPHONIA_5.jpg,A2GYZK79RQAH4I
801,1.0,right,right,1.0,2.4851,0.0,21.0,21.0,21.0,1.0,SANDHILL_CRANE_2.jpg,EASTERN_TOWEE_2.jpg,A2GYZK79RQAH4I
802,1.0,left,right,0.0,2.2629,0.0,22.0,22.0,22.0,1.0,ECUADORIAN_HILLSTAR_5.jpg,SCARLET_IBIS_2.jpg,A2GYZK79RQAH4I
803,2.0,right,left,0.0,5.4064,0.0,23.0,23.0,23.0,1.0,CALIFORNIA_GULL_2.jpg,PARUS_MAJOR_1.jpg,A2GYZK79RQAH4I
804,1.0,left,left,1.0,7.7537,0.0,24.0,24.0,24.0,1.0,IVORY_GULL_3.jpg,INDIGO_FLYCATCHER_2.jpg,A2GYZK79RQAH4I
805,3.0,right,right,1.0,2.2484,0.0,25.0,25.0,25.0,1.0,PURPLE_SWAMPHEN_4.jpg,OCELLATED_TURKEY_1.jpg,A2GYZK79RQAH4I
806,3.0,left,right,0.0,3.0227,0.0,26.0,26.0,26.0,1.0,BALI_STARLING_1.jpg,IBERIAN_MAGPIE_1.jpg,A2GYZK79RQAH4I
807,1.0,left,left,1.0,5.892,0.0,27.0,27.0,27.0,1.0,BROWN_THRASHER_3.jpg,DOUBLE_EYED_FIG_PARROT_3.jpg,A2GYZK79RQAH4I
808,3.0,left,left,1.0,2.6031,0.0,28.0,28.0,28.0,1.0,RED_HEADED_WOODPECKER_5.jpg,COLLARED_ARACARI_1.jpg,A2GYZK79RQAH4I
809,2.0,right,left,0.0,3.5762,0.0,29.0,29.0,29.0,1.0,INDIAN_PITTA_2.jpg,CRESTED_CARACARA_4.jpg,A2GYZK79RQAH4I
810,2.0,left,left,1.0,2.5333,0.0,30.0,30.0,30.0,1.0,TASMANIAN_HEN_5.jpg,AFRICAN_EMERALD_CUCKOO_5.jpg,A2GYZK79RQAH4I
811,2.0,right,right,1.0,2.4493,0.0,31.0,31.0,31.0,1.0,SPANGLED_COTINGA_4.jpg,BROWN_NOODY_3.jpg,A2GYZK79RQAH4I
812,3.0,right,left,0.0,2.3118,0.0,32.0,32.0,32.0,1.0,BLACK_THROATED_BUSHTIT_1.jpg,CHUKAR_PARTRIDGE_5.jpg,A2GYZK79RQAH4I
813,2.0,right,right,1.0,1.942,0.0,33.0,33.0,33.0,1.0,MAGPIE_GOOSE_4.jpg,STRIPPED_SWALLOW_1.jpg,A2GYZK79RQAH4I
814,2.0,right,right,1.0,2.9315,0.0,34.0,34.0,34.0,1.0,AMERICAN_FLAMINGO_5.jpg,CERULEAN_WARBLER_1.jpg,A2GYZK79RQAH4I
815,2.0,left,left,1.0,2.2998,0.0,35.0,35.0,35.0,1.0,WHITE_CHEEKED_TURACO_5.jpg,GREAT_POTOO_3.jpg,A2GYZK79RQAH4I
816,2.0,left,left,1.0,2.0422,0.0,36.0,36.0,36.0,1.0,MALACHITE_KINGFISHER_2.jpg,INCA_TERN_2.jpg,A2GYZK79RQAH4I
817,3.0,left,right,0.0,4.3458,0.0,37.0,37.0,37.0,1.0,NORTHERN_JACANA_3.jpg,SCARLET_IBIS_4.jpg,A2GYZK79RQAH4I
818,1.0,right,left,0.0,2.8779,0.0,38.0,38.0,38.0,1.0,ROSY_FACED_LOVEBIRD_4.jpg,CASSOWARY_1.jpg,A2GYZK79RQAH4I
819,1.0,left,left,1.0,3.3858,0.0,39.0,39.0,39.0,1.0,PYGMY_KINGFISHER_5.jpg,GRANDALA_2.jpg,A2GYZK79RQAH4I
820,3.0,left,left,1.0,2.4914,0.0,40.0,40.0,40.0,1.0,SCARLET_TANAGER_2.jpg,BORNEAN_LEAFBIRD_1.jpg,A2GYZK79RQAH4I
821,3.0,right,right,1.0,8.6607,0.0,41.0,41.0,41.0,1.0,SHORT_BILLED_DOWITCHER_5.jpg,OVENBIRD_5.jpg,A2GYZK79RQAH4I
822,1.0,left,left,1.0,2.4596,0.0,42.0,42.0,42.0,1.0,BREWERS_BLACKBIRD_3.jpg,GUINEA_TURACO_3.jpg,A2GYZK79RQAH4I
823,1.0,left,left,1.0,6.095,0.0,43.0,43.0,43.0,1.0,ARARIPE_MANAKIN_4.jpg,KIWI_3.jpg,A2GYZK79RQAH4I
824,2.0,left,left,1.0,1.9287,0.0,44.0,44.0,44.0,1.0,LARK_BUNTING_2.jpg,KING_VULTURE_3.jpg,A2GYZK79RQAH4I
825,1.0,left,left,1.0,2.1266,0.0,45.0,45.0,45.0,1.0,RUFOUS_KINGFISHER_1.jpg,SNOWY_OWL_5.jpg,A2GYZK79RQAH4I
826,1.0,left,left,1.0,2.4253,0.0,46.0,46.0,46.0,1.0,MYNA_1.jpg,OSTRICH_3.jpg,A2GYZK79RQAH4I
827,3.0,left,left,1.0,1.9057,0.0,47.0,47.0,47.0,1.0,VERMILION_FLYCATHER_3.jpg,RED_BEARDED_BEE_EATER_1.jpg,A2GYZK79RQAH4I
828,2.0,left,left,1.0,2.8612,0.0,48.0,48.0,48.0,1.0,INDIGO_BUNTING_1.jpg,NORTHERN_GANNET_1.jpg,A2GYZK79RQAH4I
829,1.0,right,right,1.0,1.9027,0.0,49.0,49.0,49.0,1.0,EMU_2.jpg,AMERICAN_PIPIT_5.jpg,A2GYZK79RQAH4I
830,3.0,left,right,0.0,2.3867,0.0,50.0,50.0,50.0,1.0,GOLDEN_CHEEKED_WARBLER_2.jpg,WHITE_THROATED_BEE_EATER_1.jpg,A2GYZK79RQAH4I
831,3.0,right,right,1.0,2.2682,0.0,51.0,51.0,51.0,1.0,CANARY_1.jpg,CRESTED_NUTHATCH_2.jpg,A2GYZK79RQAH4I
832,3.0,right,right,1.0,1.7465,0.0,52.0,52.0,52.0,1.0,CRESTED_KINGFISHER_1.jpg,INLAND_DOTTEREL_4.jpg,A2GYZK79RQAH4I
833,1.0,left,left,1.0,2.5286,0.0,53.0,53.0,53.0,1.0,IVORY_GULL_1.jpg,WILSONS_BIRD_OF_PARADISE_4.jpg,A2GYZK79RQAH4I
834,2.0,left,left,1.0,1.7107,0.0,54.0,54.0,54.0,1.0,GRAY_KINGBIRD_5.jpg,COCK_OF_THE__ROCK_4.jpg,A2GYZK79RQAH4I
835,3.0,right,left,0.0,1.8479,0.0,55.0,55.0,55.0,1.0,BOBOLINK_3.jpg,ALPINE_CHOUGH_4.jpg,A2GYZK79RQAH4I
836,2.0,right,left,0.0,1.8141,0.0,56.0,56.0,56.0,1.0,STRAWBERRY_FINCH_4.jpg,PEACOCK_3.jpg,A2GYZK79RQAH4I
837,1.0,right,left,0.0,2.3486,0.0,57.0,57.0,57.0,1.0,SANDHILL_CRANE_3.jpg,LITTLE_AUK_5.jpg,A2GYZK79RQAH4I
838,3.0,right,left,0.0,4.3646,0.0,58.0,58.0,58.0,1.0,BORNEAN_BRISTLEHEAD_5.jpg,INCA_TERN_4.jpg,A2GYZK79RQAH4I
839,1.0,right,right,1.0,1.8029,0.0,59.0,59.0,59.0,1.0,BANANAQUIT_2.jpg,RUBY_THROATED_HUMMINGBIRD_1.jpg,A2GYZK79RQAH4I
840,1.0,left,right,0.0,5.7208,0.0,0.0,0.0,0.0,1.0,ECUADORIAN_HILLSTAR_5.jpg,SCARLET_IBIS_2.jpg,A3YG4NM3FQQQY
841,3.0,right,right,1.0,1.9094,0.0,1.0,1.0,1.0,1.0,FRIGATE_1.jpg,RUBY_THROATED_HUMMINGBIRD_1.jpg,A3YG4NM3FQQQY
842,3.0,left,right,0.0,2.2879,0.0,2.0,2.0,2.0,1.0,ALPINE_CHOUGH_4.jpg,BOBOLINK_3.jpg,A3YG4NM3FQQQY
843,1.0,right,left,0.0,2.0822,0.0,3.0,3.0,3.0,1.0,INDIAN_BUSTARD_1.jpg,VERMILION_FLYCATHER_3.jpg,A3YG4NM3FQQQY
844,2.0,left,left,1.0,2.2096,0.0,4.0,4.0,4.0,1.0,SPLENDID_WREN_1.jpg,DOUBLE_BRESTED_CORMARANT_1.jpg,A3YG4NM3FQQQY
845,2.0,left,left,1.0,3.2289,0.0,5.0,5.0,5.0,1.0,GOLDEN_CHLOROPHONIA_5.jpg,COMMON_HOUSE_MARTIN_4.jpg,A3YG4NM3FQQQY
846,2.0,right,right,1.0,2.4157,0.0,6.0,6.0,6.0,1.0,AFRICAN_FIREFINCH_1.jpg,CRESTED_NUTHATCH_2.jpg,A3YG4NM3FQQQY
847,3.0,right,right,1.0,2.2749,0.0,7.0,7.0,7.0,1.0,BLACK_THROATED_BUSHTIT_1.jpg,CHUKAR_PARTRIDGE_5.jpg,A3YG4NM3FQQQY
848,3.0,right,right,1.0,1.1211,0.0,8.0,8.0,8.0,1.0,CHATTERING_LORY_2.jpg,PEACOCK_3.jpg,A3YG4NM3FQQQY
849,1.0,left,left,1.0,1.8172,0.0,9.0,9.0,9.0,1.0,CERULEAN_WARBLER_1.jpg,AMERICAN_FLAMINGO_2.jpg,A3YG4NM3FQQQY
850,2.0,right,left,0.0,1.8207,0.0,10.0,10.0,10.0,1.0,HOUSE_FINCH_2.jpg,GOLDEN_CHEEKED_WARBLER_2.jpg,A3YG4NM3FQQQY
851,1.0,left,right,0.0,2.6634,0.0,11.0,11.0,11.0,1.0,BROWN_THRASHER_3.jpg,DOUBLE_EYED_FIG_PARROT_3.jpg,A3YG4NM3FQQQY
852,1.0,right,left,0.0,1.941,0.0,12.0,12.0,12.0,1.0,GOLDEN_CHLOROPHONIA_2.jpg,RUBY_THROATED_HUMMINGBIRD_2.jpg,A3YG4NM3FQQQY
853,2.0,left,left,1.0,1.8737,0.0,13.0,13.0,13.0,1.0,LARK_BUNTING_2.jpg,KING_VULTURE_3.jpg,A3YG4NM3FQQQY
854,3.0,left,left,1.0,1.5825,0.0,14.0,14.0,14.0,1.0,PYGMY_KINGFISHER_5.jpg,DOUBLE_EYED_FIG_PARROT_4.jpg,A3YG4NM3FQQQY
855,2.0,left,left,1.0,2.2107,0.0,15.0,15.0,15.0,1.0,GREY_PLOVER_1.jpg,GOULDIAN_FINCH_4.jpg,A3YG4NM3FQQQY
856,3.0,right,right,1.0,2.0897,0.0,16.0,16.0,16.0,1.0,COMMON_LOON_2.jpg,CASPIAN_TERN_1.jpg,A3YG4NM3FQQQY
857,3.0,right,right,1.0,2.009,0.0,17.0,17.0,17.0,1.0,FAIRY_TERN_4.jpg,IVORY_GULL_1.jpg,A3YG4NM3FQQQY
858,3.0,right,right,1.0,1.9235,0.0,18.0,18.0,18.0,1.0,COPPERY_TAILED_COUCAL_1.jpg,TASMANIAN_HEN_5.jpg,A3YG4NM3FQQQY
859,2.0,right,right,1.0,1.3828,0.0,19.0,19.0,19.0,1.0,PURPLE_FINCH_2.jpg,BALI_STARLING_1.jpg,A3YG4NM3FQQQY
860,1.0,left,left,1.0,1.4537,0.0,20.0,20.0,20.0,1.0,ASIAN_DOLLARD_BIRD_2.jpg,ALBATROSS_2.jpg,A3YG4NM3FQQQY
861,3.0,right,left,0.0,1.8959,0.0,21.0,21.0,21.0,1.0,OYSTER_CATCHER_3.jpg,MAGPIE_GOOSE_5.jpg,A3YG4NM3FQQQY
862,2.0,right,right,1.0,2.3821,0.0,22.0,22.0,22.0,1.0,ORANGE_BRESTED_BUNTING_3.jpg,LITTLE_AUK_5.jpg,A3YG4NM3FQQQY
863,1.0,left,left,1.0,3.9446,0.0,23.0,23.0,23.0,1.0,HAWAIIAN_GOOSE_4.jpg,CUBAN_TODY_3.jpg,A3YG4NM3FQQQY
864,1.0,left,left,1.0,2.1426,0.0,24.0,24.0,24.0,1.0,RUBY_THROATED_HUMMINGBIRD_3.jpg,MALAGASY_WHITE_EYE_2.jpg,A3YG4NM3FQQQY
865,2.0,left,left,1.0,1.8554,0.0,25.0,25.0,25.0,1.0,MYNA_1.jpg,GREY_PLOVER_4.jpg,A3YG4NM3FQQQY
866,3.0,left,right,0.0,2.4355,0.0,26.0,26.0,26.0,1.0,CRESTED_CARACARA_4.jpg,TOUCHAN_4.jpg,A3YG4NM3FQQQY
867,1.0,right,left,0.0,1.1221,0.0,27.0,27.0,27.0,1.0,PEACOCK_5.jpg,KILLDEAR_2.jpg,A3YG4NM3FQQQY
868,1.0,right,right,1.0,1.9378,0.0,28.0,28.0,28.0,1.0,PEACOCK_2.jpg,BROWN_NOODY_3.jpg,A3YG4NM3FQQQY
869,3.0,left,right,0.0,2.2839,0.0,29.0,29.0,29.0,1.0,SHOEBILL_3.jpg,BALD_EAGLE_5.jpg,A3YG4NM3FQQQY
870,1.0,left,right,0.0,1.6503,0.0,30.0,30.0,30.0,1.0,AMERICAN_PIPIT_5.jpg,EMU_2.jpg,A3YG4NM3FQQQY
871,2.0,left,left,1.0,1.1645,0.0,31.0,31.0,31.0,1.0,GRAY_KINGBIRD_5.jpg,COCK_OF_THE__ROCK_4.jpg,A3YG4NM3FQQQY
872,1.0,left,left,1.0,1.3905,0.0,32.0,32.0,32.0,1.0,NORTHERN_JACANA_3.jpg,AMERICAN_GOLDFINCH_4.jpg,A3YG4NM3FQQQY
873,2.0,left,left,1.0,1.5017,0.0,33.0,33.0,33.0,1.0,INLAND_DOTTEREL_4.jpg,NICOBAR_PIGEON_4.jpg,A3YG4NM3FQQQY
874,1.0,right,right,1.0,1.4236,0.0,34.0,34.0,34.0,1.0,ROSY_FACED_LOVEBIRD_4.jpg,CASSOWARY_1.jpg,A3YG4NM3FQQQY
875,1.0,right,right,1.0,1.6226,0.0,35.0,35.0,35.0,1.0,FRIGATE_4.jpg,INDIGO_BUNTING_1.jpg,A3YG4NM3FQQQY
876,3.0,right,right,1.0,1.8822,0.0,36.0,36.0,36.0,1.0,IVORY_GULL_2.jpg,ASIAN_CRESTED_IBIS_4.jpg,A3YG4NM3FQQQY
877,3.0,left,left,1.0,1.5767,0.0,37.0,37.0,37.0,1.0,OCELLATED_TURKEY_1.jpg,PURPLE_SWAMPHEN_4.jpg,A3YG4NM3FQQQY
878,3.0,left,left,1.0,1.7228,0.0,38.0,38.0,38.0,1.0,OVENBIRD_5.jpg,SHORT_BILLED_DOWITCHER_5.jpg,A3YG4NM3FQQQY
879,3.0,right,right,1.0,2.6389,0.0,39.0,39.0,39.0,1.0,BORNEAN_LEAFBIRD_3.jpg,ARARIPE_MANAKIN_4.jpg,A3YG4NM3FQQQY
880,2.0,left,right,0.0,1.7022,0.0,40.0,40.0,40.0,1.0,INCA_TERN_4.jpg,SMITHS_LONGSPUR_5.jpg,A3YG4NM3FQQQY
881,2.0,left,left,1.0,1.5691,0.0,41.0,41.0,41.0,1.0,PINK_ROBIN_4.jpg,ALBATROSS_4.jpg,A3YG4NM3FQQQY
882,3.0,right,right,1.0,1.993,0.0,42.0,42.0,42.0,1.0,FAIRY_TERN_1.jpg,GYRFALCON_1.jpg,A3YG4NM3FQQQY
883,2.0,right,right,1.0,1.8301,0.0,43.0,43.0,43.0,1.0,PAINTED_BUNTING_3.jpg,EUROPEAN_TURTLE_DOVE_3.jpg,A3YG4NM3FQQQY
884,3.0,left,left,1.0,1.5316,0.0,44.0,44.0,44.0,1.0,SCARLET_TANAGER_2.jpg,BORNEAN_LEAFBIRD_1.jpg,A3YG4NM3FQQQY
885,2.0,left,left,1.0,1.1172,0.0,45.0,45.0,45.0,1.0,EASTERN_TOWEE_2.jpg,GOLDEN_CHLOROPHONIA_1.jpg,A3YG4NM3FQQQY
886,1.0,left,left,1.0,1.2646,0.0,46.0,46.0,46.0,1.0,STRIPPED_SWALLOW_1.jpg,DOUBLE_BRESTED_CORMARANT_4.jpg,A3YG4NM3FQQQY
887,2.0,left,left,1.0,1.5213,0.0,47.0,47.0,47.0,1.0,RED_HEADED_WOODPECKER_5.jpg,CRIMSON_CHAT_3.jpg,A3YG4NM3FQQQY
888,3.0,left,left,1.0,1.6396,0.0,48.0,48.0,48.0,1.0,MALACHITE_KINGFISHER_2.jpg,GREEN_BROADBILL_5.jpg,A3YG4NM3FQQQY
889,2.0,right,right,1.0,1.2392,0.0,49.0,49.0,49.0,1.0,RAINBOW_LORIKEET_5.jpg,LESSER_ADJUTANT_4.jpg,A3YG4NM3FQQQY
890,2.0,right,right,1.0,1.4686,0.0,50.0,50.0,50.0,1.0,FLAME_TANAGER_3.jpg,IVORY_GULL_3.jpg,A3YG4NM3FQQQY
891,1.0,left,left,1.0,1.5446,0.0,51.0,51.0,51.0,1.0,LESSER_ADJUTANT_5.jpg,GREEN_BROADBILL_4.jpg,A3YG4NM3FQQQY
892,1.0,left,left,1.0,1.4474,0.0,52.0,52.0,52.0,1.0,FLAME_BOWERBIRD_3.jpg,INDIAN_BUSTARD_2.jpg,A3YG4NM3FQQQY
893,3.0,left,right,0.0,1.7691,0.0,53.0,53.0,53.0,1.0,KAGU_5.jpg,DEMOISELLE_CRANE_1.jpg,A3YG4NM3FQQQY
894,2.0,left,left,1.0,1.3355,0.0,54.0,54.0,54.0,1.0,DOUBLE_BRESTED_CORMARANT_5.jpg,EURASIAN_MAGPIE_4.jpg,A3YG4NM3FQQQY
895,1.0,right,right,1.0,1.3248,0.0,55.0,55.0,55.0,1.0,GUINEA_TURACO_3.jpg,BREWERS_BLACKBIRD_3.jpg,A3YG4NM3FQQQY
896,1.0,right,right,1.0,2.2346,0.0,56.0,56.0,56.0,1.0,KIWI_4.jpg,AFRICAN_PIED_HORNBILL_5.jpg,A3YG4NM3FQQQY
897,1.0,left,left,1.0,1.6721,0.0,57.0,57.0,57.0,1.0,RUFOUS_KINGFISHER_1.jpg,SNOWY_OWL_5.jpg,A3YG4NM3FQQQY
898,2.0,right,left,0.0,1.3681,0.0,58.0,58.0,58.0,1.0,GREAT_POTOO_3.jpg,WHITE_CHEEKED_TURACO_5.jpg,A3YG4NM3FQQQY
899,3.0,right,left,0.0,1.5666,0.0,59.0,59.0,59.0,1.0,PINK_ROBIN_3.jpg,PARUS_MAJOR_1.jpg,A3YG4NM3FQQQY
900,2.0,right,left,0.0,3.507,0.0,0.0,0.0,0.0,1.0,AMERICAN_FLAMINGO_5.jpg,CERULEAN_WARBLER_1.jpg,A2CZ8O9PGNTC2L
901,1.0,left,left,1.0,2.509,0.0,1.0,1.0,1.0,1.0,PYGMY_KINGFISHER_5.jpg,GRANDALA_2.jpg,A2CZ8O9PGNTC2L
902,1.0,left,left,1.0,2.014,0.0,2.0,2.0,2.0,1.0,ARARIPE_MANAKIN_4.jpg,KIWI_3.jpg,A2CZ8O9PGNTC2L
903,2.0,left,left,1.0,1.614,0.0,3.0,3.0,3.0,1.0,RUBY_THROATED_HUMMINGBIRD_1.jpg,VULTURINE_GUINEAFOWL_4.jpg,A2CZ8O9PGNTC2L
904,3.0,right,right,1.0,2.312,0.0,4.0,4.0,4.0,1.0,WHITE_THROATED_BEE_EATER_1.jpg,GOLDEN_CHEEKED_WARBLER_2.jpg,A2CZ8O9PGNTC2L
905,2.0,left,left,1.0,1.607,0.0,5.0,5.0,5.0,1.0,AFRICAN_PIED_HORNBILL_5.jpg,ALEXANDRINE_PARAKEET_1.jpg,A2CZ8O9PGNTC2L
906,2.0,left,right,0.0,1.568,0.0,6.0,6.0,6.0,1.0,EUROPEAN_TURTLE_DOVE_3.jpg,PAINTED_BUNTING_3.jpg,A2CZ8O9PGNTC2L
907,3.0,right,right,1.0,1.797,0.0,7.0,7.0,7.0,1.0,SNOWY_EGRET_4.jpg,IVORY_GULL_3.jpg,A2CZ8O9PGNTC2L
908,1.0,left,left,1.0,1.695,0.0,8.0,8.0,8.0,1.0,PARUS_MAJOR_1.jpg,SANDHILL_CRANE_4.jpg,A2CZ8O9PGNTC2L
909,2.0,right,right,1.0,2.254,0.0,9.0,9.0,9.0,1.0,CRAB_PLOVER_3.jpg,NORTHERN_JACANA_3.jpg,A2CZ8O9PGNTC2L
910,3.0,left,left,1.0,2.656,0.0,10.0,10.0,10.0,1.0,RUBY_THROATED_HUMMINGBIRD_2.jpg,DUSKY_ROBIN_5.jpg,A2CZ8O9PGNTC2L
911,1.0,right,right,1.0,1.466,0.0,11.0,11.0,11.0,1.0,BEARDED_BARBET_2.jpg,SCARLET_TANAGER_2.jpg,A2CZ8O9PGNTC2L
912,2.0,left,right,0.0,2.095,0.0,12.0,12.0,12.0,1.0,MYNA_1.jpg,GREY_PLOVER_4.jpg,A2CZ8O9PGNTC2L
