button.numClicks,button.timesOn,button.timesOff,workID,Age,Gender,Hours slept (last night),date,expName,psychopyVersion,OS,frameRate,space_key_responce.keys,test_test_response.keys,test_test_response.corr,test_test_response.rt,trials_2.thisRepN,trials_2.thisTrialN,trials_2.thisN,trials_2.thisIndex,trials_2.ran,image1,image2,layer,correct,key_resp_end_2.keys,key_resp_end_2.rt
1,[3.2643000000119144],[3.2643000000119144],A2M3FPQF852HW4,30,male,9,2022-11-15_09h05.03.538,memory_pilot_most_recent,2022.2.4,Win32,143.9263097,,,,,,,,,,,,,,,
,,,A2M3FPQF852HW4,30,male,9,2022-11-15_09h05.03.538,memory_pilot_most_recent,2022.2.4,Win32,143.9263097,,,,,,,,,,,,,,,
,,,A2M3FPQF852HW4,30,male,9,2022-11-15_09h05.03.538,memory_pilot_most_recent,2022.2.4,Win32,143.9263097,,,,,,,,,,,,,,,
,,,A2M3FPQF852HW4,30,male,9,2022-11-15_09h05.03.538,memory_pilot_most_recent,2022.2.4,Win32,143.9263097,,,,,,,,,,,,,,,
,,,A2M3FPQF852HW4,30,male,9,2022-11-15_09h05.03.538,memory_pilot_most_recent,2022.2.4,Win32,143.9263097,,,,,,,,,,,,,,,
,,,A2M3FPQF852HW4,30,male,9,2022-11-15_09h05.03.538,memory_pilot_most_recent,2022.2.4,Win32,143.9263097,,,,,,,,,,,,,,,
,,,A2M3FPQF852HW4,30,male,9,2022-11-15_09h05.03.538,memory_pilot_most_recent,2022.2.4,Win32,143.9263097,,right,1,1.43,0,0,0,0,1,2981235446-294901.jpg,2460547467-349421.jpg,3,right,,
,,,A2M3FPQF852HW4,30,male,9,2022-11-15_09h05.03.538,memory_pilot_most_recent,2022.2.4,Win32,143.9263097,,left,0,1.1929,0,1,1,1,1,2883266388-67750.jpg,2874299429-139695.jpg,1,right,,
,,,A2M3FPQF852HW4,30,male,9,2022-11-15_09h05.03.538,memory_pilot_most_recent,2022.2.4,Win32,143.9263097,,right,1,1.3321,0,2,2,2,1,2994401319-148290.jpg,2452381505-199546.jpg,3,right,,
,,,A2M3FPQF852HW4,30,male,9,2022-11-15_09h05.03.538,memory_pilot_most_recent,2022.2.4,Win32,143.9263097,,left,1,1.3225,0,3,3,3,1,2592380177-354626.jpg,2986408339-146952.jpg,1,left,,
,,,A2M3FPQF852HW4,30,male,9,2022-11-15_09h05.03.538,memory_pilot_most_recent,2022.2.4,Win32,143.9263097,,right,1,1.6388,0,4,4,4,1,2427873763-47290.jpg,2981231403-71642.jpg,3,right,,
,,,A2M3FPQF852HW4,30,male,9,2022-11-15_09h05.03.538,memory_pilot_most_recent,2022.2.4,Win32,143.9263097,,right,0,1.534,0,5,5,5,1,2458347385-199723.jpg,2427874554-121863.jpg,2,left,,
,,,A2M3FPQF852HW4,30,male,9,2022-11-15_09h05.03.538,memory_pilot_most_recent,2022.2.4,Win32,143.9263097,,right,1,1.3363,0,6,6,6,1,2898632385-217137.jpg,2449442529-124445.jpg,3,right,,
,,,A2M3FPQF852HW4,30,male,9,2022-11-15_09h05.03.538,memory_pilot_most_recent,2022.2.4,Win32,143.9263097,,right,1,1.3005,0,7,7,7,1,2868474407-362885.jpg,2868475410-213219.jpg,3,right,,
,,,A2M3FPQF852HW4,30,male,9,2022-11-15_09h05.03.538,memory_pilot_most_recent,2022.2.4,Win32,143.9263097,,left,0,1.7185,0,8,8,8,1,2984615361-295510.jpg,2883268412-365898.jpg,2,right,,
,,,A2M3FPQF852HW4,30,male,9,2022-11-15_09h05.03.538,memory_pilot_most_recent,2022.2.4,Win32,143.9263097,,left,1,1.4577,0,9,9,9,1,2898618444-142233.jpg,2238555262-330312.jpg,2,left,,
,,,A2M3FPQF852HW4,30,male,9,2022-11-15_09h05.03.538,memory_pilot_most_recent,2022.2.4,Win32,143.9263097,,right,1,1.0933,0,10,10,10,1,2446759803-49251.jpg,2449442529-124446.jpg,1,right,,
,,,A2M3FPQF852HW4,30,male,9,2022-11-15_09h05.03.538,memory_pilot_most_recent,2022.2.4,Win32,143.9263097,,left,1,1.8302,0,11,11,11,1,2964216465-219242.jpg,2864900319-137787.jpg,2,left,,
,,,A2M3FPQF852HW4,30,male,9,2022-11-15_09h05.03.538,memory_pilot_most_recent,2022.2.4,Win32,143.9263097,,left,1,1.6587,0,12,12,12,1,2446759347-347016.jpg,2964224310-219528.jpg,1,left,,
,,,A2M3FPQF852HW4,30,male,9,2022-11-15_09h05.03.538,memory_pilot_most_recent,2022.2.4,Win32,143.9263097,,right,1,1.4396,0,13,13,13,1,2981229442-369621.jpg,2901939379-143480.jpg,2,right,,
,,,A2M3FPQF852HW4,30,male,9,2022-11-15_09h05.03.538,memory_pilot_most_recent,2022.2.4,Win32,143.9263097,,right,1,1.318,0,14,14,14,1,2238328478-11678.jpg,2452380832-348593.jpg,1,right,,
,,,A2M3FPQF852HW4,30,male,9,2022-11-15_09h05.03.538,memory_pilot_most_recent,2022.2.4,Win32,143.9263097,,left,1,1.6387,0,15,15,15,1,2898617468-68274.jpg,2964207374-144577.jpg,3,left,,
,,,A2M3FPQF852HW4,30,male,9,2022-11-15_09h05.03.538,memory_pilot_most_recent,2022.2.4,Win32,143.9263097,,left,1,1.2633,0,16,16,16,1,2238580740-186218.jpg,2238550816-254000.jpg,1,left,,
,,,A2M3FPQF852HW4,30,male,9,2022-11-15_09h05.03.538,memory_pilot_most_recent,2022.2.4,Win32,143.9263097,,right,1,1.1727,0,17,17,17,1,2238480803-19737.jpg,2238481198-19822.jpg,3,right,,
,,,A2M3FPQF852HW4,30,male,9,2022-11-15_09h05.03.538,memory_pilot_most_recent,2022.2.4,Win32,143.9263097,,right,0,1.5093,0,18,18,18,1,2898624426-291546.jpg,2981236443-71859.jpg,2,left,,
,,,A2M3FPQF852HW4,30,male,9,2022-11-15_09h05.03.538,memory_pilot_most_recent,2022.2.4,Win32,143.9263097,,right,0,1.1752,0,19,19,19,1,2238428357-313623.jpg,2984615361-295509.jpg,2,left,,
,,,A2M3FPQF852HW4,30,male,9,2022-11-15_09h05.03.538,memory_pilot_most_recent,2022.2.4,Win32,143.9263097,,right,1,2.7126,0,20,20,20,1,2964213381-294061.jpg,2964213381-294060.jpg,3,right,,
,,,A2M3FPQF852HW4,30,male,9,2022-11-15_09h05.03.538,memory_pilot_most_recent,2022.2.4,Win32,143.9263097,,right,1,1.0692,0,21,21,21,1,2864909447-362144.jpg,2446758985-197609.jpg,2,right,,
,,,A2M3FPQF852HW4,30,male,9,2022-11-15_09h05.03.538,memory_pilot_most_recent,2022.2.4,Win32,143.9263097,,left,0,1.4168,0,22,22,22,1,2512876023-52283.jpg,2898633421-291973.jpg,1,right,,
,,,A2M3FPQF852HW4,30,male,9,2022-11-15_09h05.03.538,memory_pilot_most_recent,2022.2.4,Win32,143.9263097,,left,1,1.1111,0,23,23,23,1,2592380177-354629.jpg,2512875587-350044.jpg,3,left,,
,,,A2M3FPQF852HW4,30,male,9,2022-11-15_09h05.03.538,memory_pilot_most_recent,2022.2.4,Win32,143.9263097,,left,1,1.8903,0,24,24,24,1,2238481928-19949.jpg,2883264367-365620.jpg,1,left,,
,,,A2M3FPQF852HW4,30,male,9,2022-11-15_09h05.03.538,memory_pilot_most_recent,2022.2.4,Win32,143.9263097,,left,1,1.476,0,25,25,25,1,2874302418-65978.jpg,2898626385-216899.jpg,1,left,,
,,,A2M3FPQF852HW4,30,male,9,2022-11-15_09h05.03.538,memory_pilot_most_recent,2022.2.4,Win32,143.9263097,,left,1,2.4706,0,26,26,26,1,2883268471-290842.jpg,2883255450-215310.jpg,2,left,,
,,,A2M3FPQF852HW4,30,male,9,2022-11-15_09h05.03.538,memory_pilot_most_recent,2022.2.4,Win32,143.9263097,,right,1,0.9796,0,27,27,27,1,2901941438-69835.jpg,2460547508-51571.jpg,3,right,,
,,,A2M3FPQF852HW4,30,male,9,2022-11-15_09h05.03.538,memory_pilot_most_recent,2022.2.4,Win32,143.9263097,,left,1,1.6168,0,28,28,28,1,2238560245-182099.jpg,2238480980-168129.jpg,3,left,,
,,,A2M3FPQF852HW4,30,male,9,2022-11-15_09h05.03.538,memory_pilot_most_recent,2022.2.4,Win32,143.9263097,,right,0,1.1241,0,29,29,29,1,2964223381-294447.jpg,2898628438-68785.jpg,3,left,,
,,,A2M3FPQF852HW4,30,male,9,2022-11-15_09h05.03.538,memory_pilot_most_recent,2022.2.4,Win32,143.9263097,,right,0,1.2095,0,30,30,30,1,2874302418-65979.jpg,2238480648-19714.jpg,2,left,,
,,,A2M3FPQF852HW4,30,male,9,2022-11-15_09h05.03.538,memory_pilot_most_recent,2022.2.4,Win32,143.9263097,,right,1,1.4932,0,31,31,31,1,2883268412-365899.jpg,2449441881-272368.jpg,1,right,,
,,,A2M3FPQF852HW4,30,male,9,2022-11-15_09h05.03.538,memory_pilot_most_recent,2022.2.4,Win32,143.9263097,,left,0,1.4433,0,32,32,32,1,2864904453-63933.jpg,2883256307-365057.jpg,3,right,,
,,,A2M3FPQF852HW4,30,male,9,2022-11-15_09h05.03.538,memory_pilot_most_recent,2022.2.4,Win32,143.9263097,,left,1,2.0148,0,33,33,33,1,2898618390-216538.jpg,2986449336-296644.jpg,1,left,,
,,,A2M3FPQF852HW4,30,male,9,2022-11-15_09h05.03.538,memory_pilot_most_recent,2022.2.4,Win32,143.9263097,,right,0,1.4474,0,34,34,34,1,2874303365-214262.jpg,2238563377-332054.jpg,2,left,,
,,,A2M3FPQF852HW4,30,male,9,2022-11-15_09h05.03.538,memory_pilot_most_recent,2022.2.4,Win32,143.9263097,,left,0,1.0612,0,35,35,35,1,2986419333-73361.jpg,2238572663-35822.jpg,1,right,,
,,,A2M3FPQF852HW4,30,male,9,2022-11-15_09h05.03.538,memory_pilot_most_recent,2022.2.4,Win32,143.9263097,,left,0,1.6072,0,36,36,36,1,2874299429-139694.jpg,2864910426-287204.jpg,2,right,,
,,,A2M3FPQF852HW4,30,male,9,2022-11-15_09h05.03.538,memory_pilot_most_recent,2022.2.4,Win32,143.9263097,,right,0,2.3011,0,37,37,37,1,2238480677-317399.jpg,2238481630-168218.jpg,1,left,,
,,,A2M3FPQF852HW4,30,male,9,2022-11-15_09h05.03.538,memory_pilot_most_recent,2022.2.4,Win32,143.9263097,,left,0,1.5853,0,38,38,38,1,2986447306-296584.jpg,2874307433-66280.jpg,1,right,,
,,,A2M3FPQF852HW4,30,male,9,2022-11-15_09h05.03.538,memory_pilot_most_recent,2022.2.4,Win32,143.9263097,,right,0,1.4224,0,39,39,39,1,2981241414-145842.jpg,2856919327-359676.jpg,1,left,,
,,,A2M3FPQF852HW4,30,male,9,2022-11-15_09h05.03.538,memory_pilot_most_recent,2022.2.4,Win32,143.9263097,,left,0,1.6767,0,40,40,40,1,2964218374-144968.jpg,2964218374-144967.jpg,1,right,,
,,,A2M3FPQF852HW4,30,male,9,2022-11-15_09h05.03.538,memory_pilot_most_recent,2022.2.4,Win32,143.9263097,,left,1,1.297,0,41,41,41,1,2901948350-218459.jpg,2417208001-267065.jpg,2,left,,
,,,A2M3FPQF852HW4,30,male,9,2022-11-15_09h05.03.538,memory_pilot_most_recent,2022.2.4,Win32,143.9263097,,right,1,2.0275,0,42,42,42,1,2238531493-28260.jpg,2575120738-55529.jpg,3,right,,
,,,A2M3FPQF852HW4,30,male,9,2022-11-15_09h05.03.538,memory_pilot_most_recent,2022.2.4,Win32,143.9263097,,right,1,1.3566,0,43,43,43,1,2592380272-354673.jpg,2592379964-131054.jpg,3,right,,
,,,A2M3FPQF852HW4,30,male,9,2022-11-15_09h05.03.538,memory_pilot_most_recent,2022.2.4,Win32,143.9263097,,right,0,2.4403,0,44,44,44,1,2883254439-140941.jpg,2898632385-217136.jpg,2,left,,
,,,A2M3FPQF852HW4,30,male,9,2022-11-15_09h05.03.538,memory_pilot_most_recent,2022.2.4,Win32,143.9263097,,right,0,1.5271,0,45,45,45,1,2986451363-73599.jpg,2860302315-210704.jpg,2,left,,
,,,A2M3FPQF852HW4,30,male,9,2022-11-15_09h05.03.538,memory_pilot_most_recent,2022.2.4,Win32,143.9263097,,right,1,1.4012,0,46,46,46,1,2238436322-314047.jpg,2238425482-313537.jpg,2,right,,
,,,A2M3FPQF852HW4,30,male,9,2022-11-15_09h05.03.538,memory_pilot_most_recent,2022.2.4,Win32,143.9263097,,left,0,1.1129,0,47,47,47,1,2964217461-294238.jpg,2898634397-367080.jpg,3,right,,
,,,A2M3FPQF852HW4,30,male,9,2022-11-15_09h05.03.538,memory_pilot_most_recent,2022.2.4,Win32,143.9263097,,left,1,1.2651,0,48,48,48,1,2901952513-70703.jpg,2864907361-287062.jpg,1,left,,
,,,A2M3FPQF852HW4,30,male,9,2022-11-15_09h05.03.538,memory_pilot_most_recent,2022.2.4,Win32,143.9263097,,left,1,2.0585,0,49,49,49,1,2901939379-143479.jpg,2981240424-145794.jpg,3,left,,
,,,A2M3FPQF852HW4,30,male,9,2022-11-15_09h05.03.538,memory_pilot_most_recent,2022.2.4,Win32,143.9263097,,right,1,1.07,0,50,50,50,1,2898618440-216547.jpg,2446759803-49249.jpg,2,right,,
,,,A2M3FPQF852HW4,30,male,9,2022-11-15_09h05.03.538,memory_pilot_most_recent,2022.2.4,Win32,143.9263097,,left,1,1.3333,0,51,51,51,1,2874301407-363895.jpg,2901947323-70275.jpg,3,left,,
,,,A2M3FPQF852HW4,30,male,9,2022-11-15_09h05.03.538,memory_pilot_most_recent,2022.2.4,Win32,143.9263097,,right,1,2.7227,0,52,52,52,1,2592380177-354628.jpg,2512875899-126682.jpg,2,right,,
,,,A2M3FPQF852HW4,30,male,9,2022-11-15_09h05.03.538,memory_pilot_most_recent,2022.2.4,Win32,143.9263097,,left,0,1.3414,0,53,53,53,1,2446759803-49250.jpg,2898635428-69104.jpg,1,right,,
,,,A2M3FPQF852HW4,30,male,9,2022-11-15_09h05.03.538,memory_pilot_most_recent,2022.2.4,Win32,143.9263097,,left,1,1.6725,0,54,54,54,1,2901947423-70311.jpg,2238577590-185467.jpg,3,left,,
,,,A2M3FPQF852HW4,30,male,9,2022-11-15_09h05.03.538,memory_pilot_most_recent,2022.2.4,Win32,143.9263097,,left,1,1.0329,0,55,55,55,1,2460547467-349422.jpg,2868487415-213924.jpg,2,left,,
,,,A2M3FPQF852HW4,30,male,9,2022-11-15_09h05.03.538,memory_pilot_most_recent,2022.2.4,Win32,143.9263097,,left,1,1.3987,0,56,56,56,1,2868474407-362883.jpg,2238516618-25604.jpg,1,left,,
,,,A2M3FPQF852HW4,30,male,9,2022-11-15_09h05.03.538,memory_pilot_most_recent,2022.2.4,Win32,143.9263097,,right,1,1.2645,0,57,57,57,1,2989726338-74002.jpg,2864907432-362042.jpg,3,right,,
,,,A2M3FPQF852HW4,30,male,9,2022-11-15_09h05.03.538,memory_pilot_most_recent,2022.2.4,Win32,143.9263097,,right,1,1.7852,0,58,58,58,1,2898618327-366317.jpg,2901941401-292798.jpg,1,right,,
,,,A2M3FPQF852HW4,30,male,9,2022-11-15_09h05.03.538,memory_pilot_most_recent,2022.2.4,Win32,143.9263097,,right,1,1.471,0,59,59,59,1,2868479517-363220.jpg,2898635427-367120.jpg,2,right,,
,,,A2M3FPQF852HW4,30,male,9,2022-11-15_09h05.03.538,memory_pilot_most_recent,2022.2.4,Win32,143.9263097,,,,,,,,,,,,,,space,4.6424
