button.numClicks,button.timesOn,button.timesOff,workID,Age,Gender,Hours slept (last night),date,expName,psychopyVersion,OS,frameRate,space_key_responce.keys,test_test_response.keys,test_test_response.corr,test_test_response.rt,trials_2.thisRepN,trials_2.thisTrialN,trials_2.thisN,trials_2.thisIndex,trials_2.ran,image1,image2,layer,correct,key_resp_end_2.keys,key_resp_end_2.rt
1,[1.871500000000001],[1.871600000023843],A3MXI2O3JZ0TZH,44,female,7,2022-11-15_08h15.10.483,memory_pilot_most_recent,2022.2.4,Win32,59.76571838,,,,,,,,,,,,,,,
,,,A3MXI2O3JZ0TZH,44,female,7,2022-11-15_08h15.10.483,memory_pilot_most_recent,2022.2.4,Win32,59.76571838,,,,,,,,,,,,,,,
,,,A3MXI2O3JZ0TZH,44,female,7,2022-11-15_08h15.10.483,memory_pilot_most_recent,2022.2.4,Win32,59.76571838,,,,,,,,,,,,,,,
,,,A3MXI2O3JZ0TZH,44,female,7,2022-11-15_08h15.10.483,memory_pilot_most_recent,2022.2.4,Win32,59.76571838,,,,,,,,,,,,,,,
,,,A3MXI2O3JZ0TZH,44,female,7,2022-11-15_08h15.10.483,memory_pilot_most_recent,2022.2.4,Win32,59.76571838,,,,,,,,,,,,,,,
,,,A3MXI2O3JZ0TZH,44,female,7,2022-11-15_08h15.10.483,memory_pilot_most_recent,2022.2.4,Win32,59.76571838,,,,,,,,,,,,,,,
,,,A3MXI2O3JZ0TZH,44,female,7,2022-11-15_08h15.10.483,memory_pilot_most_recent,2022.2.4,Win32,59.76571838,,right,0,8.9659,0,0,0,0,1,2898634397-367080.jpg,2237944827-301472.jpg,1,left,,
,,,A3MXI2O3JZ0TZH,44,female,7,2022-11-15_08h15.10.483,memory_pilot_most_recent,2022.2.4,Win32,59.76571838,,left,1,4.3042,0,1,1,1,1,2964223381-294447.jpg,2898628438-68785.jpg,3,left,,
,,,A3MXI2O3JZ0TZH,44,female,7,2022-11-15_08h15.10.483,memory_pilot_most_recent,2022.2.4,Win32,59.76571838,,left,0,2.2902,0,2,2,2,1,2427873763-47290.jpg,2981231403-71642.jpg,3,right,,
,,,A3MXI2O3JZ0TZH,44,female,7,2022-11-15_08h15.10.483,memory_pilot_most_recent,2022.2.4,Win32,59.76571838,,left,1,2.0445,0,3,3,3,1,2238428357-313623.jpg,2984615361-295509.jpg,2,left,,
,,,A3MXI2O3JZ0TZH,44,female,7,2022-11-15_08h15.10.483,memory_pilot_most_recent,2022.2.4,Win32,59.76571838,,left,0,2.1118,0,4,4,4,1,2981246400-220363.jpg,2868474407-362883.jpg,2,right,,
,,,A3MXI2O3JZ0TZH,44,female,7,2022-11-15_08h15.10.483,memory_pilot_most_recent,2022.2.4,Win32,59.76571838,,left,0,1.6479,0,5,5,5,1,2238569117-333045.jpg,2446759347-347016.jpg,3,right,,
,,,A3MXI2O3JZ0TZH,44,female,7,2022-11-15_08h15.10.483,memory_pilot_most_recent,2022.2.4,Win32,59.76571838,,right,1,0.915,0,6,6,6,1,2981235446-294901.jpg,2460547467-349421.jpg,3,right,,
,,,A3MXI2O3JZ0TZH,44,female,7,2022-11-15_08h15.10.483,memory_pilot_most_recent,2022.2.4,Win32,59.76571838,,left,0,0.8479,0,7,7,7,1,2512876023-52283.jpg,2898633421-291973.jpg,1,right,,
,,,A3MXI2O3JZ0TZH,44,female,7,2022-11-15_08h15.10.483,memory_pilot_most_recent,2022.2.4,Win32,59.76571838,,left,1,1.3918,0,8,8,8,1,2449442529-124446.jpg,2446759803-49251.jpg,1,left,,
,,,A3MXI2O3JZ0TZH,44,female,7,2022-11-15_08h15.10.483,memory_pilot_most_recent,2022.2.4,Win32,59.76571838,,left,0,1.5781,0,9,9,9,1,2898618440-216545.jpg,2460547467-349422.jpg,1,right,,
,,,A3MXI2O3JZ0TZH,44,female,7,2022-11-15_08h15.10.483,memory_pilot_most_recent,2022.2.4,Win32,59.76571838,,right,1,0.9143,0,10,10,10,1,2864904453-63933.jpg,2883256307-365057.jpg,3,right,,
,,,A3MXI2O3JZ0TZH,44,female,7,2022-11-15_08h15.10.483,memory_pilot_most_recent,2022.2.4,Win32,59.76571838,,left,1,0.6952,0,11,11,11,1,2901947423-70311.jpg,2238577590-185467.jpg,3,left,,
,,,A3MXI2O3JZ0TZH,44,female,7,2022-11-15_08h15.10.483,memory_pilot_most_recent,2022.2.4,Win32,59.76571838,,left,1,1.07,0,12,12,12,1,2898635427-367120.jpg,2898621427-366486.jpg,3,left,,
,,,A3MXI2O3JZ0TZH,44,female,7,2022-11-15_08h15.10.483,memory_pilot_most_recent,2022.2.4,Win32,59.76571838,,right,0,0.7933,0,13,13,13,1,2874301407-363895.jpg,2883264368-67631.jpg,1,left,,
,,,A3MXI2O3JZ0TZH,44,female,7,2022-11-15_08h15.10.483,memory_pilot_most_recent,2022.2.4,Win32,59.76571838,,left,0,0.7434,0,14,14,14,1,2238480803-19739.jpg,2868475410-213219.jpg,2,right,,
,,,A3MXI2O3JZ0TZH,44,female,7,2022-11-15_08h15.10.483,memory_pilot_most_recent,2022.2.4,Win32,59.76571838,,right,1,0.7346,0,15,15,15,1,2986408373-73286.jpg,2449442529-124445.jpg,2,right,,
,,,A3MXI2O3JZ0TZH,44,female,7,2022-11-15_08h15.10.483,memory_pilot_most_recent,2022.2.4,Win32,59.76571838,,left,0,0.6663,0,16,16,16,1,2901947423-70310.jpg,2864907432-362042.jpg,2,right,,
,,,A3MXI2O3JZ0TZH,44,female,7,2022-11-15_08h15.10.483,memory_pilot_most_recent,2022.2.4,Win32,59.76571838,,left,1,1.1168,0,17,17,17,1,2883268412-365898.jpg,2984615361-295510.jpg,2,left,,
,,,A3MXI2O3JZ0TZH,44,female,7,2022-11-15_08h15.10.483,memory_pilot_most_recent,2022.2.4,Win32,59.76571838,,left,1,3.78,0,18,18,18,1,2452380832-348593.jpg,2238328478-11678.jpg,1,left,,
,,,A3MXI2O3JZ0TZH,44,female,7,2022-11-15_08h15.10.483,memory_pilot_most_recent,2022.2.4,Win32,59.76571838,,right,1,0.7997,0,19,19,19,1,2898625336-291572.jpg,2898635428-69104.jpg,3,right,,
,,,A3MXI2O3JZ0TZH,44,female,7,2022-11-15_08h15.10.483,memory_pilot_most_recent,2022.2.4,Win32,59.76571838,,left,1,0.6155,0,20,20,20,1,2898624426-291546.jpg,2981236443-71859.jpg,2,left,,
,,,A3MXI2O3JZ0TZH,44,female,7,2022-11-15_08h15.10.483,memory_pilot_most_recent,2022.2.4,Win32,59.76571838,,right,0,0.5105,0,21,21,21,1,2883254439-140941.jpg,2898632385-217136.jpg,2,left,,
,,,A3MXI2O3JZ0TZH,44,female,7,2022-11-15_08h15.10.483,memory_pilot_most_recent,2022.2.4,Win32,59.76571838,,left,0,0.4636,0,22,22,22,1,2238531493-28260.jpg,2575120738-55529.jpg,3,right,,
,,,A3MXI2O3JZ0TZH,44,female,7,2022-11-15_08h15.10.483,memory_pilot_most_recent,2022.2.4,Win32,59.76571838,,left,1,0.5695,0,23,23,23,1,2238580740-186218.jpg,2238550816-254000.jpg,1,left,,
,,,A3MXI2O3JZ0TZH,44,female,7,2022-11-15_08h15.10.483,memory_pilot_most_recent,2022.2.4,Win32,59.76571838,,right,1,0.7478,0,24,24,24,1,2901939327-367669.jpg,2986451363-73599.jpg,1,right,,
,,,A3MXI2O3JZ0TZH,44,female,7,2022-11-15_08h15.10.483,memory_pilot_most_recent,2022.2.4,Win32,59.76571838,,left,0,0.5142,0,25,25,25,1,2981246400-220365.jpg,2874307433-66280.jpg,2,right,,
,,,A3MXI2O3JZ0TZH,44,female,7,2022-11-15_08h15.10.483,memory_pilot_most_recent,2022.2.4,Win32,59.76571838,,left,1,0.5873,0,26,26,26,1,2901939379-143479.jpg,2981240424-145794.jpg,3,left,,
,,,A3MXI2O3JZ0TZH,44,female,7,2022-11-15_08h15.10.483,memory_pilot_most_recent,2022.2.4,Win32,59.76571838,,right,0,0.5185,0,27,27,27,1,2901952513-70703.jpg,2868469411-287540.jpg,2,left,,
,,,A3MXI2O3JZ0TZH,44,female,7,2022-11-15_08h15.10.483,memory_pilot_most_recent,2022.2.4,Win32,59.76571838,,left,1,0.517,0,28,28,28,1,2964216465-219242.jpg,2238544191-252422.jpg,1,left,,
,,,A3MXI2O3JZ0TZH,44,female,7,2022-11-15_08h15.10.483,memory_pilot_most_recent,2022.2.4,Win32,59.76571838,,right,1,0.9274,0,29,29,29,1,2986447332-371497.jpg,2512875899-126682.jpg,3,right,,
,,,A3MXI2O3JZ0TZH,44,female,7,2022-11-15_08h15.10.483,memory_pilot_most_recent,2022.2.4,Win32,59.76571838,,left,1,0.5227,0,30,30,30,1,2238572663-35822.jpg,2986419333-73361.jpg,1,left,,
,,,A3MXI2O3JZ0TZH,44,female,7,2022-11-15_08h15.10.483,memory_pilot_most_recent,2022.2.4,Win32,59.76571838,,left,1,0.751,0,31,31,31,1,2592380177-354629.jpg,2512875587-350044.jpg,3,left,,
,,,A3MXI2O3JZ0TZH,44,female,7,2022-11-15_08h15.10.483,memory_pilot_most_recent,2022.2.4,Win32,59.76571838,,right,0,0.4931,0,32,32,32,1,2238480677-317399.jpg,2238573546-258454.jpg,2,left,,
,,,A3MXI2O3JZ0TZH,44,female,7,2022-11-15_08h15.10.483,memory_pilot_most_recent,2022.2.4,Win32,59.76571838,,left,1,0.4672,0,33,33,33,1,2898618390-216538.jpg,2575120609-129862.jpg,3,left,,
,,,A3MXI2O3JZ0TZH,44,female,7,2022-11-15_08h15.10.483,memory_pilot_most_recent,2022.2.4,Win32,59.76571838,,left,0,0.4649,0,34,34,34,1,2984615358-72439.jpg,2449441881-272368.jpg,2,right,,
,,,A3MXI2O3JZ0TZH,44,female,7,2022-11-15_08h15.10.483,memory_pilot_most_recent,2022.2.4,Win32,59.76571838,,right,0,2.0335,0,35,35,35,1,2883268471-290842.jpg,2883268471-290843.jpg,1,left,,
,,,A3MXI2O3JZ0TZH,44,female,7,2022-11-15_08h15.10.483,memory_pilot_most_recent,2022.2.4,Win32,59.76571838,,left,1,0.3991,0,36,36,36,1,2446759803-49249.jpg,2898618440-216547.jpg,2,left,,
,,,A3MXI2O3JZ0TZH,44,female,7,2022-11-15_08h15.10.483,memory_pilot_most_recent,2022.2.4,Win32,59.76571838,,left,0,0.4725,0,37,37,37,1,2856919327-359676.jpg,2981241414-145842.jpg,1,right,,
,,,A3MXI2O3JZ0TZH,44,female,7,2022-11-15_08h15.10.483,memory_pilot_most_recent,2022.2.4,Win32,59.76571838,,right,0,1.0065,0,38,38,38,1,2592380177-354626.jpg,2238117096-228518.jpg,3,left,,
,,,A3MXI2O3JZ0TZH,44,female,7,2022-11-15_08h15.10.483,memory_pilot_most_recent,2022.2.4,Win32,59.76571838,,right,1,2.3846,0,39,39,39,1,2238480434-93829.jpg,2458347385-199723.jpg,1,right,,
,,,A3MXI2O3JZ0TZH,44,female,7,2022-11-15_08h15.10.483,memory_pilot_most_recent,2022.2.4,Win32,59.76571838,,left,0,0.5056,0,40,40,40,1,2901942428-69919.jpg,2901939379-143480.jpg,1,right,,
,,,A3MXI2O3JZ0TZH,44,female,7,2022-11-15_08h15.10.483,memory_pilot_most_recent,2022.2.4,Win32,59.76571838,,right,0,0.7389,0,41,41,41,1,2874302418-65979.jpg,2413147898-43548.jpg,1,left,,
,,,A3MXI2O3JZ0TZH,44,female,7,2022-11-15_08h15.10.483,memory_pilot_most_recent,2022.2.4,Win32,59.76571838,,left,1,0.6179,0,42,42,42,1,2874302418-65978.jpg,2898626385-216899.jpg,1,left,,
,,,A3MXI2O3JZ0TZH,44,female,7,2022-11-15_08h15.10.483,memory_pilot_most_recent,2022.2.4,Win32,59.76571838,,right,1,0.5331,0,43,43,43,1,2981231446-294732.jpg,2964218374-144967.jpg,3,right,,
,,,A3MXI2O3JZ0TZH,44,female,7,2022-11-15_08h15.10.483,memory_pilot_most_recent,2022.2.4,Win32,59.76571838,,right,1,1.0689,0,44,44,44,1,2609793677-355397.jpg,2874303365-214262.jpg,1,right,,
,,,A3MXI2O3JZ0TZH,44,female,7,2022-11-15_08h15.10.483,memory_pilot_most_recent,2022.2.4,Win32,59.76571838,,left,0,1.1399,0,45,45,45,1,2883264367-365620.jpg,2238481928-19949.jpg,1,right,,
,,,A3MXI2O3JZ0TZH,44,female,7,2022-11-15_08h15.10.483,memory_pilot_most_recent,2022.2.4,Win32,59.76571838,,right,0,0.5667,0,46,46,46,1,2452381505-199546.jpg,2994401319-148290.jpg,3,left,,
,,,A3MXI2O3JZ0TZH,44,female,7,2022-11-15_08h15.10.483,memory_pilot_most_recent,2022.2.4,Win32,59.76571838,,left,0,3.4702,0,47,47,47,1,2458348012-349114.jpg,2964213381-294060.jpg,2,right,,
,,,A3MXI2O3JZ0TZH,44,female,7,2022-11-15_08h15.10.483,memory_pilot_most_recent,2022.2.4,Win32,59.76571838,,right,0,0.4402,0,48,48,48,1,2592379964-131054.jpg,2238479053-19457.jpg,2,left,,
,,,A3MXI2O3JZ0TZH,44,female,7,2022-11-15_08h15.10.483,memory_pilot_most_recent,2022.2.4,Win32,59.76571838,,left,0,0.5523,0,49,49,49,1,2981246360-220352.jpg,2901948350-218459.jpg,3,right,,
,,,A3MXI2O3JZ0TZH,44,female,7,2022-11-15_08h15.10.483,memory_pilot_most_recent,2022.2.4,Win32,59.76571838,,left,1,0.4515,0,50,50,50,1,2446758985-197609.jpg,2864909447-362144.jpg,2,left,,
,,,A3MXI2O3JZ0TZH,44,female,7,2022-11-15_08h15.10.483,memory_pilot_most_recent,2022.2.4,Win32,59.76571838,,right,0,0.4524,0,51,51,51,1,2898617468-68274.jpg,2964207374-144577.jpg,3,left,,
,,,A3MXI2O3JZ0TZH,44,female,7,2022-11-15_08h15.10.483,memory_pilot_most_recent,2022.2.4,Win32,59.76571838,,left,0,2.5113,0,52,52,52,1,2238555262-330312.jpg,2898618444-142233.jpg,2,right,,
,,,A3MXI2O3JZ0TZH,44,female,7,2022-11-15_08h15.10.483,memory_pilot_most_recent,2022.2.4,Win32,59.76571838,,right,1,0.7854,0,53,53,53,1,2238480980-168129.jpg,2238560245-182099.jpg,3,right,,
,,,A3MXI2O3JZ0TZH,44,female,7,2022-11-15_08h15.10.483,memory_pilot_most_recent,2022.2.4,Win32,59.76571838,,left,1,1.6359,0,54,54,54,1,2874299429-139695.jpg,2446760917-347439.jpg,3,left,,
,,,A3MXI2O3JZ0TZH,44,female,7,2022-11-15_08h15.10.483,memory_pilot_most_recent,2022.2.4,Win32,59.76571838,,right,1,0.4999,0,55,55,55,1,2901946436-293242.jpg,2238481198-19822.jpg,2,right,,
,,,A3MXI2O3JZ0TZH,44,female,7,2022-11-15_08h15.10.483,memory_pilot_most_recent,2022.2.4,Win32,59.76571838,,right,0,0.836,0,56,56,56,1,2901941401-292798.jpg,2981243412-370222.jpg,2,left,,
,,,A3MXI2O3JZ0TZH,44,female,7,2022-11-15_08h15.10.483,memory_pilot_most_recent,2022.2.4,Win32,59.76571838,,left,1,0.5574,0,57,57,57,1,2238425482-313537.jpg,2238471391-240918.jpg,1,left,,
,,,A3MXI2O3JZ0TZH,44,female,7,2022-11-15_08h15.10.483,memory_pilot_most_recent,2022.2.4,Win32,59.76571838,,left,1,0.9827,0,58,58,58,1,2864910426-287204.jpg,2874299429-139694.jpg,2,left,,
,,,A3MXI2O3JZ0TZH,44,female,7,2022-11-15_08h15.10.483,memory_pilot_most_recent,2022.2.4,Win32,59.76571838,,right,0,0.4569,0,59,59,59,1,2460547508-51571.jpg,2460547291-274110.jpg,1,left,,
,,,A3MXI2O3JZ0TZH,44,female,7,2022-11-15_08h15.10.483,memory_pilot_most_recent,2022.2.4,Win32,59.76571838,,,,,,,,,,,,,,space,8.1825
