,layer,correct,test_test_response.keys,test_test_response.corr,test_test_response.rt,trials_2.thisRepN,trials_2.thisTrialN,trials_2.thisN,trials_2.thisIndex,trials_2.ran,image1,image2,subject
0,2.0,right,left,0.0,2.246,0.0,0.0,0.0,0.0,1.0,AMERICAN_PIPIT_1.jpg,OCELLATED_TURKEY_1.jpg,A1122EUMFXHF38
1,3.0,left,right,0.0,1.854,0.0,1.0,1.0,1.0,1.0,AFRICAN_PIED_HORNBILL_5.jpg,CAPUCHINBIRD_2.jpg,A1122EUMFXHF38
2,3.0,right,right,1.0,1.598,0.0,2.0,2.0,2.0,1.0,WATTLED_LAPWING_3.jpg,HAWAIIAN_GOOSE_4.jpg,A1122EUMFXHF38
3,1.0,right,left,0.0,2.202,0.0,3.0,3.0,3.0,1.0,PEACOCK_2.jpg,BROWN_NOODY_3.jpg,A1122EUMFXHF38
4,3.0,right,right,1.0,1.705,0.0,4.0,4.0,4.0,1.0,BLACK_THROATED_BUSHTIT_1.jpg,CHUKAR_PARTRIDGE_5.jpg,A1122EUMFXHF38
5,3.0,left,right,0.0,1.404,0.0,5.0,5.0,5.0,1.0,GOLDEN_CHEEKED_WARBLER_2.jpg,WHITE_THROATED_BEE_EATER_1.jpg,A1122EUMFXHF38
6,2.0,right,left,0.0,1.723,0.0,6.0,6.0,6.0,1.0,CALIFORNIA_GULL_2.jpg,PARUS_MAJOR_1.jpg,A1122EUMFXHF38
7,1.0,left,right,0.0,1.792,0.0,7.0,7.0,7.0,1.0,ARARIPE_MANAKIN_4.jpg,KIWI_3.jpg,A1122EUMFXHF38
8,3.0,left,right,0.0,1.827,0.0,8.0,8.0,8.0,1.0,KAGU_5.jpg,DEMOISELLE_CRANE_1.jpg,A1122EUMFXHF38
9,2.0,left,left,1.0,3.227,0.0,9.0,9.0,9.0,1.0,BALI_STARLING_1.jpg,PURPLE_FINCH_2.jpg,A1122EUMFXHF38
10,3.0,left,right,0.0,1.651,0.0,10.0,10.0,10.0,1.0,OVENBIRD_5.jpg,SHORT_BILLED_DOWITCHER_5.jpg,A1122EUMFXHF38
11,2.0,right,left,0.0,1.721,0.0,11.0,11.0,11.0,1.0,INDIAN_PITTA_2.jpg,CRESTED_CARACARA_4.jpg,A1122EUMFXHF38
12,1.0,left,left,1.0,1.709,0.0,12.0,12.0,12.0,1.0,SHOEBILL_3.jpg,EASTERN_MEADOWLARK_1.jpg,A1122EUMFXHF38
13,3.0,right,right,1.0,1.783,0.0,13.0,13.0,13.0,1.0,DUSKY_ROBIN_5.jpg,RUBY_THROATED_HUMMINGBIRD_2.jpg,A1122EUMFXHF38
14,2.0,right,right,1.0,1.412,0.0,14.0,14.0,14.0,1.0,NORTHERN_GANNET_2.jpg,SCARLET_TANAGER_2.jpg,A1122EUMFXHF38
15,3.0,left,right,0.0,1.534,0.0,15.0,15.0,15.0,1.0,EASTERN_TOWEE_2.jpg,NORTHERN_BEARDLESS_TYRANNULET_5.jpg,A1122EUMFXHF38
16,2.0,right,right,1.0,1.376,0.0,16.0,16.0,16.0,1.0,EUROPEAN_GOLDFINCH_4.jpg,CASPIAN_TERN_1.jpg,A1122EUMFXHF38
17,3.0,right,right,1.0,1.223,0.0,17.0,17.0,17.0,1.0,CANARY_1.jpg,CRESTED_NUTHATCH_2.jpg,A1122EUMFXHF38
18,3.0,left,right,0.0,1.955,0.0,18.0,18.0,18.0,1.0,PEACOCK_3.jpg,CHATTERING_LORY_2.jpg,A1122EUMFXHF38
19,3.0,right,right,1.0,1.728,0.0,19.0,19.0,19.0,1.0,CRIMSON_SUNBIRD_5.jpg,ECUADORIAN_HILLSTAR_5.jpg,A1122EUMFXHF38
20,2.0,left,right,0.0,1.693,0.0,20.0,20.0,20.0,1.0,PINK_ROBIN_4.jpg,ALBATROSS_4.jpg,A1122EUMFXHF38
21,1.0,left,right,0.0,1.309,0.0,21.0,21.0,21.0,1.0,GRAY_KINGBIRD_5.jpg,BALD_EAGLE_2.jpg,A1122EUMFXHF38
22,2.0,right,right,1.0,1.286,0.0,22.0,22.0,22.0,1.0,GAMBELS_QUAIL_1.jpg,LESSER_ADJUTANT_5.jpg,A1122EUMFXHF38
23,1.0,left,right,0.0,2.261,0.0,23.0,23.0,23.0,1.0,TASMANIAN_HEN_5.jpg,GREEN_BROADBILL_1.jpg,A1122EUMFXHF38
24,1.0,right,right,1.0,1.674,0.0,24.0,24.0,24.0,1.0,CANARY_2.jpg,ASIAN_CRESTED_IBIS_4.jpg,A1122EUMFXHF38
25,2.0,right,left,0.0,1.71,0.0,25.0,25.0,25.0,1.0,GOULDIAN_FINCH_4.jpg,GREY_PLOVER_1.jpg,A1122EUMFXHF38
26,2.0,left,right,0.0,1.311,0.0,26.0,26.0,26.0,1.0,INDIGO_BUNTING_1.jpg,NORTHERN_GANNET_1.jpg,A1122EUMFXHF38
27,3.0,left,right,0.0,1.302,0.0,27.0,27.0,27.0,1.0,LESSER_ADJUTANT_4.jpg,FAIRY_TERN_3.jpg,A1122EUMFXHF38
28,2.0,left,right,0.0,1.604,0.0,28.0,28.0,28.0,1.0,LITTLE_AUK_5.jpg,ORANGE_BRESTED_BUNTING_3.jpg,A1122EUMFXHF38
29,2.0,right,left,0.0,2.808,0.0,29.0,29.0,29.0,1.0,MASKED_BOOBY_5.jpg,PYGMY_KINGFISHER_5.jpg,A1122EUMFXHF38
30,1.0,right,right,1.0,2.039,0.0,30.0,30.0,30.0,1.0,AMERICAN_GOLDFINCH_4.jpg,NORTHERN_JACANA_3.jpg,A1122EUMFXHF38
31,2.0,right,right,1.0,1.289,0.0,31.0,31.0,31.0,1.0,CAATINGA_CACHOLOTE_4.jpg,KILLDEAR_2.jpg,A1122EUMFXHF38
32,3.0,left,right,0.0,2.335,0.0,32.0,32.0,32.0,1.0,LARK_BUNTING_2.jpg,CACTUS_WREN_3.jpg,A1122EUMFXHF38
33,1.0,left,right,0.0,1.114,0.0,33.0,33.0,33.0,1.0,INCA_TERN_4.jpg,ELLIOTS__PHEASANT_4.jpg,A1122EUMFXHF38
34,3.0,right,right,1.0,1.761,0.0,34.0,34.0,34.0,1.0,FAIRY_TERN_4.jpg,IVORY_GULL_1.jpg,A1122EUMFXHF38
35,1.0,right,left,0.0,1.193,0.0,35.0,35.0,35.0,1.0,SNOWY_OWL_5.jpg,RUFOUS_KINGFISHER_1.jpg,A1122EUMFXHF38
36,2.0,right,right,1.0,1.34,0.0,36.0,36.0,36.0,1.0,PAINTED_BUNTING_3.jpg,EUROPEAN_TURTLE_DOVE_3.jpg,A1122EUMFXHF38
37,2.0,right,left,0.0,1.389,0.0,37.0,37.0,37.0,1.0,HAMERKOP_1.jpg,MAGPIE_GOOSE_5.jpg,A1122EUMFXHF38
38,1.0,left,right,0.0,1.563,0.0,38.0,38.0,38.0,1.0,GYRFALCON_1.jpg,OSTRICH_1.jpg,A1122EUMFXHF38
39,3.0,right,right,1.0,1.67,0.0,39.0,39.0,39.0,1.0,CAPE_LONGCLAW_2.jpg,BREWERS_BLACKBIRD_3.jpg,A1122EUMFXHF38
40,2.0,right,left,0.0,1.206,0.0,40.0,40.0,40.0,1.0,VULTURINE_GUINEAFOWL_4.jpg,RUBY_THROATED_HUMMINGBIRD_1.jpg,A1122EUMFXHF38
41,3.0,left,right,0.0,2.083,0.0,41.0,41.0,41.0,1.0,RED_HEADED_WOODPECKER_5.jpg,COLLARED_ARACARI_1.jpg,A1122EUMFXHF38
42,2.0,right,right,1.0,1.174,0.0,42.0,42.0,42.0,1.0,BROWN_THRASHER_4.jpg,FLAME_BOWERBIRD_3.jpg,A1122EUMFXHF38
43,1.0,right,right,1.0,1.224,0.0,43.0,43.0,43.0,1.0,NORTHERN_MOCKINGBIRD_4.jpg,WHITE_CHEEKED_TURACO_5.jpg,A1122EUMFXHF38
44,2.0,right,left,0.0,1.1,0.0,44.0,44.0,44.0,1.0,AMERICAN_FLAMINGO_5.jpg,CERULEAN_WARBLER_1.jpg,A1122EUMFXHF38
45,1.0,right,left,0.0,1.582,0.0,45.0,45.0,45.0,1.0,SNOWY_EGRET_2.jpg,ALPINE_CHOUGH_4.jpg,A1122EUMFXHF38
46,1.0,left,right,0.0,1.032,0.0,46.0,46.0,46.0,1.0,GOLDEN_CHLOROPHONIA_5.jpg,ROADRUNNER_2.jpg,A1122EUMFXHF38
47,1.0,left,right,0.0,1.855,0.0,47.0,47.0,47.0,1.0,BROWN_THRASHER_3.jpg,DOUBLE_EYED_FIG_PARROT_3.jpg,A1122EUMFXHF38
48,3.0,left,right,0.0,2.542,0.0,48.0,48.0,48.0,1.0,RUBY_THROATED_HUMMINGBIRD_3.jpg,NORTHERN_SHOVELER_1.jpg,A1122EUMFXHF38
49,2.0,left,left,1.0,1.304,0.0,49.0,49.0,49.0,1.0,MALACHITE_KINGFISHER_2.jpg,INCA_TERN_2.jpg,A1122EUMFXHF38
50,1.0,right,left,0.0,1.343,0.0,50.0,50.0,50.0,1.0,CASSOWARY_2.jpg,INLAND_DOTTEREL_4.jpg,A1122EUMFXHF38
51,1.0,left,left,1.0,1.66,0.0,51.0,51.0,51.0,1.0,IVORY_GULL_3.jpg,INDIGO_FLYCATCHER_2.jpg,A1122EUMFXHF38
52,1.0,left,left,1.0,1.49,0.0,52.0,52.0,52.0,1.0,DOUBLE_BRESTED_CORMARANT_5.jpg,GILDED_FLICKER_2.jpg,A1122EUMFXHF38
53,3.0,left,left,1.0,2.113,0.0,53.0,53.0,53.0,1.0,AMERICAN_PIPIT_5.jpg,HEPATIC_TANAGER_5.jpg,A1122EUMFXHF38
54,1.0,right,right,1.0,1.235,0.0,54.0,54.0,54.0,1.0,OSTRICH_3.jpg,MYNA_1.jpg,A1122EUMFXHF38
55,1.0,right,right,1.0,1.892,0.0,55.0,55.0,55.0,1.0,DOUBLE_BRESTED_CORMARANT_4.jpg,STRIPPED_SWALLOW_1.jpg,A1122EUMFXHF38
56,3.0,left,right,0.0,0.966,0.0,56.0,56.0,56.0,1.0,ASIAN_DOLLARD_BIRD_2.jpg,VIOLET_GREEN_SWALLOW_4.jpg,A1122EUMFXHF38
57,1.0,left,right,0.0,1.624,0.0,57.0,57.0,57.0,1.0,SPLENDID_WREN_1.jpg,POMARINE_JAEGER_5.jpg,A1122EUMFXHF38
58,3.0,right,right,1.0,2.225,0.0,58.0,58.0,58.0,1.0,AFRICAN_OYSTER_CATCHER_2.jpg,CASSOWARY_1.jpg,A1122EUMFXHF38
59,2.0,right,right,1.0,0.015,0.0,59.0,59.0,59.0,1.0,CALIFORNIA_GULL_1.jpg,VERMILION_FLYCATHER_3.jpg,A1122EUMFXHF38
60,3.0,left,right,0.0,14.9129,0.0,0.0,0.0,0.0,1.0,MAGPIE_GOOSE_5.jpg,OYSTER_CATCHER_3.jpg,A1I5KX8TP3K5L2
61,1.0,right,left,0.0,2.55,0.0,1.0,1.0,1.0,1.0,EASTERN_MEADOWLARK_1.jpg,SHOEBILL_3.jpg,A1I5KX8TP3K5L2
62,3.0,left,right,0.0,1.9966,0.0,2.0,2.0,2.0,1.0,LESSER_ADJUTANT_5.jpg,RED_HEADED_WOODPECKER_1.jpg,A1I5KX8TP3K5L2
63,1.0,left,left,1.0,4.1116,0.0,3.0,3.0,3.0,1.0,SCARLET_TANAGER_2.jpg,BEARDED_BARBET_2.jpg,A1I5KX8TP3K5L2
64,2.0,left,left,1.0,1.656,0.0,4.0,4.0,4.0,1.0,CERULEAN_WARBLER_1.jpg,AMERICAN_FLAMINGO_5.jpg,A1I5KX8TP3K5L2
65,1.0,left,left,1.0,1.2299,0.0,5.0,5.0,5.0,1.0,INLAND_DOTTEREL_4.jpg,CASSOWARY_2.jpg,A1I5KX8TP3K5L2
66,2.0,right,right,1.0,2.0785,0.0,6.0,6.0,6.0,1.0,NORTHERN_GANNET_1.jpg,INDIGO_BUNTING_1.jpg,A1I5KX8TP3K5L2
67,3.0,left,right,0.0,1.2946,0.0,7.0,7.0,7.0,1.0,OVENBIRD_5.jpg,SHORT_BILLED_DOWITCHER_5.jpg,A1I5KX8TP3K5L2
68,3.0,left,right,0.0,1.5862,0.0,8.0,8.0,8.0,1.0,OCELLATED_TURKEY_1.jpg,PURPLE_SWAMPHEN_4.jpg,A1I5KX8TP3K5L2
69,1.0,right,right,1.0,1.5274,0.0,9.0,9.0,9.0,1.0,AMERICAN_GOLDFINCH_4.jpg,NORTHERN_JACANA_3.jpg,A1I5KX8TP3K5L2
70,1.0,left,left,1.0,1.2417,0.0,10.0,10.0,10.0,1.0,VERMILION_FLYCATHER_3.jpg,INDIAN_BUSTARD_1.jpg,A1I5KX8TP3K5L2
71,2.0,left,right,0.0,1.4596,0.0,11.0,11.0,11.0,1.0,RUBY_THROATED_HUMMINGBIRD_1.jpg,VULTURINE_GUINEAFOWL_4.jpg,A1I5KX8TP3K5L2
72,2.0,right,left,0.0,1.8576,0.0,12.0,12.0,12.0,1.0,DOUBLE_BRESTED_CORMARANT_1.jpg,SPLENDID_WREN_1.jpg,A1I5KX8TP3K5L2
73,3.0,right,left,0.0,1.1192,0.0,13.0,13.0,13.0,1.0,DUSKY_ROBIN_5.jpg,RUBY_THROATED_HUMMINGBIRD_2.jpg,A1I5KX8TP3K5L2
74,3.0,left,left,1.0,1.0574,0.0,14.0,14.0,14.0,1.0,PEACOCK_3.jpg,CHATTERING_LORY_2.jpg,A1I5KX8TP3K5L2
75,1.0,right,right,1.0,1.1868,0.0,15.0,15.0,15.0,1.0,OSTRICH_5.jpg,CHUKAR_PARTRIDGE_5.jpg,A1I5KX8TP3K5L2
76,2.0,left,left,1.0,1.582,0.0,16.0,16.0,16.0,1.0,CASPIAN_TERN_1.jpg,EUROPEAN_GOLDFINCH_4.jpg,A1I5KX8TP3K5L2
77,1.0,left,left,1.0,2.2191,0.0,17.0,17.0,17.0,1.0,INCA_TERN_4.jpg,ELLIOTS__PHEASANT_4.jpg,A1I5KX8TP3K5L2
78,2.0,left,right,0.0,3.509,0.0,18.0,18.0,18.0,1.0,ASIAN_CRESTED_IBIS_4.jpg,OYSTER_CATCHER_2.jpg,A1I5KX8TP3K5L2
79,3.0,right,left,0.0,2.4152,0.0,19.0,19.0,19.0,1.0,COLLARED_ARACARI_1.jpg,RED_HEADED_WOODPECKER_5.jpg,A1I5KX8TP3K5L2
80,1.0,left,right,0.0,2.3124,0.0,20.0,20.0,20.0,1.0,AFRICAN_PIED_HORNBILL_5.jpg,KIWI_4.jpg,A1I5KX8TP3K5L2
81,2.0,right,left,0.0,1.479,0.0,21.0,21.0,21.0,1.0,HOUSE_FINCH_2.jpg,GOLDEN_CHEEKED_WARBLER_2.jpg,A1I5KX8TP3K5L2
82,1.0,right,right,1.0,3.5356,0.0,22.0,22.0,22.0,1.0,BALD_EAGLE_2.jpg,GRAY_KINGBIRD_5.jpg,A1I5KX8TP3K5L2
83,3.0,left,right,0.0,2.4755,0.0,23.0,23.0,23.0,1.0,PARUS_MAJOR_1.jpg,PINK_ROBIN_3.jpg,A1I5KX8TP3K5L2
84,1.0,right,right,1.0,1.9066,0.0,24.0,24.0,24.0,1.0,SCARLET_IBIS_3.jpg,CRESTED_NUTHATCH_2.jpg,A1I5KX8TP3K5L2
85,2.0,right,left,0.0,2.2577,0.0,25.0,25.0,25.0,1.0,ORANGE_BRESTED_BUNTING_3.jpg,LITTLE_AUK_5.jpg,A1I5KX8TP3K5L2
86,1.0,right,left,0.0,4.1885,0.0,26.0,26.0,26.0,1.0,PEACOCK_5.jpg,KILLDEAR_2.jpg,A1I5KX8TP3K5L2
87,3.0,left,left,1.0,5.107,0.0,27.0,27.0,27.0,1.0,ARARIPE_MANAKIN_4.jpg,BORNEAN_LEAFBIRD_3.jpg,A1I5KX8TP3K5L2
88,1.0,left,left,1.0,3.6092,0.0,28.0,28.0,28.0,1.0,TASMANIAN_HEN_5.jpg,GREEN_BROADBILL_1.jpg,A1I5KX8TP3K5L2
89,2.0,left,right,0.0,16.1119,0.0,29.0,29.0,29.0,1.0,EASTERN_TOWEE_2.jpg,GOLDEN_CHLOROPHONIA_1.jpg,A1I5KX8TP3K5L2
90,2.0,left,right,0.0,2.5144,0.0,30.0,30.0,30.0,1.0,MALACHITE_KINGFISHER_2.jpg,INCA_TERN_2.jpg,A1I5KX8TP3K5L2
91,3.0,left,left,1.0,1.5405,0.0,31.0,31.0,31.0,1.0,RUBY_THROATED_HUMMINGBIRD_3.jpg,NORTHERN_SHOVELER_1.jpg,A1I5KX8TP3K5L2
92,3.0,left,right,0.0,5.8598,0.0,32.0,32.0,32.0,1.0,BALI_STARLING_1.jpg,IBERIAN_MAGPIE_1.jpg,A1I5KX8TP3K5L2
93,3.0,left,right,0.0,2.1967,0.0,33.0,33.0,33.0,1.0,STRIPPED_SWALLOW_1.jpg,GO_AWAY_BIRD_5.jpg,A1I5KX8TP3K5L2
94,1.0,left,right,0.0,5.6492,0.0,34.0,34.0,34.0,1.0,KAGU_5.jpg,RED_BEARDED_BEE_EATER_3.jpg,A1I5KX8TP3K5L2
95,2.0,right,left,0.0,7.4107,0.0,35.0,35.0,35.0,1.0,GREEN_MAGPIE_1.jpg,AMERICAN_PIPIT_5.jpg,A1I5KX8TP3K5L2
96,1.0,left,right,0.0,1.1931,0.0,36.0,36.0,36.0,1.0,IVORY_GULL_3.jpg,INDIGO_FLYCATCHER_2.jpg,A1I5KX8TP3K5L2
97,2.0,left,left,1.0,1.3928,0.0,37.0,37.0,37.0,1.0,GYRFALCON_1.jpg,CINNAMON_ATTILA_2.jpg,A1I5KX8TP3K5L2
98,2.0,left,right,0.0,1.1619,0.0,38.0,38.0,38.0,1.0,LARK_BUNTING_2.jpg,KING_VULTURE_3.jpg,A1I5KX8TP3K5L2
99,1.0,left,left,1.0,1.0634,0.0,39.0,39.0,39.0,1.0,CRESTED_CARACARA_4.jpg,FAIRY_PENGUIN_5.jpg,A1I5KX8TP3K5L2
100,3.0,right,right,1.0,1.0208,0.0,40.0,40.0,40.0,1.0,BOBOLINK_3.jpg,ALPINE_CHOUGH_4.jpg,A1I5KX8TP3K5L2
101,1.0,left,right,0.0,0.9486,0.0,41.0,41.0,41.0,1.0,EUROPEAN_TURTLE_DOVE_3.jpg,TEAL_DUCK_2.jpg,A1I5KX8TP3K5L2
102,1.0,right,right,1.0,1.103,0.0,42.0,42.0,42.0,1.0,GILDED_FLICKER_2.jpg,DOUBLE_BRESTED_CORMARANT_5.jpg,A1I5KX8TP3K5L2
103,3.0,right,left,0.0,1.6226,0.0,43.0,43.0,43.0,1.0,VERMILION_FLYCATHER_5.jpg,GOLDEN_CHLOROPHONIA_5.jpg,A1I5KX8TP3K5L2
104,3.0,left,right,0.0,1.8304,0.0,44.0,44.0,44.0,1.0,PYGMY_KINGFISHER_5.jpg,DOUBLE_EYED_FIG_PARROT_4.jpg,A1I5KX8TP3K5L2
105,1.0,right,right,1.0,1.9415,0.0,45.0,45.0,45.0,1.0,PEACOCK_2.jpg,BROWN_NOODY_3.jpg,A1I5KX8TP3K5L2
106,3.0,left,left,1.0,1.9801,0.0,46.0,46.0,46.0,1.0,BREWERS_BLACKBIRD_3.jpg,CAPE_LONGCLAW_2.jpg,A1I5KX8TP3K5L2
107,2.0,left,left,1.0,1.0938,0.0,47.0,47.0,47.0,1.0,BROWN_THRASHER_3.jpg,OYSTER_CATCHER_4.jpg,A1I5KX8TP3K5L2
108,2.0,right,right,1.0,1.0007,0.0,48.0,48.0,48.0,1.0,SCARLET_MACAW_1.jpg,CASSOWARY_1.jpg,A1I5KX8TP3K5L2
109,2.0,right,right,1.0,1.8604,0.0,49.0,49.0,49.0,1.0,GREY_PLOVER_4.jpg,MYNA_1.jpg,A1I5KX8TP3K5L2
110,2.0,left,left,1.0,1.5181,0.0,50.0,50.0,50.0,1.0,PINK_ROBIN_4.jpg,ALBATROSS_4.jpg,A1I5KX8TP3K5L2
111,3.0,right,right,1.0,1.6174,0.0,51.0,51.0,51.0,1.0,PYGMY_KINGFISHER_2.jpg,WHITE_CHEEKED_TURACO_5.jpg,A1I5KX8TP3K5L2
112,1.0,right,right,1.0,1.395,0.0,52.0,52.0,52.0,1.0,SNOWY_OWL_5.jpg,RUFOUS_KINGFISHER_1.jpg,A1I5KX8TP3K5L2
113,2.0,left,right,0.0,1.9864,0.0,53.0,53.0,53.0,1.0,HAWAIIAN_GOOSE_4.jpg,HIMALAYAN_MONAL_2.jpg,A1I5KX8TP3K5L2
114,3.0,right,right,1.0,2.0397,0.0,54.0,54.0,54.0,1.0,ECUADORIAN_HILLSTAR_3.jpg,GREY_PLOVER_1.jpg,A1I5KX8TP3K5L2
115,2.0,left,left,1.0,2.5473,0.0,55.0,55.0,55.0,1.0,LESSER_ADJUTANT_4.jpg,RAINBOW_LORIKEET_5.jpg,A1I5KX8TP3K5L2
116,1.0,right,right,1.0,1.5528,0.0,56.0,56.0,56.0,1.0,ALBATROSS_2.jpg,ASIAN_DOLLARD_BIRD_2.jpg,A1I5KX8TP3K5L2
117,3.0,right,left,0.0,2.0711,0.0,57.0,57.0,57.0,1.0,FAIRY_TERN_4.jpg,IVORY_GULL_1.jpg,A1I5KX8TP3K5L2
118,2.0,right,right,1.0,1.7763,0.0,58.0,58.0,58.0,1.0,BROWN_THRASHER_4.jpg,FLAME_BOWERBIRD_3.jpg,A1I5KX8TP3K5L2
119,3.0,right,left,0.0,2.2161,0.0,59.0,59.0,59.0,1.0,CRIMSON_SUNBIRD_5.jpg,ECUADORIAN_HILLSTAR_5.jpg,A1I5KX8TP3K5L2
120,1.0,right,right,1.0,1.602199999,0.0,0.0,0.0,0.0,1.0,OSTRICH_3.jpg,MYNA_1.jpg,A1P2XKONWAOXHP
121,3.0,left,right,0.0,1.2151,0.0,1.0,1.0,1.0,1.0,DOUBLE_BRESTED_CORMARANT_5.jpg,CHINESE_POND_HERON_2.jpg,A1P2XKONWAOXHP
122,3.0,left,left,1.0,1.918700001,0.0,2.0,2.0,2.0,1.0,ASIAN_CRESTED_IBIS_4.jpg,IVORY_GULL_2.jpg,A1P2XKONWAOXHP
123,1.0,right,right,1.0,1.5086,0.0,3.0,3.0,3.0,1.0,WILSONS_BIRD_OF_PARADISE_4.jpg,IVORY_GULL_1.jpg,A1P2XKONWAOXHP
124,3.0,left,left,1.0,1.8226,0.0,4.0,4.0,4.0,1.0,GRAY_KINGBIRD_5.jpg,AFRICAN_FIREFINCH_3.jpg,A1P2XKONWAOXHP
125,1.0,right,left,0.0,2.238699999,0.0,5.0,5.0,5.0,1.0,GRANDALA_2.jpg,PYGMY_KINGFISHER_5.jpg,A1P2XKONWAOXHP
126,1.0,right,right,1.0,1.4071,0.0,6.0,6.0,6.0,1.0,SANDHILL_CRANE_4.jpg,PARUS_MAJOR_1.jpg,A1P2XKONWAOXHP
127,3.0,left,right,0.0,1.527900002,0.0,7.0,7.0,7.0,1.0,RUBY_THROATED_HUMMINGBIRD_2.jpg,DUSKY_ROBIN_5.jpg,A1P2XKONWAOXHP
128,2.0,right,left,0.0,2.011900002,0.0,8.0,8.0,8.0,1.0,SCARLET_MACAW_1.jpg,CASSOWARY_1.jpg,A1P2XKONWAOXHP
129,3.0,left,left,1.0,1.9295,0.0,9.0,9.0,9.0,1.0,LITTLE_AUK_5.jpg,BEARDED_BELLBIRD_1.jpg,A1P2XKONWAOXHP
130,3.0,left,left,1.0,1.8804,0.0,10.0,10.0,10.0,1.0,PINK_ROBIN_4.jpg,COMMON_IORA_4.jpg,A1P2XKONWAOXHP
131,2.0,right,right,1.0,1.314700001,0.0,11.0,11.0,11.0,1.0,GOLDEN_CHEEKED_WARBLER_3.jpg,BREWERS_BLACKBIRD_3.jpg,A1P2XKONWAOXHP
132,3.0,left,left,1.0,1.3271,0.0,12.0,12.0,12.0,1.0,GREY_PLOVER_1.jpg,ECUADORIAN_HILLSTAR_3.jpg,A1P2XKONWAOXHP
133,3.0,left,left,1.0,1.170700001,0.0,13.0,13.0,13.0,1.0,BROWN_THRASHER_3.jpg,BLACK_BAZA_4.jpg,A1P2XKONWAOXHP
134,3.0,left,left,1.0,1.4169,0.0,14.0,14.0,14.0,1.0,HAWAIIAN_GOOSE_4.jpg,WATTLED_LAPWING_3.jpg,A1P2XKONWAOXHP
135,3.0,left,left,1.0,1.906200001,0.0,15.0,15.0,15.0,1.0,AMERICAN_PIPIT_5.jpg,HEPATIC_TANAGER_5.jpg,A1P2XKONWAOXHP
136,2.0,right,left,0.0,2.377799999,0.0,16.0,16.0,16.0,1.0,ALEXANDRINE_PARAKEET_1.jpg,AFRICAN_PIED_HORNBILL_5.jpg,A1P2XKONWAOXHP
137,1.0,right,left,0.0,2.543800001,0.0,17.0,17.0,17.0,1.0,PEACOCK_1.jpg,LARK_BUNTING_2.jpg,A1P2XKONWAOXHP
138,1.0,right,right,1.0,3.307299999,0.0,18.0,18.0,18.0,1.0,ASHY_STORM_PETREL_2.jpg,RED_HEADED_WOODPECKER_5.jpg,A1P2XKONWAOXHP
139,2.0,left,right,0.0,2.9359,0.0,19.0,19.0,19.0,1.0,MALACHITE_KINGFISHER_2.jpg,INCA_TERN_2.jpg,A1P2XKONWAOXHP
140,2.0,right,left,0.0,3.032199999,0.0,20.0,20.0,20.0,1.0,AFRICAN_EMERALD_CUCKOO_5.jpg,TASMANIAN_HEN_5.jpg,A1P2XKONWAOXHP
141,2.0,left,left,1.0,2.201799999,0.0,21.0,21.0,21.0,1.0,INLAND_DOTTEREL_4.jpg,NICOBAR_PIGEON_4.jpg,A1P2XKONWAOXHP
142,2.0,right,right,1.0,2.6886,0.0,22.0,22.0,22.0,1.0,GREAT_POTOO_3.jpg,WHITE_CHEEKED_TURACO_5.jpg,A1P2XKONWAOXHP
143,3.0,right,right,1.0,5.6006,0.0,23.0,23.0,23.0,1.0,SCARLET_IBIS_4.jpg,NORTHERN_JACANA_3.jpg,A1P2XKONWAOXHP
144,3.0,left,left,1.0,3.708,0.0,24.0,24.0,24.0,1.0,GOLDEN_CHEEKED_WARBLER_2.jpg,WHITE_THROATED_BEE_EATER_1.jpg,A1P2XKONWAOXHP
145,3.0,left,left,1.0,4.3001,0.0,25.0,25.0,25.0,1.0,RUBY_THROATED_HUMMINGBIRD_3.jpg,NORTHERN_SHOVELER_1.jpg,A1P2XKONWAOXHP
146,2.0,left,right,0.0,2.193099998,0.0,26.0,26.0,26.0,1.0,SCARLET_TANAGER_2.jpg,NORTHERN_GANNET_2.jpg,A1P2XKONWAOXHP
147,1.0,right,right,1.0,2.138699999,0.0,27.0,27.0,27.0,1.0,SCARLET_IBIS_3.jpg,CRESTED_NUTHATCH_2.jpg,A1P2XKONWAOXHP
148,2.0,right,left,0.0,1.923,0.0,28.0,28.0,28.0,1.0,LOGGERHEAD_SHRIKE_4.jpg,ASIAN_DOLLARD_BIRD_2.jpg,A1P2XKONWAOXHP
149,3.0,left,right,0.0,1.412099998,0.0,29.0,29.0,29.0,1.0,ECUADORIAN_HILLSTAR_5.jpg,CRIMSON_SUNBIRD_5.jpg,A1P2XKONWAOXHP
150,1.0,right,left,0.0,1.805699999,0.0,30.0,30.0,30.0,1.0,AMERICAN_FLAMINGO_2.jpg,CERULEAN_WARBLER_1.jpg,A1P2XKONWAOXHP
151,1.0,left,right,0.0,1.5259,0.0,31.0,31.0,31.0,1.0,OVENBIRD_5.jpg,MYNA_4.jpg,A1P2XKONWAOXHP
152,1.0,left,left,1.0,1.179700001,0.0,32.0,32.0,32.0,1.0,GOLDEN_CHLOROPHONIA_5.jpg,ROADRUNNER_2.jpg,A1P2XKONWAOXHP
153,1.0,right,left,0.0,1.619699999,0.0,33.0,33.0,33.0,1.0,FRIGATE_4.jpg,INDIGO_BUNTING_1.jpg,A1P2XKONWAOXHP
154,3.0,left,right,0.0,1.711699999,0.0,34.0,34.0,34.0,1.0,OCELLATED_TURKEY_1.jpg,PURPLE_SWAMPHEN_4.jpg,A1P2XKONWAOXHP
155,2.0,right,right,1.0,1.8099,0.0,35.0,35.0,35.0,1.0,SMITHS_LONGSPUR_5.jpg,INCA_TERN_4.jpg,A1P2XKONWAOXHP
156,1.0,left,right,0.0,2.291,0.0,36.0,36.0,36.0,1.0,RUBY_THROATED_HUMMINGBIRD_1.jpg,BANANAQUIT_2.jpg,A1P2XKONWAOXHP
157,3.0,left,left,1.0,1.5211,0.0,37.0,37.0,37.0,1.0,KILLDEAR_2.jpg,AZURE_TIT_5.jpg,A1P2XKONWAOXHP
158,1.0,left,left,1.0,2.116700001,0.0,38.0,38.0,38.0,1.0,STRIPPED_SWALLOW_1.jpg,DOUBLE_BRESTED_CORMARANT_4.jpg,A1P2XKONWAOXHP
159,1.0,left,right,0.0,2.0015,0.0,39.0,39.0,39.0,1.0,ALPINE_CHOUGH_4.jpg,SNOWY_EGRET_2.jpg,A1P2XKONWAOXHP
160,3.0,left,right,0.0,2.013299999,0.0,40.0,40.0,40.0,1.0,CHUKAR_PARTRIDGE_5.jpg,BLACK_THROATED_BUSHTIT_1.jpg,A1P2XKONWAOXHP
161,1.0,right,right,1.0,1.499200001,0.0,41.0,41.0,41.0,1.0,ANIANIAU_2.jpg,PEACOCK_3.jpg,A1P2XKONWAOXHP
162,2.0,right,right,1.0,2.110599998,0.0,42.0,42.0,42.0,1.0,GAMBELS_QUAIL_1.jpg,LESSER_ADJUTANT_5.jpg,A1P2XKONWAOXHP
163,2.0,left,right,0.0,2.2959,0.0,43.0,43.0,43.0,1.0,IVORY_GULL_3.jpg,FLAME_TANAGER_3.jpg,A1P2XKONWAOXHP
164,1.0,right,right,1.0,2.332200001,0.0,44.0,44.0,44.0,1.0,ALTAMIRA_YELLOWTHROAT_5.jpg,LESSER_ADJUTANT_4.jpg,A1P2XKONWAOXHP
165,2.0,left,right,0.0,2.2116,0.0,45.0,45.0,45.0,1.0,SHOEBILL_3.jpg,GILDED_FLICKER_5.jpg,A1P2XKONWAOXHP
166,1.0,left,left,1.0,2.1799,0.0,46.0,46.0,46.0,1.0,GYRFALCON_1.jpg,OSTRICH_1.jpg,A1P2XKONWAOXHP
167,1.0,left,left,1.0,1.908799999,0.0,47.0,47.0,47.0,1.0,EASTERN_TOWEE_2.jpg,SANDHILL_CRANE_2.jpg,A1P2XKONWAOXHP
168,3.0,right,right,1.0,2.598,0.0,48.0,48.0,48.0,1.0,MALABAR_HORNBILL_2.jpg,EUROPEAN_TURTLE_DOVE_3.jpg,A1P2XKONWAOXHP
169,1.0,left,right,0.0,1.899799999,0.0,49.0,49.0,49.0,1.0,CASPIAN_TERN_1.jpg,GREAT_GRAY_OWL_4.jpg,A1P2XKONWAOXHP
170,3.0,right,right,1.0,2.0014,0.0,50.0,50.0,50.0,1.0,BORNEAN_LEAFBIRD_3.jpg,ARARIPE_MANAKIN_4.jpg,A1P2XKONWAOXHP
171,2.0,right,left,0.0,2.098200001,0.0,51.0,51.0,51.0,1.0,DOUBLE_BRESTED_CORMARANT_1.jpg,SPLENDID_WREN_1.jpg,A1P2XKONWAOXHP
172,2.0,right,right,1.0,2.317800001,0.0,52.0,52.0,52.0,1.0,BROWN_THRASHER_4.jpg,FLAME_BOWERBIRD_3.jpg,A1P2XKONWAOXHP
173,2.0,right,left,0.0,1.800700001,0.0,53.0,53.0,53.0,1.0,MAGPIE_GOOSE_3.jpg,RUFOUS_KINGFISHER_1.jpg,A1P2XKONWAOXHP
174,3.0,left,left,1.0,1.896,0.0,54.0,54.0,54.0,1.0,KAGU_5.jpg,DEMOISELLE_CRANE_1.jpg,A1P2XKONWAOXHP
175,1.0,left,left,1.0,2.304,0.0,55.0,55.0,55.0,1.0,CRESTED_CARACARA_4.jpg,FAIRY_PENGUIN_5.jpg,A1P2XKONWAOXHP
176,2.0,right,right,1.0,1.396,0.0,56.0,56.0,56.0,1.0,SPANGLED_COTINGA_4.jpg,BROWN_NOODY_3.jpg,A1P2XKONWAOXHP
177,2.0,right,left,0.0,2.0159,0.0,57.0,57.0,57.0,1.0,HAMERKOP_1.jpg,MAGPIE_GOOSE_5.jpg,A1P2XKONWAOXHP
178,2.0,left,right,0.0,1.898700001,0.0,58.0,58.0,58.0,1.0,VERMILION_FLYCATHER_3.jpg,CALIFORNIA_GULL_1.jpg,A1P2XKONWAOXHP
179,2.0,left,right,0.0,2.086,0.0,59.0,59.0,59.0,1.0,BALI_STARLING_1.jpg,PURPLE_FINCH_2.jpg,A1P2XKONWAOXHP
180,1.0,left,left,1.0,10.754,0.0,0.0,0.0,0.0,1.0,MAGPIE_GOOSE_5.jpg,DOUBLE_EYED_FIG_PARROT_5.jpg,A1T6TTD7XCUHOU
181,1.0,right,right,1.0,0.617,0.0,1.0,1.0,1.0,1.0,INDIAN_BUSTARD_1.jpg,VERMILION_FLYCATHER_3.jpg,A1T6TTD7XCUHOU
182,2.0,right,right,1.0,2.083,0.0,2.0,2.0,2.0,1.0,VULTURINE_GUINEAFOWL_4.jpg,RUBY_THROATED_HUMMINGBIRD_1.jpg,A1T6TTD7XCUHOU
183,2.0,left,left,1.0,2.216,0.0,3.0,3.0,3.0,1.0,RED_HEADED_WOODPECKER_5.jpg,CRIMSON_CHAT_3.jpg,A1T6TTD7XCUHOU
184,3.0,left,left,1.0,4.717,0.0,4.0,4.0,4.0,1.0,SPLENDID_WREN_1.jpg,CUBAN_TODY_4.jpg,A1T6TTD7XCUHOU
185,2.0,right,left,0.0,1.76,0.0,5.0,5.0,5.0,1.0,SPANGLED_COTINGA_4.jpg,BROWN_NOODY_3.jpg,A1T6TTD7XCUHOU
186,1.0,right,right,1.0,4.354,0.0,6.0,6.0,6.0,1.0,TEAL_DUCK_2.jpg,EUROPEAN_TURTLE_DOVE_3.jpg,A1T6TTD7XCUHOU
187,2.0,right,right,1.0,1.35,0.0,7.0,7.0,7.0,1.0,SMITHS_LONGSPUR_5.jpg,INCA_TERN_4.jpg,A1T6TTD7XCUHOU
188,3.0,left,left,1.0,1.671,0.0,8.0,8.0,8.0,1.0,KAGU_5.jpg,DEMOISELLE_CRANE_1.jpg,A1T6TTD7XCUHOU
189,3.0,left,right,0.0,3.152,0.0,9.0,9.0,9.0,1.0,GOLDEN_CHEEKED_WARBLER_2.jpg,WHITE_THROATED_BEE_EATER_1.jpg,A1T6TTD7XCUHOU
190,1.0,right,right,1.0,2.011,0.0,10.0,10.0,10.0,1.0,SPOONBILL_3.jpg,PINK_ROBIN_4.jpg,A1T6TTD7XCUHOU
191,1.0,right,left,0.0,1.351,0.0,11.0,11.0,11.0,1.0,AMERICAN_GOLDFINCH_4.jpg,NORTHERN_JACANA_3.jpg,A1T6TTD7XCUHOU
192,2.0,left,left,1.0,2.783,0.0,12.0,12.0,12.0,1.0,WHITE_CHEEKED_TURACO_5.jpg,GREAT_POTOO_3.jpg,A1T6TTD7XCUHOU
193,3.0,right,left,0.0,2.566,0.0,13.0,13.0,13.0,1.0,TOUCHAN_4.jpg,CRESTED_CARACARA_4.jpg,A1T6TTD7XCUHOU
194,2.0,left,right,0.0,1.143,0.0,14.0,14.0,14.0,1.0,DOUBLE_BRESTED_CORMARANT_5.jpg,EURASIAN_MAGPIE_4.jpg,A1T6TTD7XCUHOU
195,2.0,right,left,0.0,1.561,0.0,15.0,15.0,15.0,1.0,GILDED_FLICKER_5.jpg,SHOEBILL_3.jpg,A1T6TTD7XCUHOU
196,1.0,right,right,1.0,4.443,0.0,16.0,16.0,16.0,1.0,GOLDEN_CHLOROPHONIA_2.jpg,RUBY_THROATED_HUMMINGBIRD_2.jpg,A1T6TTD7XCUHOU
197,3.0,right,left,0.0,1.65,0.0,17.0,17.0,17.0,1.0,CAPUCHINBIRD_2.jpg,AFRICAN_PIED_HORNBILL_5.jpg,A1T6TTD7XCUHOU
198,2.0,right,right,1.0,1.663,0.0,18.0,18.0,18.0,1.0,EUROPEAN_GOLDFINCH_4.jpg,CASPIAN_TERN_1.jpg,A1T6TTD7XCUHOU
199,1.0,left,left,1.0,2.737,0.0,19.0,19.0,19.0,1.0,ARARIPE_MANAKIN_4.jpg,KIWI_3.jpg,A1T6TTD7XCUHOU
200,3.0,right,left,0.0,1.574,0.0,20.0,20.0,20.0,1.0,BLACK_THROATED_BUSHTIT_1.jpg,CHUKAR_PARTRIDGE_5.jpg,A1T6TTD7XCUHOU
201,1.0,left,right,0.0,3.886,0.0,21.0,21.0,21.0,1.0,MYNA_1.jpg,OSTRICH_3.jpg,A1T6TTD7XCUHOU
202,2.0,right,right,1.0,3.556,0.0,22.0,22.0,22.0,1.0,BOBOLINK_5.jpg,ECUADORIAN_HILLSTAR_5.jpg,A1T6TTD7XCUHOU
203,1.0,left,left,1.0,2.308,0.0,23.0,23.0,23.0,1.0,IVORY_GULL_1.jpg,WILSONS_BIRD_OF_PARADISE_4.jpg,A1T6TTD7XCUHOU
204,3.0,right,right,1.0,1.595,0.0,24.0,24.0,24.0,1.0,HEPATIC_TANAGER_5.jpg,AMERICAN_PIPIT_5.jpg,A1T6TTD7XCUHOU
205,3.0,right,left,0.0,2.183,0.0,25.0,25.0,25.0,1.0,BORNEAN_LEAFBIRD_1.jpg,SCARLET_TANAGER_2.jpg,A1T6TTD7XCUHOU
206,2.0,right,left,0.0,2.16,0.0,26.0,26.0,26.0,1.0,CINNAMON_ATTILA_2.jpg,GYRFALCON_1.jpg,A1T6TTD7XCUHOU
207,3.0,right,right,1.0,2.087,0.0,27.0,27.0,27.0,1.0,BLACK_BAZA_4.jpg,BROWN_THRASHER_3.jpg,A1T6TTD7XCUHOU
208,1.0,left,left,1.0,2.729,0.0,28.0,28.0,28.0,1.0,ALPINE_CHOUGH_4.jpg,SNOWY_EGRET_2.jpg,A1T6TTD7XCUHOU
209,3.0,left,left,1.0,4.125,0.0,29.0,29.0,29.0,1.0,FLAME_BOWERBIRD_3.jpg,QUETZAL_3.jpg,A1T6TTD7XCUHOU
210,1.0,left,left,1.0,1.958,0.0,30.0,30.0,30.0,1.0,IVORY_GULL_3.jpg,INDIGO_FLYCATCHER_2.jpg,A1T6TTD7XCUHOU
211,2.0,left,left,1.0,1.737,0.0,31.0,31.0,31.0,1.0,CERULEAN_WARBLER_1.jpg,AMERICAN_FLAMINGO_5.jpg,A1T6TTD7XCUHOU
212,2.0,right,right,1.0,2.127,0.0,32.0,32.0,32.0,1.0,SCARLET_MACAW_1.jpg,CASSOWARY_1.jpg,A1T6TTD7XCUHOU
213,3.0,left,left,1.0,2.405,0.0,33.0,33.0,33.0,1.0,PEACOCK_3.jpg,CHATTERING_LORY_2.jpg,A1T6TTD7XCUHOU
214,2.0,right,right,1.0,2.507,0.0,34.0,34.0,34.0,1.0,INCA_TERN_2.jpg,MALACHITE_KINGFISHER_2.jpg,A1T6TTD7XCUHOU
215,1.0,right,left,0.0,2.741,0.0,35.0,35.0,35.0,1.0,ALTAMIRA_YELLOWTHROAT_5.jpg,LESSER_ADJUTANT_4.jpg,A1T6TTD7XCUHOU
216,1.0,left,left,1.0,2.912,0.0,36.0,36.0,36.0,1.0,TASMANIAN_HEN_5.jpg,GREEN_BROADBILL_1.jpg,A1T6TTD7XCUHOU
217,1.0,left,left,1.0,1.935,0.0,37.0,37.0,37.0,1.0,LITTLE_AUK_5.jpg,SANDHILL_CRANE_3.jpg,A1T6TTD7XCUHOU
218,1.0,right,right,1.0,1.961,0.0,38.0,38.0,38.0,1.0,ROADRUNNER_2.jpg,GOLDEN_CHLOROPHONIA_5.jpg,A1T6TTD7XCUHOU
219,3.0,right,right,1.0,2.517,0.0,39.0,39.0,39.0,1.0,CACTUS_WREN_3.jpg,LARK_BUNTING_2.jpg,A1T6TTD7XCUHOU
220,2.0,left,left,1.0,2.69,0.0,40.0,40.0,40.0,1.0,ASIAN_CRESTED_IBIS_4.jpg,OYSTER_CATCHER_2.jpg,A1T6TTD7XCUHOU
221,2.0,left,right,0.0,2.198,0.0,41.0,41.0,41.0,1.0,ASIAN_DOLLARD_BIRD_2.jpg,LOGGERHEAD_SHRIKE_4.jpg,A1T6TTD7XCUHOU
222,3.0,right,left,0.0,5.302,0.0,42.0,42.0,42.0,1.0,PINK_ROBIN_3.jpg,PARUS_MAJOR_1.jpg,A1T6TTD7XCUHOU
223,2.0,right,right,1.0,2.186,0.0,43.0,43.0,43.0,1.0,GOLDEN_CHLOROPHONIA_1.jpg,EASTERN_TOWEE_2.jpg,A1T6TTD7XCUHOU
224,1.0,right,left,0.0,2.643,0.0,44.0,44.0,44.0,1.0,CAPE_LONGCLAW_5.jpg,BALI_STARLING_1.jpg,A1T6TTD7XCUHOU
225,1.0,right,left,0.0,5.249,0.0,45.0,45.0,45.0,1.0,HYACINTH_MACAW_3.jpg,GREY_PLOVER_1.jpg,A1T6TTD7XCUHOU
226,2.0,right,right,1.0,2.232,0.0,46.0,46.0,46.0,1.0,NORTHERN_GANNET_1.jpg,INDIGO_BUNTING_1.jpg,A1T6TTD7XCUHOU
227,3.0,left,left,1.0,2.541,0.0,47.0,47.0,47.0,1.0,RUBY_THROATED_HUMMINGBIRD_3.jpg,NORTHERN_SHOVELER_1.jpg,A1T6TTD7XCUHOU
228,3.0,left,right,0.0,2.063,0.0,48.0,48.0,48.0,1.0,CRESTED_NUTHATCH_2.jpg,CANARY_1.jpg,A1T6TTD7XCUHOU
229,2.0,right,left,0.0,3.368,0.0,49.0,49.0,49.0,1.0,MAGPIE_GOOSE_4.jpg,STRIPPED_SWALLOW_1.jpg,A1T6TTD7XCUHOU
230,2.0,left,left,1.0,1.997,0.0,50.0,50.0,50.0,1.0,OVENBIRD_5.jpg,FAIRY_PENGUIN_1.jpg,A1T6TTD7XCUHOU
231,1.0,left,right,0.0,1.338,0.0,51.0,51.0,51.0,1.0,INLAND_DOTTEREL_4.jpg,CASSOWARY_2.jpg,A1T6TTD7XCUHOU
232,3.0,left,left,1.0,1.535,0.0,52.0,52.0,52.0,1.0,BREWERS_BLACKBIRD_3.jpg,CAPE_LONGCLAW_2.jpg,A1T6TTD7XCUHOU
233,3.0,left,left,1.0,1.365,0.0,53.0,53.0,53.0,1.0,KILLDEAR_2.jpg,AZURE_TIT_5.jpg,A1T6TTD7XCUHOU
234,1.0,left,left,1.0,1.205,0.0,54.0,54.0,54.0,1.0,RUFOUS_KINGFISHER_1.jpg,SNOWY_OWL_5.jpg,A1T6TTD7XCUHOU
235,3.0,left,left,1.0,1.802,0.0,55.0,55.0,55.0,1.0,PYGMY_KINGFISHER_5.jpg,DOUBLE_EYED_FIG_PARROT_4.jpg,A1T6TTD7XCUHOU
236,3.0,left,left,1.0,3.148,0.0,56.0,56.0,56.0,1.0,LESSER_ADJUTANT_5.jpg,RED_HEADED_WOODPECKER_1.jpg,A1T6TTD7XCUHOU
237,3.0,right,right,1.0,1.901,0.0,57.0,57.0,57.0,1.0,PURPLE_SWAMPHEN_4.jpg,OCELLATED_TURKEY_1.jpg,A1T6TTD7XCUHOU
238,2.0,left,left,1.0,1.755,0.0,58.0,58.0,58.0,1.0,GRAY_KINGBIRD_5.jpg,COCK_OF_THE__ROCK_4.jpg,A1T6TTD7XCUHOU
239,1.0,left,left,1.0,3.275,0.0,59.0,59.0,59.0,1.0,HAWAIIAN_GOOSE_4.jpg,CUBAN_TODY_3.jpg,A1T6TTD7XCUHOU
240,1.0,right,right,1.0,1.3957,0.0,0.0,0.0,0.0,1.0,MYNA_4.jpg,OVENBIRD_5.jpg,A1TPGXT718D68E
241,2.0,left,left,1.0,1.6453,0.0,1.0,1.0,1.0,1.0,TASMANIAN_HEN_5.jpg,AFRICAN_EMERALD_CUCKOO_5.jpg,A1TPGXT718D68E
242,1.0,left,right,0.0,3.7976,0.0,2.0,2.0,2.0,1.0,CASSOWARY_1.jpg,ROSY_FACED_LOVEBIRD_4.jpg,A1TPGXT718D68E
243,1.0,left,left,1.0,1.3267,0.0,3.0,3.0,3.0,1.0,RUBY_THROATED_HUMMINGBIRD_1.jpg,BANANAQUIT_2.jpg,A1TPGXT718D68E
244,2.0,right,right,1.0,1.1834,0.0,4.0,4.0,4.0,1.0,GREAT_POTOO_3.jpg,WHITE_CHEEKED_TURACO_5.jpg,A1TPGXT718D68E
245,3.0,left,left,1.0,1.6567,0.0,5.0,5.0,5.0,1.0,INLAND_DOTTEREL_4.jpg,CRESTED_KINGFISHER_1.jpg,A1TPGXT718D68E
246,3.0,left,left,1.0,1.565,0.0,6.0,6.0,6.0,1.0,LESSER_ADJUTANT_4.jpg,FAIRY_TERN_3.jpg,A1TPGXT718D68E
247,3.0,right,right,1.0,1.455,0.0,7.0,7.0,7.0,1.0,IVORY_GULL_2.jpg,ASIAN_CRESTED_IBIS_4.jpg,A1TPGXT718D68E
248,2.0,left,left,1.0,1.9044,0.0,8.0,8.0,8.0,1.0,ASIAN_DOLLARD_BIRD_2.jpg,LOGGERHEAD_SHRIKE_4.jpg,A1TPGXT718D68E
249,3.0,left,left,1.0,0.9075,0.0,9.0,9.0,9.0,1.0,RUBY_THROATED_HUMMINGBIRD_2.jpg,DUSKY_ROBIN_5.jpg,A1TPGXT718D68E
250,3.0,right,right,1.0,1.4294,0.0,10.0,10.0,10.0,1.0,BLACK_BAZA_4.jpg,BROWN_THRASHER_3.jpg,A1TPGXT718D68E
251,1.0,left,right,0.0,2.5156,0.0,11.0,11.0,11.0,1.0,GYRFALCON_1.jpg,OSTRICH_1.jpg,A1TPGXT718D68E
252,1.0,left,right,0.0,1.6065,0.0,12.0,12.0,12.0,1.0,PEACOCK_3.jpg,ANIANIAU_2.jpg,A1TPGXT718D68E
253,1.0,right,right,1.0,1.6859,0.0,13.0,13.0,13.0,1.0,ROADRUNNER_2.jpg,GOLDEN_CHLOROPHONIA_5.jpg,A1TPGXT718D68E
254,1.0,right,right,1.0,1.3762,0.0,14.0,14.0,14.0,1.0,SNOWY_OWL_5.jpg,RUFOUS_KINGFISHER_1.jpg,A1TPGXT718D68E
255,2.0,left,left,1.0,1.1601,0.0,15.0,15.0,15.0,1.0,GREY_PLOVER_1.jpg,GOULDIAN_FINCH_4.jpg,A1TPGXT718D68E
256,3.0,left,left,1.0,1.3163,0.0,16.0,16.0,16.0,1.0,INDIGO_BUNTING_1.jpg,DARWINS_FLYCATCHER_2.jpg,A1TPGXT718D68E
257,2.0,left,right,0.0,1.5204,0.0,17.0,17.0,17.0,1.0,PYGMY_KINGFISHER_5.jpg,MASKED_BOOBY_5.jpg,A1TPGXT718D68E
258,3.0,left,right,0.0,2.2863,0.0,18.0,18.0,18.0,1.0,BALI_STARLING_1.jpg,IBERIAN_MAGPIE_1.jpg,A1TPGXT718D68E
259,2.0,right,right,1.0,1.1695,0.0,19.0,19.0,19.0,1.0,BROWN_THRASHER_4.jpg,FLAME_BOWERBIRD_3.jpg,A1TPGXT718D68E
260,2.0,right,left,0.0,0.9222,0.0,20.0,20.0,20.0,1.0,ORANGE_BRESTED_BUNTING_3.jpg,LITTLE_AUK_5.jpg,A1TPGXT718D68E
261,1.0,left,left,1.0,1.3378,0.0,21.0,21.0,21.0,1.0,GRAY_KINGBIRD_5.jpg,BALD_EAGLE_2.jpg,A1TPGXT718D68E
262,3.0,right,left,0.0,1.6038,0.0,22.0,22.0,22.0,1.0,GO_AWAY_BIRD_5.jpg,STRIPPED_SWALLOW_1.jpg,A1TPGXT718D68E
263,3.0,left,right,0.0,1.4053,0.0,23.0,23.0,23.0,1.0,ARARIPE_MANAKIN_4.jpg,BORNEAN_LEAFBIRD_3.jpg,A1TPGXT718D68E
264,1.0,left,right,0.0,1.1717,0.0,24.0,24.0,24.0,1.0,CERULEAN_WARBLER_1.jpg,AMERICAN_FLAMINGO_2.jpg,A1TPGXT718D68E
265,3.0,right,left,0.0,1.2018,0.0,25.0,25.0,25.0,1.0,RED_BEARDED_BEE_EATER_1.jpg,VERMILION_FLYCATHER_3.jpg,A1TPGXT718D68E
266,2.0,right,left,0.0,1.1155,0.0,26.0,26.0,26.0,1.0,GOLDEN_CHEEKED_WARBLER_3.jpg,BREWERS_BLACKBIRD_3.jpg,A1TPGXT718D68E
267,2.0,right,right,1.0,0.9836,0.0,27.0,27.0,27.0,1.0,SPANGLED_COTINGA_4.jpg,BROWN_NOODY_3.jpg,A1TPGXT718D68E
268,2.0,right,right,1.0,1.2505,0.0,28.0,28.0,28.0,1.0,EURASIAN_MAGPIE_4.jpg,DOUBLE_BRESTED_CORMARANT_5.jpg,A1TPGXT718D68E
269,1.0,left,left,1.0,1.6169,0.0,29.0,29.0,29.0,1.0,EASTERN_TOWEE_2.jpg,SANDHILL_CRANE_2.jpg,A1TPGXT718D68E
270,1.0,right,right,1.0,1.568,0.0,30.0,30.0,30.0,1.0,AMERICAN_GOLDFINCH_4.jpg,NORTHERN_JACANA_3.jpg,A1TPGXT718D68E
271,1.0,right,left,0.0,1.3566,0.0,31.0,31.0,31.0,1.0,DOUBLE_EYED_FIG_PARROT_5.jpg,MAGPIE_GOOSE_5.jpg,A1TPGXT718D68E
272,3.0,right,right,1.0,1.3669,0.0,32.0,32.0,32.0,1.0,TOUCHAN_4.jpg,CRESTED_CARACARA_4.jpg,A1TPGXT718D68E
273,2.0,right,right,1.0,3.3872,0.0,33.0,33.0,33.0,1.0,AFRICAN_FIREFINCH_1.jpg,CRESTED_NUTHATCH_2.jpg,A1TPGXT718D68E
274,2.0,right,right,1.0,2.3248,0.0,34.0,34.0,34.0,1.0,ALEXANDRINE_PARAKEET_1.jpg,AFRICAN_PIED_HORNBILL_5.jpg,A1TPGXT718D68E
275,1.0,right,left,0.0,0.9165,0.0,35.0,35.0,35.0,1.0,CUBAN_TODY_3.jpg,HAWAIIAN_GOOSE_4.jpg,A1TPGXT718D68E
276,2.0,left,right,0.0,2.0111,0.0,36.0,36.0,36.0,1.0,SHOEBILL_3.jpg,GILDED_FLICKER_5.jpg,A1TPGXT718D68E
277,3.0,left,left,1.0,2.2649,0.0,37.0,37.0,37.0,1.0,AMERICAN_PIPIT_5.jpg,HEPATIC_TANAGER_5.jpg,A1TPGXT718D68E
278,1.0,right,right,1.0,1.5439,0.0,38.0,38.0,38.0,1.0,CHIPPING_SPARROW_1.jpg,OCELLATED_TURKEY_1.jpg,A1TPGXT718D68E
279,3.0,left,left,1.0,2.2987,0.0,39.0,39.0,39.0,1.0,IVORY_GULL_3.jpg,SNOWY_EGRET_4.jpg,A1TPGXT718D68E
280,1.0,right,right,1.0,2.8734,0.0,40.0,40.0,40.0,1.0,AMERICAN_FLAMINGO_1.jpg,MALACHITE_KINGFISHER_2.jpg,A1TPGXT718D68E
281,2.0,left,left,1.0,1.6388,0.0,41.0,41.0,41.0,1.0,MYNA_1.jpg,GREY_PLOVER_4.jpg,A1TPGXT718D68E
282,1.0,right,right,1.0,2.1418,0.0,42.0,42.0,42.0,1.0,SPOONBILL_1.jpg,GOLDEN_CHEEKED_WARBLER_2.jpg,A1TPGXT718D68E
283,2.0,right,right,1.0,1.7335,0.0,43.0,43.0,43.0,1.0,DOUBLE_BRESTED_CORMARANT_1.jpg,SPLENDID_WREN_1.jpg,A1TPGXT718D68E
284,3.0,right,left,0.0,1.5741,0.0,44.0,44.0,44.0,1.0,CACTUS_WREN_3.jpg,LARK_BUNTING_2.jpg,A1TPGXT718D68E
285,1.0,left,left,1.0,1.5733,0.0,45.0,45.0,45.0,1.0,CHUKAR_PARTRIDGE_5.jpg,OSTRICH_5.jpg,A1TPGXT718D68E
286,3.0,left,left,1.0,2.0683,0.0,46.0,46.0,46.0,1.0,RED_HEADED_WOODPECKER_5.jpg,COLLARED_ARACARI_1.jpg,A1TPGXT718D68E
287,3.0,left,left,1.0,0.9191,0.0,47.0,47.0,47.0,1.0,RUBY_THROATED_HUMMINGBIRD_3.jpg,NORTHERN_SHOVELER_1.jpg,A1TPGXT718D68E
288,3.0,left,left,1.0,2.1863,0.0,48.0,48.0,48.0,1.0,CASPIAN_TERN_1.jpg,COMMON_LOON_2.jpg,A1TPGXT718D68E
289,2.0,left,left,1.0,1.468,0.0,49.0,49.0,49.0,1.0,PARUS_MAJOR_1.jpg,CALIFORNIA_GULL_2.jpg,A1TPGXT718D68E
290,2.0,right,right,1.0,1.8513,0.0,50.0,50.0,50.0,1.0,EUROPEAN_GOLDFINCH_3.jpg,ALPINE_CHOUGH_4.jpg,A1TPGXT718D68E
291,2.0,left,right,0.0,1.0714,0.0,51.0,51.0,51.0,1.0,KILLDEAR_2.jpg,CAATINGA_CACHOLOTE_4.jpg,A1TPGXT718D68E
292,1.0,left,left,1.0,1.2437,0.0,52.0,52.0,52.0,1.0,INCA_TERN_4.jpg,ELLIOTS__PHEASANT_4.jpg,A1TPGXT718D68E
293,2.0,left,left,1.0,1.5022,0.0,53.0,53.0,53.0,1.0,PINK_ROBIN_4.jpg,ALBATROSS_4.jpg,A1TPGXT718D68E
294,3.0,right,right,1.0,2.584,0.0,54.0,54.0,54.0,1.0,CRIMSON_SUNBIRD_5.jpg,ECUADORIAN_HILLSTAR_5.jpg,A1TPGXT718D68E
295,2.0,left,left,1.0,1.6307,0.0,55.0,55.0,55.0,1.0,EUROPEAN_TURTLE_DOVE_3.jpg,PAINTED_BUNTING_3.jpg,A1TPGXT718D68E
296,3.0,left,left,1.0,1.7339,0.0,56.0,56.0,56.0,1.0,IVORY_GULL_1.jpg,FAIRY_TERN_4.jpg,A1TPGXT718D68E
297,1.0,right,left,0.0,2.3903,0.0,57.0,57.0,57.0,1.0,RED_BEARDED_BEE_EATER_3.jpg,KAGU_5.jpg,A1TPGXT718D68E
298,3.0,left,right,0.0,1.1061,0.0,58.0,58.0,58.0,1.0,LESSER_ADJUTANT_5.jpg,RED_HEADED_WOODPECKER_1.jpg,A1TPGXT718D68E
299,1.0,left,left,1.0,1.2894,0.0,59.0,59.0,59.0,1.0,SCARLET_TANAGER_2.jpg,BEARDED_BARBET_2.jpg,A1TPGXT718D68E
300,2.0,left,left,1.0,1.732,0.0,0.0,0.0,0.0,1.0,ARARIPE_MANAKIN_4.jpg,BLACK_VULTURE_1.jpg,A1Y07DW8W2UXSD
301,1.0,left,left,1.0,0.768,0.0,1.0,1.0,1.0,1.0,IVORY_GULL_1.jpg,WILSONS_BIRD_OF_PARADISE_4.jpg,A1Y07DW8W2UXSD
302,3.0,right,right,1.0,1.441,0.0,2.0,2.0,2.0,1.0,BORNEAN_LEAFBIRD_1.jpg,SCARLET_TANAGER_2.jpg,A1Y07DW8W2UXSD
303,3.0,right,right,1.0,1.08,0.0,3.0,3.0,3.0,1.0,CHINESE_POND_HERON_2.jpg,DOUBLE_BRESTED_CORMARANT_5.jpg,A1Y07DW8W2UXSD
304,3.0,right,left,0.0,1.449,0.0,4.0,4.0,4.0,1.0,RED_BEARDED_BEE_EATER_1.jpg,VERMILION_FLYCATHER_3.jpg,A1Y07DW8W2UXSD
305,1.0,left,left,1.0,2.507,0.0,5.0,5.0,5.0,1.0,MALACHITE_KINGFISHER_2.jpg,AMERICAN_FLAMINGO_1.jpg,A1Y07DW8W2UXSD
306,1.0,left,right,0.0,2.039,0.0,6.0,6.0,6.0,1.0,GREY_PLOVER_1.jpg,HYACINTH_MACAW_3.jpg,A1Y07DW8W2UXSD
307,2.0,left,left,1.0,1.373,0.0,7.0,7.0,7.0,1.0,IVORY_GULL_3.jpg,FLAME_TANAGER_3.jpg,A1Y07DW8W2UXSD
308,2.0,left,right,0.0,1.324,0.0,8.0,8.0,8.0,1.0,RUFOUS_KINGFISHER_1.jpg,MAGPIE_GOOSE_3.jpg,A1Y07DW8W2UXSD
309,3.0,right,left,0.0,1.794,0.0,9.0,9.0,9.0,1.0,CUBAN_TODY_4.jpg,SPLENDID_WREN_1.jpg,A1Y07DW8W2UXSD
310,1.0,left,left,1.0,1.916,0.0,10.0,10.0,10.0,1.0,OCELLATED_TURKEY_1.jpg,CHIPPING_SPARROW_1.jpg,A1Y07DW8W2UXSD
311,3.0,right,right,1.0,1.466,0.0,11.0,11.0,11.0,1.0,DEMOISELLE_CRANE_1.jpg,KAGU_5.jpg,A1Y07DW8W2UXSD
312,2.0,left,left,1.0,4.37,0.0,12.0,12.0,12.0,1.0,CRESTED_CARACARA_4.jpg,INDIAN_PITTA_2.jpg,A1Y07DW8W2UXSD
313,2.0,left,left,1.0,5.204,0.0,13.0,13.0,13.0,1.0,STRIPPED_SWALLOW_1.jpg,MAGPIE_GOOSE_4.jpg,A1Y07DW8W2UXSD
314,2.0,left,left,1.0,0.021,0.0,14.0,14.0,14.0,1.0,AMERICAN_PIPIT_5.jpg,GREEN_MAGPIE_1.jpg,A1Y07DW8W2UXSD
315,3.0,right,left,0.0,1.11,0.0,15.0,15.0,15.0,1.0,BEARDED_BELLBIRD_1.jpg,LITTLE_AUK_5.jpg,A1Y07DW8W2UXSD
316,3.0,left,left,1.0,7.831,0.0,16.0,16.0,16.0,1.0,PYGMY_KINGFISHER_5.jpg,DOUBLE_EYED_FIG_PARROT_4.jpg,A1Y07DW8W2UXSD
317,2.0,left,left,1.0,0.682,0.0,17.0,17.0,17.0,1.0,CASSOWARY_1.jpg,SCARLET_MACAW_1.jpg,A1Y07DW8W2UXSD
318,2.0,left,left,1.0,0.382,0.0,18.0,18.0,18.0,1.0,BREWERS_BLACKBIRD_3.jpg,GOLDEN_CHEEKED_WARBLER_3.jpg,A1Y07DW8W2UXSD
319,2.0,right,left,0.0,2.102,0.0,19.0,19.0,19.0,1.0,CRIMSON_CHAT_3.jpg,RED_HEADED_WOODPECKER_5.jpg,A1Y07DW8W2UXSD
320,1.0,left,right,0.0,0.959,0.0,20.0,20.0,20.0,1.0,CHUKAR_PARTRIDGE_5.jpg,OSTRICH_5.jpg,A1Y07DW8W2UXSD
321,3.0,left,left,1.0,1.655,0.0,21.0,21.0,21.0,1.0,EASTERN_TOWEE_2.jpg,NORTHERN_BEARDLESS_TYRANNULET_5.jpg,A1Y07DW8W2UXSD
322,2.0,left,left,1.0,0.958,0.0,22.0,22.0,22.0,1.0,MYNA_1.jpg,GREY_PLOVER_4.jpg,A1Y07DW8W2UXSD
323,1.0,left,right,0.0,1.146,0.0,23.0,23.0,23.0,1.0,RUBY_THROATED_HUMMINGBIRD_2.jpg,GOLDEN_CHLOROPHONIA_2.jpg,A1Y07DW8W2UXSD
324,3.0,right,right,1.0,1.474,0.0,24.0,24.0,24.0,1.0,FAIRY_TERN_1.jpg,GYRFALCON_1.jpg,A1Y07DW8W2UXSD
325,3.0,left,left,1.0,1.161,0.0,25.0,25.0,25.0,1.0,PINK_ROBIN_4.jpg,COMMON_IORA_4.jpg,A1Y07DW8W2UXSD
326,3.0,right,right,1.0,1.107,0.0,26.0,26.0,26.0,1.0,RED_HEADED_WOODPECKER_1.jpg,LESSER_ADJUTANT_5.jpg,A1Y07DW8W2UXSD
327,3.0,right,left,0.0,0.941,0.0,27.0,27.0,27.0,1.0,CRIMSON_SUNBIRD_5.jpg,ECUADORIAN_HILLSTAR_5.jpg,A1Y07DW8W2UXSD
328,1.0,left,left,1.0,0.654,0.0,28.0,28.0,28.0,1.0,INLAND_DOTTEREL_4.jpg,CASSOWARY_2.jpg,A1Y07DW8W2UXSD
329,1.0,left,right,0.0,1.11,0.0,29.0,29.0,29.0,1.0,AFRICAN_PIED_HORNBILL_5.jpg,KIWI_4.jpg,A1Y07DW8W2UXSD
330,1.0,left,right,0.0,1.474,0.0,30.0,30.0,30.0,1.0,RUBY_THROATED_HUMMINGBIRD_3.jpg,MALAGASY_WHITE_EYE_2.jpg,A1Y07DW8W2UXSD
331,2.0,left,left,1.0,1.694,0.0,31.0,31.0,31.0,1.0,INDIGO_BUNTING_1.jpg,NORTHERN_GANNET_1.jpg,A1Y07DW8W2UXSD
332,1.0,left,left,1.0,1.233,0.0,32.0,32.0,32.0,1.0,CRESTED_NUTHATCH_2.jpg,SCARLET_IBIS_3.jpg,A1Y07DW8W2UXSD
333,2.0,left,left,1.0,1.352,0.0,33.0,33.0,33.0,1.0,MAGPIE_GOOSE_5.jpg,HAMERKOP_1.jpg,A1Y07DW8W2UXSD
334,3.0,right,left,0.0,1.075,0.0,34.0,34.0,34.0,1.0,PINK_ROBIN_3.jpg,PARUS_MAJOR_1.jpg,A1Y07DW8W2UXSD
335,3.0,right,right,1.0,1.126,0.0,35.0,35.0,35.0,1.0,AFRICAN_FIREFINCH_3.jpg,GRAY_KINGBIRD_5.jpg,A1Y07DW8W2UXSD
336,1.0,left,left,1.0,1.841,0.0,36.0,36.0,36.0,1.0,KILLDEAR_2.jpg,PEACOCK_5.jpg,A1Y07DW8W2UXSD
337,3.0,left,right,0.0,2.867,0.0,37.0,37.0,37.0,1.0,BROWN_NOODY_3.jpg,GUINEA_TURACO_5.jpg,A1Y07DW8W2UXSD
338,2.0,right,left,0.0,0.331,0.0,38.0,38.0,38.0,1.0,PAINTED_BUNTING_3.jpg,EUROPEAN_TURTLE_DOVE_3.jpg,A1Y07DW8W2UXSD
339,1.0,right,right,1.0,1.55,0.0,39.0,39.0,39.0,1.0,CAPE_LONGCLAW_5.jpg,BALI_STARLING_1.jpg,A1Y07DW8W2UXSD
340,3.0,left,left,1.0,1.164,0.0,40.0,40.0,40.0,1.0,WHITE_CHEEKED_TURACO_5.jpg,PYGMY_KINGFISHER_2.jpg,A1Y07DW8W2UXSD
341,3.0,right,left,0.0,1.634,0.0,41.0,41.0,41.0,1.0,CHATTERING_LORY_2.jpg,PEACOCK_3.jpg,A1Y07DW8W2UXSD
342,1.0,left,right,0.0,1.457,0.0,42.0,42.0,42.0,1.0,ASIAN_DOLLARD_BIRD_2.jpg,ALBATROSS_2.jpg,A1Y07DW8W2UXSD
343,2.0,left,left,1.0,0.665,0.0,43.0,43.0,43.0,1.0,CERULEAN_WARBLER_1.jpg,AMERICAN_FLAMINGO_5.jpg,A1Y07DW8W2UXSD
344,2.0,right,left,0.0,1.107,0.0,44.0,44.0,44.0,1.0,CRAB_PLOVER_3.jpg,NORTHERN_JACANA_3.jpg,A1Y07DW8W2UXSD
345,1.0,left,left,1.0,3.305,0.0,45.0,45.0,45.0,1.0,LESSER_ADJUTANT_4.jpg,ALTAMIRA_YELLOWTHROAT_5.jpg,A1Y07DW8W2UXSD
346,2.0,right,left,0.0,0.551,0.0,46.0,46.0,46.0,1.0,FAIRY_PENGUIN_1.jpg,OVENBIRD_5.jpg,A1Y07DW8W2UXSD
347,1.0,right,right,1.0,0.768,0.0,47.0,47.0,47.0,1.0,BANANAQUIT_2.jpg,RUBY_THROATED_HUMMINGBIRD_1.jpg,A1Y07DW8W2UXSD
348,3.0,left,left,1.0,0.933,0.0,48.0,48.0,48.0,1.0,GOLDEN_CHEEKED_WARBLER_2.jpg,WHITE_THROATED_BEE_EATER_1.jpg,A1Y07DW8W2UXSD
349,3.0,right,left,0.0,1.531,0.0,49.0,49.0,49.0,1.0,VERMILION_FLYCATHER_5.jpg,GOLDEN_CHLOROPHONIA_5.jpg,A1Y07DW8W2UXSD
350,1.0,left,left,1.0,1.372,0.0,50.0,50.0,50.0,1.0,SHOEBILL_3.jpg,EASTERN_MEADOWLARK_1.jpg,A1Y07DW8W2UXSD
351,1.0,right,right,1.0,0.975,0.0,51.0,51.0,51.0,1.0,CUBAN_TODY_3.jpg,HAWAIIAN_GOOSE_4.jpg,A1Y07DW8W2UXSD
352,1.0,right,left,0.0,1.784,0.0,52.0,52.0,52.0,1.0,SNOWY_EGRET_2.jpg,ALPINE_CHOUGH_4.jpg,A1Y07DW8W2UXSD
353,1.0,left,left,1.0,1.226,0.0,53.0,53.0,53.0,1.0,CASPIAN_TERN_1.jpg,GREAT_GRAY_OWL_4.jpg,A1Y07DW8W2UXSD
354,2.0,right,left,0.0,1.786,0.0,54.0,54.0,54.0,1.0,BROWN_THRASHER_4.jpg,FLAME_BOWERBIRD_3.jpg,A1Y07DW8W2UXSD
355,3.0,right,left,0.0,1.341,0.0,55.0,55.0,55.0,1.0,BLACK_BAZA_4.jpg,BROWN_THRASHER_3.jpg,A1Y07DW8W2UXSD
356,2.0,left,left,1.0,1.249,0.0,56.0,56.0,56.0,1.0,TASMANIAN_HEN_5.jpg,AFRICAN_EMERALD_CUCKOO_5.jpg,A1Y07DW8W2UXSD
357,1.0,left,right,0.0,0.945,0.0,57.0,57.0,57.0,1.0,INCA_TERN_4.jpg,ELLIOTS__PHEASANT_4.jpg,A1Y07DW8W2UXSD
358,2.0,left,left,1.0,0.945,0.0,58.0,58.0,58.0,1.0,ASIAN_CRESTED_IBIS_4.jpg,OYSTER_CATCHER_2.jpg,A1Y07DW8W2UXSD
359,2.0,right,left,0.0,1.011,0.0,59.0,59.0,59.0,1.0,KING_VULTURE_3.jpg,LARK_BUNTING_2.jpg,A1Y07DW8W2UXSD
360,2.0,right,right,1.0,1.9543,0.0,0.0,0.0,0.0,1.0,MAGPIE_GOOSE_4.jpg,STRIPPED_SWALLOW_1.jpg,A1YC558J4E5KZ
361,1.0,right,right,1.0,1.9953,0.0,1.0,1.0,1.0,1.0,CASSOWARY_2.jpg,INLAND_DOTTEREL_4.jpg,A1YC558J4E5KZ
362,1.0,right,left,0.0,1.6525,0.0,2.0,2.0,2.0,1.0,INDIAN_BUSTARD_2.jpg,FLAME_BOWERBIRD_3.jpg,A1YC558J4E5KZ
363,1.0,left,left,1.0,1.6845,0.0,3.0,3.0,3.0,1.0,GRAY_KINGBIRD_5.jpg,BALD_EAGLE_2.jpg,A1YC558J4E5KZ
364,2.0,right,right,1.0,1.54,0.0,4.0,4.0,4.0,1.0,STRAWBERRY_FINCH_4.jpg,PEACOCK_3.jpg,A1YC558J4E5KZ
365,3.0,right,right,1.0,1.5067,0.0,5.0,5.0,5.0,1.0,BLACK_BAZA_4.jpg,BROWN_THRASHER_3.jpg,A1YC558J4E5KZ
366,3.0,left,left,1.0,1.9846,0.0,6.0,6.0,6.0,1.0,HAWAIIAN_GOOSE_4.jpg,WATTLED_LAPWING_3.jpg,A1YC558J4E5KZ
367,1.0,left,right,0.0,2.163,0.0,7.0,7.0,7.0,1.0,KAGU_5.jpg,RED_BEARDED_BEE_EATER_3.jpg,A1YC558J4E5KZ
368,3.0,right,left,0.0,1.5649,0.0,8.0,8.0,8.0,1.0,IBERIAN_MAGPIE_1.jpg,BALI_STARLING_1.jpg,A1YC558J4E5KZ
369,3.0,left,right,0.0,2.1782,0.0,9.0,9.0,9.0,1.0,RUFOUS_KINGFISHER_1.jpg,HORNED_SUNGEM_4.jpg,A1YC558J4E5KZ
370,1.0,right,right,1.0,2.5666,0.0,10.0,10.0,10.0,1.0,SCARLET_IBIS_2.jpg,ECUADORIAN_HILLSTAR_5.jpg,A1YC558J4E5KZ
371,1.0,left,left,1.0,1.6575,0.0,11.0,11.0,11.0,1.0,BREWERS_BLACKBIRD_3.jpg,GUINEA_TURACO_3.jpg,A1YC558J4E5KZ
372,1.0,left,right,0.0,2.3704,0.0,12.0,12.0,12.0,1.0,AFRICAN_PIED_HORNBILL_5.jpg,KIWI_4.jpg,A1YC558J4E5KZ
373,2.0,right,right,1.0,2.1693,0.0,13.0,13.0,13.0,1.0,EUROPEAN_GOLDFINCH_4.jpg,CASPIAN_TERN_1.jpg,A1YC558J4E5KZ
374,1.0,right,right,1.0,1.9532,0.0,14.0,14.0,14.0,1.0,GRANDALA_2.jpg,PYGMY_KINGFISHER_5.jpg,A1YC558J4E5KZ
375,2.0,left,right,0.0,2.5602,0.0,15.0,15.0,15.0,1.0,CRESTED_NUTHATCH_2.jpg,AFRICAN_FIREFINCH_1.jpg,A1YC558J4E5KZ
376,1.0,left,right,0.0,1.4167,0.0,16.0,16.0,16.0,1.0,SHOEBILL_3.jpg,EASTERN_MEADOWLARK_1.jpg,A1YC558J4E5KZ
377,2.0,right,right,1.0,1.8359,0.0,17.0,17.0,17.0,1.0,GAMBELS_QUAIL_1.jpg,LESSER_ADJUTANT_5.jpg,A1YC558J4E5KZ
378,3.0,left,left,1.0,1.8772,0.0,18.0,18.0,18.0,1.0,CASSOWARY_1.jpg,AFRICAN_OYSTER_CATCHER_2.jpg,A1YC558J4E5KZ
379,3.0,right,right,1.0,1.7184,0.0,19.0,19.0,19.0,1.0,GREEN_BROADBILL_5.jpg,MALACHITE_KINGFISHER_2.jpg,A1YC558J4E5KZ
380,2.0,right,right,1.0,3.8122,0.0,20.0,20.0,20.0,1.0,EUROPEAN_GOLDFINCH_3.jpg,ALPINE_CHOUGH_4.jpg,A1YC558J4E5KZ
381,2.0,right,right,1.0,1.7783,0.0,21.0,21.0,21.0,1.0,ALBATROSS_4.jpg,PINK_ROBIN_4.jpg,A1YC558J4E5KZ
382,1.0,left,left,1.0,1.9701,0.0,22.0,22.0,22.0,1.0,GYRFALCON_1.jpg,OSTRICH_1.jpg,A1YC558J4E5KZ
383,3.0,left,right,0.0,3.0085,0.0,23.0,23.0,23.0,1.0,GOLDEN_CHLOROPHONIA_5.jpg,VERMILION_FLYCATHER_5.jpg,A1YC558J4E5KZ
384,3.0,left,left,1.0,3.1914,0.0,24.0,24.0,24.0,1.0,CHUKAR_PARTRIDGE_5.jpg,BLACK_THROATED_BUSHTIT_1.jpg,A1YC558J4E5KZ
385,3.0,right,right,1.0,1.399,0.0,25.0,25.0,25.0,1.0,PINK_ROBIN_3.jpg,PARUS_MAJOR_1.jpg,A1YC558J4E5KZ
386,1.0,left,left,1.0,1.8276,0.0,26.0,26.0,26.0,1.0,CERULEAN_WARBLER_1.jpg,AMERICAN_FLAMINGO_2.jpg,A1YC558J4E5KZ
387,2.0,left,left,1.0,9.1151,0.0,27.0,27.0,27.0,1.0,EUROPEAN_TURTLE_DOVE_3.jpg,PAINTED_BUNTING_3.jpg,A1YC558J4E5KZ
388,2.0,right,right,1.0,1.374,0.0,28.0,28.0,28.0,1.0,VULTURINE_GUINEAFOWL_4.jpg,RUBY_THROATED_HUMMINGBIRD_1.jpg,A1YC558J4E5KZ
389,3.0,right,left,0.0,3.2799,0.0,29.0,29.0,29.0,1.0,DUSKY_ROBIN_5.jpg,RUBY_THROATED_HUMMINGBIRD_2.jpg,A1YC558J4E5KZ
390,2.0,right,left,0.0,2.0535,0.0,30.0,30.0,30.0,1.0,MYNA_5.jpg,RUBY_THROATED_HUMMINGBIRD_3.jpg,A1YC558J4E5KZ
391,3.0,right,right,1.0,2.07,0.0,31.0,31.0,31.0,1.0,PURPLE_SWAMPHEN_4.jpg,OCELLATED_TURKEY_1.jpg,A1YC558J4E5KZ
392,2.0,left,right,0.0,3.1459,0.0,32.0,32.0,32.0,1.0,KILLDEAR_2.jpg,CAATINGA_CACHOLOTE_4.jpg,A1YC558J4E5KZ
393,2.0,left,right,0.0,2.8021,0.0,33.0,33.0,33.0,1.0,GOLDEN_CHEEKED_WARBLER_2.jpg,HOUSE_FINCH_2.jpg,A1YC558J4E5KZ
394,1.0,left,left,1.0,2.0917,0.0,34.0,34.0,34.0,1.0,IVORY_GULL_1.jpg,WILSONS_BIRD_OF_PARADISE_4.jpg,A1YC558J4E5KZ
395,1.0,left,left,1.0,1.9042,0.0,35.0,35.0,35.0,1.0,RED_HEADED_WOODPECKER_5.jpg,ASHY_STORM_PETREL_2.jpg,A1YC558J4E5KZ
396,2.0,left,left,1.0,2.4184,0.0,36.0,36.0,36.0,1.0,ASIAN_DOLLARD_BIRD_2.jpg,LOGGERHEAD_SHRIKE_4.jpg,A1YC558J4E5KZ
397,2.0,left,left,1.0,2.3097,0.0,37.0,37.0,37.0,1.0,ASIAN_CRESTED_IBIS_4.jpg,OYSTER_CATCHER_2.jpg,A1YC558J4E5KZ
398,2.0,left,right,0.0,2.7287,0.0,38.0,38.0,38.0,1.0,VERMILION_FLYCATHER_3.jpg,CALIFORNIA_GULL_1.jpg,A1YC558J4E5KZ
399,1.0,right,right,1.0,2.1133,0.0,39.0,39.0,39.0,1.0,EMU_2.jpg,AMERICAN_PIPIT_5.jpg,A1YC558J4E5KZ
400,3.0,right,left,0.0,2.9269,0.0,40.0,40.0,40.0,1.0,SCARLET_IBIS_4.jpg,NORTHERN_JACANA_3.jpg,A1YC558J4E5KZ
401,3.0,right,right,1.0,2.2616,0.0,41.0,41.0,41.0,1.0,GUINEA_TURACO_5.jpg,BROWN_NOODY_3.jpg,A1YC558J4E5KZ
402,1.0,left,left,1.0,2.1194,0.0,42.0,42.0,42.0,1.0,CRESTED_CARACARA_4.jpg,FAIRY_PENGUIN_5.jpg,A1YC558J4E5KZ
403,3.0,left,right,0.0,1.7079,0.0,43.0,43.0,43.0,1.0,DOUBLE_BRESTED_CORMARANT_5.jpg,CHINESE_POND_HERON_2.jpg,A1YC558J4E5KZ
404,1.0,right,right,1.0,3.0323,0.0,44.0,44.0,44.0,1.0,DOUBLE_EYED_FIG_PARROT_5.jpg,MAGPIE_GOOSE_5.jpg,A1YC558J4E5KZ
405,3.0,left,left,1.0,1.5093,0.0,45.0,45.0,45.0,1.0,GREY_PLOVER_1.jpg,ECUADORIAN_HILLSTAR_3.jpg,A1YC558J4E5KZ
406,3.0,right,left,0.0,1.8945,0.0,46.0,46.0,46.0,1.0,NORTHERN_BEARDLESS_TYRANNULET_5.jpg,EASTERN_TOWEE_2.jpg,A1YC558J4E5KZ
407,2.0,left,right,0.0,2.165,0.0,47.0,47.0,47.0,1.0,MYNA_1.jpg,GREY_PLOVER_4.jpg,A1YC558J4E5KZ
408,2.0,right,right,1.0,2.871,0.0,48.0,48.0,48.0,1.0,FLAME_TANAGER_3.jpg,IVORY_GULL_3.jpg,A1YC558J4E5KZ
409,3.0,right,right,1.0,2.918,0.0,49.0,49.0,49.0,1.0,CUBAN_TODY_4.jpg,SPLENDID_WREN_1.jpg,A1YC558J4E5KZ
410,3.0,right,left,0.0,2.3355,0.0,50.0,50.0,50.0,1.0,BORNEAN_LEAFBIRD_3.jpg,ARARIPE_MANAKIN_4.jpg,A1YC558J4E5KZ
411,2.0,right,left,0.0,2.1347,0.0,51.0,51.0,51.0,1.0,NORTHERN_GANNET_2.jpg,SCARLET_TANAGER_2.jpg,A1YC558J4E5KZ
412,1.0,left,right,0.0,2.678,0.0,52.0,52.0,52.0,1.0,LESSER_ADJUTANT_4.jpg,ALTAMIRA_YELLOWTHROAT_5.jpg,A1YC558J4E5KZ
413,1.0,left,left,1.0,1.7201,0.0,53.0,53.0,53.0,1.0,TASMANIAN_HEN_5.jpg,GREEN_BROADBILL_1.jpg,A1YC558J4E5KZ
414,1.0,right,left,0.0,1.9547,0.0,54.0,54.0,54.0,1.0,SANDHILL_CRANE_3.jpg,LITTLE_AUK_5.jpg,A1YC558J4E5KZ
415,3.0,left,left,1.0,2.7263,0.0,55.0,55.0,55.0,1.0,INCA_TERN_4.jpg,BORNEAN_BRISTLEHEAD_5.jpg,A1YC558J4E5KZ
416,2.0,left,left,1.0,2.0222,0.0,56.0,56.0,56.0,1.0,INDIGO_BUNTING_1.jpg,NORTHERN_GANNET_1.jpg,A1YC558J4E5KZ
417,2.0,left,left,1.0,1.5789,0.0,57.0,57.0,57.0,1.0,OVENBIRD_5.jpg,FAIRY_PENGUIN_1.jpg,A1YC558J4E5KZ
418,1.0,right,right,1.0,1.402,0.0,58.0,58.0,58.0,1.0,PEACOCK_1.jpg,LARK_BUNTING_2.jpg,A1YC558J4E5KZ
419,3.0,right,right,1.0,2.0825,0.0,59.0,59.0,59.0,1.0,PYGMY_KINGFISHER_2.jpg,WHITE_CHEEKED_TURACO_5.jpg,A1YC558J4E5KZ
420,1.0,right,left,0.0,5.3279,0.0,0.0,0.0,0.0,1.0,OSTRICH_5.jpg,CHUKAR_PARTRIDGE_5.jpg,A249ZABI42JTSS
421,3.0,right,left,0.0,2.9334,0.0,1.0,1.0,1.0,1.0,CAPUCHINBIRD_2.jpg,AFRICAN_PIED_HORNBILL_5.jpg,A249ZABI42JTSS
422,3.0,right,right,1.0,2.1077,0.0,2.0,2.0,2.0,1.0,CANARY_1.jpg,CRESTED_NUTHATCH_2.jpg,A249ZABI42JTSS
423,3.0,right,right,1.0,2.1315,0.0,3.0,3.0,3.0,1.0,HORNED_SUNGEM_4.jpg,RUFOUS_KINGFISHER_1.jpg,A249ZABI42JTSS
424,1.0,right,right,1.0,3.165,0.0,4.0,4.0,4.0,1.0,SPOONBILL_3.jpg,PINK_ROBIN_4.jpg,A249ZABI42JTSS
425,1.0,left,right,0.0,2.6483,0.0,5.0,5.0,5.0,1.0,OVENBIRD_5.jpg,MYNA_4.jpg,A249ZABI42JTSS
426,2.0,right,left,0.0,2.5051,0.0,6.0,6.0,6.0,1.0,NICOBAR_PIGEON_4.jpg,INLAND_DOTTEREL_4.jpg,A249ZABI42JTSS
427,3.0,right,left,0.0,3.6407,0.0,7.0,7.0,7.0,1.0,VIOLET_GREEN_SWALLOW_4.jpg,ASIAN_DOLLARD_BIRD_2.jpg,A249ZABI42JTSS
428,3.0,left,right,0.0,2.9391,0.0,8.0,8.0,8.0,1.0,LARK_BUNTING_2.jpg,CACTUS_WREN_3.jpg,A249ZABI42JTSS
429,2.0,right,right,1.0,3.0628,0.0,9.0,9.0,9.0,1.0,ASHY_STORM_PETREL_1.jpg,KAGU_5.jpg,A249ZABI42JTSS
430,3.0,right,left,0.0,1.2386,0.0,10.0,10.0,10.0,1.0,BORNEAN_BRISTLEHEAD_5.jpg,INCA_TERN_4.jpg,A249ZABI42JTSS
431,3.0,left,left,1.0,1.6349,0.0,11.0,11.0,11.0,1.0,RUBY_THROATED_HUMMINGBIRD_2.jpg,DUSKY_ROBIN_5.jpg,A249ZABI42JTSS
432,1.0,left,right,0.0,1.4961,0.0,12.0,12.0,12.0,1.0,MYNA_1.jpg,OSTRICH_3.jpg,A249ZABI42JTSS
433,3.0,left,right,0.0,1.2504,0.0,13.0,13.0,13.0,1.0,ALPINE_CHOUGH_4.jpg,BOBOLINK_3.jpg,A249ZABI42JTSS
434,1.0,left,left,1.0,2.9931,0.0,14.0,14.0,14.0,1.0,GRAY_KINGBIRD_5.jpg,BALD_EAGLE_2.jpg,A249ZABI42JTSS
435,1.0,right,right,1.0,2.7318,0.0,15.0,15.0,15.0,1.0,AMERICAN_FLAMINGO_2.jpg,CERULEAN_WARBLER_1.jpg,A249ZABI42JTSS
436,1.0,left,right,0.0,2.9461,0.0,16.0,16.0,16.0,1.0,IVORY_GULL_3.jpg,INDIGO_FLYCATCHER_2.jpg,A249ZABI42JTSS
437,1.0,left,right,0.0,1.717,0.0,17.0,17.0,17.0,1.0,ECUADORIAN_HILLSTAR_5.jpg,SCARLET_IBIS_2.jpg,A249ZABI42JTSS
438,1.0,right,right,1.0,2.4716,0.0,18.0,18.0,18.0,1.0,CANARY_2.jpg,ASIAN_CRESTED_IBIS_4.jpg,A249ZABI42JTSS
439,2.0,left,left,1.0,2.8123,0.0,19.0,19.0,19.0,1.0,NORTHERN_JACANA_3.jpg,CRAB_PLOVER_3.jpg,A249ZABI42JTSS
440,2.0,left,left,1.0,2.0626,0.0,20.0,20.0,20.0,1.0,RUBY_THROATED_HUMMINGBIRD_1.jpg,VULTURINE_GUINEAFOWL_4.jpg,A249ZABI42JTSS
441,1.0,right,right,1.0,2.0307,0.0,21.0,21.0,21.0,1.0,GREEN_BROADBILL_1.jpg,TASMANIAN_HEN_5.jpg,A249ZABI42JTSS
442,3.0,left,left,1.0,3.1674,0.0,22.0,22.0,22.0,1.0,GYRFALCON_1.jpg,FAIRY_TERN_1.jpg,A249ZABI42JTSS
443,2.0,right,right,1.0,1.8744,0.0,23.0,23.0,23.0,1.0,MASKED_BOOBY_5.jpg,PYGMY_KINGFISHER_5.jpg,A249ZABI42JTSS
444,1.0,right,right,1.0,1.485,0.0,24.0,24.0,24.0,1.0,EMU_2.jpg,AMERICAN_PIPIT_5.jpg,A249ZABI42JTSS
445,2.0,right,right,1.0,1.9078,0.0,25.0,25.0,25.0,1.0,GILDED_FLICKER_5.jpg,SHOEBILL_3.jpg,A249ZABI42JTSS
446,2.0,right,right,1.0,1.4598,0.0,26.0,26.0,26.0,1.0,AMERICAN_PIPIT_1.jpg,OCELLATED_TURKEY_1.jpg,A249ZABI42JTSS
447,1.0,right,left,0.0,1.9184,0.0,27.0,27.0,27.0,1.0,PEACOCK_2.jpg,BROWN_NOODY_3.jpg,A249ZABI42JTSS
448,2.0,right,right,1.0,1.216,0.0,28.0,28.0,28.0,1.0,EUROPEAN_GOLDFINCH_4.jpg,CASPIAN_TERN_1.jpg,A249ZABI42JTSS
449,1.0,left,left,1.0,2.6822,0.0,29.0,29.0,29.0,1.0,LESSER_ADJUTANT_5.jpg,GREEN_BROADBILL_4.jpg,A249ZABI42JTSS
450,1.0,right,left,0.0,2.0244,0.0,30.0,30.0,30.0,1.0,SANDHILL_CRANE_2.jpg,EASTERN_TOWEE_2.jpg,A249ZABI42JTSS
451,2.0,left,right,0.0,1.8005,0.0,31.0,31.0,31.0,1.0,GOLDEN_CHEEKED_WARBLER_2.jpg,HOUSE_FINCH_2.jpg,A249ZABI42JTSS
452,2.0,left,right,0.0,2.45,0.0,32.0,32.0,32.0,1.0,ARARIPE_MANAKIN_4.jpg,BLACK_VULTURE_1.jpg,A249ZABI42JTSS
453,2.0,right,left,0.0,1.349,0.0,33.0,33.0,33.0,1.0,PAINTED_BUNTING_3.jpg,EUROPEAN_TURTLE_DOVE_3.jpg,A249ZABI42JTSS
454,1.0,left,left,1.0,1.7382,0.0,34.0,34.0,34.0,1.0,BROWN_THRASHER_3.jpg,DOUBLE_EYED_FIG_PARROT_3.jpg,A249ZABI42JTSS
455,3.0,right,left,0.0,2.1165,0.0,35.0,35.0,35.0,1.0,PYGMY_KINGFISHER_2.jpg,WHITE_CHEEKED_TURACO_5.jpg,A249ZABI42JTSS
456,1.0,left,left,1.0,1.4896,0.0,36.0,36.0,36.0,1.0,KILLDEAR_2.jpg,PEACOCK_5.jpg,A249ZABI42JTSS
457,2.0,right,left,0.0,2.0171,0.0,37.0,37.0,37.0,1.0,NORTHERN_GANNET_2.jpg,SCARLET_TANAGER_2.jpg,A249ZABI42JTSS
458,3.0,right,right,1.0,3.2119,0.0,38.0,38.0,38.0,1.0,CHATTERING_LORY_2.jpg,PEACOCK_3.jpg,A249ZABI42JTSS
459,3.0,right,left,0.0,2.4166,0.0,39.0,39.0,39.0,1.0,WATTLED_LAPWING_3.jpg,HAWAIIAN_GOOSE_4.jpg,A249ZABI42JTSS
460,3.0,left,left,1.0,1.701,0.0,40.0,40.0,40.0,1.0,GOLDEN_CHLOROPHONIA_5.jpg,VERMILION_FLYCATHER_5.jpg,A249ZABI42JTSS
461,3.0,left,right,0.0,1.5473,0.0,41.0,41.0,41.0,1.0,BREWERS_BLACKBIRD_3.jpg,CAPE_LONGCLAW_2.jpg,A249ZABI42JTSS
462,2.0,right,left,0.0,2.1027,0.0,42.0,42.0,42.0,1.0,EURASIAN_MAGPIE_4.jpg,DOUBLE_BRESTED_CORMARANT_5.jpg,A249ZABI42JTSS
463,3.0,right,right,1.0,1.431,0.0,43.0,43.0,43.0,1.0,NORTHERN_SHOVELER_1.jpg,RUBY_THROATED_HUMMINGBIRD_3.jpg,A249ZABI42JTSS
464,1.0,left,right,0.0,1.513,0.0,44.0,44.0,44.0,1.0,IVORY_GULL_1.jpg,WILSONS_BIRD_OF_PARADISE_4.jpg,A249ZABI42JTSS
465,3.0,left,right,0.0,1.5455,0.0,45.0,45.0,45.0,1.0,CRESTED_CARACARA_4.jpg,TOUCHAN_4.jpg,A249ZABI42JTSS
466,3.0,right,left,0.0,2.0654,0.0,46.0,46.0,46.0,1.0,DARWINS_FLYCATCHER_2.jpg,INDIGO_BUNTING_1.jpg,A249ZABI42JTSS
467,3.0,left,left,1.0,3.2614,0.0,47.0,47.0,47.0,1.0,CASSOWARY_1.jpg,AFRICAN_OYSTER_CATCHER_2.jpg,A249ZABI42JTSS
468,3.0,left,left,1.0,1.9461,0.0,48.0,48.0,48.0,1.0,MAGPIE_GOOSE_5.jpg,OYSTER_CATCHER_3.jpg,A249ZABI42JTSS
469,2.0,left,left,1.0,1.2155,0.0,49.0,49.0,49.0,1.0,FLAME_BOWERBIRD_3.jpg,BROWN_THRASHER_4.jpg,A249ZABI42JTSS
470,2.0,right,right,1.0,1.0889,0.0,50.0,50.0,50.0,1.0,RAINBOW_LORIKEET_5.jpg,LESSER_ADJUTANT_4.jpg,A249ZABI42JTSS
471,2.0,right,left,0.0,2.2802,0.0,51.0,51.0,51.0,1.0,DOUBLE_BRESTED_CORMARANT_1.jpg,SPLENDID_WREN_1.jpg,A249ZABI42JTSS
472,2.0,right,right,1.0,3.1258,0.0,52.0,52.0,52.0,1.0,CALIFORNIA_GULL_1.jpg,VERMILION_FLYCATHER_3.jpg,A249ZABI42JTSS
473,1.0,left,right,0.0,1.7405,0.0,53.0,53.0,53.0,1.0,LITTLE_AUK_5.jpg,SANDHILL_CRANE_3.jpg,A249ZABI42JTSS
474,3.0,left,right,0.0,1.8421,0.0,54.0,54.0,54.0,1.0,BALI_STARLING_1.jpg,IBERIAN_MAGPIE_1.jpg,A249ZABI42JTSS
475,1.0,left,left,1.0,1.8593,0.0,55.0,55.0,55.0,1.0,STRIPPED_SWALLOW_1.jpg,DOUBLE_BRESTED_CORMARANT_4.jpg,A249ZABI42JTSS
476,2.0,left,right,0.0,1.699,0.0,56.0,56.0,56.0,1.0,RED_HEADED_WOODPECKER_5.jpg,CRIMSON_CHAT_3.jpg,A249ZABI42JTSS
477,2.0,left,right,0.0,4.5646,0.0,57.0,57.0,57.0,1.0,GREY_PLOVER_1.jpg,GOULDIAN_FINCH_4.jpg,A249ZABI42JTSS
478,1.0,left,left,1.0,1.4734,0.0,58.0,58.0,58.0,1.0,MALACHITE_KINGFISHER_2.jpg,AMERICAN_FLAMINGO_1.jpg,A249ZABI42JTSS
479,2.0,left,left,1.0,5.5666,0.0,59.0,59.0,59.0,1.0,PARUS_MAJOR_1.jpg,CALIFORNIA_GULL_2.jpg,A249ZABI42JTSS
480,2.0,right,left,0.0,1.354,0.0,0.0,0.0,0.0,1.0,AMERICAN_FLAMINGO_5.jpg,CERULEAN_WARBLER_1.jpg,A28P7V6WDT9UN1
481,3.0,left,right,0.0,1.162,0.0,1.0,1.0,1.0,1.0,GREY_PLOVER_1.jpg,ECUADORIAN_HILLSTAR_3.jpg,A28P7V6WDT9UN1
482,1.0,left,left,1.0,0.811,0.0,2.0,2.0,2.0,1.0,IVORY_GULL_3.jpg,INDIGO_FLYCATCHER_2.jpg,A28P7V6WDT9UN1
483,1.0,left,left,1.0,1.342,0.0,3.0,3.0,3.0,1.0,PEACOCK_3.jpg,ANIANIAU_2.jpg,A28P7V6WDT9UN1
484,3.0,right,right,1.0,1.118,0.0,4.0,4.0,4.0,1.0,VIOLET_GREEN_SWALLOW_4.jpg,ASIAN_DOLLARD_BIRD_2.jpg,A28P7V6WDT9UN1
485,2.0,left,right,0.0,0.792,0.0,5.0,5.0,5.0,1.0,LARK_BUNTING_2.jpg,KING_VULTURE_3.jpg,A28P7V6WDT9UN1
486,2.0,left,right,0.0,1.151,0.0,6.0,6.0,6.0,1.0,MALACHITE_KINGFISHER_2.jpg,INCA_TERN_2.jpg,A28P7V6WDT9UN1
487,2.0,right,right,1.0,1.178,0.0,7.0,7.0,7.0,1.0,MAGPIE_GOOSE_4.jpg,STRIPPED_SWALLOW_1.jpg,A28P7V6WDT9UN1
488,3.0,left,left,1.0,1.144,0.0,8.0,8.0,8.0,1.0,OVENBIRD_5.jpg,SHORT_BILLED_DOWITCHER_5.jpg,A28P7V6WDT9UN1
489,2.0,left,left,1.0,1.266,0.0,9.0,9.0,9.0,1.0,INCA_TERN_4.jpg,SMITHS_LONGSPUR_5.jpg,A28P7V6WDT9UN1
490,1.0,left,left,1.0,1.255,0.0,10.0,10.0,10.0,1.0,KILLDEAR_2.jpg,PEACOCK_5.jpg,A28P7V6WDT9UN1
491,2.0,left,right,0.0,0.99,0.0,11.0,11.0,11.0,1.0,VERMILION_FLYCATHER_3.jpg,CALIFORNIA_GULL_1.jpg,A28P7V6WDT9UN1
492,1.0,right,right,1.0,1.434,0.0,12.0,12.0,12.0,1.0,GREAT_GRAY_OWL_4.jpg,CASPIAN_TERN_1.jpg,A28P7V6WDT9UN1
493,3.0,left,left,1.0,0.978,0.0,13.0,13.0,13.0,1.0,ECUADORIAN_HILLSTAR_5.jpg,CRIMSON_SUNBIRD_5.jpg,A28P7V6WDT9UN1
494,3.0,left,left,1.0,0.939,0.0,14.0,14.0,14.0,1.0,BREWERS_BLACKBIRD_3.jpg,CAPE_LONGCLAW_2.jpg,A28P7V6WDT9UN1
495,2.0,left,left,1.0,1.296,0.0,15.0,15.0,15.0,1.0,EUROPEAN_TURTLE_DOVE_3.jpg,PAINTED_BUNTING_3.jpg,A28P7V6WDT9UN1
496,2.0,left,right,0.0,0.805,0.0,16.0,16.0,16.0,1.0,OCELLATED_TURKEY_1.jpg,AMERICAN_PIPIT_1.jpg,A28P7V6WDT9UN1
497,1.0,right,left,0.0,1.094,0.0,17.0,17.0,17.0,1.0,CUBAN_TODY_3.jpg,HAWAIIAN_GOOSE_4.jpg,A28P7V6WDT9UN1
498,1.0,left,right,0.0,1.091,0.0,18.0,18.0,18.0,1.0,ARARIPE_MANAKIN_4.jpg,KIWI_3.jpg,A28P7V6WDT9UN1
499,3.0,right,left,0.0,1.1,0.0,19.0,19.0,19.0,1.0,BLACK_BAZA_4.jpg,BROWN_THRASHER_3.jpg,A28P7V6WDT9UN1
500,3.0,right,left,0.0,1.136,0.0,20.0,20.0,20.0,1.0,BALD_EAGLE_5.jpg,SHOEBILL_3.jpg,A28P7V6WDT9UN1
501,1.0,right,left,0.0,1.117,0.0,21.0,21.0,21.0,1.0,ROADRUNNER_2.jpg,GOLDEN_CHLOROPHONIA_5.jpg,A28P7V6WDT9UN1
502,1.0,right,right,1.0,1.112,0.0,22.0,22.0,22.0,1.0,EMU_2.jpg,AMERICAN_PIPIT_5.jpg,A28P7V6WDT9UN1
503,3.0,left,right,0.0,1.269,0.0,23.0,23.0,23.0,1.0,GYRFALCON_1.jpg,FAIRY_TERN_1.jpg,A28P7V6WDT9UN1
504,3.0,right,right,1.0,1.09,0.0,24.0,24.0,24.0,1.0,BEARDED_BELLBIRD_1.jpg,LITTLE_AUK_5.jpg,A28P7V6WDT9UN1
505,3.0,left,left,1.0,1.316,0.0,25.0,25.0,25.0,1.0,GOLDEN_CHEEKED_WARBLER_2.jpg,WHITE_THROATED_BEE_EATER_1.jpg,A28P7V6WDT9UN1
506,2.0,right,left,0.0,1.389,0.0,26.0,26.0,26.0,1.0,GREAT_POTOO_3.jpg,WHITE_CHEEKED_TURACO_5.jpg,A28P7V6WDT9UN1
507,3.0,right,left,0.0,1.566,0.0,27.0,27.0,27.0,1.0,GUINEA_TURACO_5.jpg,BROWN_NOODY_3.jpg,A28P7V6WDT9UN1
508,2.0,left,right,0.0,1.459,0.0,28.0,28.0,28.0,1.0,PARUS_MAJOR_1.jpg,CALIFORNIA_GULL_2.jpg,A28P7V6WDT9UN1
509,2.0,left,left,1.0,1.321,0.0,29.0,29.0,29.0,1.0,PINK_ROBIN_4.jpg,ALBATROSS_4.jpg,A28P7V6WDT9UN1
510,3.0,right,left,0.0,2.596,0.0,30.0,30.0,30.0,1.0,TOUCHAN_4.jpg,CRESTED_CARACARA_4.jpg,A28P7V6WDT9UN1
511,1.0,left,left,1.0,1.192,0.0,31.0,31.0,31.0,1.0,TASMANIAN_HEN_5.jpg,GREEN_BROADBILL_1.jpg,A28P7V6WDT9UN1
512,1.0,left,left,1.0,1.798,0.0,32.0,32.0,32.0,1.0,FLAME_BOWERBIRD_3.jpg,INDIAN_BUSTARD_2.jpg,A28P7V6WDT9UN1
513,1.0,left,right,0.0,1.24,0.0,33.0,33.0,33.0,1.0,GRAY_KINGBIRD_5.jpg,BALD_EAGLE_2.jpg,A28P7V6WDT9UN1
514,2.0,right,left,0.0,1.683,0.0,34.0,34.0,34.0,1.0,NORTHERN_GANNET_2.jpg,SCARLET_TANAGER_2.jpg,A28P7V6WDT9UN1
515,2.0,right,left,0.0,1.776,0.0,35.0,35.0,35.0,1.0,GOLDEN_CHLOROPHONIA_1.jpg,EASTERN_TOWEE_2.jpg,A28P7V6WDT9UN1
516,3.0,left,left,1.0,1.201,0.0,36.0,36.0,36.0,1.0,ASIAN_CRESTED_IBIS_4.jpg,IVORY_GULL_2.jpg,A28P7V6WDT9UN1
517,3.0,right,left,0.0,1.753,0.0,37.0,37.0,37.0,1.0,DOUBLE_EYED_FIG_PARROT_4.jpg,PYGMY_KINGFISHER_5.jpg,A28P7V6WDT9UN1
518,1.0,left,left,1.0,1.286,0.0,38.0,38.0,38.0,1.0,CRESTED_NUTHATCH_2.jpg,SCARLET_IBIS_3.jpg,A28P7V6WDT9UN1
519,3.0,right,left,0.0,2.399,0.0,39.0,39.0,39.0,1.0,DARWINS_FLYCATCHER_2.jpg,INDIGO_BUNTING_1.jpg,A28P7V6WDT9UN1
520,3.0,right,right,1.0,1.783,0.0,40.0,40.0,40.0,1.0,DEMOISELLE_CRANE_1.jpg,KAGU_5.jpg,A28P7V6WDT9UN1
521,1.0,right,left,0.0,1.127,0.0,41.0,41.0,41.0,1.0,GILDED_FLICKER_2.jpg,DOUBLE_BRESTED_CORMARANT_5.jpg,A28P7V6WDT9UN1
522,1.0,right,left,0.0,1.189,0.0,42.0,42.0,42.0,1.0,KIWI_4.jpg,AFRICAN_PIED_HORNBILL_5.jpg,A28P7V6WDT9UN1
523,2.0,right,right,1.0,1.72,0.0,43.0,43.0,43.0,1.0,NICOBAR_PIGEON_4.jpg,INLAND_DOTTEREL_4.jpg,A28P7V6WDT9UN1
524,3.0,left,left,1.0,1.003,0.0,44.0,44.0,44.0,1.0,LESSER_ADJUTANT_5.jpg,RED_HEADED_WOODPECKER_1.jpg,A28P7V6WDT9UN1
525,1.0,left,left,1.0,2.898,0.0,45.0,45.0,45.0,1.0,LESSER_ADJUTANT_4.jpg,ALTAMIRA_YELLOWTHROAT_5.jpg,A28P7V6WDT9UN1
526,2.0,left,left,1.0,2.889,0.0,46.0,46.0,46.0,1.0,MYNA_1.jpg,GREY_PLOVER_4.jpg,A28P7V6WDT9UN1
527,3.0,left,left,1.0,1.65,0.0,47.0,47.0,47.0,1.0,NORTHERN_JACANA_3.jpg,SCARLET_IBIS_4.jpg,A28P7V6WDT9UN1
528,1.0,right,left,0.0,1.322,0.0,48.0,48.0,48.0,1.0,MALAGASY_WHITE_EYE_2.jpg,RUBY_THROATED_HUMMINGBIRD_3.jpg,A28P7V6WDT9UN1
529,2.0,right,left,0.0,1.83,0.0,49.0,49.0,49.0,1.0,PURPLE_FINCH_2.jpg,BALI_STARLING_1.jpg,A28P7V6WDT9UN1
530,1.0,left,right,0.0,1.096,0.0,50.0,50.0,50.0,1.0,RUBY_THROATED_HUMMINGBIRD_2.jpg,GOLDEN_CHLOROPHONIA_2.jpg,A28P7V6WDT9UN1
531,2.0,right,left,0.0,0.968,0.0,51.0,51.0,51.0,1.0,RAZORBILL_1.jpg,CHUKAR_PARTRIDGE_5.jpg,A28P7V6WDT9UN1
532,3.0,left,left,1.0,1.454,0.0,52.0,52.0,52.0,1.0,MAGPIE_GOOSE_5.jpg,OYSTER_CATCHER_3.jpg,A28P7V6WDT9UN1
533,3.0,left,left,1.0,1.461,0.0,53.0,53.0,53.0,1.0,RED_HEADED_WOODPECKER_5.jpg,COLLARED_ARACARI_1.jpg,A28P7V6WDT9UN1
534,2.0,left,right,0.0,0.976,0.0,54.0,54.0,54.0,1.0,IVORY_GULL_1.jpg,EASTERN_GOLDEN_WEAVER_5.jpg,A28P7V6WDT9UN1
535,2.0,right,left,0.0,0.948,0.0,55.0,55.0,55.0,1.0,SCARLET_MACAW_1.jpg,CASSOWARY_1.jpg,A28P7V6WDT9UN1
536,1.0,left,left,1.0,1.848,0.0,56.0,56.0,56.0,1.0,RUBY_THROATED_HUMMINGBIRD_1.jpg,BANANAQUIT_2.jpg,A28P7V6WDT9UN1
537,1.0,right,right,1.0,1.196,0.0,57.0,57.0,57.0,1.0,POMARINE_JAEGER_5.jpg,SPLENDID_WREN_1.jpg,A28P7V6WDT9UN1
538,1.0,left,left,1.0,1.657,0.0,58.0,58.0,58.0,1.0,RUFOUS_KINGFISHER_1.jpg,SNOWY_OWL_5.jpg,A28P7V6WDT9UN1
539,2.0,right,right,1.0,1.269,0.0,59.0,59.0,59.0,1.0,EUROPEAN_GOLDFINCH_3.jpg,ALPINE_CHOUGH_4.jpg,A28P7V6WDT9UN1
540,2.0,left,left,1.0,1.855,0.0,0.0,0.0,0.0,1.0,DOUBLE_BRESTED_CORMARANT_5.jpg,EURASIAN_MAGPIE_4.jpg,A290Z6QAL17PQE
541,3.0,left,right,0.0,1.011,0.0,1.0,1.0,1.0,1.0,IVORY_GULL_1.jpg,FAIRY_TERN_4.jpg,A290Z6QAL17PQE
542,1.0,right,left,0.0,1.253,0.0,2.0,2.0,2.0,1.0,MYNA_4.jpg,OVENBIRD_5.jpg,A290Z6QAL17PQE
543,2.0,right,left,0.0,2.054,0.0,3.0,3.0,3.0,1.0,BOBOLINK_5.jpg,ECUADORIAN_HILLSTAR_5.jpg,A290Z6QAL17PQE
544,2.0,left,left,1.0,1.954,0.0,4.0,4.0,4.0,1.0,BREWERS_BLACKBIRD_3.jpg,GOLDEN_CHEEKED_WARBLER_3.jpg,A290Z6QAL17PQE
545,2.0,left,right,0.0,1.904,0.0,5.0,5.0,5.0,1.0,CERULEAN_WARBLER_1.jpg,AMERICAN_FLAMINGO_5.jpg,A290Z6QAL17PQE
546,1.0,right,right,1.0,1.258,0.0,6.0,6.0,6.0,1.0,ROSY_FACED_LOVEBIRD_4.jpg,CASSOWARY_1.jpg,A290Z6QAL17PQE
547,2.0,right,left,0.0,1.522,0.0,7.0,7.0,7.0,1.0,BROWN_THRASHER_4.jpg,FLAME_BOWERBIRD_3.jpg,A290Z6QAL17PQE
548,3.0,left,left,1.0,1.12,0.0,8.0,8.0,8.0,1.0,LESSER_ADJUTANT_5.jpg,RED_HEADED_WOODPECKER_1.jpg,A290Z6QAL17PQE
549,3.0,right,left,0.0,2.241,0.0,9.0,9.0,9.0,1.0,CAPUCHINBIRD_2.jpg,AFRICAN_PIED_HORNBILL_5.jpg,A290Z6QAL17PQE
550,2.0,right,right,1.0,1.241,0.0,10.0,10.0,10.0,1.0,AFRICAN_FIREFINCH_1.jpg,CRESTED_NUTHATCH_2.jpg,A290Z6QAL17PQE
551,1.0,right,right,1.0,1.021,0.0,11.0,11.0,11.0,1.0,CHIPPING_SPARROW_1.jpg,OCELLATED_TURKEY_1.jpg,A290Z6QAL17PQE
552,3.0,right,right,1.0,1.524,0.0,12.0,12.0,12.0,1.0,ECUADORIAN_HILLSTAR_3.jpg,GREY_PLOVER_1.jpg,A290Z6QAL17PQE
553,1.0,right,left,0.0,1.453,0.0,13.0,13.0,13.0,1.0,DOUBLE_EYED_FIG_PARROT_5.jpg,MAGPIE_GOOSE_5.jpg,A290Z6QAL17PQE
554,1.0,left,left,1.0,1.759,0.0,14.0,14.0,14.0,1.0,VERMILION_FLYCATHER_3.jpg,INDIAN_BUSTARD_1.jpg,A290Z6QAL17PQE
555,3.0,right,left,0.0,1.989,0.0,15.0,15.0,15.0,1.0,BEARDED_BELLBIRD_1.jpg,LITTLE_AUK_5.jpg,A290Z6QAL17PQE
556,1.0,right,right,1.0,0.972,0.0,16.0,16.0,16.0,1.0,ROADRUNNER_2.jpg,GOLDEN_CHLOROPHONIA_5.jpg,A290Z6QAL17PQE
557,2.0,right,right,1.0,1.668,0.0,17.0,17.0,17.0,1.0,GREEN_MAGPIE_1.jpg,AMERICAN_PIPIT_5.jpg,A290Z6QAL17PQE
558,3.0,left,right,0.0,1.86,0.0,18.0,18.0,18.0,1.0,MYNA_1.jpg,PARADISE_TANAGER_3.jpg,A290Z6QAL17PQE
559,1.0,left,left,1.0,0.222,0.0,19.0,19.0,19.0,1.0,RUBY_THROATED_HUMMINGBIRD_1.jpg,BANANAQUIT_2.jpg,A290Z6QAL17PQE
560,1.0,right,left,0.0,0.817,0.0,20.0,20.0,20.0,1.0,CANARY_2.jpg,ASIAN_CRESTED_IBIS_4.jpg,A290Z6QAL17PQE
561,2.0,left,left,1.0,1.453,0.0,21.0,21.0,21.0,1.0,ARARIPE_MANAKIN_4.jpg,BLACK_VULTURE_1.jpg,A290Z6QAL17PQE
562,2.0,right,left,0.0,0.823,0.0,22.0,22.0,22.0,1.0,OYSTER_CATCHER_4.jpg,BROWN_THRASHER_3.jpg,A290Z6QAL17PQE
563,2.0,right,right,1.0,1.471,0.0,23.0,23.0,23.0,1.0,INCA_TERN_2.jpg,MALACHITE_KINGFISHER_2.jpg,A290Z6QAL17PQE
564,1.0,right,left,0.0,1.678,0.0,24.0,24.0,24.0,1.0,ELLIOTS__PHEASANT_4.jpg,INCA_TERN_4.jpg,A290Z6QAL17PQE
565,3.0,right,right,1.0,1.155,0.0,25.0,25.0,25.0,1.0,NORTHERN_BEARDLESS_TYRANNULET_5.jpg,EASTERN_TOWEE_2.jpg,A290Z6QAL17PQE
566,1.0,left,left,1.0,1.075,0.0,26.0,26.0,26.0,1.0,PYGMY_KINGFISHER_5.jpg,GRANDALA_2.jpg,A290Z6QAL17PQE
567,1.0,right,right,1.0,0.853,0.0,27.0,27.0,27.0,1.0,SPOONBILL_3.jpg,PINK_ROBIN_4.jpg,A290Z6QAL17PQE
568,2.0,right,left,0.0,1.032,0.0,28.0,28.0,28.0,1.0,GILDED_FLICKER_5.jpg,SHOEBILL_3.jpg,A290Z6QAL17PQE
569,3.0,right,left,0.0,0.868,0.0,29.0,29.0,29.0,1.0,GO_AWAY_BIRD_5.jpg,STRIPPED_SWALLOW_1.jpg,A290Z6QAL17PQE
570,2.0,left,right,0.0,1.663,0.0,30.0,30.0,30.0,1.0,NORTHERN_JACANA_3.jpg,CRAB_PLOVER_3.jpg,A290Z6QAL17PQE
571,2.0,right,left,0.0,0.619,0.0,31.0,31.0,31.0,1.0,CAATINGA_CACHOLOTE_4.jpg,KILLDEAR_2.jpg,A290Z6QAL17PQE
572,1.0,right,right,1.0,1.061,0.0,32.0,32.0,32.0,1.0,ALTAMIRA_YELLOWTHROAT_5.jpg,LESSER_ADJUTANT_4.jpg,A290Z6QAL17PQE
573,2.0,right,left,0.0,1.742,0.0,33.0,33.0,33.0,1.0,MAGPIE_GOOSE_3.jpg,RUFOUS_KINGFISHER_1.jpg,A290Z6QAL17PQE
574,2.0,right,right,1.0,1.865,0.0,34.0,34.0,34.0,1.0,INDIAN_PITTA_2.jpg,CRESTED_CARACARA_4.jpg,A290Z6QAL17PQE
575,3.0,right,left,0.0,0.556,0.0,35.0,35.0,35.0,1.0,PINK_ROBIN_3.jpg,PARUS_MAJOR_1.jpg,A290Z6QAL17PQE
576,3.0,left,right,0.0,1.3,0.0,36.0,36.0,36.0,1.0,SCARLET_TANAGER_2.jpg,BORNEAN_LEAFBIRD_1.jpg,A290Z6QAL17PQE
577,3.0,right,left,0.0,0.254,0.0,37.0,37.0,37.0,1.0,CRESTED_KINGFISHER_1.jpg,INLAND_DOTTEREL_4.jpg,A290Z6QAL17PQE
578,2.0,right,right,1.0,1.636,0.0,38.0,38.0,38.0,1.0,PURPLE_FINCH_2.jpg,BALI_STARLING_1.jpg,A290Z6QAL17PQE
579,3.0,left,left,1.0,1.515,0.0,39.0,39.0,39.0,1.0,SPLENDID_WREN_1.jpg,CUBAN_TODY_4.jpg,A290Z6QAL17PQE
580,1.0,right,right,1.0,0.681,0.0,40.0,40.0,40.0,1.0,ASHY_STORM_PETREL_2.jpg,RED_HEADED_WOODPECKER_5.jpg,A290Z6QAL17PQE
581,3.0,left,left,1.0,1.715,0.0,41.0,41.0,41.0,1.0,RUBY_THROATED_HUMMINGBIRD_3.jpg,NORTHERN_SHOVELER_1.jpg,A290Z6QAL17PQE
582,3.0,right,left,0.0,0.395,0.0,42.0,42.0,42.0,1.0,BLACK_THROATED_BUSHTIT_1.jpg,CHUKAR_PARTRIDGE_5.jpg,A290Z6QAL17PQE
583,3.0,left,left,1.0,2.16,0.0,43.0,43.0,43.0,1.0,EUROPEAN_TURTLE_DOVE_3.jpg,MALABAR_HORNBILL_2.jpg,A290Z6QAL17PQE
584,1.0,left,right,0.0,2.961,0.0,44.0,44.0,44.0,1.0,WHITE_CHEEKED_TURACO_5.jpg,NORTHERN_MOCKINGBIRD_4.jpg,A290Z6QAL17PQE
585,1.0,right,right,1.0,2.135,0.0,45.0,45.0,45.0,1.0,PEACOCK_2.jpg,BROWN_NOODY_3.jpg,A290Z6QAL17PQE
586,1.0,left,right,0.0,1.389,0.0,46.0,46.0,46.0,1.0,TASMANIAN_HEN_5.jpg,GREEN_BROADBILL_1.jpg,A290Z6QAL17PQE
587,2.0,right,left,0.0,0.632,0.0,47.0,47.0,47.0,1.0,HOUSE_FINCH_2.jpg,GOLDEN_CHEEKED_WARBLER_2.jpg,A290Z6QAL17PQE
588,1.0,left,left,1.0,1.917,0.0,48.0,48.0,48.0,1.0,GYRFALCON_1.jpg,OSTRICH_1.jpg,A290Z6QAL17PQE
589,1.0,right,left,0.0,0.787,0.0,49.0,49.0,49.0,1.0,SNOWY_EGRET_2.jpg,ALPINE_CHOUGH_4.jpg,A290Z6QAL17PQE
590,3.0,left,right,0.0,1.007,0.0,50.0,50.0,50.0,1.0,CASPIAN_TERN_1.jpg,COMMON_LOON_2.jpg,A290Z6QAL17PQE
591,3.0,right,left,0.0,1.235,0.0,51.0,51.0,51.0,1.0,WATTLED_LAPWING_3.jpg,HAWAIIAN_GOOSE_4.jpg,A290Z6QAL17PQE
592,1.0,left,left,1.0,3.326,0.0,52.0,52.0,52.0,1.0,PEACOCK_3.jpg,ANIANIAU_2.jpg,A290Z6QAL17PQE
593,1.0,left,left,1.0,1.835,0.0,53.0,53.0,53.0,1.0,RUBY_THROATED_HUMMINGBIRD_2.jpg,GOLDEN_CHLOROPHONIA_2.jpg,A290Z6QAL17PQE
594,3.0,right,left,0.0,1.422,0.0,54.0,54.0,54.0,1.0,VIOLET_GREEN_SWALLOW_4.jpg,ASIAN_DOLLARD_BIRD_2.jpg,A290Z6QAL17PQE
595,2.0,right,right,1.0,1.388,0.0,55.0,55.0,55.0,1.0,NORTHERN_GANNET_1.jpg,INDIGO_BUNTING_1.jpg,A290Z6QAL17PQE
596,3.0,left,left,1.0,1.9,0.0,56.0,56.0,56.0,1.0,LARK_BUNTING_2.jpg,CACTUS_WREN_3.jpg,A290Z6QAL17PQE
597,2.0,left,left,1.0,1.018,0.0,57.0,57.0,57.0,1.0,IVORY_GULL_3.jpg,FLAME_TANAGER_3.jpg,A290Z6QAL17PQE
598,3.0,right,left,0.0,2.199,0.0,58.0,58.0,58.0,1.0,AFRICAN_FIREFINCH_3.jpg,GRAY_KINGBIRD_5.jpg,A290Z6QAL17PQE
599,2.0,left,right,0.0,2.189,0.0,59.0,59.0,59.0,1.0,KAGU_5.jpg,ASHY_STORM_PETREL_1.jpg,A290Z6QAL17PQE
600,1.0,left,left,1.0,11.8364,0.0,0.0,0.0,0.0,1.0,RUBY_THROATED_HUMMINGBIRD_1.jpg,BANANAQUIT_2.jpg,A2KLIBLDVDV144
601,2.0,left,right,0.0,2.4775,0.0,1.0,1.0,1.0,1.0,AMERICAN_PIPIT_5.jpg,GREEN_MAGPIE_1.jpg,A2KLIBLDVDV144
602,1.0,right,right,1.0,0.123,0.0,2.0,2.0,2.0,1.0,RED_BEARDED_BEE_EATER_3.jpg,KAGU_5.jpg,A2KLIBLDVDV144
603,2.0,left,left,1.0,0.5729,0.0,3.0,3.0,3.0,1.0,NORTHERN_JACANA_3.jpg,CRAB_PLOVER_3.jpg,A2KLIBLDVDV144
604,1.0,right,right,1.0,0.4721,0.0,4.0,4.0,4.0,1.0,PEACOCK_2.jpg,BROWN_NOODY_3.jpg,A2KLIBLDVDV144
605,2.0,left,left,1.0,0.3306,0.0,5.0,5.0,5.0,1.0,CASPIAN_TERN_1.jpg,EUROPEAN_GOLDFINCH_4.jpg,A2KLIBLDVDV144
606,3.0,right,right,1.0,0.2115,0.0,6.0,6.0,6.0,1.0,PINK_ROBIN_3.jpg,PARUS_MAJOR_1.jpg,A2KLIBLDVDV144
607,1.0,left,left,1.0,0.2468,0.0,7.0,7.0,7.0,1.0,RUFOUS_KINGFISHER_1.jpg,SNOWY_OWL_5.jpg,A2KLIBLDVDV144
608,1.0,right,right,1.0,0.1387,0.0,8.0,8.0,8.0,1.0,EASTERN_MEADOWLARK_1.jpg,SHOEBILL_3.jpg,A2KLIBLDVDV144
609,1.0,right,left,0.0,0.1266,0.0,9.0,9.0,9.0,1.0,ALTAMIRA_YELLOWTHROAT_5.jpg,LESSER_ADJUTANT_4.jpg,A2KLIBLDVDV144
610,3.0,right,right,1.0,0.1316,0.0,10.0,10.0,10.0,1.0,CUBAN_TODY_4.jpg,SPLENDID_WREN_1.jpg,A2KLIBLDVDV144
611,3.0,left,left,1.0,0.1107,0.0,11.0,11.0,11.0,1.0,CHUKAR_PARTRIDGE_5.jpg,BLACK_THROATED_BUSHTIT_1.jpg,A2KLIBLDVDV144
612,2.0,left,right,0.0,0.1157,0.0,12.0,12.0,12.0,1.0,INCA_TERN_4.jpg,SMITHS_LONGSPUR_5.jpg,A2KLIBLDVDV144
613,2.0,left,left,1.0,0.1197,0.0,13.0,13.0,13.0,1.0,EASTERN_TOWEE_2.jpg,GOLDEN_CHLOROPHONIA_1.jpg,A2KLIBLDVDV144
614,1.0,right,right,1.0,0.0105,0.0,14.0,14.0,14.0,1.0,CAPE_LONGCLAW_5.jpg,BALI_STARLING_1.jpg,A2KLIBLDVDV144
615,1.0,right,left,0.0,0.1167,0.0,15.0,15.0,15.0,1.0,CHIPPING_SPARROW_1.jpg,OCELLATED_TURKEY_1.jpg,A2KLIBLDVDV144
616,1.0,left,right,0.0,0.0088,0.0,16.0,16.0,16.0,1.0,IVORY_GULL_1.jpg,WILSONS_BIRD_OF_PARADISE_4.jpg,A2KLIBLDVDV144
617,3.0,left,left,1.0,0.1408,0.0,17.0,17.0,17.0,1.0,STRIPPED_SWALLOW_1.jpg,GO_AWAY_BIRD_5.jpg,A2KLIBLDVDV144
618,2.0,right,right,1.0,0.0083,0.0,18.0,18.0,18.0,1.0,GREY_PLOVER_4.jpg,MYNA_1.jpg,A2KLIBLDVDV144
619,2.0,left,left,1.0,0.1218,0.0,19.0,19.0,19.0,1.0,BREWERS_BLACKBIRD_3.jpg,GOLDEN_CHEEKED_WARBLER_3.jpg,A2KLIBLDVDV144
620,2.0,right,right,1.0,0.0105,0.0,20.0,20.0,20.0,1.0,ORANGE_BRESTED_BUNTING_3.jpg,LITTLE_AUK_5.jpg,A2KLIBLDVDV144
621,3.0,left,left,1.0,0.1419,0.0,21.0,21.0,21.0,1.0,GREY_PLOVER_1.jpg,ECUADORIAN_HILLSTAR_3.jpg,A2KLIBLDVDV144
622,2.0,right,right,1.0,0.1399,0.0,22.0,22.0,22.0,1.0,EUROPEAN_GOLDFINCH_3.jpg,ALPINE_CHOUGH_4.jpg,A2KLIBLDVDV144
623,1.0,right,left,0.0,0.0091,0.0,23.0,23.0,23.0,1.0,GILDED_FLICKER_2.jpg,DOUBLE_BRESTED_CORMARANT_5.jpg,A2KLIBLDVDV144
624,2.0,right,right,1.0,0.1447,0.0,24.0,24.0,24.0,1.0,STRAWBERRY_FINCH_4.jpg,PEACOCK_3.jpg,A2KLIBLDVDV144
625,3.0,right,left,0.0,0.1383,0.0,25.0,25.0,25.0,1.0,BLACK_BAZA_4.jpg,BROWN_THRASHER_3.jpg,A2KLIBLDVDV144
626,3.0,left,right,0.0,0.0089,0.0,26.0,26.0,26.0,1.0,RUBY_THROATED_HUMMINGBIRD_3.jpg,NORTHERN_SHOVELER_1.jpg,A2KLIBLDVDV144
627,2.0,left,left,1.0,0.1437,0.0,27.0,27.0,27.0,1.0,GRAY_KINGBIRD_5.jpg,COCK_OF_THE__ROCK_4.jpg,A2KLIBLDVDV144
628,2.0,right,left,0.0,0.1386,0.0,28.0,28.0,28.0,1.0,HAMERKOP_1.jpg,MAGPIE_GOOSE_5.jpg,A2KLIBLDVDV144
629,1.0,left,right,0.0,0.1246,0.0,29.0,29.0,29.0,1.0,PYGMY_KINGFISHER_5.jpg,GRANDALA_2.jpg,A2KLIBLDVDV144
630,1.0,right,left,0.0,0.0091,0.0,30.0,30.0,30.0,1.0,INDIGO_FLYCATCHER_2.jpg,IVORY_GULL_3.jpg,A2KLIBLDVDV144
631,3.0,left,right,0.0,0.1407,0.0,31.0,31.0,31.0,1.0,WHITE_CHEEKED_TURACO_5.jpg,PYGMY_KINGFISHER_2.jpg,A2KLIBLDVDV144
632,3.0,right,left,0.0,0.0078,0.0,32.0,32.0,32.0,1.0,MALABAR_HORNBILL_2.jpg,EUROPEAN_TURTLE_DOVE_3.jpg,A2KLIBLDVDV144
633,1.0,left,right,0.0,0.1313,0.0,33.0,33.0,33.0,1.0,LESSER_ADJUTANT_5.jpg,GREEN_BROADBILL_4.jpg,A2KLIBLDVDV144
634,3.0,left,left,1.0,0.1421,0.0,34.0,34.0,34.0,1.0,OVENBIRD_5.jpg,SHORT_BILLED_DOWITCHER_5.jpg,A2KLIBLDVDV144
635,3.0,right,right,1.0,0.009,0.0,35.0,35.0,35.0,1.0,CACTUS_WREN_3.jpg,LARK_BUNTING_2.jpg,A2KLIBLDVDV144
636,3.0,right,left,0.0,0.1261,0.0,36.0,36.0,36.0,1.0,COMMON_IORA_4.jpg,PINK_ROBIN_4.jpg,A2KLIBLDVDV144
637,2.0,right,right,1.0,0.0109,0.0,37.0,37.0,37.0,1.0,BLACK_VULTURE_1.jpg,ARARIPE_MANAKIN_4.jpg,A2KLIBLDVDV144
638,3.0,left,left,1.0,0.1462,0.0,38.0,38.0,38.0,1.0,ASIAN_DOLLARD_BIRD_2.jpg,VIOLET_GREEN_SWALLOW_4.jpg,A2KLIBLDVDV144
639,3.0,left,right,0.0,0.0085,0.0,39.0,39.0,39.0,1.0,SCARLET_TANAGER_2.jpg,BORNEAN_LEAFBIRD_1.jpg,A2KLIBLDVDV144
640,2.0,left,left,1.0,0.137,0.0,40.0,40.0,40.0,1.0,HAWAIIAN_GOOSE_4.jpg,HIMALAYAN_MONAL_2.jpg,A2KLIBLDVDV144
641,1.0,left,right,0.0,0.0108,0.0,41.0,41.0,41.0,1.0,CERULEAN_WARBLER_1.jpg,AMERICAN_FLAMINGO_2.jpg,A2KLIBLDVDV144
642,3.0,right,left,0.0,0.0107,0.0,42.0,42.0,42.0,1.0,VERMILION_FLYCATHER_5.jpg,GOLDEN_CHLOROPHONIA_5.jpg,A2KLIBLDVDV144
643,1.0,right,right,1.0,0.1048,0.0,43.0,43.0,43.0,1.0,FRIGATE_4.jpg,INDIGO_BUNTING_1.jpg,A2KLIBLDVDV144
644,3.0,left,left,1.0,0.0087,0.0,44.0,44.0,44.0,1.0,RED_HEADED_WOODPECKER_5.jpg,COLLARED_ARACARI_1.jpg,A2KLIBLDVDV144
645,3.0,left,right,0.0,0.263,0.0,45.0,45.0,45.0,1.0,INLAND_DOTTEREL_4.jpg,CRESTED_KINGFISHER_1.jpg,A2KLIBLDVDV144
646,3.0,left,left,1.0,0.1164,0.0,46.0,46.0,46.0,1.0,MALACHITE_KINGFISHER_2.jpg,GREEN_BROADBILL_5.jpg,A2KLIBLDVDV144
647,2.0,left,left,1.0,0.2433,0.0,47.0,47.0,47.0,1.0,KILLDEAR_2.jpg,CAATINGA_CACHOLOTE_4.jpg,A2KLIBLDVDV144
648,3.0,right,right,1.0,0.1301,0.0,48.0,48.0,48.0,1.0,TOUCHAN_4.jpg,CRESTED_CARACARA_4.jpg,A2KLIBLDVDV144
649,1.0,right,left,0.0,0.008,0.0,49.0,49.0,49.0,1.0,CANARY_2.jpg,ASIAN_CRESTED_IBIS_4.jpg,A2KLIBLDVDV144
650,1.0,right,right,1.0,0.0086,0.0,50.0,50.0,50.0,1.0,SCARLET_IBIS_3.jpg,CRESTED_NUTHATCH_2.jpg,A2KLIBLDVDV144
651,2.0,right,left,0.0,0.143,0.0,51.0,51.0,51.0,1.0,BROWN_THRASHER_4.jpg,FLAME_BOWERBIRD_3.jpg,A2KLIBLDVDV144
652,2.0,right,right,1.0,0.1121,0.0,52.0,52.0,52.0,1.0,HOUSE_FINCH_2.jpg,GOLDEN_CHEEKED_WARBLER_2.jpg,A2KLIBLDVDV144
653,2.0,right,left,0.0,0.0997,0.0,53.0,53.0,53.0,1.0,CINNAMON_ATTILA_2.jpg,GYRFALCON_1.jpg,A2KLIBLDVDV144
654,1.0,left,right,0.0,0.1252,0.0,54.0,54.0,54.0,1.0,VERMILION_FLYCATHER_3.jpg,INDIAN_BUSTARD_1.jpg,A2KLIBLDVDV144
655,1.0,left,left,1.0,0.009,0.0,55.0,55.0,55.0,1.0,AFRICAN_PIED_HORNBILL_5.jpg,KIWI_4.jpg,A2KLIBLDVDV144
656,3.0,right,right,1.0,0.0085,0.0,56.0,56.0,56.0,1.0,CRIMSON_SUNBIRD_5.jpg,ECUADORIAN_HILLSTAR_5.jpg,A2KLIBLDVDV144
657,2.0,right,left,0.0,0.1167,0.0,57.0,57.0,57.0,1.0,AFRICAN_EMERALD_CUCKOO_5.jpg,TASMANIAN_HEN_5.jpg,A2KLIBLDVDV144
658,2.0,right,right,1.0,0.1513,0.0,58.0,58.0,58.0,1.0,SCARLET_MACAW_1.jpg,CASSOWARY_1.jpg,A2KLIBLDVDV144
659,1.0,left,left,1.0,0.0082,0.0,59.0,59.0,59.0,1.0,RUBY_THROATED_HUMMINGBIRD_2.jpg,GOLDEN_CHLOROPHONIA_2.jpg,A2KLIBLDVDV144
660,3.0,left,left,1.0,5.9011,0.0,0.0,0.0,0.0,1.0,NORTHERN_JACANA_3.jpg,SCARLET_IBIS_4.jpg,A2LA3NEWBU30QT
661,3.0,right,right,1.0,1.229,0.0,1.0,1.0,1.0,1.0,QUETZAL_3.jpg,FLAME_BOWERBIRD_3.jpg,A2LA3NEWBU30QT
662,2.0,right,left,0.0,1.1469,0.0,2.0,2.0,2.0,1.0,MASKED_BOOBY_5.jpg,PYGMY_KINGFISHER_5.jpg,A2LA3NEWBU30QT
663,2.0,right,right,1.0,1.1593,0.0,3.0,3.0,3.0,1.0,SCARLET_MACAW_1.jpg,CASSOWARY_1.jpg,A2LA3NEWBU30QT
664,2.0,right,left,0.0,1.5568,0.0,4.0,4.0,4.0,1.0,BOBOLINK_5.jpg,ECUADORIAN_HILLSTAR_5.jpg,A2LA3NEWBU30QT
665,3.0,right,right,1.0,1.1585,0.0,5.0,5.0,5.0,1.0,WATTLED_LAPWING_3.jpg,HAWAIIAN_GOOSE_4.jpg,A2LA3NEWBU30QT
666,2.0,right,left,0.0,1.2398,0.0,6.0,6.0,6.0,1.0,CALIFORNIA_GULL_1.jpg,VERMILION_FLYCATHER_3.jpg,A2LA3NEWBU30QT
667,3.0,left,right,0.0,1.1406,0.0,7.0,7.0,7.0,1.0,MYNA_1.jpg,PARADISE_TANAGER_3.jpg,A2LA3NEWBU30QT
668,3.0,left,left,1.0,2.4062,0.0,8.0,8.0,8.0,1.0,AFRICAN_PIED_HORNBILL_5.jpg,CAPUCHINBIRD_2.jpg,A2LA3NEWBU30QT
669,1.0,left,right,0.0,1.1386,0.0,9.0,9.0,9.0,1.0,EASTERN_TOWEE_2.jpg,SANDHILL_CRANE_2.jpg,A2LA3NEWBU30QT
670,2.0,left,right,0.0,1.5646,0.0,10.0,10.0,10.0,1.0,ARARIPE_MANAKIN_4.jpg,BLACK_VULTURE_1.jpg,A2LA3NEWBU30QT
671,2.0,right,left,0.0,1.0405,0.0,11.0,11.0,11.0,1.0,NORTHERN_GANNET_2.jpg,SCARLET_TANAGER_2.jpg,A2LA3NEWBU30QT
672,2.0,left,right,0.0,0.9357,0.0,12.0,12.0,12.0,1.0,RED_HEADED_WOODPECKER_5.jpg,CRIMSON_CHAT_3.jpg,A2LA3NEWBU30QT
673,3.0,right,left,0.0,1.1623,0.0,13.0,13.0,13.0,1.0,CAPE_LONGCLAW_2.jpg,BREWERS_BLACKBIRD_3.jpg,A2LA3NEWBU30QT
674,1.0,left,right,0.0,2.7862,0.0,14.0,14.0,14.0,1.0,AMERICAN_PIPIT_5.jpg,EMU_2.jpg,A2LA3NEWBU30QT
675,2.0,right,right,1.0,1.3578,0.0,15.0,15.0,15.0,1.0,NICOBAR_PIGEON_4.jpg,INLAND_DOTTEREL_4.jpg,A2LA3NEWBU30QT
676,1.0,right,right,1.0,1.3542,0.0,16.0,16.0,16.0,1.0,TEAL_DUCK_2.jpg,EUROPEAN_TURTLE_DOVE_3.jpg,A2LA3NEWBU30QT
677,3.0,left,right,0.0,0.8405,0.0,17.0,17.0,17.0,1.0,RUBY_THROATED_HUMMINGBIRD_2.jpg,DUSKY_ROBIN_5.jpg,A2LA3NEWBU30QT
678,1.0,right,right,1.0,0.9507,0.0,18.0,18.0,18.0,1.0,SPOONBILL_3.jpg,PINK_ROBIN_4.jpg,A2LA3NEWBU30QT
679,2.0,right,right,1.0,1.4626,0.0,19.0,19.0,19.0,1.0,ASHY_STORM_PETREL_1.jpg,KAGU_5.jpg,A2LA3NEWBU30QT
680,3.0,right,right,1.0,2.3811,0.0,20.0,20.0,20.0,1.0,PINK_ROBIN_3.jpg,PARUS_MAJOR_1.jpg,A2LA3NEWBU30QT
681,3.0,left,left,1.0,0.8337,0.0,21.0,21.0,21.0,1.0,ASIAN_CRESTED_IBIS_4.jpg,IVORY_GULL_2.jpg,A2LA3NEWBU30QT
682,2.0,right,right,1.0,0.9499,0.0,22.0,22.0,22.0,1.0,EUROPEAN_GOLDFINCH_3.jpg,ALPINE_CHOUGH_4.jpg,A2LA3NEWBU30QT
683,2.0,right,left,0.0,1.0498,0.0,23.0,23.0,23.0,1.0,SPANGLED_COTINGA_4.jpg,BROWN_NOODY_3.jpg,A2LA3NEWBU30QT
684,1.0,left,right,0.0,0.9442,0.0,24.0,24.0,24.0,1.0,KILLDEAR_2.jpg,PEACOCK_5.jpg,A2LA3NEWBU30QT
685,3.0,left,left,1.0,1.2502,0.0,25.0,25.0,25.0,1.0,DOUBLE_BRESTED_CORMARANT_5.jpg,CHINESE_POND_HERON_2.jpg,A2LA3NEWBU30QT
686,1.0,right,right,1.0,0.8383,0.0,26.0,26.0,26.0,1.0,EASTERN_MEADOWLARK_1.jpg,SHOEBILL_3.jpg,A2LA3NEWBU30QT
687,1.0,right,right,1.0,1.2669,0.0,27.0,27.0,27.0,1.0,ALTAMIRA_YELLOWTHROAT_5.jpg,LESSER_ADJUTANT_4.jpg,A2LA3NEWBU30QT
688,1.0,left,right,0.0,0.8552,0.0,28.0,28.0,28.0,1.0,RUBY_THROATED_HUMMINGBIRD_3.jpg,MALAGASY_WHITE_EYE_2.jpg,A2LA3NEWBU30QT
689,1.0,left,left,1.0,0.8385,0.0,29.0,29.0,29.0,1.0,LITTLE_AUK_5.jpg,SANDHILL_CRANE_3.jpg,A2LA3NEWBU30QT
690,2.0,right,right,1.0,1.0321,0.0,30.0,30.0,30.0,1.0,AFRICAN_FIREFINCH_1.jpg,CRESTED_NUTHATCH_2.jpg,A2LA3NEWBU30QT
691,2.0,right,left,0.0,0.1105,0.0,31.0,31.0,31.0,1.0,NORTHERN_GANNET_1.jpg,INDIGO_BUNTING_1.jpg,A2LA3NEWBU30QT
692,3.0,left,right,0.0,0.9378,0.0,32.0,32.0,32.0,1.0,LESSER_ADJUTANT_5.jpg,RED_HEADED_WOODPECKER_1.jpg,A2LA3NEWBU30QT
693,1.0,left,left,1.0,1.1424,0.0,33.0,33.0,33.0,1.0,ASIAN_DOLLARD_BIRD_2.jpg,ALBATROSS_2.jpg,A2LA3NEWBU30QT
694,3.0,right,right,1.0,0.9133,0.0,34.0,34.0,34.0,1.0,OYSTER_CATCHER_3.jpg,MAGPIE_GOOSE_5.jpg,A2LA3NEWBU30QT
695,1.0,right,left,0.0,1.1517,0.0,35.0,35.0,35.0,1.0,INDIGO_FLYCATCHER_2.jpg,IVORY_GULL_3.jpg,A2LA3NEWBU30QT
696,1.0,right,right,1.0,0.9365,0.0,36.0,36.0,36.0,1.0,SNOWY_OWL_5.jpg,RUFOUS_KINGFISHER_1.jpg,A2LA3NEWBU30QT
697,3.0,right,left,0.0,0.8366,0.0,37.0,37.0,37.0,1.0,AFRICAN_FIREFINCH_3.jpg,GRAY_KINGBIRD_5.jpg,A2LA3NEWBU30QT
698,2.0,right,right,1.0,1.0446,0.0,38.0,38.0,38.0,1.0,GOULDIAN_FINCH_4.jpg,GREY_PLOVER_1.jpg,A2LA3NEWBU30QT
699,1.0,right,right,1.0,1.0421,0.0,39.0,39.0,39.0,1.0,ROADRUNNER_2.jpg,GOLDEN_CHLOROPHONIA_5.jpg,A2LA3NEWBU30QT
700,2.0,right,left,0.0,0.9346,0.0,40.0,40.0,40.0,1.0,SMITHS_LONGSPUR_5.jpg,INCA_TERN_4.jpg,A2LA3NEWBU30QT
701,1.0,right,right,1.0,1.4495,0.0,41.0,41.0,41.0,1.0,OSTRICH_5.jpg,CHUKAR_PARTRIDGE_5.jpg,A2LA3NEWBU30QT
702,3.0,left,left,1.0,0.6235,0.0,42.0,42.0,42.0,1.0,BALI_STARLING_1.jpg,IBERIAN_MAGPIE_1.jpg,A2LA3NEWBU30QT
703,3.0,right,left,0.0,1.6542,0.0,43.0,43.0,43.0,1.0,COPPERY_TAILED_COUCAL_1.jpg,TASMANIAN_HEN_5.jpg,A2LA3NEWBU30QT
704,3.0,right,right,1.0,0.9452,0.0,44.0,44.0,44.0,1.0,FAIRY_TERN_4.jpg,IVORY_GULL_1.jpg,A2LA3NEWBU30QT
705,1.0,left,left,1.0,0.9463,0.0,45.0,45.0,45.0,1.0,LARK_BUNTING_2.jpg,PEACOCK_1.jpg,A2LA3NEWBU30QT
706,2.0,left,left,1.0,1.0442,0.0,46.0,46.0,46.0,1.0,GOLDEN_CHEEKED_WARBLER_2.jpg,HOUSE_FINCH_2.jpg,A2LA3NEWBU30QT
707,3.0,left,right,0.0,1.1363,0.0,47.0,47.0,47.0,1.0,WHITE_CHEEKED_TURACO_5.jpg,PYGMY_KINGFISHER_2.jpg,A2LA3NEWBU30QT
708,1.0,left,left,1.0,1.3608,0.0,48.0,48.0,48.0,1.0,STRIPPED_SWALLOW_1.jpg,DOUBLE_BRESTED_CORMARANT_4.jpg,A2LA3NEWBU30QT
709,2.0,left,right,0.0,1.0439,0.0,49.0,49.0,49.0,1.0,CASPIAN_TERN_1.jpg,EUROPEAN_GOLDFINCH_4.jpg,A2LA3NEWBU30QT
710,3.0,right,left,0.0,1.0546,0.0,50.0,50.0,50.0,1.0,BLACK_BAZA_4.jpg,BROWN_THRASHER_3.jpg,A2LA3NEWBU30QT
711,2.0,right,left,0.0,1.5602,0.0,51.0,51.0,51.0,1.0,AMERICAN_PIPIT_1.jpg,OCELLATED_TURKEY_1.jpg,A2LA3NEWBU30QT
712,1.0,left,left,1.0,1.0511,0.0,52.0,52.0,52.0,1.0,MALACHITE_KINGFISHER_2.jpg,AMERICAN_FLAMINGO_1.jpg,A2LA3NEWBU30QT
713,1.0,left,right,0.0,0.6419,0.0,53.0,53.0,53.0,1.0,CERULEAN_WARBLER_1.jpg,AMERICAN_FLAMINGO_2.jpg,A2LA3NEWBU30QT
714,3.0,right,left,0.0,1.572,0.0,54.0,54.0,54.0,1.0,CHATTERING_LORY_2.jpg,PEACOCK_3.jpg,A2LA3NEWBU30QT
715,2.0,left,right,0.0,0.8425,0.0,55.0,55.0,55.0,1.0,GYRFALCON_1.jpg,CINNAMON_ATTILA_2.jpg,A2LA3NEWBU30QT
716,1.0,left,left,1.0,1.0482,0.0,56.0,56.0,56.0,1.0,RUBY_THROATED_HUMMINGBIRD_1.jpg,BANANAQUIT_2.jpg,A2LA3NEWBU30QT
717,1.0,right,left,0.0,0.9799,0.0,57.0,57.0,57.0,1.0,FAIRY_PENGUIN_5.jpg,CRESTED_CARACARA_4.jpg,A2LA3NEWBU30QT
718,3.0,right,left,0.0,1.0567,0.0,58.0,58.0,58.0,1.0,CUBAN_TODY_4.jpg,SPLENDID_WREN_1.jpg,A2LA3NEWBU30QT
719,2.0,right,left,0.0,0.9331,0.0,59.0,59.0,59.0,1.0,FAIRY_PENGUIN_1.jpg,OVENBIRD_5.jpg,A2LA3NEWBU30QT
720,1.0,left,right,0.0,1.671,0.0,0.0,0.0,0.0,1.0,IVORY_GULL_3.jpg,INDIGO_FLYCATCHER_2.jpg,A2MOU3YD664C0H
721,1.0,right,left,0.0,2.253,0.0,1.0,1.0,1.0,1.0,GUINEA_TURACO_3.jpg,BREWERS_BLACKBIRD_3.jpg,A2MOU3YD664C0H
722,2.0,right,left,0.0,2.499,0.0,2.0,2.0,2.0,1.0,CINNAMON_ATTILA_2.jpg,GYRFALCON_1.jpg,A2MOU3YD664C0H
723,2.0,left,left,1.0,2.214,0.0,3.0,3.0,3.0,1.0,STRIPPED_SWALLOW_1.jpg,MAGPIE_GOOSE_4.jpg,A2MOU3YD664C0H
724,3.0,left,left,1.0,3.059,0.0,4.0,4.0,4.0,1.0,AMERICAN_PIPIT_5.jpg,HEPATIC_TANAGER_5.jpg,A2MOU3YD664C0H
725,3.0,left,right,0.0,1.837,0.0,5.0,5.0,5.0,1.0,DOUBLE_BRESTED_CORMARANT_5.jpg,CHINESE_POND_HERON_2.jpg,A2MOU3YD664C0H
726,1.0,right,right,1.0,2.345,0.0,6.0,6.0,6.0,1.0,ALBATROSS_2.jpg,ASIAN_DOLLARD_BIRD_2.jpg,A2MOU3YD664C0H
727,2.0,right,left,0.0,2.108,0.0,7.0,7.0,7.0,1.0,SCARLET_MACAW_1.jpg,CASSOWARY_1.jpg,A2MOU3YD664C0H
728,1.0,left,left,1.0,2.024,0.0,8.0,8.0,8.0,1.0,RUBY_THROATED_HUMMINGBIRD_2.jpg,GOLDEN_CHLOROPHONIA_2.jpg,A2MOU3YD664C0H
729,1.0,left,left,1.0,2.631,0.0,9.0,9.0,9.0,1.0,SCARLET_TANAGER_2.jpg,BEARDED_BARBET_2.jpg,A2MOU3YD664C0H
730,1.0,right,right,1.0,1.692,0.0,10.0,10.0,10.0,1.0,FRIGATE_4.jpg,INDIGO_BUNTING_1.jpg,A2MOU3YD664C0H
731,1.0,left,right,0.0,2.31,0.0,11.0,11.0,11.0,1.0,MALACHITE_KINGFISHER_2.jpg,AMERICAN_FLAMINGO_1.jpg,A2MOU3YD664C0H
732,1.0,right,right,1.0,2.215,0.0,12.0,12.0,12.0,1.0,SCARLET_IBIS_3.jpg,CRESTED_NUTHATCH_2.jpg,A2MOU3YD664C0H
733,2.0,right,left,0.0,2.235,0.0,13.0,13.0,13.0,1.0,ALBATROSS_4.jpg,PINK_ROBIN_4.jpg,A2MOU3YD664C0H
734,3.0,right,right,1.0,1.927,0.0,14.0,14.0,14.0,1.0,BALD_EAGLE_5.jpg,SHOEBILL_3.jpg,A2MOU3YD664C0H
735,1.0,left,left,1.0,1.942,0.0,15.0,15.0,15.0,1.0,LESSER_ADJUTANT_5.jpg,GREEN_BROADBILL_4.jpg,A2MOU3YD664C0H
736,2.0,right,right,1.0,1.918,0.0,16.0,16.0,16.0,1.0,OYSTER_CATCHER_2.jpg,ASIAN_CRESTED_IBIS_4.jpg,A2MOU3YD664C0H
737,3.0,right,left,0.0,3.159,0.0,17.0,17.0,17.0,1.0,BLACK_THROATED_BUSHTIT_1.jpg,CHUKAR_PARTRIDGE_5.jpg,A2MOU3YD664C0H
738,2.0,left,right,0.0,1.564,0.0,18.0,18.0,18.0,1.0,PYGMY_KINGFISHER_5.jpg,MASKED_BOOBY_5.jpg,A2MOU3YD664C0H
739,3.0,left,right,0.0,2.168,0.0,19.0,19.0,19.0,1.0,GRAY_KINGBIRD_5.jpg,AFRICAN_FIREFINCH_3.jpg,A2MOU3YD664C0H
740,3.0,left,left,1.0,2.495,0.0,20.0,20.0,20.0,1.0,RUBY_THROATED_HUMMINGBIRD_1.jpg,FRIGATE_1.jpg,A2MOU3YD664C0H
741,2.0,left,right,0.0,2.123,0.0,21.0,21.0,21.0,1.0,CERULEAN_WARBLER_1.jpg,AMERICAN_FLAMINGO_5.jpg,A2MOU3YD664C0H
742,1.0,left,left,1.0,2.499,0.0,22.0,22.0,22.0,1.0,IVORY_GULL_1.jpg,WILSONS_BIRD_OF_PARADISE_4.jpg,A2MOU3YD664C0H
743,1.0,left,right,0.0,2.964,0.0,23.0,23.0,23.0,1.0,ECUADORIAN_HILLSTAR_5.jpg,SCARLET_IBIS_2.jpg,A2MOU3YD664C0H
744,2.0,right,right,1.0,2.023,0.0,24.0,24.0,24.0,1.0,HOUSE_FINCH_2.jpg,GOLDEN_CHEEKED_WARBLER_2.jpg,A2MOU3YD664C0H
745,2.0,left,right,0.0,2.112,0.0,25.0,25.0,25.0,1.0,INCA_TERN_4.jpg,SMITHS_LONGSPUR_5.jpg,A2MOU3YD664C0H
746,2.0,left,left,1.0,1.733,0.0,26.0,26.0,26.0,1.0,LESSER_ADJUTANT_4.jpg,RAINBOW_LORIKEET_5.jpg,A2MOU3YD664C0H
747,1.0,right,right,1.0,1.828,0.0,27.0,27.0,27.0,1.0,OSTRICH_3.jpg,MYNA_1.jpg,A2MOU3YD664C0H
748,3.0,right,left,0.0,2.709,0.0,28.0,28.0,28.0,1.0,BEARDED_BELLBIRD_1.jpg,LITTLE_AUK_5.jpg,A2MOU3YD664C0H
749,2.0,left,left,1.0,2.362,0.0,29.0,29.0,29.0,1.0,KAGU_5.jpg,ASHY_STORM_PETREL_1.jpg,A2MOU3YD664C0H
750,2.0,right,left,0.0,2.877,0.0,30.0,30.0,30.0,1.0,SPANGLED_COTINGA_4.jpg,BROWN_NOODY_3.jpg,A2MOU3YD664C0H
751,3.0,right,right,1.0,2.025,0.0,31.0,31.0,31.0,1.0,PINK_ROBIN_3.jpg,PARUS_MAJOR_1.jpg,A2MOU3YD664C0H
752,3.0,left,right,0.0,2.768,0.0,32.0,32.0,32.0,1.0,CASPIAN_TERN_1.jpg,COMMON_LOON_2.jpg,A2MOU3YD664C0H
753,1.0,right,right,1.0,2.017,0.0,33.0,33.0,33.0,1.0,PEACOCK_1.jpg,LARK_BUNTING_2.jpg,A2MOU3YD664C0H
754,3.0,right,left,0.0,3.171,0.0,34.0,34.0,34.0,1.0,BORNEAN_LEAFBIRD_3.jpg,ARARIPE_MANAKIN_4.jpg,A2MOU3YD664C0H
755,2.0,right,left,0.0,2.153,0.0,35.0,35.0,35.0,1.0,COMMON_HOUSE_MARTIN_4.jpg,GOLDEN_CHLOROPHONIA_5.jpg,A2MOU3YD664C0H
756,2.0,left,left,1.0,2.085,0.0,36.0,36.0,36.0,1.0,EUROPEAN_TURTLE_DOVE_3.jpg,PAINTED_BUNTING_3.jpg,A2MOU3YD664C0H
757,1.0,right,left,0.0,2.664,0.0,37.0,37.0,37.0,1.0,CAPE_LONGCLAW_5.jpg,BALI_STARLING_1.jpg,A2MOU3YD664C0H
758,2.0,left,right,0.0,2.992,0.0,38.0,38.0,38.0,1.0,BROWN_THRASHER_3.jpg,OYSTER_CATCHER_4.jpg,A2MOU3YD664C0H
759,2.0,right,left,0.0,2.494,0.0,39.0,39.0,39.0,1.0,DOUBLE_BRESTED_CORMARANT_1.jpg,SPLENDID_WREN_1.jpg,A2MOU3YD664C0H
760,3.0,right,right,1.0,2.069,0.0,40.0,40.0,40.0,1.0,SCARLET_IBIS_4.jpg,NORTHERN_JACANA_3.jpg,A2MOU3YD664C0H
761,2.0,left,left,1.0,3.077,0.0,41.0,41.0,41.0,1.0,GREY_PLOVER_1.jpg,GOULDIAN_FINCH_4.jpg,A2MOU3YD664C0H
762,2.0,left,right,0.0,2.728,0.0,42.0,42.0,42.0,1.0,CRESTED_CARACARA_4.jpg,INDIAN_PITTA_2.jpg,A2MOU3YD664C0H
763,1.0,right,right,1.0,2.225,0.0,43.0,43.0,43.0,1.0,KIWI_4.jpg,AFRICAN_PIED_HORNBILL_5.jpg,A2MOU3YD664C0H
764,1.0,left,left,1.0,3.169,0.0,44.0,44.0,44.0,1.0,ALPINE_CHOUGH_4.jpg,SNOWY_EGRET_2.jpg,A2MOU3YD664C0H
765,3.0,left,left,1.0,4.072,0.0,45.0,45.0,45.0,1.0,EASTERN_TOWEE_2.jpg,NORTHERN_BEARDLESS_TYRANNULET_5.jpg,A2MOU3YD664C0H
766,3.0,right,left,0.0,4.421,0.0,46.0,46.0,46.0,1.0,HORNED_SUNGEM_4.jpg,RUFOUS_KINGFISHER_1.jpg,A2MOU3YD664C0H
767,3.0,left,left,1.0,3.761,0.0,47.0,47.0,47.0,1.0,RUBY_THROATED_HUMMINGBIRD_3.jpg,NORTHERN_SHOVELER_1.jpg,A2MOU3YD664C0H
768,3.0,right,left,0.0,2.776,0.0,48.0,48.0,48.0,1.0,PYGMY_KINGFISHER_2.jpg,WHITE_CHEEKED_TURACO_5.jpg,A2MOU3YD664C0H
769,3.0,right,left,0.0,3.08,0.0,49.0,49.0,49.0,1.0,COPPERY_TAILED_COUCAL_1.jpg,TASMANIAN_HEN_5.jpg,A2MOU3YD664C0H
770,1.0,left,right,0.0,5.658,0.0,50.0,50.0,50.0,1.0,RED_HEADED_WOODPECKER_5.jpg,ASHY_STORM_PETREL_2.jpg,A2MOU3YD664C0H
771,1.0,right,right,1.0,3.852,0.0,51.0,51.0,51.0,1.0,CASSOWARY_2.jpg,INLAND_DOTTEREL_4.jpg,A2MOU3YD664C0H
772,1.0,right,right,1.0,2.696,0.0,52.0,52.0,52.0,1.0,INDIAN_BUSTARD_1.jpg,VERMILION_FLYCATHER_3.jpg,A2MOU3YD664C0H
773,2.0,right,right,1.0,2.657,0.0,53.0,53.0,53.0,1.0,FAIRY_PENGUIN_1.jpg,OVENBIRD_5.jpg,A2MOU3YD664C0H
774,3.0,left,right,0.0,2.566,0.0,54.0,54.0,54.0,1.0,KILLDEAR_2.jpg,AZURE_TIT_5.jpg,A2MOU3YD664C0H
775,3.0,right,left,0.0,4.699,0.0,55.0,55.0,55.0,1.0,PURPLE_SWAMPHEN_4.jpg,OCELLATED_TURKEY_1.jpg,A2MOU3YD664C0H
776,1.0,right,left,0.0,4.593,0.0,56.0,56.0,56.0,1.0,ANIANIAU_2.jpg,PEACOCK_3.jpg,A2MOU3YD664C0H
777,3.0,right,right,1.0,3.489,0.0,57.0,57.0,57.0,1.0,WATTLED_LAPWING_3.jpg,HAWAIIAN_GOOSE_4.jpg,A2MOU3YD664C0H
778,3.0,left,left,1.0,2.964,0.0,58.0,58.0,58.0,1.0,FLAME_BOWERBIRD_3.jpg,QUETZAL_3.jpg,A2MOU3YD664C0H
779,2.0,right,left,0.0,3.736,0.0,59.0,59.0,59.0,1.0,HAMERKOP_1.jpg,MAGPIE_GOOSE_5.jpg,A2MOU3YD664C0H
780,1.0,right,left,0.0,1.7692,0.0,0.0,0.0,0.0,1.0,ALTAMIRA_YELLOWTHROAT_5.jpg,LESSER_ADJUTANT_4.jpg,A2OT9ZJC4MQBS8
781,2.0,right,right,1.0,0.9461,0.0,1.0,1.0,1.0,1.0,AFRICAN_FIREFINCH_1.jpg,CRESTED_NUTHATCH_2.jpg,A2OT9ZJC4MQBS8
782,1.0,right,left,0.0,2.2626,0.0,2.0,2.0,2.0,1.0,WILSONS_BIRD_OF_PARADISE_4.jpg,IVORY_GULL_1.jpg,A2OT9ZJC4MQBS8
783,1.0,right,right,1.0,0.9963,0.0,3.0,3.0,3.0,1.0,EMU_2.jpg,AMERICAN_PIPIT_5.jpg,A2OT9ZJC4MQBS8
784,3.0,right,left,0.0,1.1913,0.0,4.0,4.0,4.0,1.0,RED_HEADED_WOODPECKER_1.jpg,LESSER_ADJUTANT_5.jpg,A2OT9ZJC4MQBS8
785,2.0,right,right,1.0,2.048,0.0,5.0,5.0,5.0,1.0,GREY_PLOVER_4.jpg,MYNA_1.jpg,A2OT9ZJC4MQBS8
786,3.0,right,left,0.0,0.8798,0.0,6.0,6.0,6.0,1.0,CHATTERING_LORY_2.jpg,PEACOCK_3.jpg,A2OT9ZJC4MQBS8
787,3.0,left,left,1.0,1.227,0.0,7.0,7.0,7.0,1.0,NORTHERN_JACANA_3.jpg,SCARLET_IBIS_4.jpg,A2OT9ZJC4MQBS8
788,3.0,left,right,0.0,0.9918,0.0,8.0,8.0,8.0,1.0,GOLDEN_CHLOROPHONIA_5.jpg,VERMILION_FLYCATHER_5.jpg,A2OT9ZJC4MQBS8
789,1.0,left,left,1.0,1.0222,0.0,9.0,9.0,9.0,1.0,OVENBIRD_5.jpg,MYNA_4.jpg,A2OT9ZJC4MQBS8
790,3.0,left,right,0.0,2.9801,0.0,10.0,10.0,10.0,1.0,KILLDEAR_2.jpg,AZURE_TIT_5.jpg,A2OT9ZJC4MQBS8
791,3.0,left,left,1.0,0.8196,0.0,11.0,11.0,11.0,1.0,RUBY_THROATED_HUMMINGBIRD_1.jpg,FRIGATE_1.jpg,A2OT9ZJC4MQBS8
792,3.0,right,right,1.0,1.2075,0.0,12.0,12.0,12.0,1.0,FAIRY_TERN_1.jpg,GYRFALCON_1.jpg,A2OT9ZJC4MQBS8
793,3.0,left,left,1.0,0.9832,0.0,13.0,13.0,13.0,1.0,INDIGO_BUNTING_1.jpg,DARWINS_FLYCATCHER_2.jpg,A2OT9ZJC4MQBS8
794,3.0,left,right,0.0,0.9888,0.0,14.0,14.0,14.0,1.0,MAGPIE_GOOSE_5.jpg,OYSTER_CATCHER_3.jpg,A2OT9ZJC4MQBS8
795,2.0,left,left,1.0,0.9662,0.0,15.0,15.0,15.0,1.0,LARK_BUNTING_2.jpg,KING_VULTURE_3.jpg,A2OT9ZJC4MQBS8
796,1.0,right,right,1.0,1.4104,0.0,16.0,16.0,16.0,1.0,CASSOWARY_2.jpg,INLAND_DOTTEREL_4.jpg,A2OT9ZJC4MQBS8
797,2.0,left,left,1.0,1.8107,0.0,17.0,17.0,17.0,1.0,BROWN_THRASHER_3.jpg,OYSTER_CATCHER_4.jpg,A2OT9ZJC4MQBS8
798,2.0,right,right,1.0,2.0255,0.0,18.0,18.0,18.0,1.0,SPANGLED_COTINGA_4.jpg,BROWN_NOODY_3.jpg,A2OT9ZJC4MQBS8
799,2.0,left,left,1.0,1.9686,0.0,19.0,19.0,19.0,1.0,OCELLATED_TURKEY_1.jpg,AMERICAN_PIPIT_1.jpg,A2OT9ZJC4MQBS8
800,1.0,right,right,1.0,0.7724,0.0,20.0,20.0,20.0,1.0,INDIAN_BUSTARD_2.jpg,FLAME_BOWERBIRD_3.jpg,A2OT9ZJC4MQBS8
801,1.0,left,left,1.0,1.3721,0.0,21.0,21.0,21.0,1.0,PYGMY_KINGFISHER_5.jpg,GRANDALA_2.jpg,A2OT9ZJC4MQBS8
802,2.0,left,right,0.0,0.7789,0.0,22.0,22.0,22.0,1.0,VERMILION_FLYCATHER_3.jpg,CALIFORNIA_GULL_1.jpg,A2OT9ZJC4MQBS8
803,1.0,right,right,1.0,1.373,0.0,23.0,23.0,23.0,1.0,HYACINTH_MACAW_3.jpg,GREY_PLOVER_1.jpg,A2OT9ZJC4MQBS8
804,1.0,left,left,1.0,0.6415,0.0,24.0,24.0,24.0,1.0,PINK_ROBIN_4.jpg,SPOONBILL_3.jpg,A2OT9ZJC4MQBS8
805,1.0,left,right,0.0,0.8588,0.0,25.0,25.0,25.0,1.0,DOUBLE_BRESTED_CORMARANT_5.jpg,GILDED_FLICKER_2.jpg,A2OT9ZJC4MQBS8
806,3.0,right,left,0.0,1.1606,0.0,26.0,26.0,26.0,1.0,VIOLET_GREEN_SWALLOW_4.jpg,ASIAN_DOLLARD_BIRD_2.jpg,A2OT9ZJC4MQBS8
807,2.0,left,right,0.0,0.9683,0.0,27.0,27.0,27.0,1.0,ARARIPE_MANAKIN_4.jpg,BLACK_VULTURE_1.jpg,A2OT9ZJC4MQBS8
808,1.0,right,left,0.0,0.9793,0.0,28.0,28.0,28.0,1.0,BALD_EAGLE_2.jpg,GRAY_KINGBIRD_5.jpg,A2OT9ZJC4MQBS8
809,3.0,left,left,1.0,1.0123,0.0,29.0,29.0,29.0,1.0,RUBY_THROATED_HUMMINGBIRD_3.jpg,NORTHERN_SHOVELER_1.jpg,A2OT9ZJC4MQBS8
810,3.0,right,right,1.0,0.8052,0.0,30.0,30.0,30.0,1.0,NORTHERN_BEARDLESS_TYRANNULET_5.jpg,EASTERN_TOWEE_2.jpg,A2OT9ZJC4MQBS8
811,2.0,right,right,1.0,1.1784,0.0,31.0,31.0,31.0,1.0,DOUBLE_BRESTED_CORMARANT_1.jpg,SPLENDID_WREN_1.jpg,A2OT9ZJC4MQBS8
812,3.0,left,right,0.0,1.1829,0.0,32.0,32.0,32.0,1.0,IVORY_GULL_3.jpg,SNOWY_EGRET_4.jpg,A2OT9ZJC4MQBS8
813,1.0,left,left,1.0,1.8138,0.0,33.0,33.0,33.0,1.0,RED_HEADED_WOODPECKER_5.jpg,ASHY_STORM_PETREL_2.jpg,A2OT9ZJC4MQBS8
814,2.0,left,left,1.0,1.004,0.0,34.0,34.0,34.0,1.0,MALACHITE_KINGFISHER_2.jpg,INCA_TERN_2.jpg,A2OT9ZJC4MQBS8
815,2.0,left,left,1.0,0.8171,0.0,35.0,35.0,35.0,1.0,ECUADORIAN_HILLSTAR_5.jpg,BOBOLINK_5.jpg,A2OT9ZJC4MQBS8
816,2.0,right,right,1.0,1.2573,0.0,36.0,36.0,36.0,1.0,ALEXANDRINE_PARAKEET_1.jpg,AFRICAN_PIED_HORNBILL_5.jpg,A2OT9ZJC4MQBS8
817,2.0,right,left,0.0,1.1023,0.0,37.0,37.0,37.0,1.0,APAPANE_4.jpg,RUBY_THROATED_HUMMINGBIRD_2.jpg,A2OT9ZJC4MQBS8
818,2.0,right,right,1.0,1.0884,0.0,38.0,38.0,38.0,1.0,AFRICAN_EMERALD_CUCKOO_5.jpg,TASMANIAN_HEN_5.jpg,A2OT9ZJC4MQBS8
819,1.0,left,left,1.0,2.0276,0.0,39.0,39.0,39.0,1.0,SCARLET_TANAGER_2.jpg,BEARDED_BARBET_2.jpg,A2OT9ZJC4MQBS8
820,2.0,left,left,1.0,1.8288,0.0,40.0,40.0,40.0,1.0,CERULEAN_WARBLER_1.jpg,AMERICAN_FLAMINGO_5.jpg,A2OT9ZJC4MQBS8
821,2.0,left,right,0.0,1.3601,0.0,41.0,41.0,41.0,1.0,LITTLE_AUK_5.jpg,ORANGE_BRESTED_BUNTING_3.jpg,A2OT9ZJC4MQBS8
822,1.0,right,left,0.0,1.1609,0.0,42.0,42.0,42.0,1.0,CUBAN_TODY_3.jpg,HAWAIIAN_GOOSE_4.jpg,A2OT9ZJC4MQBS8
823,2.0,left,left,1.0,1.7483,0.0,43.0,43.0,43.0,1.0,ALPINE_CHOUGH_4.jpg,EUROPEAN_GOLDFINCH_3.jpg,A2OT9ZJC4MQBS8
824,3.0,left,right,0.0,1.1435,0.0,44.0,44.0,44.0,1.0,CRESTED_CARACARA_4.jpg,TOUCHAN_4.jpg,A2OT9ZJC4MQBS8
825,3.0,right,right,1.0,1.1352,0.0,45.0,45.0,45.0,1.0,DEMOISELLE_CRANE_1.jpg,KAGU_5.jpg,A2OT9ZJC4MQBS8
826,3.0,left,left,1.0,0.8562,0.0,46.0,46.0,46.0,1.0,GOLDEN_CHEEKED_WARBLER_2.jpg,WHITE_THROATED_BEE_EATER_1.jpg,A2OT9ZJC4MQBS8
827,2.0,left,right,0.0,0.9501,0.0,47.0,47.0,47.0,1.0,PARUS_MAJOR_1.jpg,CALIFORNIA_GULL_2.jpg,A2OT9ZJC4MQBS8
828,1.0,right,right,1.0,1.0145,0.0,48.0,48.0,48.0,1.0,CAPE_LONGCLAW_5.jpg,BALI_STARLING_1.jpg,A2OT9ZJC4MQBS8
829,2.0,left,right,0.0,1.2514,0.0,49.0,49.0,49.0,1.0,INCA_TERN_4.jpg,SMITHS_LONGSPUR_5.jpg,A2OT9ZJC4MQBS8
830,1.0,left,right,0.0,0.8921,0.0,50.0,50.0,50.0,1.0,BREWERS_BLACKBIRD_3.jpg,GUINEA_TURACO_3.jpg,A2OT9ZJC4MQBS8
831,3.0,right,left,0.0,0.6857,0.0,51.0,51.0,51.0,1.0,AFRICAN_OYSTER_CATCHER_2.jpg,CASSOWARY_1.jpg,A2OT9ZJC4MQBS8
832,1.0,left,right,0.0,0.7914,0.0,52.0,52.0,52.0,1.0,CHUKAR_PARTRIDGE_5.jpg,OSTRICH_5.jpg,A2OT9ZJC4MQBS8
833,3.0,left,left,1.0,0.7147,0.0,53.0,53.0,53.0,1.0,SHOEBILL_3.jpg,BALD_EAGLE_5.jpg,A2OT9ZJC4MQBS8
834,2.0,right,right,1.0,0.8549,0.0,54.0,54.0,54.0,1.0,EUROPEAN_GOLDFINCH_4.jpg,CASPIAN_TERN_1.jpg,A2OT9ZJC4MQBS8
835,3.0,left,left,1.0,0.8781,0.0,55.0,55.0,55.0,1.0,EUROPEAN_TURTLE_DOVE_3.jpg,MALABAR_HORNBILL_2.jpg,A2OT9ZJC4MQBS8
836,3.0,right,right,1.0,0.7099,0.0,56.0,56.0,56.0,1.0,GO_AWAY_BIRD_5.jpg,STRIPPED_SWALLOW_1.jpg,A2OT9ZJC4MQBS8
837,1.0,left,left,1.0,0.7541,0.0,57.0,57.0,57.0,1.0,RUFOUS_KINGFISHER_1.jpg,SNOWY_OWL_5.jpg,A2OT9ZJC4MQBS8
838,1.0,right,left,0.0,0.9075,0.0,58.0,58.0,58.0,1.0,NORTHERN_MOCKINGBIRD_4.jpg,WHITE_CHEEKED_TURACO_5.jpg,A2OT9ZJC4MQBS8
839,1.0,right,left,0.0,1.0536,0.0,59.0,59.0,59.0,1.0,CANARY_2.jpg,ASIAN_CRESTED_IBIS_4.jpg,A2OT9ZJC4MQBS8
840,2.0,right,right,1.0,3.101,0.0,0.0,0.0,0.0,1.0,LOGGERHEAD_SHRIKE_4.jpg,ASIAN_DOLLARD_BIRD_2.jpg,A2PAWE1NW4MD8L
841,1.0,right,right,1.0,1.362,0.0,1.0,1.0,1.0,1.0,POMARINE_JAEGER_5.jpg,SPLENDID_WREN_1.jpg,A2PAWE1NW4MD8L
842,2.0,left,left,1.0,1.343,0.0,2.0,2.0,2.0,1.0,AFRICAN_PIED_HORNBILL_5.jpg,ALEXANDRINE_PARAKEET_1.jpg,A2PAWE1NW4MD8L
843,3.0,left,left,1.0,1.335,0.0,3.0,3.0,3.0,1.0,OVENBIRD_5.jpg,SHORT_BILLED_DOWITCHER_5.jpg,A2PAWE1NW4MD8L
844,1.0,right,left,0.0,1.653,0.0,4.0,4.0,4.0,1.0,GOLDEN_CHLOROPHONIA_2.jpg,RUBY_THROATED_HUMMINGBIRD_2.jpg,A2PAWE1NW4MD8L
845,3.0,left,right,0.0,1.968,0.0,5.0,5.0,5.0,1.0,ASIAN_CRESTED_IBIS_4.jpg,IVORY_GULL_2.jpg,A2PAWE1NW4MD8L
846,2.0,right,left,0.0,1.317,0.0,6.0,6.0,6.0,1.0,FLAME_TANAGER_3.jpg,IVORY_GULL_3.jpg,A2PAWE1NW4MD8L
847,2.0,left,right,0.0,2.52,0.0,7.0,7.0,7.0,1.0,ALPINE_CHOUGH_4.jpg,EUROPEAN_GOLDFINCH_3.jpg,A2PAWE1NW4MD8L
848,2.0,right,left,0.0,1.176,0.0,8.0,8.0,8.0,1.0,PAINTED_BUNTING_3.jpg,EUROPEAN_TURTLE_DOVE_3.jpg,A2PAWE1NW4MD8L
849,3.0,right,right,1.0,1.526,0.0,9.0,9.0,9.0,1.0,GREEN_BROADBILL_5.jpg,MALACHITE_KINGFISHER_2.jpg,A2PAWE1NW4MD8L
850,2.0,right,left,0.0,1.378,0.0,10.0,10.0,10.0,1.0,CRIMSON_CHAT_3.jpg,RED_HEADED_WOODPECKER_5.jpg,A2PAWE1NW4MD8L
851,1.0,right,right,1.0,1.231,0.0,11.0,11.0,11.0,1.0,INDIAN_BUSTARD_2.jpg,FLAME_BOWERBIRD_3.jpg,A2PAWE1NW4MD8L
852,3.0,right,right,1.0,1.542,0.0,12.0,12.0,12.0,1.0,NORTHERN_BEARDLESS_TYRANNULET_5.jpg,EASTERN_TOWEE_2.jpg,A2PAWE1NW4MD8L
853,1.0,right,right,1.0,1.239,0.0,13.0,13.0,13.0,1.0,ROADRUNNER_2.jpg,GOLDEN_CHLOROPHONIA_5.jpg,A2PAWE1NW4MD8L
854,1.0,right,left,0.0,1.593,0.0,14.0,14.0,14.0,1.0,CUBAN_TODY_3.jpg,HAWAIIAN_GOOSE_4.jpg,A2PAWE1NW4MD8L
855,2.0,right,left,0.0,1.45,0.0,15.0,15.0,15.0,1.0,INDIAN_PITTA_2.jpg,CRESTED_CARACARA_4.jpg,A2PAWE1NW4MD8L
856,1.0,left,right,0.0,1.388,0.0,16.0,16.0,16.0,1.0,PEACOCK_3.jpg,ANIANIAU_2.jpg,A2PAWE1NW4MD8L
857,3.0,right,right,1.0,2.963,0.0,17.0,17.0,17.0,1.0,AFRICAN_FIREFINCH_3.jpg,GRAY_KINGBIRD_5.jpg,A2PAWE1NW4MD8L
858,3.0,left,left,1.0,2.04,0.0,18.0,18.0,18.0,1.0,BALI_STARLING_1.jpg,IBERIAN_MAGPIE_1.jpg,A2PAWE1NW4MD8L
859,3.0,right,right,1.0,1.904,0.0,19.0,19.0,19.0,1.0,COMMON_LOON_2.jpg,CASPIAN_TERN_1.jpg,A2PAWE1NW4MD8L
860,3.0,left,right,0.0,1.398,0.0,20.0,20.0,20.0,1.0,LESSER_ADJUTANT_5.jpg,RED_HEADED_WOODPECKER_1.jpg,A2PAWE1NW4MD8L
861,1.0,left,left,1.0,2.22,0.0,21.0,21.0,21.0,1.0,BREWERS_BLACKBIRD_3.jpg,GUINEA_TURACO_3.jpg,A2PAWE1NW4MD8L
862,2.0,left,left,1.0,2.184,0.0,22.0,22.0,22.0,1.0,INCA_TERN_4.jpg,SMITHS_LONGSPUR_5.jpg,A2PAWE1NW4MD8L
863,3.0,left,left,1.0,2.094,0.0,23.0,23.0,23.0,1.0,KAGU_5.jpg,DEMOISELLE_CRANE_1.jpg,A2PAWE1NW4MD8L
864,1.0,right,left,0.0,1.915,0.0,24.0,24.0,24.0,1.0,MALAGASY_WHITE_EYE_2.jpg,RUBY_THROATED_HUMMINGBIRD_3.jpg,A2PAWE1NW4MD8L
865,1.0,left,left,1.0,1.937,0.0,25.0,25.0,25.0,1.0,IVORY_GULL_1.jpg,WILSONS_BIRD_OF_PARADISE_4.jpg,A2PAWE1NW4MD8L
866,1.0,right,right,1.0,1.289,0.0,26.0,26.0,26.0,1.0,OSTRICH_1.jpg,GYRFALCON_1.jpg,A2PAWE1NW4MD8L
867,3.0,left,left,1.0,1.319,0.0,27.0,27.0,27.0,1.0,RUFOUS_KINGFISHER_1.jpg,HORNED_SUNGEM_4.jpg,A2PAWE1NW4MD8L
868,1.0,left,right,0.0,1.505,0.0,28.0,28.0,28.0,1.0,NORTHERN_JACANA_3.jpg,AMERICAN_GOLDFINCH_4.jpg,A2PAWE1NW4MD8L
869,3.0,right,left,0.0,4.579,0.0,29.0,29.0,29.0,1.0,PARADISE_TANAGER_3.jpg,MYNA_1.jpg,A2PAWE1NW4MD8L
870,3.0,left,left,1.0,1.239,0.0,30.0,30.0,30.0,1.0,VERMILION_FLYCATHER_3.jpg,RED_BEARDED_BEE_EATER_1.jpg,A2PAWE1NW4MD8L
871,1.0,left,left,1.0,1.697,0.0,31.0,31.0,31.0,1.0,STRIPPED_SWALLOW_1.jpg,DOUBLE_BRESTED_CORMARANT_4.jpg,A2PAWE1NW4MD8L
872,2.0,right,left,0.0,1.255,0.0,32.0,32.0,32.0,1.0,AMERICAN_PIPIT_1.jpg,OCELLATED_TURKEY_1.jpg,A2PAWE1NW4MD8L
873,1.0,right,left,0.0,1.699,0.0,33.0,33.0,33.0,1.0,ALTAMIRA_YELLOWTHROAT_5.jpg,LESSER_ADJUTANT_4.jpg,A2PAWE1NW4MD8L
874,2.0,left,left,1.0,1.349,0.0,34.0,34.0,34.0,1.0,CERULEAN_WARBLER_1.jpg,AMERICAN_FLAMINGO_5.jpg,A2PAWE1NW4MD8L
875,2.0,left,right,0.0,2.973,0.0,35.0,35.0,35.0,1.0,LITTLE_AUK_5.jpg,ORANGE_BRESTED_BUNTING_3.jpg,A2PAWE1NW4MD8L
876,2.0,right,right,1.0,2.331,0.0,36.0,36.0,36.0,1.0,RAZORBILL_1.jpg,CHUKAR_PARTRIDGE_5.jpg,A2PAWE1NW4MD8L
877,3.0,right,left,0.0,1.206,0.0,37.0,37.0,37.0,1.0,DARWINS_FLYCATCHER_2.jpg,INDIGO_BUNTING_1.jpg,A2PAWE1NW4MD8L
878,3.0,left,right,0.0,1.256,0.0,38.0,38.0,38.0,1.0,WHITE_CHEEKED_TURACO_5.jpg,PYGMY_KINGFISHER_2.jpg,A2PAWE1NW4MD8L
879,2.0,right,right,1.0,9.529,0.0,39.0,39.0,39.0,1.0,GREEN_MAGPIE_1.jpg,AMERICAN_PIPIT_5.jpg,A2PAWE1NW4MD8L
880,1.0,right,left,0.0,2.158,0.0,40.0,40.0,40.0,1.0,BANANAQUIT_2.jpg,RUBY_THROATED_HUMMINGBIRD_1.jpg,A2PAWE1NW4MD8L
881,1.0,right,right,1.0,1.352,0.0,41.0,41.0,41.0,1.0,SPOONBILL_3.jpg,PINK_ROBIN_4.jpg,A2PAWE1NW4MD8L
882,1.0,left,right,0.0,1.337,0.0,42.0,42.0,42.0,1.0,DOUBLE_BRESTED_CORMARANT_5.jpg,GILDED_FLICKER_2.jpg,A2PAWE1NW4MD8L
883,3.0,right,left,0.0,1.575,0.0,43.0,43.0,43.0,1.0,AFRICAN_OYSTER_CATCHER_2.jpg,CASSOWARY_1.jpg,A2PAWE1NW4MD8L
884,2.0,left,right,0.0,1.84,0.0,44.0,44.0,44.0,1.0,GREY_PLOVER_1.jpg,GOULDIAN_FINCH_4.jpg,A2PAWE1NW4MD8L
885,2.0,right,left,0.0,1.721,0.0,45.0,45.0,45.0,1.0,AFRICAN_FIREFINCH_1.jpg,CRESTED_NUTHATCH_2.jpg,A2PAWE1NW4MD8L
886,2.0,left,left,1.0,1.87,0.0,46.0,46.0,46.0,1.0,LARK_BUNTING_2.jpg,KING_VULTURE_3.jpg,A2PAWE1NW4MD8L
887,2.0,left,left,1.0,2.48,0.0,47.0,47.0,47.0,1.0,BROWN_THRASHER_3.jpg,OYSTER_CATCHER_4.jpg,A2PAWE1NW4MD8L
888,1.0,right,left,0.0,1.504,0.0,48.0,48.0,48.0,1.0,EASTERN_MEADOWLARK_1.jpg,SHOEBILL_3.jpg,A2PAWE1NW4MD8L
889,3.0,left,left,1.0,1.45,0.0,49.0,49.0,49.0,1.0,ECUADORIAN_HILLSTAR_5.jpg,CRIMSON_SUNBIRD_5.jpg,A2PAWE1NW4MD8L
890,3.0,left,left,1.0,1.526,0.0,50.0,50.0,50.0,1.0,SCARLET_TANAGER_2.jpg,BORNEAN_LEAFBIRD_1.jpg,A2PAWE1NW4MD8L
891,1.0,left,left,1.0,1.476,0.0,51.0,51.0,51.0,1.0,PARUS_MAJOR_1.jpg,SANDHILL_CRANE_4.jpg,A2PAWE1NW4MD8L
892,2.0,right,left,0.0,2.056,0.0,52.0,52.0,52.0,1.0,CAATINGA_CACHOLOTE_4.jpg,KILLDEAR_2.jpg,A2PAWE1NW4MD8L
893,2.0,left,right,0.0,2.102,0.0,53.0,53.0,53.0,1.0,BROWN_NOODY_3.jpg,SPANGLED_COTINGA_4.jpg,A2PAWE1NW4MD8L
894,3.0,right,left,0.0,1.346,0.0,54.0,54.0,54.0,1.0,OYSTER_CATCHER_3.jpg,MAGPIE_GOOSE_5.jpg,A2PAWE1NW4MD8L
895,2.0,left,left,1.0,1.613,0.0,55.0,55.0,55.0,1.0,ARARIPE_MANAKIN_4.jpg,BLACK_VULTURE_1.jpg,A2PAWE1NW4MD8L
896,1.0,left,right,0.0,1.405,0.0,56.0,56.0,56.0,1.0,TASMANIAN_HEN_5.jpg,GREEN_BROADBILL_1.jpg,A2PAWE1NW4MD8L
897,1.0,left,right,0.0,1.968,0.0,57.0,57.0,57.0,1.0,PYGMY_KINGFISHER_5.jpg,GRANDALA_2.jpg,A2PAWE1NW4MD8L
898,3.0,right,right,1.0,1.767,0.0,58.0,58.0,58.0,1.0,WHITE_THROATED_BEE_EATER_1.jpg,GOLDEN_CHEEKED_WARBLER_2.jpg,A2PAWE1NW4MD8L
899,3.0,right,right,1.0,1.988,0.0,59.0,59.0,59.0,1.0,CRESTED_KINGFISHER_1.jpg,INLAND_DOTTEREL_4.jpg,A2PAWE1NW4MD8L
900,3.0,left,left,1.0,3.0214,0.0,0.0,0.0,0.0,1.0,LITTLE_AUK_5.jpg,BEARDED_BELLBIRD_1.jpg,A2RSBH1E3TEESG
901,2.0,right,right,1.0,1.7068,0.0,1.0,1.0,1.0,1.0,OYSTER_CATCHER_4.jpg,BROWN_THRASHER_3.jpg,A2RSBH1E3TEESG
902,1.0,right,right,1.0,1.4888,0.0,2.0,2.0,2.0,1.0,BANANAQUIT_2.jpg,RUBY_THROATED_HUMMINGBIRD_1.jpg,A2RSBH1E3TEESG
903,2.0,right,right,1.0,1.9016,0.0,3.0,3.0,3.0,1.0,DOUBLE_BRESTED_CORMARANT_1.jpg,SPLENDID_WREN_1.jpg,A2RSBH1E3TEESG
904,2.0,right,right,1.0,1.5808,0.0,4.0,4.0,4.0,1.0,GREAT_POTOO_3.jpg,WHITE_CHEEKED_TURACO_5.jpg,A2RSBH1E3TEESG
905,2.0,right,right,1.0,1.4151,0.0,5.0,5.0,5.0,1.0,MAGPIE_GOOSE_3.jpg,RUFOUS_KINGFISHER_1.jpg,A2RSBH1E3TEESG
906,1.0,right,right,1.0,1.4958,0.0,6.0,6.0,6.0,1.0,INDIAN_BUSTARD_2.jpg,FLAME_BOWERBIRD_3.jpg,A2RSBH1E3TEESG
907,3.0,right,right,1.0,1.3192,0.0,7.0,7.0,7.0,1.0,FAIRY_TERN_4.jpg,IVORY_GULL_1.jpg,A2RSBH1E3TEESG
908,2.0,right,right,1.0,4.5948,0.0,8.0,8.0,8.0,1.0,CRAB_PLOVER_3.jpg,NORTHERN_JACANA_3.jpg,A2RSBH1E3TEESG
