,index,test_encoding_response.keys,test_encoding_response.corr,trials.thisTrialN,target_image,pair,layer,correct,test_encoding_response.rt,key_resp_end.keys,subject
0,20,,1.0,0.0,BREWERS_BLACKBIRD_3.jpg,CAPE_LONGCLAW_2.jpg,3.0,,,,A1122EUMFXHF38
1,21,,1.0,1.0,PYGMY_KINGFISHER_5.jpg,MASKED_BOOBY_5.jpg,2.0,,,,A1122EUMFXHF38
2,22,,1.0,2.0,OCELLATED_TURKEY_1.jpg,AMERICAN_PIPIT_1.jpg,2.0,,,,A1122EUMFXHF38
3,23,,1.0,3.0,WHITE_CHEEKED_TURACO_5.jpg,NORTHERN_MOCKINGBIRD_4.jpg,1.0,,,,A1122EUMFXHF38
4,24,,1.0,4.0,FLAME_BOWERBIRD_3.jpg,BROWN_THRASHER_4.jpg,2.0,,,,A1122EUMFXHF38
5,25,,1.0,5.0,CRESTED_NUTHATCH_2.jpg,CANARY_1.jpg,3.0,,,,A1122EUMFXHF38
6,26,,1.0,6.0,SHOEBILL_3.jpg,EASTERN_MEADOWLARK_1.jpg,1.0,,,,A1122EUMFXHF38
7,27,left,1.0,7.0,left.jpg,,,left,0.978,,A1122EUMFXHF38
8,28,,1.0,8.0,VERMILION_FLYCATHER_3.jpg,CALIFORNIA_GULL_1.jpg,2.0,,,,A1122EUMFXHF38
9,29,,1.0,9.0,CHUKAR_PARTRIDGE_5.jpg,BLACK_THROATED_BUSHTIT_1.jpg,3.0,,,,A1122EUMFXHF38
10,30,,1.0,10.0,ALPINE_CHOUGH_4.jpg,SNOWY_EGRET_2.jpg,1.0,,,,A1122EUMFXHF38
11,31,,1.0,11.0,ASIAN_DOLLARD_BIRD_2.jpg,VIOLET_GREEN_SWALLOW_4.jpg,3.0,,,,A1122EUMFXHF38
12,32,,1.0,12.0,CRESTED_CARACARA_4.jpg,INDIAN_PITTA_2.jpg,2.0,,,,A1122EUMFXHF38
13,33,,1.0,13.0,SPLENDID_WREN_1.jpg,POMARINE_JAEGER_5.jpg,1.0,,,,A1122EUMFXHF38
14,34,,1.0,14.0,ASIAN_CRESTED_IBIS_4.jpg,CANARY_2.jpg,1.0,,,,A1122EUMFXHF38
15,35,,1.0,15.0,RUBY_THROATED_HUMMINGBIRD_2.jpg,DUSKY_ROBIN_5.jpg,3.0,,,,A1122EUMFXHF38
16,36,,1.0,16.0,GOLDEN_CHLOROPHONIA_5.jpg,ROADRUNNER_2.jpg,1.0,,,,A1122EUMFXHF38
17,37,,1.0,17.0,MAGPIE_GOOSE_5.jpg,HAMERKOP_1.jpg,2.0,,,,A1122EUMFXHF38
18,38,left,1.0,18.0,left.jpg,,,left,0.966,,A1122EUMFXHF38
19,39,,1.0,19.0,KILLDEAR_2.jpg,CAATINGA_CACHOLOTE_4.jpg,2.0,,,,A1122EUMFXHF38
20,40,,1.0,20.0,SCARLET_TANAGER_2.jpg,NORTHERN_GANNET_2.jpg,2.0,,,,A1122EUMFXHF38
21,41,,1.0,21.0,RUBY_THROATED_HUMMINGBIRD_3.jpg,NORTHERN_SHOVELER_1.jpg,3.0,,,,A1122EUMFXHF38
22,42,,1.0,22.0,PINK_ROBIN_4.jpg,ALBATROSS_4.jpg,2.0,,,,A1122EUMFXHF38
23,43,,1.0,23.0,MALACHITE_KINGFISHER_2.jpg,INCA_TERN_2.jpg,2.0,,,,A1122EUMFXHF38
24,44,,1.0,24.0,ARARIPE_MANAKIN_4.jpg,KIWI_3.jpg,1.0,,,,A1122EUMFXHF38
25,45,,1.0,25.0,BALI_STARLING_1.jpg,PURPLE_FINCH_2.jpg,2.0,,,,A1122EUMFXHF38
26,46,,1.0,26.0,EUROPEAN_TURTLE_DOVE_3.jpg,PAINTED_BUNTING_3.jpg,2.0,,,,A1122EUMFXHF38
27,47,,1.0,27.0,NORTHERN_JACANA_3.jpg,AMERICAN_GOLDFINCH_4.jpg,1.0,,,,A1122EUMFXHF38
28,48,,1.0,28.0,BROWN_THRASHER_3.jpg,DOUBLE_EYED_FIG_PARROT_3.jpg,1.0,,,,A1122EUMFXHF38
29,49,,1.0,29.0,KAGU_5.jpg,DEMOISELLE_CRANE_1.jpg,3.0,,,,A1122EUMFXHF38
30,50,,1.0,30.0,TASMANIAN_HEN_5.jpg,GREEN_BROADBILL_1.jpg,1.0,,,,A1122EUMFXHF38
31,51,,1.0,31.0,EASTERN_TOWEE_2.jpg,NORTHERN_BEARDLESS_TYRANNULET_5.jpg,3.0,,,,A1122EUMFXHF38
32,52,,1.0,32.0,AFRICAN_PIED_HORNBILL_5.jpg,CAPUCHINBIRD_2.jpg,3.0,,,,A1122EUMFXHF38
33,53,,1.0,33.0,LARK_BUNTING_2.jpg,CACTUS_WREN_3.jpg,3.0,,,,A1122EUMFXHF38
34,54,right,1.0,34.0,right.jpg,,,right,1.254,,A1122EUMFXHF38
35,55,,1.0,35.0,ECUADORIAN_HILLSTAR_5.jpg,CRIMSON_SUNBIRD_5.jpg,3.0,,,,A1122EUMFXHF38
36,56,,1.0,36.0,RED_HEADED_WOODPECKER_5.jpg,COLLARED_ARACARI_1.jpg,3.0,,,,A1122EUMFXHF38
37,57,,1.0,37.0,GRAY_KINGBIRD_5.jpg,BALD_EAGLE_2.jpg,1.0,,,,A1122EUMFXHF38
38,58,right,1.0,38.0,right.jpg,,,right,1.001,,A1122EUMFXHF38
39,59,,1.0,39.0,MYNA_1.jpg,OSTRICH_3.jpg,1.0,,,,A1122EUMFXHF38
40,60,,1.0,40.0,LESSER_ADJUTANT_4.jpg,FAIRY_TERN_3.jpg,3.0,,,,A1122EUMFXHF38
41,61,,1.0,41.0,GYRFALCON_1.jpg,OSTRICH_1.jpg,1.0,,,,A1122EUMFXHF38
42,62,,1.0,42.0,RUFOUS_KINGFISHER_1.jpg,SNOWY_OWL_5.jpg,1.0,,,,A1122EUMFXHF38
43,63,,1.0,43.0,LITTLE_AUK_5.jpg,ORANGE_BRESTED_BUNTING_3.jpg,2.0,,,,A1122EUMFXHF38
44,64,,1.0,44.0,OVENBIRD_5.jpg,SHORT_BILLED_DOWITCHER_5.jpg,3.0,,,,A1122EUMFXHF38
45,65,,1.0,45.0,INLAND_DOTTEREL_4.jpg,CASSOWARY_2.jpg,1.0,,,,A1122EUMFXHF38
46,66,,1.0,46.0,IVORY_GULL_1.jpg,FAIRY_TERN_4.jpg,3.0,,,,A1122EUMFXHF38
47,67,,1.0,47.0,INCA_TERN_4.jpg,ELLIOTS__PHEASANT_4.jpg,1.0,,,,A1122EUMFXHF38
48,68,,1.0,48.0,BROWN_NOODY_3.jpg,PEACOCK_2.jpg,1.0,,,,A1122EUMFXHF38
49,69,,1.0,49.0,PARUS_MAJOR_1.jpg,CALIFORNIA_GULL_2.jpg,2.0,,,,A1122EUMFXHF38
50,70,,1.0,50.0,INDIGO_BUNTING_1.jpg,NORTHERN_GANNET_1.jpg,2.0,,,,A1122EUMFXHF38
51,71,,1.0,51.0,IVORY_GULL_3.jpg,INDIGO_FLYCATCHER_2.jpg,1.0,,,,A1122EUMFXHF38
52,72,left,1.0,52.0,left.jpg,,,left,0.85,,A1122EUMFXHF38
53,73,,1.0,53.0,CASSOWARY_1.jpg,AFRICAN_OYSTER_CATCHER_2.jpg,3.0,,,,A1122EUMFXHF38
54,74,,1.0,54.0,GOLDEN_CHEEKED_WARBLER_2.jpg,WHITE_THROATED_BEE_EATER_1.jpg,3.0,,,,A1122EUMFXHF38
55,75,,1.0,55.0,STRIPPED_SWALLOW_1.jpg,DOUBLE_BRESTED_CORMARANT_4.jpg,1.0,,,,A1122EUMFXHF38
56,76,,1.0,56.0,HAWAIIAN_GOOSE_4.jpg,WATTLED_LAPWING_3.jpg,3.0,,,,A1122EUMFXHF38
57,77,,1.0,57.0,RUBY_THROATED_HUMMINGBIRD_1.jpg,VULTURINE_GUINEAFOWL_4.jpg,2.0,,,,A1122EUMFXHF38
58,78,,1.0,58.0,PEACOCK_3.jpg,CHATTERING_LORY_2.jpg,3.0,,,,A1122EUMFXHF38
59,79,,1.0,59.0,CASPIAN_TERN_1.jpg,EUROPEAN_GOLDFINCH_4.jpg,2.0,,,,A1122EUMFXHF38
60,80,,1.0,60.0,CERULEAN_WARBLER_1.jpg,AMERICAN_FLAMINGO_5.jpg,2.0,,,,A1122EUMFXHF38
61,81,,1.0,61.0,DOUBLE_BRESTED_CORMARANT_5.jpg,GILDED_FLICKER_2.jpg,1.0,,,,A1122EUMFXHF38
62,82,,1.0,62.0,GREY_PLOVER_1.jpg,GOULDIAN_FINCH_4.jpg,2.0,,,,A1122EUMFXHF38
63,83,,1.0,63.0,LESSER_ADJUTANT_5.jpg,GAMBELS_QUAIL_1.jpg,2.0,,,,A1122EUMFXHF38
64,84,,1.0,64.0,AMERICAN_PIPIT_5.jpg,HEPATIC_TANAGER_5.jpg,3.0,,,,A1122EUMFXHF38
65,20,,1.0,0.0,OCELLATED_TURKEY_1.jpg,PURPLE_SWAMPHEN_4.jpg,3.0,,,,A1I5KX8TP3K5L2
66,21,,1.0,1.0,CHUKAR_PARTRIDGE_5.jpg,OSTRICH_5.jpg,1.0,,,,A1I5KX8TP3K5L2
67,22,,1.0,2.0,KILLDEAR_2.jpg,PEACOCK_5.jpg,1.0,,,,A1I5KX8TP3K5L2
68,23,,1.0,3.0,BROWN_NOODY_3.jpg,PEACOCK_2.jpg,1.0,,,,A1I5KX8TP3K5L2
69,24,,1.0,4.0,CASPIAN_TERN_1.jpg,EUROPEAN_GOLDFINCH_4.jpg,2.0,,,,A1I5KX8TP3K5L2
70,25,,1.0,5.0,MALACHITE_KINGFISHER_2.jpg,INCA_TERN_2.jpg,2.0,,,,A1I5KX8TP3K5L2
71,26,right,1.0,6.0,right.jpg,,,right,1.0453,,A1I5KX8TP3K5L2
72,27,,1.0,7.0,INCA_TERN_4.jpg,ELLIOTS__PHEASANT_4.jpg,1.0,,,,A1I5KX8TP3K5L2
73,28,,1.0,8.0,GOLDEN_CHLOROPHONIA_5.jpg,VERMILION_FLYCATHER_5.jpg,3.0,,,,A1I5KX8TP3K5L2
74,29,,1.0,9.0,SPLENDID_WREN_1.jpg,DOUBLE_BRESTED_CORMARANT_1.jpg,2.0,,,,A1I5KX8TP3K5L2
75,30,,1.0,10.0,CRESTED_CARACARA_4.jpg,FAIRY_PENGUIN_5.jpg,1.0,,,,A1I5KX8TP3K5L2
76,31,,1.0,11.0,CRESTED_NUTHATCH_2.jpg,SCARLET_IBIS_3.jpg,1.0,,,,A1I5KX8TP3K5L2
77,32,,1.0,12.0,HAWAIIAN_GOOSE_4.jpg,HIMALAYAN_MONAL_2.jpg,2.0,,,,A1I5KX8TP3K5L2
78,33,,1.0,13.0,GYRFALCON_1.jpg,CINNAMON_ATTILA_2.jpg,2.0,,,,A1I5KX8TP3K5L2
79,34,,1.0,14.0,LARK_BUNTING_2.jpg,KING_VULTURE_3.jpg,2.0,,,,A1I5KX8TP3K5L2
80,35,,1.0,15.0,LITTLE_AUK_5.jpg,ORANGE_BRESTED_BUNTING_3.jpg,2.0,,,,A1I5KX8TP3K5L2
81,36,,1.0,16.0,CERULEAN_WARBLER_1.jpg,AMERICAN_FLAMINGO_5.jpg,2.0,,,,A1I5KX8TP3K5L2
82,37,,1.0,17.0,RUBY_THROATED_HUMMINGBIRD_1.jpg,VULTURINE_GUINEAFOWL_4.jpg,2.0,,,,A1I5KX8TP3K5L2
83,38,left,1.0,18.0,left.jpg,,,left,1.0899,,A1I5KX8TP3K5L2
84,39,,1.0,19.0,RUFOUS_KINGFISHER_1.jpg,SNOWY_OWL_5.jpg,1.0,,,,A1I5KX8TP3K5L2
85,40,,1.0,20.0,TASMANIAN_HEN_5.jpg,GREEN_BROADBILL_1.jpg,1.0,,,,A1I5KX8TP3K5L2
86,41,,1.0,21.0,AMERICAN_PIPIT_5.jpg,GREEN_MAGPIE_1.jpg,2.0,,,,A1I5KX8TP3K5L2
87,42,,1.0,22.0,LESSER_ADJUTANT_4.jpg,RAINBOW_LORIKEET_5.jpg,2.0,,,,A1I5KX8TP3K5L2
88,43,,1.0,23.0,GREY_PLOVER_1.jpg,ECUADORIAN_HILLSTAR_3.jpg,3.0,,,,A1I5KX8TP3K5L2
89,44,,1.0,24.0,GRAY_KINGBIRD_5.jpg,BALD_EAGLE_2.jpg,1.0,,,,A1I5KX8TP3K5L2
90,45,,1.0,25.0,ARARIPE_MANAKIN_4.jpg,BORNEAN_LEAFBIRD_3.jpg,3.0,,,,A1I5KX8TP3K5L2
91,46,left,1.0,26.0,left.jpg,,,left,1.4646,,A1I5KX8TP3K5L2
92,47,,1.0,27.0,AFRICAN_PIED_HORNBILL_5.jpg,KIWI_4.jpg,1.0,,,,A1I5KX8TP3K5L2
93,48,,1.0,28.0,ASIAN_DOLLARD_BIRD_2.jpg,ALBATROSS_2.jpg,1.0,,,,A1I5KX8TP3K5L2
94,49,,1.0,29.0,SHOEBILL_3.jpg,EASTERN_MEADOWLARK_1.jpg,1.0,,,,A1I5KX8TP3K5L2
95,50,,1.0,30.0,GOLDEN_CHEEKED_WARBLER_2.jpg,HOUSE_FINCH_2.jpg,2.0,,,,A1I5KX8TP3K5L2
96,51,,1.0,31.0,BALI_STARLING_1.jpg,IBERIAN_MAGPIE_1.jpg,3.0,,,,A1I5KX8TP3K5L2
97,52,,1.0,32.0,MYNA_1.jpg,GREY_PLOVER_4.jpg,2.0,,,,A1I5KX8TP3K5L2
98,53,,1.0,33.0,PINK_ROBIN_4.jpg,ALBATROSS_4.jpg,2.0,,,,A1I5KX8TP3K5L2
99,54,,1.0,34.0,INDIGO_BUNTING_1.jpg,NORTHERN_GANNET_1.jpg,2.0,,,,A1I5KX8TP3K5L2
100,55,,1.0,35.0,IVORY_GULL_1.jpg,FAIRY_TERN_4.jpg,3.0,,,,A1I5KX8TP3K5L2
101,56,,1.0,36.0,EASTERN_TOWEE_2.jpg,GOLDEN_CHLOROPHONIA_1.jpg,2.0,,,,A1I5KX8TP3K5L2
102,57,,1.0,37.0,FLAME_BOWERBIRD_3.jpg,BROWN_THRASHER_4.jpg,2.0,,,,A1I5KX8TP3K5L2
103,58,,1.0,38.0,INLAND_DOTTEREL_4.jpg,CASSOWARY_2.jpg,1.0,,,,A1I5KX8TP3K5L2
104,59,,1.0,39.0,SCARLET_TANAGER_2.jpg,BEARDED_BARBET_2.jpg,1.0,,,,A1I5KX8TP3K5L2
105,60,left,1.0,40.0,left.jpg,,,left,1.0176,,A1I5KX8TP3K5L2
106,61,,1.0,41.0,ASIAN_CRESTED_IBIS_4.jpg,OYSTER_CATCHER_2.jpg,2.0,,,,A1I5KX8TP3K5L2
107,62,,1.0,42.0,RUBY_THROATED_HUMMINGBIRD_2.jpg,DUSKY_ROBIN_5.jpg,3.0,,,,A1I5KX8TP3K5L2
108,63,,1.0,43.0,LESSER_ADJUTANT_5.jpg,RED_HEADED_WOODPECKER_1.jpg,3.0,,,,A1I5KX8TP3K5L2
109,64,,1.0,44.0,BREWERS_BLACKBIRD_3.jpg,CAPE_LONGCLAW_2.jpg,3.0,,,,A1I5KX8TP3K5L2
110,65,,1.0,45.0,IVORY_GULL_3.jpg,INDIGO_FLYCATCHER_2.jpg,1.0,,,,A1I5KX8TP3K5L2
111,66,right,1.0,46.0,right.jpg,,,right,1.6763,,A1I5KX8TP3K5L2
112,67,,1.0,47.0,ECUADORIAN_HILLSTAR_5.jpg,CRIMSON_SUNBIRD_5.jpg,3.0,,,,A1I5KX8TP3K5L2
113,68,,1.0,48.0,BROWN_THRASHER_3.jpg,OYSTER_CATCHER_4.jpg,2.0,,,,A1I5KX8TP3K5L2
114,69,,1.0,49.0,KAGU_5.jpg,RED_BEARDED_BEE_EATER_3.jpg,1.0,,,,A1I5KX8TP3K5L2
115,70,,1.0,50.0,MAGPIE_GOOSE_5.jpg,OYSTER_CATCHER_3.jpg,3.0,,,,A1I5KX8TP3K5L2
116,71,,1.0,51.0,EUROPEAN_TURTLE_DOVE_3.jpg,TEAL_DUCK_2.jpg,1.0,,,,A1I5KX8TP3K5L2
117,72,,1.0,52.0,ALPINE_CHOUGH_4.jpg,BOBOLINK_3.jpg,3.0,,,,A1I5KX8TP3K5L2
118,73,,1.0,53.0,STRIPPED_SWALLOW_1.jpg,GO_AWAY_BIRD_5.jpg,3.0,,,,A1I5KX8TP3K5L2
119,74,,1.0,54.0,VERMILION_FLYCATHER_3.jpg,INDIAN_BUSTARD_1.jpg,1.0,,,,A1I5KX8TP3K5L2
120,75,,1.0,55.0,PEACOCK_3.jpg,CHATTERING_LORY_2.jpg,3.0,,,,A1I5KX8TP3K5L2
121,76,,1.0,56.0,RED_HEADED_WOODPECKER_5.jpg,COLLARED_ARACARI_1.jpg,3.0,,,,A1I5KX8TP3K5L2
122,77,,1.0,57.0,OVENBIRD_5.jpg,SHORT_BILLED_DOWITCHER_5.jpg,3.0,,,,A1I5KX8TP3K5L2
123,78,,1.0,58.0,PYGMY_KINGFISHER_5.jpg,DOUBLE_EYED_FIG_PARROT_4.jpg,3.0,,,,A1I5KX8TP3K5L2
124,79,,1.0,59.0,DOUBLE_BRESTED_CORMARANT_5.jpg,GILDED_FLICKER_2.jpg,1.0,,,,A1I5KX8TP3K5L2
125,80,,1.0,60.0,CASSOWARY_1.jpg,SCARLET_MACAW_1.jpg,2.0,,,,A1I5KX8TP3K5L2
126,81,,1.0,61.0,PARUS_MAJOR_1.jpg,PINK_ROBIN_3.jpg,3.0,,,,A1I5KX8TP3K5L2
127,82,,1.0,62.0,WHITE_CHEEKED_TURACO_5.jpg,PYGMY_KINGFISHER_2.jpg,3.0,,,,A1I5KX8TP3K5L2
128,83,,1.0,63.0,NORTHERN_JACANA_3.jpg,AMERICAN_GOLDFINCH_4.jpg,1.0,,,,A1I5KX8TP3K5L2
129,84,,1.0,64.0,RUBY_THROATED_HUMMINGBIRD_3.jpg,NORTHERN_SHOVELER_1.jpg,3.0,,,,A1I5KX8TP3K5L2
130,20,,1.0,0.0,RUBY_THROATED_HUMMINGBIRD_3.jpg,NORTHERN_SHOVELER_1.jpg,3.0,,,,A1P2XKONWAOXHP
131,21,,1.0,1.0,CERULEAN_WARBLER_1.jpg,AMERICAN_FLAMINGO_2.jpg,1.0,,,,A1P2XKONWAOXHP
132,22,,1.0,2.0,DOUBLE_BRESTED_CORMARANT_5.jpg,CHINESE_POND_HERON_2.jpg,3.0,,,,A1P2XKONWAOXHP
133,23,,1.0,3.0,CHUKAR_PARTRIDGE_5.jpg,BLACK_THROATED_BUSHTIT_1.jpg,3.0,,,,A1P2XKONWAOXHP
134,24,,1.0,4.0,MAGPIE_GOOSE_5.jpg,HAMERKOP_1.jpg,2.0,,,,A1P2XKONWAOXHP
135,25,,1.0,5.0,PYGMY_KINGFISHER_5.jpg,GRANDALA_2.jpg,1.0,,,,A1P2XKONWAOXHP
136,26,,1.0,6.0,CASSOWARY_1.jpg,SCARLET_MACAW_1.jpg,2.0,,,,A1P2XKONWAOXHP
137,27,,1.0,7.0,IVORY_GULL_3.jpg,FLAME_TANAGER_3.jpg,2.0,,,,A1P2XKONWAOXHP
138,28,,1.0,8.0,MYNA_1.jpg,OSTRICH_3.jpg,1.0,,,,A1P2XKONWAOXHP
139,29,,1.0,9.0,STRIPPED_SWALLOW_1.jpg,DOUBLE_BRESTED_CORMARANT_4.jpg,1.0,,,,A1P2XKONWAOXHP
140,30,,1.0,10.0,BREWERS_BLACKBIRD_3.jpg,GOLDEN_CHEEKED_WARBLER_3.jpg,2.0,,,,A1P2XKONWAOXHP
141,31,,1.0,11.0,RUBY_THROATED_HUMMINGBIRD_2.jpg,DUSKY_ROBIN_5.jpg,3.0,,,,A1P2XKONWAOXHP
142,32,left,1.0,12.0,left.jpg,,,left,0.998099998,,A1P2XKONWAOXHP
143,33,,1.0,13.0,ALPINE_CHOUGH_4.jpg,SNOWY_EGRET_2.jpg,1.0,,,,A1P2XKONWAOXHP
144,34,,1.0,14.0,EUROPEAN_TURTLE_DOVE_3.jpg,MALABAR_HORNBILL_2.jpg,3.0,,,,A1P2XKONWAOXHP
145,35,,1.0,15.0,HAWAIIAN_GOOSE_4.jpg,WATTLED_LAPWING_3.jpg,3.0,,,,A1P2XKONWAOXHP
146,36,,1.0,16.0,BALI_STARLING_1.jpg,PURPLE_FINCH_2.jpg,2.0,,,,A1P2XKONWAOXHP
147,37,left,1.0,17.0,left.jpg,,,left,1.006200001,,A1P2XKONWAOXHP
148,38,,1.0,18.0,EASTERN_TOWEE_2.jpg,SANDHILL_CRANE_2.jpg,1.0,,,,A1P2XKONWAOXHP
149,39,,1.0,19.0,SHOEBILL_3.jpg,GILDED_FLICKER_5.jpg,2.0,,,,A1P2XKONWAOXHP
150,40,,1.0,20.0,GRAY_KINGBIRD_5.jpg,AFRICAN_FIREFINCH_3.jpg,3.0,,,,A1P2XKONWAOXHP
151,41,,1.0,21.0,LESSER_ADJUTANT_4.jpg,ALTAMIRA_YELLOWTHROAT_5.jpg,1.0,,,,A1P2XKONWAOXHP
152,42,,1.0,22.0,INLAND_DOTTEREL_4.jpg,NICOBAR_PIGEON_4.jpg,2.0,,,,A1P2XKONWAOXHP
153,43,,1.0,23.0,AMERICAN_PIPIT_5.jpg,HEPATIC_TANAGER_5.jpg,3.0,,,,A1P2XKONWAOXHP
154,44,,1.0,24.0,SCARLET_TANAGER_2.jpg,NORTHERN_GANNET_2.jpg,2.0,,,,A1P2XKONWAOXHP
155,45,,1.0,25.0,ASIAN_DOLLARD_BIRD_2.jpg,LOGGERHEAD_SHRIKE_4.jpg,2.0,,,,A1P2XKONWAOXHP
156,46,,1.0,26.0,ARARIPE_MANAKIN_4.jpg,BORNEAN_LEAFBIRD_3.jpg,3.0,,,,A1P2XKONWAOXHP
157,47,,1.0,27.0,CRESTED_CARACARA_4.jpg,FAIRY_PENGUIN_5.jpg,1.0,,,,A1P2XKONWAOXHP
158,48,,1.0,28.0,AFRICAN_PIED_HORNBILL_5.jpg,ALEXANDRINE_PARAKEET_1.jpg,2.0,,,,A1P2XKONWAOXHP
159,49,left,1.0,29.0,left.jpg,,,left,0.884300001,,A1P2XKONWAOXHP
160,50,,1.0,30.0,INCA_TERN_4.jpg,SMITHS_LONGSPUR_5.jpg,2.0,,,,A1P2XKONWAOXHP
161,51,,1.0,31.0,TASMANIAN_HEN_5.jpg,AFRICAN_EMERALD_CUCKOO_5.jpg,2.0,,,,A1P2XKONWAOXHP
162,52,,1.0,32.0,RED_HEADED_WOODPECKER_5.jpg,ASHY_STORM_PETREL_2.jpg,1.0,,,,A1P2XKONWAOXHP
163,53,,1.0,33.0,RUFOUS_KINGFISHER_1.jpg,MAGPIE_GOOSE_3.jpg,2.0,,,,A1P2XKONWAOXHP
164,54,,1.0,34.0,PEACOCK_3.jpg,ANIANIAU_2.jpg,1.0,,,,A1P2XKONWAOXHP
165,55,,1.0,35.0,PINK_ROBIN_4.jpg,COMMON_IORA_4.jpg,3.0,,,,A1P2XKONWAOXHP
166,56,,1.0,36.0,PARUS_MAJOR_1.jpg,SANDHILL_CRANE_4.jpg,1.0,,,,A1P2XKONWAOXHP
167,57,,1.0,37.0,INDIGO_BUNTING_1.jpg,FRIGATE_4.jpg,1.0,,,,A1P2XKONWAOXHP
168,58,right,1.0,38.0,right.jpg,,,right,1.032300001,,A1P2XKONWAOXHP
169,59,,1.0,39.0,CRESTED_NUTHATCH_2.jpg,SCARLET_IBIS_3.jpg,1.0,,,,A1P2XKONWAOXHP
170,60,,1.0,40.0,CASPIAN_TERN_1.jpg,GREAT_GRAY_OWL_4.jpg,1.0,,,,A1P2XKONWAOXHP
171,61,,1.0,41.0,GREY_PLOVER_1.jpg,ECUADORIAN_HILLSTAR_3.jpg,3.0,,,,A1P2XKONWAOXHP
172,62,,1.0,42.0,LESSER_ADJUTANT_5.jpg,GAMBELS_QUAIL_1.jpg,2.0,,,,A1P2XKONWAOXHP
173,63,,1.0,43.0,GOLDEN_CHLOROPHONIA_5.jpg,ROADRUNNER_2.jpg,1.0,,,,A1P2XKONWAOXHP
174,64,,1.0,44.0,OCELLATED_TURKEY_1.jpg,PURPLE_SWAMPHEN_4.jpg,3.0,,,,A1P2XKONWAOXHP
175,65,,1.0,45.0,ASIAN_CRESTED_IBIS_4.jpg,IVORY_GULL_2.jpg,3.0,,,,A1P2XKONWAOXHP
176,66,,1.0,46.0,WHITE_CHEEKED_TURACO_5.jpg,GREAT_POTOO_3.jpg,2.0,,,,A1P2XKONWAOXHP
177,67,,1.0,47.0,RUBY_THROATED_HUMMINGBIRD_1.jpg,BANANAQUIT_2.jpg,1.0,,,,A1P2XKONWAOXHP
178,68,,1.0,48.0,GOLDEN_CHEEKED_WARBLER_2.jpg,WHITE_THROATED_BEE_EATER_1.jpg,3.0,,,,A1P2XKONWAOXHP
179,69,,1.0,49.0,FLAME_BOWERBIRD_3.jpg,BROWN_THRASHER_4.jpg,2.0,,,,A1P2XKONWAOXHP
180,70,,1.0,50.0,SPLENDID_WREN_1.jpg,DOUBLE_BRESTED_CORMARANT_1.jpg,2.0,,,,A1P2XKONWAOXHP
181,71,,1.0,51.0,VERMILION_FLYCATHER_3.jpg,CALIFORNIA_GULL_1.jpg,2.0,,,,A1P2XKONWAOXHP
182,72,,1.0,52.0,KILLDEAR_2.jpg,AZURE_TIT_5.jpg,3.0,,,,A1P2XKONWAOXHP
183,73,,1.0,53.0,LITTLE_AUK_5.jpg,BEARDED_BELLBIRD_1.jpg,3.0,,,,A1P2XKONWAOXHP
184,74,right,1.0,54.0,right.jpg,,,right,0.933699999,,A1P2XKONWAOXHP
185,75,,1.0,55.0,MALACHITE_KINGFISHER_2.jpg,INCA_TERN_2.jpg,2.0,,,,A1P2XKONWAOXHP
186,76,,1.0,56.0,NORTHERN_JACANA_3.jpg,SCARLET_IBIS_4.jpg,3.0,,,,A1P2XKONWAOXHP
187,77,,1.0,57.0,IVORY_GULL_1.jpg,WILSONS_BIRD_OF_PARADISE_4.jpg,1.0,,,,A1P2XKONWAOXHP
188,78,,1.0,58.0,ECUADORIAN_HILLSTAR_5.jpg,CRIMSON_SUNBIRD_5.jpg,3.0,,,,A1P2XKONWAOXHP
189,79,,1.0,59.0,OVENBIRD_5.jpg,MYNA_4.jpg,1.0,,,,A1P2XKONWAOXHP
190,80,,1.0,60.0,BROWN_THRASHER_3.jpg,BLACK_BAZA_4.jpg,3.0,,,,A1P2XKONWAOXHP
191,81,,1.0,61.0,LARK_BUNTING_2.jpg,PEACOCK_1.jpg,1.0,,,,A1P2XKONWAOXHP
192,82,,1.0,62.0,KAGU_5.jpg,DEMOISELLE_CRANE_1.jpg,3.0,,,,A1P2XKONWAOXHP
193,83,,1.0,63.0,GYRFALCON_1.jpg,OSTRICH_1.jpg,1.0,,,,A1P2XKONWAOXHP
194,84,,1.0,64.0,BROWN_NOODY_3.jpg,SPANGLED_COTINGA_4.jpg,2.0,,,,A1P2XKONWAOXHP
195,20,,1.0,0.0,INDIGO_BUNTING_1.jpg,NORTHERN_GANNET_1.jpg,2.0,,,,A1T6TTD7XCUHOU
196,21,,1.0,1.0,MYNA_1.jpg,OSTRICH_3.jpg,1.0,,,,A1T6TTD7XCUHOU
197,22,,1.0,2.0,LITTLE_AUK_5.jpg,SANDHILL_CRANE_3.jpg,1.0,,,,A1T6TTD7XCUHOU
198,23,,1.0,3.0,VERMILION_FLYCATHER_3.jpg,INDIAN_BUSTARD_1.jpg,1.0,,,,A1T6TTD7XCUHOU
199,24,,1.0,4.0,PEACOCK_3.jpg,CHATTERING_LORY_2.jpg,3.0,,,,A1T6TTD7XCUHOU
200,25,,1.0,5.0,CASSOWARY_1.jpg,SCARLET_MACAW_1.jpg,2.0,,,,A1T6TTD7XCUHOU
201,26,,1.0,6.0,LESSER_ADJUTANT_5.jpg,RED_HEADED_WOODPECKER_1.jpg,3.0,,,,A1T6TTD7XCUHOU
202,27,,1.0,7.0,IVORY_GULL_1.jpg,WILSONS_BIRD_OF_PARADISE_4.jpg,1.0,,,,A1T6TTD7XCUHOU
203,28,left,1.0,8.0,left.jpg,,,left,2.004,,A1T6TTD7XCUHOU
204,29,,1.0,9.0,DOUBLE_BRESTED_CORMARANT_5.jpg,EURASIAN_MAGPIE_4.jpg,2.0,,,,A1T6TTD7XCUHOU
205,30,,1.0,10.0,SHOEBILL_3.jpg,GILDED_FLICKER_5.jpg,2.0,,,,A1T6TTD7XCUHOU
206,31,,1.0,11.0,AMERICAN_PIPIT_5.jpg,HEPATIC_TANAGER_5.jpg,3.0,,,,A1T6TTD7XCUHOU
207,32,,1.0,12.0,KAGU_5.jpg,DEMOISELLE_CRANE_1.jpg,3.0,,,,A1T6TTD7XCUHOU
208,33,,1.0,13.0,GOLDEN_CHLOROPHONIA_5.jpg,ROADRUNNER_2.jpg,1.0,,,,A1T6TTD7XCUHOU
209,34,,1.0,14.0,PARUS_MAJOR_1.jpg,PINK_ROBIN_3.jpg,3.0,,,,A1T6TTD7XCUHOU
210,35,,1.0,15.0,ARARIPE_MANAKIN_4.jpg,KIWI_3.jpg,1.0,,,,A1T6TTD7XCUHOU
211,36,,1.0,16.0,OVENBIRD_5.jpg,FAIRY_PENGUIN_1.jpg,2.0,,,,A1T6TTD7XCUHOU
212,37,,1.0,17.0,WHITE_CHEEKED_TURACO_5.jpg,GREAT_POTOO_3.jpg,2.0,,,,A1T6TTD7XCUHOU
213,38,left,1.0,18.0,left.jpg,,,left,2.232,,A1T6TTD7XCUHOU
214,39,,1.0,19.0,TASMANIAN_HEN_5.jpg,GREEN_BROADBILL_1.jpg,1.0,,,,A1T6TTD7XCUHOU
215,40,,1.0,20.0,NORTHERN_JACANA_3.jpg,AMERICAN_GOLDFINCH_4.jpg,1.0,,,,A1T6TTD7XCUHOU
216,41,,1.0,21.0,PINK_ROBIN_4.jpg,SPOONBILL_3.jpg,1.0,,,,A1T6TTD7XCUHOU
217,42,,1.0,22.0,AFRICAN_PIED_HORNBILL_5.jpg,CAPUCHINBIRD_2.jpg,3.0,,,,A1T6TTD7XCUHOU
218,43,,1.0,23.0,STRIPPED_SWALLOW_1.jpg,MAGPIE_GOOSE_4.jpg,2.0,,,,A1T6TTD7XCUHOU
219,44,,1.0,24.0,EASTERN_TOWEE_2.jpg,GOLDEN_CHLOROPHONIA_1.jpg,2.0,,,,A1T6TTD7XCUHOU
220,45,,1.0,25.0,RUFOUS_KINGFISHER_1.jpg,SNOWY_OWL_5.jpg,1.0,,,,A1T6TTD7XCUHOU
221,46,,1.0,26.0,SCARLET_TANAGER_2.jpg,BORNEAN_LEAFBIRD_1.jpg,3.0,,,,A1T6TTD7XCUHOU
222,47,,1.0,27.0,LESSER_ADJUTANT_4.jpg,ALTAMIRA_YELLOWTHROAT_5.jpg,1.0,,,,A1T6TTD7XCUHOU
223,48,,1.0,28.0,CRESTED_CARACARA_4.jpg,TOUCHAN_4.jpg,3.0,,,,A1T6TTD7XCUHOU
224,49,,1.0,29.0,RUBY_THROATED_HUMMINGBIRD_1.jpg,VULTURINE_GUINEAFOWL_4.jpg,2.0,,,,A1T6TTD7XCUHOU
225,50,,1.0,30.0,ECUADORIAN_HILLSTAR_5.jpg,BOBOLINK_5.jpg,2.0,,,,A1T6TTD7XCUHOU
226,51,,1.0,31.0,RED_HEADED_WOODPECKER_5.jpg,CRIMSON_CHAT_3.jpg,2.0,,,,A1T6TTD7XCUHOU
227,52,,0.0,32.0,left.jpg,,,left,,,A1T6TTD7XCUHOU
228,53,,1.0,33.0,BROWN_THRASHER_3.jpg,BLACK_BAZA_4.jpg,3.0,,,,A1T6TTD7XCUHOU
229,54,,1.0,34.0,BREWERS_BLACKBIRD_3.jpg,CAPE_LONGCLAW_2.jpg,3.0,,,,A1T6TTD7XCUHOU
230,55,,1.0,35.0,ASIAN_DOLLARD_BIRD_2.jpg,LOGGERHEAD_SHRIKE_4.jpg,2.0,,,,A1T6TTD7XCUHOU
231,56,,1.0,36.0,CASPIAN_TERN_1.jpg,EUROPEAN_GOLDFINCH_4.jpg,2.0,,,,A1T6TTD7XCUHOU
232,57,,1.0,37.0,GYRFALCON_1.jpg,CINNAMON_ATTILA_2.jpg,2.0,,,,A1T6TTD7XCUHOU
233,58,,1.0,38.0,EUROPEAN_TURTLE_DOVE_3.jpg,TEAL_DUCK_2.jpg,1.0,,,,A1T6TTD7XCUHOU
234,59,,1.0,39.0,RUBY_THROATED_HUMMINGBIRD_2.jpg,GOLDEN_CHLOROPHONIA_2.jpg,1.0,,,,A1T6TTD7XCUHOU
235,60,,1.0,40.0,SPLENDID_WREN_1.jpg,CUBAN_TODY_4.jpg,3.0,,,,A1T6TTD7XCUHOU
236,61,,1.0,41.0,ASIAN_CRESTED_IBIS_4.jpg,OYSTER_CATCHER_2.jpg,2.0,,,,A1T6TTD7XCUHOU
237,62,,1.0,42.0,FLAME_BOWERBIRD_3.jpg,QUETZAL_3.jpg,3.0,,,,A1T6TTD7XCUHOU
238,63,,1.0,43.0,GOLDEN_CHEEKED_WARBLER_2.jpg,WHITE_THROATED_BEE_EATER_1.jpg,3.0,,,,A1T6TTD7XCUHOU
239,64,right,1.0,44.0,right.jpg,,,right,2.395,,A1T6TTD7XCUHOU
240,65,,1.0,45.0,INCA_TERN_4.jpg,SMITHS_LONGSPUR_5.jpg,2.0,,,,A1T6TTD7XCUHOU
241,66,left,1.0,46.0,left.jpg,,,left,1.02,,A1T6TTD7XCUHOU
242,67,,1.0,47.0,HAWAIIAN_GOOSE_4.jpg,CUBAN_TODY_3.jpg,1.0,,,,A1T6TTD7XCUHOU
243,68,,1.0,48.0,MALACHITE_KINGFISHER_2.jpg,INCA_TERN_2.jpg,2.0,,,,A1T6TTD7XCUHOU
244,69,,1.0,49.0,IVORY_GULL_3.jpg,INDIGO_FLYCATCHER_2.jpg,1.0,,,,A1T6TTD7XCUHOU
245,70,,1.0,50.0,MAGPIE_GOOSE_5.jpg,DOUBLE_EYED_FIG_PARROT_5.jpg,1.0,,,,A1T6TTD7XCUHOU
246,71,,1.0,51.0,CHUKAR_PARTRIDGE_5.jpg,BLACK_THROATED_BUSHTIT_1.jpg,3.0,,,,A1T6TTD7XCUHOU
247,72,,1.0,52.0,OCELLATED_TURKEY_1.jpg,PURPLE_SWAMPHEN_4.jpg,3.0,,,,A1T6TTD7XCUHOU
248,73,,1.0,53.0,GREY_PLOVER_1.jpg,HYACINTH_MACAW_3.jpg,1.0,,,,A1T6TTD7XCUHOU
249,74,,1.0,54.0,CRESTED_NUTHATCH_2.jpg,CANARY_1.jpg,3.0,,,,A1T6TTD7XCUHOU
250,75,,1.0,55.0,ALPINE_CHOUGH_4.jpg,SNOWY_EGRET_2.jpg,1.0,,,,A1T6TTD7XCUHOU
251,76,,1.0,56.0,CERULEAN_WARBLER_1.jpg,AMERICAN_FLAMINGO_5.jpg,2.0,,,,A1T6TTD7XCUHOU
252,77,,1.0,57.0,PYGMY_KINGFISHER_5.jpg,DOUBLE_EYED_FIG_PARROT_4.jpg,3.0,,,,A1T6TTD7XCUHOU
253,78,,1.0,58.0,BALI_STARLING_1.jpg,CAPE_LONGCLAW_5.jpg,1.0,,,,A1T6TTD7XCUHOU
254,79,,1.0,59.0,GRAY_KINGBIRD_5.jpg,COCK_OF_THE__ROCK_4.jpg,2.0,,,,A1T6TTD7XCUHOU
255,80,,1.0,60.0,RUBY_THROATED_HUMMINGBIRD_3.jpg,NORTHERN_SHOVELER_1.jpg,3.0,,,,A1T6TTD7XCUHOU
256,81,,1.0,61.0,KILLDEAR_2.jpg,AZURE_TIT_5.jpg,3.0,,,,A1T6TTD7XCUHOU
257,82,,1.0,62.0,INLAND_DOTTEREL_4.jpg,CASSOWARY_2.jpg,1.0,,,,A1T6TTD7XCUHOU
258,83,,1.0,63.0,LARK_BUNTING_2.jpg,CACTUS_WREN_3.jpg,3.0,,,,A1T6TTD7XCUHOU
259,84,,1.0,64.0,BROWN_NOODY_3.jpg,SPANGLED_COTINGA_4.jpg,2.0,,,,A1T6TTD7XCUHOU
260,20,,1.0,0.0,RUBY_THROATED_HUMMINGBIRD_1.jpg,BANANAQUIT_2.jpg,1.0,,,,A1TPGXT718D68E
261,21,,1.0,1.0,GREY_PLOVER_1.jpg,GOULDIAN_FINCH_4.jpg,2.0,,,,A1TPGXT718D68E
262,22,,1.0,2.0,INLAND_DOTTEREL_4.jpg,CRESTED_KINGFISHER_1.jpg,3.0,,,,A1TPGXT718D68E
263,23,,1.0,3.0,RUBY_THROATED_HUMMINGBIRD_3.jpg,NORTHERN_SHOVELER_1.jpg,3.0,,,,A1TPGXT718D68E
264,24,,1.0,4.0,BALI_STARLING_1.jpg,IBERIAN_MAGPIE_1.jpg,3.0,,,,A1TPGXT718D68E
265,25,,1.0,5.0,OVENBIRD_5.jpg,MYNA_4.jpg,1.0,,,,A1TPGXT718D68E
266,26,,1.0,6.0,OCELLATED_TURKEY_1.jpg,CHIPPING_SPARROW_1.jpg,1.0,,,,A1TPGXT718D68E
267,27,right,1.0,7.0,right.jpg,,,right,0.6112,,A1TPGXT718D68E
268,28,,1.0,8.0,INCA_TERN_4.jpg,ELLIOTS__PHEASANT_4.jpg,1.0,,,,A1TPGXT718D68E
269,29,,1.0,9.0,SPLENDID_WREN_1.jpg,DOUBLE_BRESTED_CORMARANT_1.jpg,2.0,,,,A1TPGXT718D68E
270,30,,1.0,10.0,AFRICAN_PIED_HORNBILL_5.jpg,ALEXANDRINE_PARAKEET_1.jpg,2.0,,,,A1TPGXT718D68E
271,31,,1.0,11.0,CASPIAN_TERN_1.jpg,COMMON_LOON_2.jpg,3.0,,,,A1TPGXT718D68E
272,32,,1.0,12.0,RUBY_THROATED_HUMMINGBIRD_2.jpg,DUSKY_ROBIN_5.jpg,3.0,,,,A1TPGXT718D68E
273,33,,1.0,13.0,PINK_ROBIN_4.jpg,ALBATROSS_4.jpg,2.0,,,,A1TPGXT718D68E
274,34,,1.0,14.0,ECUADORIAN_HILLSTAR_5.jpg,CRIMSON_SUNBIRD_5.jpg,3.0,,,,A1TPGXT718D68E
275,35,,1.0,15.0,EUROPEAN_TURTLE_DOVE_3.jpg,PAINTED_BUNTING_3.jpg,2.0,,,,A1TPGXT718D68E
276,36,,1.0,16.0,CHUKAR_PARTRIDGE_5.jpg,OSTRICH_5.jpg,1.0,,,,A1TPGXT718D68E
277,37,,1.0,17.0,TASMANIAN_HEN_5.jpg,AFRICAN_EMERALD_CUCKOO_5.jpg,2.0,,,,A1TPGXT718D68E
278,38,,1.0,18.0,VERMILION_FLYCATHER_3.jpg,RED_BEARDED_BEE_EATER_1.jpg,3.0,,,,A1TPGXT718D68E
279,39,,1.0,19.0,HAWAIIAN_GOOSE_4.jpg,CUBAN_TODY_3.jpg,1.0,,,,A1TPGXT718D68E
280,40,,1.0,20.0,NORTHERN_JACANA_3.jpg,AMERICAN_GOLDFINCH_4.jpg,1.0,,,,A1TPGXT718D68E
281,41,,1.0,21.0,LESSER_ADJUTANT_5.jpg,RED_HEADED_WOODPECKER_1.jpg,3.0,,,,A1TPGXT718D68E
282,42,,1.0,22.0,SHOEBILL_3.jpg,GILDED_FLICKER_5.jpg,2.0,,,,A1TPGXT718D68E
283,43,,1.0,23.0,ARARIPE_MANAKIN_4.jpg,BORNEAN_LEAFBIRD_3.jpg,3.0,,,,A1TPGXT718D68E
284,44,right,1.0,24.0,right.jpg,,,right,1.5388,,A1TPGXT718D68E
285,45,,1.0,25.0,BROWN_THRASHER_3.jpg,BLACK_BAZA_4.jpg,3.0,,,,A1TPGXT718D68E
286,46,,1.0,26.0,KILLDEAR_2.jpg,CAATINGA_CACHOLOTE_4.jpg,2.0,,,,A1TPGXT718D68E
287,47,,1.0,27.0,PARUS_MAJOR_1.jpg,CALIFORNIA_GULL_2.jpg,2.0,,,,A1TPGXT718D68E
288,48,,1.0,28.0,PEACOCK_3.jpg,ANIANIAU_2.jpg,1.0,,,,A1TPGXT718D68E
289,49,,1.0,29.0,SCARLET_TANAGER_2.jpg,BEARDED_BARBET_2.jpg,1.0,,,,A1TPGXT718D68E
290,50,,1.0,30.0,LITTLE_AUK_5.jpg,ORANGE_BRESTED_BUNTING_3.jpg,2.0,,,,A1TPGXT718D68E
291,51,,1.0,31.0,STRIPPED_SWALLOW_1.jpg,GO_AWAY_BIRD_5.jpg,3.0,,,,A1TPGXT718D68E
292,52,,1.0,32.0,MAGPIE_GOOSE_5.jpg,DOUBLE_EYED_FIG_PARROT_5.jpg,1.0,,,,A1TPGXT718D68E
293,53,left,1.0,33.0,left.jpg,,,left,1.8404,,A1TPGXT718D68E
294,54,,1.0,34.0,GOLDEN_CHEEKED_WARBLER_2.jpg,SPOONBILL_1.jpg,1.0,,,,A1TPGXT718D68E
295,55,,1.0,35.0,RUFOUS_KINGFISHER_1.jpg,SNOWY_OWL_5.jpg,1.0,,,,A1TPGXT718D68E
296,56,,1.0,36.0,LESSER_ADJUTANT_4.jpg,FAIRY_TERN_3.jpg,3.0,,,,A1TPGXT718D68E
297,57,,1.0,37.0,RED_HEADED_WOODPECKER_5.jpg,COLLARED_ARACARI_1.jpg,3.0,,,,A1TPGXT718D68E
298,58,,1.0,38.0,EASTERN_TOWEE_2.jpg,SANDHILL_CRANE_2.jpg,1.0,,,,A1TPGXT718D68E
299,59,left,1.0,39.0,left.jpg,,,left,1.0845,,A1TPGXT718D68E
300,60,,1.0,40.0,BREWERS_BLACKBIRD_3.jpg,GOLDEN_CHEEKED_WARBLER_3.jpg,2.0,,,,A1TPGXT718D68E
301,61,,1.0,41.0,FLAME_BOWERBIRD_3.jpg,BROWN_THRASHER_4.jpg,2.0,,,,A1TPGXT718D68E
302,62,,1.0,42.0,CRESTED_CARACARA_4.jpg,TOUCHAN_4.jpg,3.0,,,,A1TPGXT718D68E
303,63,,1.0,43.0,CERULEAN_WARBLER_1.jpg,AMERICAN_FLAMINGO_2.jpg,1.0,,,,A1TPGXT718D68E
304,64,,1.0,44.0,PYGMY_KINGFISHER_5.jpg,MASKED_BOOBY_5.jpg,2.0,,,,A1TPGXT718D68E
305,65,,1.0,45.0,ALPINE_CHOUGH_4.jpg,EUROPEAN_GOLDFINCH_3.jpg,2.0,,,,A1TPGXT718D68E
306,66,,1.0,46.0,GRAY_KINGBIRD_5.jpg,BALD_EAGLE_2.jpg,1.0,,,,A1TPGXT718D68E
307,67,,1.0,47.0,LARK_BUNTING_2.jpg,CACTUS_WREN_3.jpg,3.0,,,,A1TPGXT718D68E
308,68,,1.0,48.0,WHITE_CHEEKED_TURACO_5.jpg,GREAT_POTOO_3.jpg,2.0,,,,A1TPGXT718D68E
309,69,right,1.0,49.0,right.jpg,,,right,1.2867,,A1TPGXT718D68E
310,70,,1.0,50.0,INDIGO_BUNTING_1.jpg,DARWINS_FLYCATCHER_2.jpg,3.0,,,,A1TPGXT718D68E
311,71,,1.0,51.0,MYNA_1.jpg,GREY_PLOVER_4.jpg,2.0,,,,A1TPGXT718D68E
312,72,,1.0,52.0,ASIAN_DOLLARD_BIRD_2.jpg,LOGGERHEAD_SHRIKE_4.jpg,2.0,,,,A1TPGXT718D68E
313,73,,1.0,53.0,GYRFALCON_1.jpg,OSTRICH_1.jpg,1.0,,,,A1TPGXT718D68E
314,74,,1.0,54.0,IVORY_GULL_3.jpg,SNOWY_EGRET_4.jpg,3.0,,,,A1TPGXT718D68E
315,75,,1.0,55.0,CRESTED_NUTHATCH_2.jpg,AFRICAN_FIREFINCH_1.jpg,2.0,,,,A1TPGXT718D68E
316,76,,1.0,56.0,DOUBLE_BRESTED_CORMARANT_5.jpg,EURASIAN_MAGPIE_4.jpg,2.0,,,,A1TPGXT718D68E
317,77,,1.0,57.0,BROWN_NOODY_3.jpg,SPANGLED_COTINGA_4.jpg,2.0,,,,A1TPGXT718D68E
318,78,,1.0,58.0,CASSOWARY_1.jpg,ROSY_FACED_LOVEBIRD_4.jpg,1.0,,,,A1TPGXT718D68E
319,79,,1.0,59.0,IVORY_GULL_1.jpg,FAIRY_TERN_4.jpg,3.0,,,,A1TPGXT718D68E
320,80,,1.0,60.0,KAGU_5.jpg,RED_BEARDED_BEE_EATER_3.jpg,1.0,,,,A1TPGXT718D68E
321,81,,1.0,61.0,GOLDEN_CHLOROPHONIA_5.jpg,ROADRUNNER_2.jpg,1.0,,,,A1TPGXT718D68E
322,82,,1.0,62.0,MALACHITE_KINGFISHER_2.jpg,AMERICAN_FLAMINGO_1.jpg,1.0,,,,A1TPGXT718D68E
323,83,,1.0,63.0,AMERICAN_PIPIT_5.jpg,HEPATIC_TANAGER_5.jpg,3.0,,,,A1TPGXT718D68E
324,84,,1.0,64.0,ASIAN_CRESTED_IBIS_4.jpg,IVORY_GULL_2.jpg,3.0,,,,A1TPGXT718D68E
325,20,,1.0,0.0,PYGMY_KINGFISHER_5.jpg,DOUBLE_EYED_FIG_PARROT_4.jpg,3.0,,,,A1Y07DW8W2UXSD
326,21,,1.0,1.0,HAWAIIAN_GOOSE_4.jpg,CUBAN_TODY_3.jpg,1.0,,,,A1Y07DW8W2UXSD
327,22,,1.0,2.0,ARARIPE_MANAKIN_4.jpg,BLACK_VULTURE_1.jpg,2.0,,,,A1Y07DW8W2UXSD
328,23,,1.0,3.0,CRESTED_NUTHATCH_2.jpg,SCARLET_IBIS_3.jpg,1.0,,,,A1Y07DW8W2UXSD
329,24,,1.0,4.0,TASMANIAN_HEN_5.jpg,AFRICAN_EMERALD_CUCKOO_5.jpg,2.0,,,,A1Y07DW8W2UXSD
330,25,,1.0,5.0,SPLENDID_WREN_1.jpg,CUBAN_TODY_4.jpg,3.0,,,,A1Y07DW8W2UXSD
331,26,,1.0,6.0,LESSER_ADJUTANT_4.jpg,ALTAMIRA_YELLOWTHROAT_5.jpg,1.0,,,,A1Y07DW8W2UXSD
332,27,,1.0,7.0,MYNA_1.jpg,GREY_PLOVER_4.jpg,2.0,,,,A1Y07DW8W2UXSD
333,28,,1.0,8.0,PARUS_MAJOR_1.jpg,PINK_ROBIN_3.jpg,3.0,,,,A1Y07DW8W2UXSD
334,29,,1.0,9.0,KILLDEAR_2.jpg,PEACOCK_5.jpg,1.0,,,,A1Y07DW8W2UXSD
335,30,,1.0,10.0,CASSOWARY_1.jpg,SCARLET_MACAW_1.jpg,2.0,,,,A1Y07DW8W2UXSD
336,31,right,1.0,11.0,right.jpg,,,right,1.18,,A1Y07DW8W2UXSD
337,32,,1.0,12.0,GREY_PLOVER_1.jpg,HYACINTH_MACAW_3.jpg,1.0,,,,A1Y07DW8W2UXSD
338,33,,1.0,13.0,GOLDEN_CHLOROPHONIA_5.jpg,VERMILION_FLYCATHER_5.jpg,3.0,,,,A1Y07DW8W2UXSD
339,34,,1.0,14.0,ASIAN_CRESTED_IBIS_4.jpg,OYSTER_CATCHER_2.jpg,2.0,,,,A1Y07DW8W2UXSD
340,35,,1.0,15.0,PINK_ROBIN_4.jpg,COMMON_IORA_4.jpg,3.0,,,,A1Y07DW8W2UXSD
341,36,right,1.0,16.0,right.jpg,,,right,0.965,,A1Y07DW8W2UXSD
342,37,,1.0,17.0,BROWN_NOODY_3.jpg,GUINEA_TURACO_5.jpg,3.0,,,,A1Y07DW8W2UXSD
343,38,,1.0,18.0,MAGPIE_GOOSE_5.jpg,HAMERKOP_1.jpg,2.0,,,,A1Y07DW8W2UXSD
344,39,,1.0,19.0,GOLDEN_CHEEKED_WARBLER_2.jpg,WHITE_THROATED_BEE_EATER_1.jpg,3.0,,,,A1Y07DW8W2UXSD
345,40,,1.0,20.0,FLAME_BOWERBIRD_3.jpg,BROWN_THRASHER_4.jpg,2.0,,,,A1Y07DW8W2UXSD
346,41,,1.0,21.0,IVORY_GULL_3.jpg,FLAME_TANAGER_3.jpg,2.0,,,,A1Y07DW8W2UXSD
347,42,,1.0,22.0,EUROPEAN_TURTLE_DOVE_3.jpg,PAINTED_BUNTING_3.jpg,2.0,,,,A1Y07DW8W2UXSD
348,43,,1.0,23.0,EASTERN_TOWEE_2.jpg,NORTHERN_BEARDLESS_TYRANNULET_5.jpg,3.0,,,,A1Y07DW8W2UXSD
349,44,,1.0,24.0,INDIGO_BUNTING_1.jpg,NORTHERN_GANNET_1.jpg,2.0,,,,A1Y07DW8W2UXSD
350,45,,1.0,25.0,BROWN_THRASHER_3.jpg,BLACK_BAZA_4.jpg,3.0,,,,A1Y07DW8W2UXSD
351,46,,1.0,26.0,RUBY_THROATED_HUMMINGBIRD_3.jpg,MALAGASY_WHITE_EYE_2.jpg,1.0,,,,A1Y07DW8W2UXSD
352,47,,1.0,27.0,OCELLATED_TURKEY_1.jpg,CHIPPING_SPARROW_1.jpg,1.0,,,,A1Y07DW8W2UXSD
353,48,,1.0,28.0,SCARLET_TANAGER_2.jpg,BORNEAN_LEAFBIRD_1.jpg,3.0,,,,A1Y07DW8W2UXSD
354,49,left,1.0,29.0,left.jpg,,,left,1.771,,A1Y07DW8W2UXSD
355,50,,1.0,30.0,OVENBIRD_5.jpg,FAIRY_PENGUIN_1.jpg,2.0,,,,A1Y07DW8W2UXSD
356,51,,1.0,31.0,ECUADORIAN_HILLSTAR_5.jpg,CRIMSON_SUNBIRD_5.jpg,3.0,,,,A1Y07DW8W2UXSD
357,52,,1.0,32.0,LITTLE_AUK_5.jpg,BEARDED_BELLBIRD_1.jpg,3.0,,,,A1Y07DW8W2UXSD
358,53,,1.0,33.0,RUBY_THROATED_HUMMINGBIRD_2.jpg,GOLDEN_CHLOROPHONIA_2.jpg,1.0,,,,A1Y07DW8W2UXSD
359,54,,1.0,34.0,ASIAN_DOLLARD_BIRD_2.jpg,ALBATROSS_2.jpg,1.0,,,,A1Y07DW8W2UXSD
360,55,,1.0,35.0,LARK_BUNTING_2.jpg,KING_VULTURE_3.jpg,2.0,,,,A1Y07DW8W2UXSD
361,56,,1.0,36.0,CRESTED_CARACARA_4.jpg,INDIAN_PITTA_2.jpg,2.0,,,,A1Y07DW8W2UXSD
362,57,,1.0,37.0,LESSER_ADJUTANT_5.jpg,RED_HEADED_WOODPECKER_1.jpg,3.0,,,,A1Y07DW8W2UXSD
363,58,,1.0,38.0,DOUBLE_BRESTED_CORMARANT_5.jpg,CHINESE_POND_HERON_2.jpg,3.0,,,,A1Y07DW8W2UXSD
364,59,,1.0,39.0,BALI_STARLING_1.jpg,CAPE_LONGCLAW_5.jpg,1.0,,,,A1Y07DW8W2UXSD
365,60,,1.0,40.0,CERULEAN_WARBLER_1.jpg,AMERICAN_FLAMINGO_5.jpg,2.0,,,,A1Y07DW8W2UXSD
366,61,,1.0,41.0,KAGU_5.jpg,DEMOISELLE_CRANE_1.jpg,3.0,,,,A1Y07DW8W2UXSD
367,62,left,1.0,42.0,left.jpg,,,left,1.017,,A1Y07DW8W2UXSD
368,63,,1.0,43.0,INCA_TERN_4.jpg,ELLIOTS__PHEASANT_4.jpg,1.0,,,,A1Y07DW8W2UXSD
369,64,,1.0,44.0,AFRICAN_PIED_HORNBILL_5.jpg,KIWI_4.jpg,1.0,,,,A1Y07DW8W2UXSD
370,65,,1.0,45.0,RUFOUS_KINGFISHER_1.jpg,MAGPIE_GOOSE_3.jpg,2.0,,,,A1Y07DW8W2UXSD
371,66,,1.0,46.0,GYRFALCON_1.jpg,FAIRY_TERN_1.jpg,3.0,,,,A1Y07DW8W2UXSD
372,67,,1.0,47.0,RUBY_THROATED_HUMMINGBIRD_1.jpg,BANANAQUIT_2.jpg,1.0,,,,A1Y07DW8W2UXSD
373,68,,1.0,48.0,CASPIAN_TERN_1.jpg,GREAT_GRAY_OWL_4.jpg,1.0,,,,A1Y07DW8W2UXSD
374,69,,1.0,49.0,NORTHERN_JACANA_3.jpg,CRAB_PLOVER_3.jpg,2.0,,,,A1Y07DW8W2UXSD
375,70,,1.0,50.0,SHOEBILL_3.jpg,EASTERN_MEADOWLARK_1.jpg,1.0,,,,A1Y07DW8W2UXSD
376,71,,1.0,51.0,AMERICAN_PIPIT_5.jpg,GREEN_MAGPIE_1.jpg,2.0,,,,A1Y07DW8W2UXSD
377,72,,1.0,52.0,GRAY_KINGBIRD_5.jpg,AFRICAN_FIREFINCH_3.jpg,3.0,,,,A1Y07DW8W2UXSD
378,73,,1.0,53.0,INLAND_DOTTEREL_4.jpg,CASSOWARY_2.jpg,1.0,,,,A1Y07DW8W2UXSD
379,74,right,1.0,54.0,right.jpg,,,right,1.32,,A1Y07DW8W2UXSD
380,75,,1.0,55.0,ALPINE_CHOUGH_4.jpg,SNOWY_EGRET_2.jpg,1.0,,,,A1Y07DW8W2UXSD
381,76,,1.0,56.0,MALACHITE_KINGFISHER_2.jpg,AMERICAN_FLAMINGO_1.jpg,1.0,,,,A1Y07DW8W2UXSD
382,77,,1.0,57.0,CHUKAR_PARTRIDGE_5.jpg,OSTRICH_5.jpg,1.0,,,,A1Y07DW8W2UXSD
383,78,,1.0,58.0,WHITE_CHEEKED_TURACO_5.jpg,PYGMY_KINGFISHER_2.jpg,3.0,,,,A1Y07DW8W2UXSD
384,79,,1.0,59.0,VERMILION_FLYCATHER_3.jpg,RED_BEARDED_BEE_EATER_1.jpg,3.0,,,,A1Y07DW8W2UXSD
385,80,,1.0,60.0,PEACOCK_3.jpg,CHATTERING_LORY_2.jpg,3.0,,,,A1Y07DW8W2UXSD
386,81,,1.0,61.0,IVORY_GULL_1.jpg,WILSONS_BIRD_OF_PARADISE_4.jpg,1.0,,,,A1Y07DW8W2UXSD
387,82,,1.0,62.0,BREWERS_BLACKBIRD_3.jpg,GOLDEN_CHEEKED_WARBLER_3.jpg,2.0,,,,A1Y07DW8W2UXSD
388,83,,1.0,63.0,RED_HEADED_WOODPECKER_5.jpg,CRIMSON_CHAT_3.jpg,2.0,,,,A1Y07DW8W2UXSD
389,84,,1.0,64.0,STRIPPED_SWALLOW_1.jpg,MAGPIE_GOOSE_4.jpg,2.0,,,,A1Y07DW8W2UXSD
390,20,,1.0,0.0,CASSOWARY_1.jpg,AFRICAN_OYSTER_CATCHER_2.jpg,3.0,,,,A1YC558J4E5KZ
391,21,,1.0,1.0,PEACOCK_3.jpg,STRAWBERRY_FINCH_4.jpg,2.0,,,,A1YC558J4E5KZ
392,22,,1.0,2.0,BROWN_THRASHER_3.jpg,BLACK_BAZA_4.jpg,3.0,,,,A1YC558J4E5KZ
393,23,,1.0,3.0,EUROPEAN_TURTLE_DOVE_3.jpg,PAINTED_BUNTING_3.jpg,2.0,,,,A1YC558J4E5KZ
394,24,,1.0,4.0,ECUADORIAN_HILLSTAR_5.jpg,SCARLET_IBIS_2.jpg,1.0,,,,A1YC558J4E5KZ
395,25,,1.0,5.0,RUBY_THROATED_HUMMINGBIRD_1.jpg,VULTURINE_GUINEAFOWL_4.jpg,2.0,,,,A1YC558J4E5KZ
396,26,,1.0,6.0,PYGMY_KINGFISHER_5.jpg,GRANDALA_2.jpg,1.0,,,,A1YC558J4E5KZ
397,27,,1.0,7.0,SPLENDID_WREN_1.jpg,CUBAN_TODY_4.jpg,3.0,,,,A1YC558J4E5KZ
398,28,,1.0,8.0,GYRFALCON_1.jpg,OSTRICH_1.jpg,1.0,,,,A1YC558J4E5KZ
399,29,left,1.0,9.0,left.jpg,,,left,0.518,,A1YC558J4E5KZ
400,30,,1.0,10.0,GOLDEN_CHEEKED_WARBLER_2.jpg,HOUSE_FINCH_2.jpg,2.0,,,,A1YC558J4E5KZ
401,31,,1.0,11.0,EASTERN_TOWEE_2.jpg,NORTHERN_BEARDLESS_TYRANNULET_5.jpg,3.0,,,,A1YC558J4E5KZ
402,32,,1.0,12.0,MYNA_1.jpg,GREY_PLOVER_4.jpg,2.0,,,,A1YC558J4E5KZ
403,33,,1.0,13.0,CASPIAN_TERN_1.jpg,EUROPEAN_GOLDFINCH_4.jpg,2.0,,,,A1YC558J4E5KZ
404,34,,1.0,14.0,RUFOUS_KINGFISHER_1.jpg,HORNED_SUNGEM_4.jpg,3.0,,,,A1YC558J4E5KZ
405,35,,1.0,15.0,WHITE_CHEEKED_TURACO_5.jpg,PYGMY_KINGFISHER_2.jpg,3.0,,,,A1YC558J4E5KZ
406,36,left,1.0,16.0,left.jpg,,,left,0.6276,,A1YC558J4E5KZ
407,37,,1.0,17.0,DOUBLE_BRESTED_CORMARANT_5.jpg,CHINESE_POND_HERON_2.jpg,3.0,,,,A1YC558J4E5KZ
408,38,,1.0,18.0,SHOEBILL_3.jpg,EASTERN_MEADOWLARK_1.jpg,1.0,,,,A1YC558J4E5KZ
409,39,,1.0,19.0,FLAME_BOWERBIRD_3.jpg,INDIAN_BUSTARD_2.jpg,1.0,,,,A1YC558J4E5KZ
410,40,,1.0,20.0,SCARLET_TANAGER_2.jpg,NORTHERN_GANNET_2.jpg,2.0,,,,A1YC558J4E5KZ
411,41,,1.0,21.0,GRAY_KINGBIRD_5.jpg,BALD_EAGLE_2.jpg,1.0,,,,A1YC558J4E5KZ
412,42,,1.0,22.0,OVENBIRD_5.jpg,FAIRY_PENGUIN_1.jpg,2.0,,,,A1YC558J4E5KZ
413,43,,1.0,23.0,AFRICAN_PIED_HORNBILL_5.jpg,KIWI_4.jpg,1.0,,,,A1YC558J4E5KZ
414,44,,1.0,24.0,KAGU_5.jpg,RED_BEARDED_BEE_EATER_3.jpg,1.0,,,,A1YC558J4E5KZ
415,45,,1.0,25.0,IVORY_GULL_1.jpg,WILSONS_BIRD_OF_PARADISE_4.jpg,1.0,,,,A1YC558J4E5KZ
416,46,,1.0,26.0,CRESTED_CARACARA_4.jpg,FAIRY_PENGUIN_5.jpg,1.0,,,,A1YC558J4E5KZ
417,47,,1.0,27.0,PARUS_MAJOR_1.jpg,PINK_ROBIN_3.jpg,3.0,,,,A1YC558J4E5KZ
418,48,,1.0,28.0,LESSER_ADJUTANT_4.jpg,ALTAMIRA_YELLOWTHROAT_5.jpg,1.0,,,,A1YC558J4E5KZ
419,49,,1.0,29.0,MAGPIE_GOOSE_5.jpg,DOUBLE_EYED_FIG_PARROT_5.jpg,1.0,,,,A1YC558J4E5KZ
420,50,left,1.0,30.0,left.jpg,,,left,0.7116,,A1YC558J4E5KZ
421,51,,1.0,31.0,INDIGO_BUNTING_1.jpg,NORTHERN_GANNET_1.jpg,2.0,,,,A1YC558J4E5KZ
422,52,,1.0,32.0,CHUKAR_PARTRIDGE_5.jpg,BLACK_THROATED_BUSHTIT_1.jpg,3.0,,,,A1YC558J4E5KZ
423,53,,1.0,33.0,INCA_TERN_4.jpg,BORNEAN_BRISTLEHEAD_5.jpg,3.0,,,,A1YC558J4E5KZ
424,54,,1.0,34.0,CRESTED_NUTHATCH_2.jpg,AFRICAN_FIREFINCH_1.jpg,2.0,,,,A1YC558J4E5KZ
425,55,,1.0,35.0,OCELLATED_TURKEY_1.jpg,PURPLE_SWAMPHEN_4.jpg,3.0,,,,A1YC558J4E5KZ
426,56,,1.0,36.0,PINK_ROBIN_4.jpg,ALBATROSS_4.jpg,2.0,,,,A1YC558J4E5KZ
427,57,,1.0,37.0,RUBY_THROATED_HUMMINGBIRD_2.jpg,DUSKY_ROBIN_5.jpg,3.0,,,,A1YC558J4E5KZ
428,58,,1.0,38.0,ASIAN_CRESTED_IBIS_4.jpg,OYSTER_CATCHER_2.jpg,2.0,,,,A1YC558J4E5KZ
429,59,,1.0,39.0,LARK_BUNTING_2.jpg,PEACOCK_1.jpg,1.0,,,,A1YC558J4E5KZ
430,60,,1.0,40.0,INLAND_DOTTEREL_4.jpg,CASSOWARY_2.jpg,1.0,,,,A1YC558J4E5KZ
431,61,left,1.0,41.0,left.jpg,,,left,0.5298,,A1YC558J4E5KZ
432,62,,1.0,42.0,NORTHERN_JACANA_3.jpg,SCARLET_IBIS_4.jpg,3.0,,,,A1YC558J4E5KZ
433,63,,1.0,43.0,GREY_PLOVER_1.jpg,ECUADORIAN_HILLSTAR_3.jpg,3.0,,,,A1YC558J4E5KZ
434,64,,1.0,44.0,BALI_STARLING_1.jpg,IBERIAN_MAGPIE_1.jpg,3.0,,,,A1YC558J4E5KZ
435,65,,1.0,45.0,VERMILION_FLYCATHER_3.jpg,CALIFORNIA_GULL_1.jpg,2.0,,,,A1YC558J4E5KZ
436,66,,1.0,46.0,BREWERS_BLACKBIRD_3.jpg,GUINEA_TURACO_3.jpg,1.0,,,,A1YC558J4E5KZ
437,67,,1.0,47.0,TASMANIAN_HEN_5.jpg,GREEN_BROADBILL_1.jpg,1.0,,,,A1YC558J4E5KZ
438,68,,1.0,48.0,LESSER_ADJUTANT_5.jpg,GAMBELS_QUAIL_1.jpg,2.0,,,,A1YC558J4E5KZ
439,69,,1.0,49.0,RED_HEADED_WOODPECKER_5.jpg,ASHY_STORM_PETREL_2.jpg,1.0,,,,A1YC558J4E5KZ
440,70,right,1.0,50.0,right.jpg,,,right,0.5193,,A1YC558J4E5KZ
441,71,,1.0,51.0,ARARIPE_MANAKIN_4.jpg,BORNEAN_LEAFBIRD_3.jpg,3.0,,,,A1YC558J4E5KZ
442,72,,1.0,52.0,MALACHITE_KINGFISHER_2.jpg,GREEN_BROADBILL_5.jpg,3.0,,,,A1YC558J4E5KZ
443,73,,1.0,53.0,CERULEAN_WARBLER_1.jpg,AMERICAN_FLAMINGO_2.jpg,1.0,,,,A1YC558J4E5KZ
444,74,,1.0,54.0,ALPINE_CHOUGH_4.jpg,EUROPEAN_GOLDFINCH_3.jpg,2.0,,,,A1YC558J4E5KZ
445,75,,1.0,55.0,KILLDEAR_2.jpg,CAATINGA_CACHOLOTE_4.jpg,2.0,,,,A1YC558J4E5KZ
446,76,,1.0,56.0,BROWN_NOODY_3.jpg,GUINEA_TURACO_5.jpg,3.0,,,,A1YC558J4E5KZ
447,77,,1.0,57.0,IVORY_GULL_3.jpg,FLAME_TANAGER_3.jpg,2.0,,,,A1YC558J4E5KZ
448,78,,1.0,58.0,RUBY_THROATED_HUMMINGBIRD_3.jpg,MYNA_5.jpg,2.0,,,,A1YC558J4E5KZ
449,79,,1.0,59.0,HAWAIIAN_GOOSE_4.jpg,WATTLED_LAPWING_3.jpg,3.0,,,,A1YC558J4E5KZ
450,80,,1.0,60.0,AMERICAN_PIPIT_5.jpg,EMU_2.jpg,1.0,,,,A1YC558J4E5KZ
451,81,,1.0,61.0,GOLDEN_CHLOROPHONIA_5.jpg,VERMILION_FLYCATHER_5.jpg,3.0,,,,A1YC558J4E5KZ
452,82,,1.0,62.0,STRIPPED_SWALLOW_1.jpg,MAGPIE_GOOSE_4.jpg,2.0,,,,A1YC558J4E5KZ
453,83,,1.0,63.0,LITTLE_AUK_5.jpg,SANDHILL_CRANE_3.jpg,1.0,,,,A1YC558J4E5KZ
454,84,,1.0,64.0,ASIAN_DOLLARD_BIRD_2.jpg,LOGGERHEAD_SHRIKE_4.jpg,2.0,,,,A1YC558J4E5KZ
455,20,,1.0,0.0,HAWAIIAN_GOOSE_4.jpg,WATTLED_LAPWING_3.jpg,3.0,,,,A249ZABI42JTSS
456,21,,1.0,1.0,RUBY_THROATED_HUMMINGBIRD_1.jpg,VULTURINE_GUINEAFOWL_4.jpg,2.0,,,,A249ZABI42JTSS
457,22,,1.0,2.0,LESSER_ADJUTANT_4.jpg,RAINBOW_LORIKEET_5.jpg,2.0,,,,A249ZABI42JTSS
458,23,,1.0,3.0,STRIPPED_SWALLOW_1.jpg,DOUBLE_BRESTED_CORMARANT_4.jpg,1.0,,,,A249ZABI42JTSS
459,24,,1.0,4.0,RUFOUS_KINGFISHER_1.jpg,HORNED_SUNGEM_4.jpg,3.0,,,,A249ZABI42JTSS
460,25,,1.0,5.0,NORTHERN_JACANA_3.jpg,CRAB_PLOVER_3.jpg,2.0,,,,A249ZABI42JTSS
461,26,,1.0,6.0,PEACOCK_3.jpg,CHATTERING_LORY_2.jpg,3.0,,,,A249ZABI42JTSS
462,27,,1.0,7.0,AFRICAN_PIED_HORNBILL_5.jpg,CAPUCHINBIRD_2.jpg,3.0,,,,A249ZABI42JTSS
463,28,,1.0,8.0,CASSOWARY_1.jpg,AFRICAN_OYSTER_CATCHER_2.jpg,3.0,,,,A249ZABI42JTSS
464,29,,1.0,9.0,DOUBLE_BRESTED_CORMARANT_5.jpg,EURASIAN_MAGPIE_4.jpg,2.0,,,,A249ZABI42JTSS
465,30,,0.0,10.0,left.jpg,,,left,,,A249ZABI42JTSS
466,31,,1.0,11.0,RUBY_THROATED_HUMMINGBIRD_2.jpg,DUSKY_ROBIN_5.jpg,3.0,,,,A249ZABI42JTSS
467,32,,1.0,12.0,OVENBIRD_5.jpg,MYNA_4.jpg,1.0,,,,A249ZABI42JTSS
468,33,,1.0,13.0,ASIAN_DOLLARD_BIRD_2.jpg,VIOLET_GREEN_SWALLOW_4.jpg,3.0,,,,A249ZABI42JTSS
469,34,,1.0,14.0,ECUADORIAN_HILLSTAR_5.jpg,SCARLET_IBIS_2.jpg,1.0,,,,A249ZABI42JTSS
470,35,,1.0,15.0,CASPIAN_TERN_1.jpg,EUROPEAN_GOLDFINCH_4.jpg,2.0,,,,A249ZABI42JTSS
471,36,,1.0,16.0,LARK_BUNTING_2.jpg,CACTUS_WREN_3.jpg,3.0,,,,A249ZABI42JTSS
472,37,,1.0,17.0,MYNA_1.jpg,OSTRICH_3.jpg,1.0,,,,A249ZABI42JTSS
473,38,,1.0,18.0,KAGU_5.jpg,ASHY_STORM_PETREL_1.jpg,2.0,,,,A249ZABI42JTSS
474,39,,1.0,19.0,BALI_STARLING_1.jpg,IBERIAN_MAGPIE_1.jpg,3.0,,,,A249ZABI42JTSS
475,40,,1.0,20.0,MAGPIE_GOOSE_5.jpg,OYSTER_CATCHER_3.jpg,3.0,,,,A249ZABI42JTSS
476,41,,1.0,21.0,GREY_PLOVER_1.jpg,GOULDIAN_FINCH_4.jpg,2.0,,,,A249ZABI42JTSS
477,42,,1.0,22.0,CRESTED_NUTHATCH_2.jpg,CANARY_1.jpg,3.0,,,,A249ZABI42JTSS
478,43,right,1.0,23.0,right.jpg,,,right,1.2045,,A249ZABI42JTSS
479,44,,1.0,24.0,BROWN_THRASHER_3.jpg,DOUBLE_EYED_FIG_PARROT_3.jpg,1.0,,,,A249ZABI42JTSS
480,45,,1.0,25.0,ARARIPE_MANAKIN_4.jpg,BLACK_VULTURE_1.jpg,2.0,,,,A249ZABI42JTSS
481,46,,1.0,26.0,SHOEBILL_3.jpg,GILDED_FLICKER_5.jpg,2.0,,,,A249ZABI42JTSS
482,47,left,1.0,27.0,left.jpg,,,left,1.1234,,A249ZABI42JTSS
483,48,,1.0,28.0,VERMILION_FLYCATHER_3.jpg,CALIFORNIA_GULL_1.jpg,2.0,,,,A249ZABI42JTSS
484,49,,1.0,29.0,IVORY_GULL_1.jpg,WILSONS_BIRD_OF_PARADISE_4.jpg,1.0,,,,A249ZABI42JTSS
485,50,,1.0,30.0,MALACHITE_KINGFISHER_2.jpg,AMERICAN_FLAMINGO_1.jpg,1.0,,,,A249ZABI42JTSS
486,51,,1.0,31.0,RUBY_THROATED_HUMMINGBIRD_3.jpg,NORTHERN_SHOVELER_1.jpg,3.0,,,,A249ZABI42JTSS
487,52,,1.0,32.0,SCARLET_TANAGER_2.jpg,NORTHERN_GANNET_2.jpg,2.0,,,,A249ZABI42JTSS
488,53,,1.0,33.0,AMERICAN_PIPIT_5.jpg,EMU_2.jpg,1.0,,,,A249ZABI42JTSS
489,54,,1.0,34.0,FLAME_BOWERBIRD_3.jpg,BROWN_THRASHER_4.jpg,2.0,,,,A249ZABI42JTSS
490,55,,1.0,35.0,LITTLE_AUK_5.jpg,SANDHILL_CRANE_3.jpg,1.0,,,,A249ZABI42JTSS
491,56,,1.0,36.0,CERULEAN_WARBLER_1.jpg,AMERICAN_FLAMINGO_2.jpg,1.0,,,,A249ZABI42JTSS
492,57,,1.0,37.0,OCELLATED_TURKEY_1.jpg,AMERICAN_PIPIT_1.jpg,2.0,,,,A249ZABI42JTSS
493,58,,1.0,38.0,PINK_ROBIN_4.jpg,SPOONBILL_3.jpg,1.0,,,,A249ZABI42JTSS
494,59,,1.0,39.0,LESSER_ADJUTANT_5.jpg,GREEN_BROADBILL_4.jpg,1.0,,,,A249ZABI42JTSS
495,60,left,1.0,40.0,left.jpg,,,left,1.3021,,A249ZABI42JTSS
496,61,,1.0,41.0,GOLDEN_CHLOROPHONIA_5.jpg,VERMILION_FLYCATHER_5.jpg,3.0,,,,A249ZABI42JTSS
497,62,,1.0,42.0,EUROPEAN_TURTLE_DOVE_3.jpg,PAINTED_BUNTING_3.jpg,2.0,,,,A249ZABI42JTSS
498,63,,1.0,43.0,CHUKAR_PARTRIDGE_5.jpg,OSTRICH_5.jpg,1.0,,,,A249ZABI42JTSS
499,64,,1.0,44.0,SPLENDID_WREN_1.jpg,DOUBLE_BRESTED_CORMARANT_1.jpg,2.0,,,,A249ZABI42JTSS
500,65,,1.0,45.0,BREWERS_BLACKBIRD_3.jpg,CAPE_LONGCLAW_2.jpg,3.0,,,,A249ZABI42JTSS
501,66,right,0.0,46.0,left.jpg,,,left,0.0092,,A249ZABI42JTSS
502,67,,1.0,47.0,ASIAN_CRESTED_IBIS_4.jpg,CANARY_2.jpg,1.0,,,,A249ZABI42JTSS
503,68,,1.0,48.0,CRESTED_CARACARA_4.jpg,TOUCHAN_4.jpg,3.0,,,,A249ZABI42JTSS
504,69,,1.0,49.0,RED_HEADED_WOODPECKER_5.jpg,CRIMSON_CHAT_3.jpg,2.0,,,,A249ZABI42JTSS
505,70,,1.0,50.0,TASMANIAN_HEN_5.jpg,GREEN_BROADBILL_1.jpg,1.0,,,,A249ZABI42JTSS
506,71,,1.0,51.0,INLAND_DOTTEREL_4.jpg,NICOBAR_PIGEON_4.jpg,2.0,,,,A249ZABI42JTSS
507,72,,1.0,52.0,INDIGO_BUNTING_1.jpg,DARWINS_FLYCATCHER_2.jpg,3.0,,,,A249ZABI42JTSS
508,73,,1.0,53.0,GRAY_KINGBIRD_5.jpg,BALD_EAGLE_2.jpg,1.0,,,,A249ZABI42JTSS
509,74,,1.0,54.0,ALPINE_CHOUGH_4.jpg,BOBOLINK_3.jpg,3.0,,,,A249ZABI42JTSS
510,75,,1.0,55.0,WHITE_CHEEKED_TURACO_5.jpg,PYGMY_KINGFISHER_2.jpg,3.0,,,,A249ZABI42JTSS
511,76,,1.0,56.0,IVORY_GULL_3.jpg,INDIGO_FLYCATCHER_2.jpg,1.0,,,,A249ZABI42JTSS
512,77,,1.0,57.0,PYGMY_KINGFISHER_5.jpg,MASKED_BOOBY_5.jpg,2.0,,,,A249ZABI42JTSS
513,78,,1.0,58.0,BROWN_NOODY_3.jpg,PEACOCK_2.jpg,1.0,,,,A249ZABI42JTSS
514,79,,1.0,59.0,KILLDEAR_2.jpg,PEACOCK_5.jpg,1.0,,,,A249ZABI42JTSS
515,80,,1.0,60.0,PARUS_MAJOR_1.jpg,CALIFORNIA_GULL_2.jpg,2.0,,,,A249ZABI42JTSS
516,81,,1.0,61.0,INCA_TERN_4.jpg,BORNEAN_BRISTLEHEAD_5.jpg,3.0,,,,A249ZABI42JTSS
517,82,,1.0,62.0,GYRFALCON_1.jpg,FAIRY_TERN_1.jpg,3.0,,,,A249ZABI42JTSS
518,83,,1.0,63.0,GOLDEN_CHEEKED_WARBLER_2.jpg,HOUSE_FINCH_2.jpg,2.0,,,,A249ZABI42JTSS
519,84,,1.0,64.0,EASTERN_TOWEE_2.jpg,SANDHILL_CRANE_2.jpg,1.0,,,,A249ZABI42JTSS
520,20,,1.0,0.0,ECUADORIAN_HILLSTAR_5.jpg,CRIMSON_SUNBIRD_5.jpg,3.0,,,,A28P7V6WDT9UN1
521,21,,1.0,1.0,ARARIPE_MANAKIN_4.jpg,KIWI_3.jpg,1.0,,,,A28P7V6WDT9UN1
522,22,,1.0,2.0,CRESTED_NUTHATCH_2.jpg,SCARLET_IBIS_3.jpg,1.0,,,,A28P7V6WDT9UN1
523,23,,1.0,3.0,OCELLATED_TURKEY_1.jpg,AMERICAN_PIPIT_1.jpg,2.0,,,,A28P7V6WDT9UN1
524,24,,1.0,4.0,GYRFALCON_1.jpg,FAIRY_TERN_1.jpg,3.0,,,,A28P7V6WDT9UN1
525,25,,1.0,5.0,CRESTED_CARACARA_4.jpg,TOUCHAN_4.jpg,3.0,,,,A28P7V6WDT9UN1
526,26,left,1.0,6.0,left.jpg,,,left,0.941,,A28P7V6WDT9UN1
527,27,,1.0,7.0,INCA_TERN_4.jpg,SMITHS_LONGSPUR_5.jpg,2.0,,,,A28P7V6WDT9UN1
528,28,,1.0,8.0,BROWN_NOODY_3.jpg,GUINEA_TURACO_5.jpg,3.0,,,,A28P7V6WDT9UN1
529,29,,1.0,9.0,DOUBLE_BRESTED_CORMARANT_5.jpg,GILDED_FLICKER_2.jpg,1.0,,,,A28P7V6WDT9UN1
530,30,,1.0,10.0,PINK_ROBIN_4.jpg,ALBATROSS_4.jpg,2.0,,,,A28P7V6WDT9UN1
531,31,,1.0,11.0,RED_HEADED_WOODPECKER_5.jpg,COLLARED_ARACARI_1.jpg,3.0,,,,A28P7V6WDT9UN1
532,32,,1.0,12.0,OVENBIRD_5.jpg,SHORT_BILLED_DOWITCHER_5.jpg,3.0,,,,A28P7V6WDT9UN1
533,33,,1.0,13.0,AFRICAN_PIED_HORNBILL_5.jpg,KIWI_4.jpg,1.0,,,,A28P7V6WDT9UN1
534,34,,1.0,14.0,INDIGO_BUNTING_1.jpg,DARWINS_FLYCATCHER_2.jpg,3.0,,,,A28P7V6WDT9UN1
535,35,,1.0,15.0,KAGU_5.jpg,DEMOISELLE_CRANE_1.jpg,3.0,,,,A28P7V6WDT9UN1
536,36,,1.0,16.0,HAWAIIAN_GOOSE_4.jpg,CUBAN_TODY_3.jpg,1.0,,,,A28P7V6WDT9UN1
537,37,,1.0,17.0,AMERICAN_PIPIT_5.jpg,EMU_2.jpg,1.0,,,,A28P7V6WDT9UN1
538,38,,1.0,18.0,SHOEBILL_3.jpg,BALD_EAGLE_5.jpg,3.0,,,,A28P7V6WDT9UN1
539,39,,1.0,19.0,LESSER_ADJUTANT_4.jpg,ALTAMIRA_YELLOWTHROAT_5.jpg,1.0,,,,A28P7V6WDT9UN1
540,40,left,1.0,20.0,left.jpg,,,left,1.08,,A28P7V6WDT9UN1
541,41,,1.0,21.0,GOLDEN_CHEEKED_WARBLER_2.jpg,WHITE_THROATED_BEE_EATER_1.jpg,3.0,,,,A28P7V6WDT9UN1
542,42,,1.0,22.0,LARK_BUNTING_2.jpg,KING_VULTURE_3.jpg,2.0,,,,A28P7V6WDT9UN1
543,43,,1.0,23.0,CHUKAR_PARTRIDGE_5.jpg,RAZORBILL_1.jpg,2.0,,,,A28P7V6WDT9UN1
544,44,,1.0,24.0,LESSER_ADJUTANT_5.jpg,RED_HEADED_WOODPECKER_1.jpg,3.0,,,,A28P7V6WDT9UN1
545,45,,1.0,25.0,LITTLE_AUK_5.jpg,BEARDED_BELLBIRD_1.jpg,3.0,,,,A28P7V6WDT9UN1
546,46,,1.0,26.0,BREWERS_BLACKBIRD_3.jpg,CAPE_LONGCLAW_2.jpg,3.0,,,,A28P7V6WDT9UN1
547,47,right,1.0,27.0,right.jpg,,,right,0.94,,A28P7V6WDT9UN1
548,48,,1.0,28.0,RUFOUS_KINGFISHER_1.jpg,SNOWY_OWL_5.jpg,1.0,,,,A28P7V6WDT9UN1
549,49,,1.0,29.0,RUBY_THROATED_HUMMINGBIRD_1.jpg,BANANAQUIT_2.jpg,1.0,,,,A28P7V6WDT9UN1
550,50,,1.0,30.0,STRIPPED_SWALLOW_1.jpg,MAGPIE_GOOSE_4.jpg,2.0,,,,A28P7V6WDT9UN1
551,51,,1.0,31.0,ASIAN_DOLLARD_BIRD_2.jpg,VIOLET_GREEN_SWALLOW_4.jpg,3.0,,,,A28P7V6WDT9UN1
552,52,,1.0,32.0,FLAME_BOWERBIRD_3.jpg,INDIAN_BUSTARD_2.jpg,1.0,,,,A28P7V6WDT9UN1
553,53,,1.0,33.0,SPLENDID_WREN_1.jpg,POMARINE_JAEGER_5.jpg,1.0,,,,A28P7V6WDT9UN1
554,54,,1.0,34.0,RUBY_THROATED_HUMMINGBIRD_2.jpg,GOLDEN_CHLOROPHONIA_2.jpg,1.0,,,,A28P7V6WDT9UN1
555,55,,1.0,35.0,CASPIAN_TERN_1.jpg,GREAT_GRAY_OWL_4.jpg,1.0,,,,A28P7V6WDT9UN1
556,56,,1.0,36.0,GREY_PLOVER_1.jpg,ECUADORIAN_HILLSTAR_3.jpg,3.0,,,,A28P7V6WDT9UN1
557,57,,1.0,37.0,BALI_STARLING_1.jpg,PURPLE_FINCH_2.jpg,2.0,,,,A28P7V6WDT9UN1
558,58,,1.0,38.0,WHITE_CHEEKED_TURACO_5.jpg,GREAT_POTOO_3.jpg,2.0,,,,A28P7V6WDT9UN1
559,59,left,1.0,39.0,left.jpg,,,left,0.942,,A28P7V6WDT9UN1
560,60,,1.0,40.0,INLAND_DOTTEREL_4.jpg,NICOBAR_PIGEON_4.jpg,2.0,,,,A28P7V6WDT9UN1
561,61,,1.0,41.0,ALPINE_CHOUGH_4.jpg,EUROPEAN_GOLDFINCH_3.jpg,2.0,,,,A28P7V6WDT9UN1
562,62,,1.0,42.0,EUROPEAN_TURTLE_DOVE_3.jpg,PAINTED_BUNTING_3.jpg,2.0,,,,A28P7V6WDT9UN1
563,63,,1.0,43.0,PARUS_MAJOR_1.jpg,CALIFORNIA_GULL_2.jpg,2.0,,,,A28P7V6WDT9UN1
564,64,,1.0,44.0,IVORY_GULL_3.jpg,INDIGO_FLYCATCHER_2.jpg,1.0,,,,A28P7V6WDT9UN1
565,65,,1.0,45.0,ASIAN_CRESTED_IBIS_4.jpg,IVORY_GULL_2.jpg,3.0,,,,A28P7V6WDT9UN1
566,66,,1.0,46.0,CERULEAN_WARBLER_1.jpg,AMERICAN_FLAMINGO_5.jpg,2.0,,,,A28P7V6WDT9UN1
567,67,,1.0,47.0,NORTHERN_JACANA_3.jpg,SCARLET_IBIS_4.jpg,3.0,,,,A28P7V6WDT9UN1
568,68,,1.0,48.0,VERMILION_FLYCATHER_3.jpg,CALIFORNIA_GULL_1.jpg,2.0,,,,A28P7V6WDT9UN1
569,69,,1.0,49.0,CASSOWARY_1.jpg,SCARLET_MACAW_1.jpg,2.0,,,,A28P7V6WDT9UN1
570,70,,1.0,50.0,MALACHITE_KINGFISHER_2.jpg,INCA_TERN_2.jpg,2.0,,,,A28P7V6WDT9UN1
571,71,,1.0,51.0,RUBY_THROATED_HUMMINGBIRD_3.jpg,MALAGASY_WHITE_EYE_2.jpg,1.0,,,,A28P7V6WDT9UN1
572,72,right,1.0,52.0,right.jpg,,,right,1.041,,A28P7V6WDT9UN1
573,73,,1.0,53.0,TASMANIAN_HEN_5.jpg,GREEN_BROADBILL_1.jpg,1.0,,,,A28P7V6WDT9UN1
574,74,,1.0,54.0,GRAY_KINGBIRD_5.jpg,BALD_EAGLE_2.jpg,1.0,,,,A28P7V6WDT9UN1
575,75,,1.0,55.0,MYNA_1.jpg,GREY_PLOVER_4.jpg,2.0,,,,A28P7V6WDT9UN1
576,76,,1.0,56.0,PEACOCK_3.jpg,ANIANIAU_2.jpg,1.0,,,,A28P7V6WDT9UN1
577,77,,1.0,57.0,KILLDEAR_2.jpg,PEACOCK_5.jpg,1.0,,,,A28P7V6WDT9UN1
578,78,,1.0,58.0,BROWN_THRASHER_3.jpg,BLACK_BAZA_4.jpg,3.0,,,,A28P7V6WDT9UN1
579,79,,1.0,59.0,EASTERN_TOWEE_2.jpg,GOLDEN_CHLOROPHONIA_1.jpg,2.0,,,,A28P7V6WDT9UN1
580,80,,1.0,60.0,IVORY_GULL_1.jpg,EASTERN_GOLDEN_WEAVER_5.jpg,2.0,,,,A28P7V6WDT9UN1
581,81,,1.0,61.0,GOLDEN_CHLOROPHONIA_5.jpg,ROADRUNNER_2.jpg,1.0,,,,A28P7V6WDT9UN1
582,82,,1.0,62.0,PYGMY_KINGFISHER_5.jpg,DOUBLE_EYED_FIG_PARROT_4.jpg,3.0,,,,A28P7V6WDT9UN1
583,83,,1.0,63.0,MAGPIE_GOOSE_5.jpg,OYSTER_CATCHER_3.jpg,3.0,,,,A28P7V6WDT9UN1
584,84,,1.0,64.0,SCARLET_TANAGER_2.jpg,NORTHERN_GANNET_2.jpg,2.0,,,,A28P7V6WDT9UN1
585,20,,1.0,0.0,AMERICAN_PIPIT_5.jpg,GREEN_MAGPIE_1.jpg,2.0,,,,A290Z6QAL17PQE
586,21,,1.0,1.0,CASPIAN_TERN_1.jpg,COMMON_LOON_2.jpg,3.0,,,,A290Z6QAL17PQE
587,22,,1.0,2.0,ARARIPE_MANAKIN_4.jpg,BLACK_VULTURE_1.jpg,2.0,,,,A290Z6QAL17PQE
588,23,,1.0,3.0,ASIAN_DOLLARD_BIRD_2.jpg,VIOLET_GREEN_SWALLOW_4.jpg,3.0,,,,A290Z6QAL17PQE
589,24,,1.0,4.0,OVENBIRD_5.jpg,MYNA_4.jpg,1.0,,,,A290Z6QAL17PQE
590,25,,1.0,5.0,LITTLE_AUK_5.jpg,BEARDED_BELLBIRD_1.jpg,3.0,,,,A290Z6QAL17PQE
591,26,,1.0,6.0,GOLDEN_CHLOROPHONIA_5.jpg,ROADRUNNER_2.jpg,1.0,,,,A290Z6QAL17PQE
592,27,,1.0,7.0,CASSOWARY_1.jpg,ROSY_FACED_LOVEBIRD_4.jpg,1.0,,,,A290Z6QAL17PQE
593,28,,1.0,8.0,LESSER_ADJUTANT_4.jpg,ALTAMIRA_YELLOWTHROAT_5.jpg,1.0,,,,A290Z6QAL17PQE
594,29,,1.0,9.0,EASTERN_TOWEE_2.jpg,NORTHERN_BEARDLESS_TYRANNULET_5.jpg,3.0,,,,A290Z6QAL17PQE
595,30,left,1.0,10.0,left.jpg,,,left,1.472,,A290Z6QAL17PQE
596,31,,1.0,11.0,WHITE_CHEEKED_TURACO_5.jpg,NORTHERN_MOCKINGBIRD_4.jpg,1.0,,,,A290Z6QAL17PQE
597,32,,1.0,12.0,SCARLET_TANAGER_2.jpg,BORNEAN_LEAFBIRD_1.jpg,3.0,,,,A290Z6QAL17PQE
598,33,,1.0,13.0,PEACOCK_3.jpg,ANIANIAU_2.jpg,1.0,,,,A290Z6QAL17PQE
599,34,,1.0,14.0,TASMANIAN_HEN_5.jpg,GREEN_BROADBILL_1.jpg,1.0,,,,A290Z6QAL17PQE
600,35,,1.0,15.0,CRESTED_CARACARA_4.jpg,INDIAN_PITTA_2.jpg,2.0,,,,A290Z6QAL17PQE
601,36,,1.0,16.0,EUROPEAN_TURTLE_DOVE_3.jpg,MALABAR_HORNBILL_2.jpg,3.0,,,,A290Z6QAL17PQE
602,37,,1.0,17.0,IVORY_GULL_3.jpg,FLAME_TANAGER_3.jpg,2.0,,,,A290Z6QAL17PQE
603,38,,1.0,18.0,OCELLATED_TURKEY_1.jpg,CHIPPING_SPARROW_1.jpg,1.0,,,,A290Z6QAL17PQE
604,39,,1.0,19.0,IVORY_GULL_1.jpg,FAIRY_TERN_4.jpg,3.0,,,,A290Z6QAL17PQE
605,40,,1.0,20.0,PARUS_MAJOR_1.jpg,PINK_ROBIN_3.jpg,3.0,,,,A290Z6QAL17PQE
606,41,,1.0,21.0,BALI_STARLING_1.jpg,PURPLE_FINCH_2.jpg,2.0,,,,A290Z6QAL17PQE
607,42,right,1.0,22.0,right.jpg,,,right,1.204,,A290Z6QAL17PQE
608,43,,1.0,23.0,VERMILION_FLYCATHER_3.jpg,INDIAN_BUSTARD_1.jpg,1.0,,,,A290Z6QAL17PQE
609,44,,1.0,24.0,STRIPPED_SWALLOW_1.jpg,GO_AWAY_BIRD_5.jpg,3.0,,,,A290Z6QAL17PQE
610,45,,1.0,25.0,MYNA_1.jpg,PARADISE_TANAGER_3.jpg,3.0,,,,A290Z6QAL17PQE
611,46,,1.0,26.0,KILLDEAR_2.jpg,CAATINGA_CACHOLOTE_4.jpg,2.0,,,,A290Z6QAL17PQE
612,47,,1.0,27.0,LARK_BUNTING_2.jpg,CACTUS_WREN_3.jpg,3.0,,,,A290Z6QAL17PQE
613,48,,1.0,28.0,KAGU_5.jpg,ASHY_STORM_PETREL_1.jpg,2.0,,,,A290Z6QAL17PQE
614,49,left,1.0,29.0,left.jpg,,,left,1.191,,A290Z6QAL17PQE
615,50,,1.0,30.0,GYRFALCON_1.jpg,OSTRICH_1.jpg,1.0,,,,A290Z6QAL17PQE
616,51,,1.0,31.0,INDIGO_BUNTING_1.jpg,NORTHERN_GANNET_1.jpg,2.0,,,,A290Z6QAL17PQE
617,52,,1.0,32.0,CERULEAN_WARBLER_1.jpg,AMERICAN_FLAMINGO_5.jpg,2.0,,,,A290Z6QAL17PQE
618,53,,1.0,33.0,BROWN_NOODY_3.jpg,PEACOCK_2.jpg,1.0,,,,A290Z6QAL17PQE
619,54,,1.0,34.0,MALACHITE_KINGFISHER_2.jpg,INCA_TERN_2.jpg,2.0,,,,A290Z6QAL17PQE
620,55,,1.0,35.0,RUBY_THROATED_HUMMINGBIRD_3.jpg,NORTHERN_SHOVELER_1.jpg,3.0,,,,A290Z6QAL17PQE
621,56,,1.0,36.0,NORTHERN_JACANA_3.jpg,CRAB_PLOVER_3.jpg,2.0,,,,A290Z6QAL17PQE
622,57,,1.0,37.0,ASIAN_CRESTED_IBIS_4.jpg,CANARY_2.jpg,1.0,,,,A290Z6QAL17PQE
623,58,,1.0,38.0,FLAME_BOWERBIRD_3.jpg,BROWN_THRASHER_4.jpg,2.0,,,,A290Z6QAL17PQE
624,59,,1.0,39.0,CHUKAR_PARTRIDGE_5.jpg,BLACK_THROATED_BUSHTIT_1.jpg,3.0,,,,A290Z6QAL17PQE
625,60,,1.0,40.0,PINK_ROBIN_4.jpg,SPOONBILL_3.jpg,1.0,,,,A290Z6QAL17PQE
626,61,,1.0,41.0,GRAY_KINGBIRD_5.jpg,AFRICAN_FIREFINCH_3.jpg,3.0,,,,A290Z6QAL17PQE
627,62,,1.0,42.0,ALPINE_CHOUGH_4.jpg,SNOWY_EGRET_2.jpg,1.0,,,,A290Z6QAL17PQE
628,63,,1.0,43.0,RED_HEADED_WOODPECKER_5.jpg,ASHY_STORM_PETREL_2.jpg,1.0,,,,A290Z6QAL17PQE
629,64,right,1.0,44.0,right.jpg,,,right,1.326,,A290Z6QAL17PQE
630,65,,1.0,45.0,RUBY_THROATED_HUMMINGBIRD_1.jpg,BANANAQUIT_2.jpg,1.0,,,,A290Z6QAL17PQE
631,66,right,1.0,46.0,right.jpg,,,right,1.157,,A290Z6QAL17PQE
632,67,,1.0,47.0,RUFOUS_KINGFISHER_1.jpg,MAGPIE_GOOSE_3.jpg,2.0,,,,A290Z6QAL17PQE
633,68,,1.0,48.0,ECUADORIAN_HILLSTAR_5.jpg,BOBOLINK_5.jpg,2.0,,,,A290Z6QAL17PQE
634,69,,1.0,49.0,CRESTED_NUTHATCH_2.jpg,AFRICAN_FIREFINCH_1.jpg,2.0,,,,A290Z6QAL17PQE
635,70,,1.0,50.0,INCA_TERN_4.jpg,ELLIOTS__PHEASANT_4.jpg,1.0,,,,A290Z6QAL17PQE
636,71,,1.0,51.0,SPLENDID_WREN_1.jpg,CUBAN_TODY_4.jpg,3.0,,,,A290Z6QAL17PQE
637,72,,1.0,52.0,RUBY_THROATED_HUMMINGBIRD_2.jpg,GOLDEN_CHLOROPHONIA_2.jpg,1.0,,,,A290Z6QAL17PQE
638,73,,1.0,53.0,INLAND_DOTTEREL_4.jpg,CRESTED_KINGFISHER_1.jpg,3.0,,,,A290Z6QAL17PQE
639,74,,1.0,54.0,PYGMY_KINGFISHER_5.jpg,GRANDALA_2.jpg,1.0,,,,A290Z6QAL17PQE
640,75,,1.0,55.0,BREWERS_BLACKBIRD_3.jpg,GOLDEN_CHEEKED_WARBLER_3.jpg,2.0,,,,A290Z6QAL17PQE
641,76,,1.0,56.0,BROWN_THRASHER_3.jpg,OYSTER_CATCHER_4.jpg,2.0,,,,A290Z6QAL17PQE
642,77,,1.0,57.0,LESSER_ADJUTANT_5.jpg,RED_HEADED_WOODPECKER_1.jpg,3.0,,,,A290Z6QAL17PQE
643,78,,1.0,58.0,DOUBLE_BRESTED_CORMARANT_5.jpg,EURASIAN_MAGPIE_4.jpg,2.0,,,,A290Z6QAL17PQE
644,79,,1.0,59.0,MAGPIE_GOOSE_5.jpg,DOUBLE_EYED_FIG_PARROT_5.jpg,1.0,,,,A290Z6QAL17PQE
645,80,,1.0,60.0,GREY_PLOVER_1.jpg,ECUADORIAN_HILLSTAR_3.jpg,3.0,,,,A290Z6QAL17PQE
646,81,,1.0,61.0,AFRICAN_PIED_HORNBILL_5.jpg,CAPUCHINBIRD_2.jpg,3.0,,,,A290Z6QAL17PQE
647,82,,1.0,62.0,SHOEBILL_3.jpg,GILDED_FLICKER_5.jpg,2.0,,,,A290Z6QAL17PQE
648,83,,1.0,63.0,GOLDEN_CHEEKED_WARBLER_2.jpg,HOUSE_FINCH_2.jpg,2.0,,,,A290Z6QAL17PQE
649,84,,1.0,64.0,HAWAIIAN_GOOSE_4.jpg,WATTLED_LAPWING_3.jpg,3.0,,,,A290Z6QAL17PQE
650,20,,1.0,0.0,CASSOWARY_1.jpg,SCARLET_MACAW_1.jpg,2.0,,,,A2KLIBLDVDV144
651,21,,1.0,1.0,CRESTED_CARACARA_4.jpg,TOUCHAN_4.jpg,3.0,,,,A2KLIBLDVDV144
652,22,,1.0,2.0,LESSER_ADJUTANT_5.jpg,GREEN_BROADBILL_4.jpg,1.0,,,,A2KLIBLDVDV144
653,23,,1.0,3.0,CRESTED_NUTHATCH_2.jpg,SCARLET_IBIS_3.jpg,1.0,,,,A2KLIBLDVDV144
654,24,,1.0,4.0,BROWN_THRASHER_3.jpg,BLACK_BAZA_4.jpg,3.0,,,,A2KLIBLDVDV144
655,25,,1.0,5.0,INDIGO_BUNTING_1.jpg,FRIGATE_4.jpg,1.0,,,,A2KLIBLDVDV144
656,26,,1.0,6.0,ARARIPE_MANAKIN_4.jpg,BLACK_VULTURE_1.jpg,2.0,,,,A2KLIBLDVDV144
657,27,right,1.0,7.0,right.jpg,,,right,1.104299999,,A2KLIBLDVDV144
658,28,,1.0,8.0,RED_HEADED_WOODPECKER_5.jpg,COLLARED_ARACARI_1.jpg,3.0,,,,A2KLIBLDVDV144
659,29,,1.0,9.0,IVORY_GULL_3.jpg,INDIGO_FLYCATCHER_2.jpg,1.0,,,,A2KLIBLDVDV144
660,30,,1.0,10.0,EASTERN_TOWEE_2.jpg,GOLDEN_CHLOROPHONIA_1.jpg,2.0,,,,A2KLIBLDVDV144
661,31,,1.0,11.0,CHUKAR_PARTRIDGE_5.jpg,BLACK_THROATED_BUSHTIT_1.jpg,3.0,,,,A2KLIBLDVDV144
662,32,,1.0,12.0,MALACHITE_KINGFISHER_2.jpg,GREEN_BROADBILL_5.jpg,3.0,,,,A2KLIBLDVDV144
663,33,,1.0,13.0,GOLDEN_CHEEKED_WARBLER_2.jpg,HOUSE_FINCH_2.jpg,2.0,,,,A2KLIBLDVDV144
664,34,,1.0,14.0,KAGU_5.jpg,RED_BEARDED_BEE_EATER_3.jpg,1.0,,,,A2KLIBLDVDV144
665,35,,1.0,15.0,WHITE_CHEEKED_TURACO_5.jpg,PYGMY_KINGFISHER_2.jpg,3.0,,,,A2KLIBLDVDV144
666,36,,1.0,16.0,VERMILION_FLYCATHER_3.jpg,INDIAN_BUSTARD_1.jpg,1.0,,,,A2KLIBLDVDV144
667,37,right,1.0,17.0,right.jpg,,,right,1.3949,,A2KLIBLDVDV144
668,38,,1.0,18.0,PARUS_MAJOR_1.jpg,PINK_ROBIN_3.jpg,3.0,,,,A2KLIBLDVDV144
669,39,,1.0,19.0,CERULEAN_WARBLER_1.jpg,AMERICAN_FLAMINGO_2.jpg,1.0,,,,A2KLIBLDVDV144
670,40,,1.0,20.0,RUBY_THROATED_HUMMINGBIRD_3.jpg,NORTHERN_SHOVELER_1.jpg,3.0,,,,A2KLIBLDVDV144
671,41,,1.0,21.0,SHOEBILL_3.jpg,EASTERN_MEADOWLARK_1.jpg,1.0,,,,A2KLIBLDVDV144
672,42,,1.0,22.0,LESSER_ADJUTANT_4.jpg,ALTAMIRA_YELLOWTHROAT_5.jpg,1.0,,,,A2KLIBLDVDV144
673,43,,1.0,23.0,TASMANIAN_HEN_5.jpg,AFRICAN_EMERALD_CUCKOO_5.jpg,2.0,,,,A2KLIBLDVDV144
674,44,,1.0,24.0,LITTLE_AUK_5.jpg,ORANGE_BRESTED_BUNTING_3.jpg,2.0,,,,A2KLIBLDVDV144
675,45,,1.0,25.0,ASIAN_CRESTED_IBIS_4.jpg,CANARY_2.jpg,1.0,,,,A2KLIBLDVDV144
676,46,,1.0,26.0,RUFOUS_KINGFISHER_1.jpg,SNOWY_OWL_5.jpg,1.0,,,,A2KLIBLDVDV144
677,47,,1.0,27.0,PEACOCK_3.jpg,STRAWBERRY_FINCH_4.jpg,2.0,,,,A2KLIBLDVDV144
678,48,,1.0,28.0,BREWERS_BLACKBIRD_3.jpg,GOLDEN_CHEEKED_WARBLER_3.jpg,2.0,,,,A2KLIBLDVDV144
679,49,,1.0,29.0,ECUADORIAN_HILLSTAR_5.jpg,CRIMSON_SUNBIRD_5.jpg,3.0,,,,A2KLIBLDVDV144
680,50,left,1.0,30.0,left.jpg,,,left,0.882299999,,A2KLIBLDVDV144
681,51,,1.0,31.0,SPLENDID_WREN_1.jpg,CUBAN_TODY_4.jpg,3.0,,,,A2KLIBLDVDV144
682,52,,1.0,32.0,INCA_TERN_4.jpg,SMITHS_LONGSPUR_5.jpg,2.0,,,,A2KLIBLDVDV144
683,53,,1.0,33.0,EUROPEAN_TURTLE_DOVE_3.jpg,MALABAR_HORNBILL_2.jpg,3.0,,,,A2KLIBLDVDV144
684,54,,1.0,34.0,BROWN_NOODY_3.jpg,PEACOCK_2.jpg,1.0,,,,A2KLIBLDVDV144
685,55,,1.0,35.0,NORTHERN_JACANA_3.jpg,CRAB_PLOVER_3.jpg,2.0,,,,A2KLIBLDVDV144
686,56,,1.0,36.0,AMERICAN_PIPIT_5.jpg,GREEN_MAGPIE_1.jpg,2.0,,,,A2KLIBLDVDV144
687,57,,1.0,37.0,HAWAIIAN_GOOSE_4.jpg,HIMALAYAN_MONAL_2.jpg,2.0,,,,A2KLIBLDVDV144
688,58,,1.0,38.0,RUBY_THROATED_HUMMINGBIRD_1.jpg,BANANAQUIT_2.jpg,1.0,,,,A2KLIBLDVDV144
689,59,,1.0,39.0,SCARLET_TANAGER_2.jpg,BORNEAN_LEAFBIRD_1.jpg,3.0,,,,A2KLIBLDVDV144
690,60,,1.0,40.0,OVENBIRD_5.jpg,SHORT_BILLED_DOWITCHER_5.jpg,3.0,,,,A2KLIBLDVDV144
691,61,,1.0,41.0,PINK_ROBIN_4.jpg,COMMON_IORA_4.jpg,3.0,,,,A2KLIBLDVDV144
692,62,,1.0,42.0,STRIPPED_SWALLOW_1.jpg,GO_AWAY_BIRD_5.jpg,3.0,,,,A2KLIBLDVDV144
693,63,left,1.0,43.0,left.jpg,,,left,0.9655,,A2KLIBLDVDV144
694,64,,1.0,44.0,MAGPIE_GOOSE_5.jpg,HAMERKOP_1.jpg,2.0,,,,A2KLIBLDVDV144
695,65,,1.0,45.0,AFRICAN_PIED_HORNBILL_5.jpg,KIWI_4.jpg,1.0,,,,A2KLIBLDVDV144
696,66,,1.0,46.0,KILLDEAR_2.jpg,CAATINGA_CACHOLOTE_4.jpg,2.0,,,,A2KLIBLDVDV144
697,67,,1.0,47.0,BALI_STARLING_1.jpg,CAPE_LONGCLAW_5.jpg,1.0,,,,A2KLIBLDVDV144
698,68,,1.0,48.0,MYNA_1.jpg,GREY_PLOVER_4.jpg,2.0,,,,A2KLIBLDVDV144
699,69,,1.0,49.0,DOUBLE_BRESTED_CORMARANT_5.jpg,GILDED_FLICKER_2.jpg,1.0,,,,A2KLIBLDVDV144
700,70,,1.0,50.0,LARK_BUNTING_2.jpg,CACTUS_WREN_3.jpg,3.0,,,,A2KLIBLDVDV144
701,71,,1.0,51.0,GRAY_KINGBIRD_5.jpg,COCK_OF_THE__ROCK_4.jpg,2.0,,,,A2KLIBLDVDV144
702,72,,1.0,52.0,ASIAN_DOLLARD_BIRD_2.jpg,VIOLET_GREEN_SWALLOW_4.jpg,3.0,,,,A2KLIBLDVDV144
703,73,,1.0,53.0,ALPINE_CHOUGH_4.jpg,EUROPEAN_GOLDFINCH_3.jpg,2.0,,,,A2KLIBLDVDV144
704,74,,0.0,54.0,right.jpg,,,right,,,A2KLIBLDVDV144
705,75,,1.0,55.0,GYRFALCON_1.jpg,CINNAMON_ATTILA_2.jpg,2.0,,,,A2KLIBLDVDV144
706,76,,1.0,56.0,GREY_PLOVER_1.jpg,ECUADORIAN_HILLSTAR_3.jpg,3.0,,,,A2KLIBLDVDV144
707,77,,1.0,57.0,IVORY_GULL_1.jpg,WILSONS_BIRD_OF_PARADISE_4.jpg,1.0,,,,A2KLIBLDVDV144
708,78,,1.0,58.0,OCELLATED_TURKEY_1.jpg,CHIPPING_SPARROW_1.jpg,1.0,,,,A2KLIBLDVDV144
709,79,,1.0,59.0,INLAND_DOTTEREL_4.jpg,CRESTED_KINGFISHER_1.jpg,3.0,,,,A2KLIBLDVDV144
710,80,,1.0,60.0,RUBY_THROATED_HUMMINGBIRD_2.jpg,GOLDEN_CHLOROPHONIA_2.jpg,1.0,,,,A2KLIBLDVDV144
711,81,,1.0,61.0,PYGMY_KINGFISHER_5.jpg,GRANDALA_2.jpg,1.0,,,,A2KLIBLDVDV144
712,82,,1.0,62.0,CASPIAN_TERN_1.jpg,EUROPEAN_GOLDFINCH_4.jpg,2.0,,,,A2KLIBLDVDV144
713,83,,1.0,63.0,FLAME_BOWERBIRD_3.jpg,BROWN_THRASHER_4.jpg,2.0,,,,A2KLIBLDVDV144
714,84,,1.0,64.0,GOLDEN_CHLOROPHONIA_5.jpg,VERMILION_FLYCATHER_5.jpg,3.0,,,,A2KLIBLDVDV144
715,20,,1.0,0.0,DOUBLE_BRESTED_CORMARANT_5.jpg,CHINESE_POND_HERON_2.jpg,3.0,,,,A2LA3NEWBU30QT
716,21,,1.0,1.0,OCELLATED_TURKEY_1.jpg,AMERICAN_PIPIT_1.jpg,2.0,,,,A2LA3NEWBU30QT
717,22,,1.0,2.0,CHUKAR_PARTRIDGE_5.jpg,OSTRICH_5.jpg,1.0,,,,A2LA3NEWBU30QT
718,23,,1.0,3.0,IVORY_GULL_1.jpg,FAIRY_TERN_4.jpg,3.0,,,,A2LA3NEWBU30QT
719,24,,1.0,4.0,BREWERS_BLACKBIRD_3.jpg,CAPE_LONGCLAW_2.jpg,3.0,,,,A2LA3NEWBU30QT
720,25,,1.0,5.0,RED_HEADED_WOODPECKER_5.jpg,CRIMSON_CHAT_3.jpg,2.0,,,,A2LA3NEWBU30QT
721,26,,1.0,6.0,OVENBIRD_5.jpg,FAIRY_PENGUIN_1.jpg,2.0,,,,A2LA3NEWBU30QT
722,27,right,1.0,7.0,right.jpg,,,right,1.5,,A2LA3NEWBU30QT
723,28,,1.0,8.0,NORTHERN_JACANA_3.jpg,SCARLET_IBIS_4.jpg,3.0,,,,A2LA3NEWBU30QT
724,29,,1.0,9.0,CASPIAN_TERN_1.jpg,EUROPEAN_GOLDFINCH_4.jpg,2.0,,,,A2LA3NEWBU30QT
725,30,,1.0,10.0,MYNA_1.jpg,PARADISE_TANAGER_3.jpg,3.0,,,,A2LA3NEWBU30QT
726,31,,1.0,11.0,CERULEAN_WARBLER_1.jpg,AMERICAN_FLAMINGO_2.jpg,1.0,,,,A2LA3NEWBU30QT
727,32,,1.0,12.0,PEACOCK_3.jpg,CHATTERING_LORY_2.jpg,3.0,,,,A2LA3NEWBU30QT
728,33,,1.0,13.0,GOLDEN_CHEEKED_WARBLER_2.jpg,HOUSE_FINCH_2.jpg,2.0,,,,A2LA3NEWBU30QT
729,34,,1.0,14.0,BALI_STARLING_1.jpg,IBERIAN_MAGPIE_1.jpg,3.0,,,,A2LA3NEWBU30QT
730,35,,1.0,15.0,PARUS_MAJOR_1.jpg,PINK_ROBIN_3.jpg,3.0,,,,A2LA3NEWBU30QT
731,36,,1.0,16.0,WHITE_CHEEKED_TURACO_5.jpg,PYGMY_KINGFISHER_2.jpg,3.0,,,,A2LA3NEWBU30QT
732,37,,1.0,17.0,CRESTED_CARACARA_4.jpg,FAIRY_PENGUIN_5.jpg,1.0,,,,A2LA3NEWBU30QT
733,38,,1.0,18.0,INDIGO_BUNTING_1.jpg,NORTHERN_GANNET_1.jpg,2.0,,,,A2LA3NEWBU30QT
734,39,,1.0,19.0,PYGMY_KINGFISHER_5.jpg,MASKED_BOOBY_5.jpg,2.0,,,,A2LA3NEWBU30QT
735,40,,1.0,20.0,SCARLET_TANAGER_2.jpg,NORTHERN_GANNET_2.jpg,2.0,,,,A2LA3NEWBU30QT
736,41,,1.0,21.0,MAGPIE_GOOSE_5.jpg,OYSTER_CATCHER_3.jpg,3.0,,,,A2LA3NEWBU30QT
737,42,left,1.0,22.0,left.jpg,,,left,1.4337,,A2LA3NEWBU30QT
738,43,,1.0,23.0,VERMILION_FLYCATHER_3.jpg,CALIFORNIA_GULL_1.jpg,2.0,,,,A2LA3NEWBU30QT
739,44,,1.0,24.0,ASIAN_CRESTED_IBIS_4.jpg,IVORY_GULL_2.jpg,3.0,,,,A2LA3NEWBU30QT
740,45,,1.0,25.0,GYRFALCON_1.jpg,CINNAMON_ATTILA_2.jpg,2.0,,,,A2LA3NEWBU30QT
741,46,,1.0,26.0,AFRICAN_PIED_HORNBILL_5.jpg,CAPUCHINBIRD_2.jpg,3.0,,,,A2LA3NEWBU30QT
742,47,,1.0,27.0,RUBY_THROATED_HUMMINGBIRD_1.jpg,BANANAQUIT_2.jpg,1.0,,,,A2LA3NEWBU30QT
743,48,,1.0,28.0,STRIPPED_SWALLOW_1.jpg,DOUBLE_BRESTED_CORMARANT_4.jpg,1.0,,,,A2LA3NEWBU30QT
744,49,,1.0,29.0,ECUADORIAN_HILLSTAR_5.jpg,BOBOLINK_5.jpg,2.0,,,,A2LA3NEWBU30QT
745,50,,1.0,30.0,HAWAIIAN_GOOSE_4.jpg,WATTLED_LAPWING_3.jpg,3.0,,,,A2LA3NEWBU30QT
746,51,,1.0,31.0,CRESTED_NUTHATCH_2.jpg,AFRICAN_FIREFINCH_1.jpg,2.0,,,,A2LA3NEWBU30QT
747,52,,1.0,32.0,SHOEBILL_3.jpg,EASTERN_MEADOWLARK_1.jpg,1.0,,,,A2LA3NEWBU30QT
748,53,right,1.0,33.0,right.jpg,,,right,1.2989,,A2LA3NEWBU30QT
749,54,,1.0,34.0,MALACHITE_KINGFISHER_2.jpg,AMERICAN_FLAMINGO_1.jpg,1.0,,,,A2LA3NEWBU30QT
750,55,,1.0,35.0,IVORY_GULL_3.jpg,INDIGO_FLYCATCHER_2.jpg,1.0,,,,A2LA3NEWBU30QT
751,56,,1.0,36.0,RUFOUS_KINGFISHER_1.jpg,SNOWY_OWL_5.jpg,1.0,,,,A2LA3NEWBU30QT
752,57,,1.0,37.0,ASIAN_DOLLARD_BIRD_2.jpg,ALBATROSS_2.jpg,1.0,,,,A2LA3NEWBU30QT
753,58,,1.0,38.0,EUROPEAN_TURTLE_DOVE_3.jpg,TEAL_DUCK_2.jpg,1.0,,,,A2LA3NEWBU30QT
754,59,,1.0,39.0,LITTLE_AUK_5.jpg,SANDHILL_CRANE_3.jpg,1.0,,,,A2LA3NEWBU30QT
755,60,right,1.0,40.0,right.jpg,,,right,1.2627,,A2LA3NEWBU30QT
756,61,,1.0,41.0,LESSER_ADJUTANT_4.jpg,ALTAMIRA_YELLOWTHROAT_5.jpg,1.0,,,,A2LA3NEWBU30QT
757,62,,1.0,42.0,FLAME_BOWERBIRD_3.jpg,QUETZAL_3.jpg,3.0,,,,A2LA3NEWBU30QT
758,63,,1.0,43.0,INLAND_DOTTEREL_4.jpg,NICOBAR_PIGEON_4.jpg,2.0,,,,A2LA3NEWBU30QT
759,64,,1.0,44.0,AMERICAN_PIPIT_5.jpg,EMU_2.jpg,1.0,,,,A2LA3NEWBU30QT
760,65,,1.0,45.0,BROWN_NOODY_3.jpg,SPANGLED_COTINGA_4.jpg,2.0,,,,A2LA3NEWBU30QT
761,66,,1.0,46.0,ALPINE_CHOUGH_4.jpg,EUROPEAN_GOLDFINCH_3.jpg,2.0,,,,A2LA3NEWBU30QT
762,67,,1.0,47.0,LESSER_ADJUTANT_5.jpg,RED_HEADED_WOODPECKER_1.jpg,3.0,,,,A2LA3NEWBU30QT
763,68,,1.0,48.0,RUBY_THROATED_HUMMINGBIRD_2.jpg,DUSKY_ROBIN_5.jpg,3.0,,,,A2LA3NEWBU30QT
764,69,,1.0,49.0,EASTERN_TOWEE_2.jpg,SANDHILL_CRANE_2.jpg,1.0,,,,A2LA3NEWBU30QT
765,70,right,1.0,50.0,right.jpg,,,right,1.4491,,A2LA3NEWBU30QT
766,71,,1.0,51.0,GOLDEN_CHLOROPHONIA_5.jpg,ROADRUNNER_2.jpg,1.0,,,,A2LA3NEWBU30QT
767,72,,1.0,52.0,GREY_PLOVER_1.jpg,GOULDIAN_FINCH_4.jpg,2.0,,,,A2LA3NEWBU30QT
768,73,,1.0,53.0,PINK_ROBIN_4.jpg,SPOONBILL_3.jpg,1.0,,,,A2LA3NEWBU30QT
769,74,,1.0,54.0,SPLENDID_WREN_1.jpg,CUBAN_TODY_4.jpg,3.0,,,,A2LA3NEWBU30QT
770,75,,1.0,55.0,KILLDEAR_2.jpg,PEACOCK_5.jpg,1.0,,,,A2LA3NEWBU30QT
771,76,,1.0,56.0,GRAY_KINGBIRD_5.jpg,AFRICAN_FIREFINCH_3.jpg,3.0,,,,A2LA3NEWBU30QT
772,77,,1.0,57.0,BROWN_THRASHER_3.jpg,BLACK_BAZA_4.jpg,3.0,,,,A2LA3NEWBU30QT
773,78,,1.0,58.0,INCA_TERN_4.jpg,SMITHS_LONGSPUR_5.jpg,2.0,,,,A2LA3NEWBU30QT
774,79,,1.0,59.0,KAGU_5.jpg,ASHY_STORM_PETREL_1.jpg,2.0,,,,A2LA3NEWBU30QT
775,80,,1.0,60.0,LARK_BUNTING_2.jpg,PEACOCK_1.jpg,1.0,,,,A2LA3NEWBU30QT
776,81,,1.0,61.0,RUBY_THROATED_HUMMINGBIRD_3.jpg,MALAGASY_WHITE_EYE_2.jpg,1.0,,,,A2LA3NEWBU30QT
777,82,,1.0,62.0,TASMANIAN_HEN_5.jpg,COPPERY_TAILED_COUCAL_1.jpg,3.0,,,,A2LA3NEWBU30QT
778,83,,1.0,63.0,CASSOWARY_1.jpg,SCARLET_MACAW_1.jpg,2.0,,,,A2LA3NEWBU30QT
779,84,,1.0,64.0,ARARIPE_MANAKIN_4.jpg,BLACK_VULTURE_1.jpg,2.0,,,,A2LA3NEWBU30QT
780,20,,1.0,0.0,GREY_PLOVER_1.jpg,GOULDIAN_FINCH_4.jpg,2.0,,,,A2MOU3YD664C0H
781,21,,1.0,1.0,LARK_BUNTING_2.jpg,PEACOCK_1.jpg,1.0,,,,A2MOU3YD664C0H
782,22,,1.0,2.0,BREWERS_BLACKBIRD_3.jpg,GUINEA_TURACO_3.jpg,1.0,,,,A2MOU3YD664C0H
783,23,,1.0,3.0,ALPINE_CHOUGH_4.jpg,SNOWY_EGRET_2.jpg,1.0,,,,A2MOU3YD664C0H
784,24,,1.0,4.0,RED_HEADED_WOODPECKER_5.jpg,ASHY_STORM_PETREL_2.jpg,1.0,,,,A2MOU3YD664C0H
785,25,,1.0,5.0,TASMANIAN_HEN_5.jpg,COPPERY_TAILED_COUCAL_1.jpg,3.0,,,,A2MOU3YD664C0H
786,26,,1.0,6.0,BROWN_NOODY_3.jpg,SPANGLED_COTINGA_4.jpg,2.0,,,,A2MOU3YD664C0H
787,27,,1.0,7.0,PEACOCK_3.jpg,ANIANIAU_2.jpg,1.0,,,,A2MOU3YD664C0H
788,28,,1.0,8.0,GRAY_KINGBIRD_5.jpg,AFRICAN_FIREFINCH_3.jpg,3.0,,,,A2MOU3YD664C0H
789,29,,1.0,9.0,MAGPIE_GOOSE_5.jpg,HAMERKOP_1.jpg,2.0,,,,A2MOU3YD664C0H
790,30,,1.0,10.0,PARUS_MAJOR_1.jpg,PINK_ROBIN_3.jpg,3.0,,,,A2MOU3YD664C0H
791,31,,1.0,11.0,GOLDEN_CHEEKED_WARBLER_2.jpg,HOUSE_FINCH_2.jpg,2.0,,,,A2MOU3YD664C0H
792,32,,1.0,12.0,SCARLET_TANAGER_2.jpg,BEARDED_BARBET_2.jpg,1.0,,,,A2MOU3YD664C0H
793,33,,1.0,13.0,EASTERN_TOWEE_2.jpg,NORTHERN_BEARDLESS_TYRANNULET_5.jpg,3.0,,,,A2MOU3YD664C0H
794,34,left,1.0,14.0,left.jpg,,,left,1.132,,A2MOU3YD664C0H
795,35,,1.0,15.0,SHOEBILL_3.jpg,BALD_EAGLE_5.jpg,3.0,,,,A2MOU3YD664C0H
796,36,right,1.0,16.0,right.jpg,,,right,1.143,,A2MOU3YD664C0H
797,37,,1.0,17.0,KAGU_5.jpg,ASHY_STORM_PETREL_1.jpg,2.0,,,,A2MOU3YD664C0H
798,38,,1.0,18.0,BROWN_THRASHER_3.jpg,OYSTER_CATCHER_4.jpg,2.0,,,,A2MOU3YD664C0H
799,39,,1.0,19.0,CHUKAR_PARTRIDGE_5.jpg,BLACK_THROATED_BUSHTIT_1.jpg,3.0,,,,A2MOU3YD664C0H
800,40,,1.0,20.0,ARARIPE_MANAKIN_4.jpg,BORNEAN_LEAFBIRD_3.jpg,3.0,,,,A2MOU3YD664C0H
801,41,,1.0,21.0,INCA_TERN_4.jpg,SMITHS_LONGSPUR_5.jpg,2.0,,,,A2MOU3YD664C0H
802,42,,1.0,22.0,HAWAIIAN_GOOSE_4.jpg,WATTLED_LAPWING_3.jpg,3.0,,,,A2MOU3YD664C0H
803,43,,1.0,23.0,RUBY_THROATED_HUMMINGBIRD_2.jpg,GOLDEN_CHLOROPHONIA_2.jpg,1.0,,,,A2MOU3YD664C0H
804,44,,1.0,24.0,RUBY_THROATED_HUMMINGBIRD_1.jpg,FRIGATE_1.jpg,3.0,,,,A2MOU3YD664C0H
805,45,,1.0,25.0,AMERICAN_PIPIT_5.jpg,HEPATIC_TANAGER_5.jpg,3.0,,,,A2MOU3YD664C0H
806,46,,1.0,26.0,CRESTED_NUTHATCH_2.jpg,SCARLET_IBIS_3.jpg,1.0,,,,A2MOU3YD664C0H
807,47,,1.0,27.0,VERMILION_FLYCATHER_3.jpg,INDIAN_BUSTARD_1.jpg,1.0,,,,A2MOU3YD664C0H
808,48,right,1.0,28.0,right.jpg,,,right,0.93,,A2MOU3YD664C0H
809,49,,1.0,29.0,CASPIAN_TERN_1.jpg,COMMON_LOON_2.jpg,3.0,,,,A2MOU3YD664C0H
810,50,,1.0,30.0,SPLENDID_WREN_1.jpg,DOUBLE_BRESTED_CORMARANT_1.jpg,2.0,,,,A2MOU3YD664C0H
811,51,,1.0,31.0,GYRFALCON_1.jpg,CINNAMON_ATTILA_2.jpg,2.0,,,,A2MOU3YD664C0H
812,52,,1.0,32.0,FLAME_BOWERBIRD_3.jpg,QUETZAL_3.jpg,3.0,,,,A2MOU3YD664C0H
813,53,,1.0,33.0,PYGMY_KINGFISHER_5.jpg,MASKED_BOOBY_5.jpg,2.0,,,,A2MOU3YD664C0H
814,54,,1.0,34.0,EUROPEAN_TURTLE_DOVE_3.jpg,PAINTED_BUNTING_3.jpg,2.0,,,,A2MOU3YD664C0H
815,55,,1.0,35.0,RUBY_THROATED_HUMMINGBIRD_3.jpg,NORTHERN_SHOVELER_1.jpg,3.0,,,,A2MOU3YD664C0H
816,56,,1.0,36.0,AFRICAN_PIED_HORNBILL_5.jpg,KIWI_4.jpg,1.0,,,,A2MOU3YD664C0H
817,57,right,1.0,37.0,right.jpg,,,right,1.008,,A2MOU3YD664C0H
818,58,,1.0,38.0,STRIPPED_SWALLOW_1.jpg,MAGPIE_GOOSE_4.jpg,2.0,,,,A2MOU3YD664C0H
819,59,,1.0,39.0,MALACHITE_KINGFISHER_2.jpg,AMERICAN_FLAMINGO_1.jpg,1.0,,,,A2MOU3YD664C0H
820,60,,1.0,40.0,INLAND_DOTTEREL_4.jpg,CASSOWARY_2.jpg,1.0,,,,A2MOU3YD664C0H
821,61,,1.0,41.0,LESSER_ADJUTANT_4.jpg,RAINBOW_LORIKEET_5.jpg,2.0,,,,A2MOU3YD664C0H
822,62,,1.0,42.0,LITTLE_AUK_5.jpg,BEARDED_BELLBIRD_1.jpg,3.0,,,,A2MOU3YD664C0H
823,63,,1.0,43.0,IVORY_GULL_1.jpg,WILSONS_BIRD_OF_PARADISE_4.jpg,1.0,,,,A2MOU3YD664C0H
824,64,,1.0,44.0,INDIGO_BUNTING_1.jpg,FRIGATE_4.jpg,1.0,,,,A2MOU3YD664C0H
825,65,,1.0,45.0,GOLDEN_CHLOROPHONIA_5.jpg,COMMON_HOUSE_MARTIN_4.jpg,2.0,,,,A2MOU3YD664C0H
826,66,,1.0,46.0,CRESTED_CARACARA_4.jpg,INDIAN_PITTA_2.jpg,2.0,,,,A2MOU3YD664C0H
827,67,,1.0,47.0,ECUADORIAN_HILLSTAR_5.jpg,SCARLET_IBIS_2.jpg,1.0,,,,A2MOU3YD664C0H
828,68,right,1.0,48.0,right.jpg,,,right,1.018,,A2MOU3YD664C0H
829,69,,1.0,49.0,IVORY_GULL_3.jpg,INDIGO_FLYCATCHER_2.jpg,1.0,,,,A2MOU3YD664C0H
830,70,,1.0,50.0,NORTHERN_JACANA_3.jpg,SCARLET_IBIS_4.jpg,3.0,,,,A2MOU3YD664C0H
831,71,,1.0,51.0,BALI_STARLING_1.jpg,CAPE_LONGCLAW_5.jpg,1.0,,,,A2MOU3YD664C0H
832,72,,1.0,52.0,CASSOWARY_1.jpg,SCARLET_MACAW_1.jpg,2.0,,,,A2MOU3YD664C0H
833,73,,1.0,53.0,ASIAN_DOLLARD_BIRD_2.jpg,ALBATROSS_2.jpg,1.0,,,,A2MOU3YD664C0H
834,74,,1.0,54.0,CERULEAN_WARBLER_1.jpg,AMERICAN_FLAMINGO_5.jpg,2.0,,,,A2MOU3YD664C0H
835,75,,1.0,55.0,PINK_ROBIN_4.jpg,ALBATROSS_4.jpg,2.0,,,,A2MOU3YD664C0H
836,76,,1.0,56.0,ASIAN_CRESTED_IBIS_4.jpg,OYSTER_CATCHER_2.jpg,2.0,,,,A2MOU3YD664C0H
837,77,,1.0,57.0,LESSER_ADJUTANT_5.jpg,GREEN_BROADBILL_4.jpg,1.0,,,,A2MOU3YD664C0H
838,78,,1.0,58.0,MYNA_1.jpg,OSTRICH_3.jpg,1.0,,,,A2MOU3YD664C0H
839,79,,1.0,59.0,KILLDEAR_2.jpg,AZURE_TIT_5.jpg,3.0,,,,A2MOU3YD664C0H
840,80,,1.0,60.0,DOUBLE_BRESTED_CORMARANT_5.jpg,CHINESE_POND_HERON_2.jpg,3.0,,,,A2MOU3YD664C0H
841,81,,1.0,61.0,OCELLATED_TURKEY_1.jpg,PURPLE_SWAMPHEN_4.jpg,3.0,,,,A2MOU3YD664C0H
842,82,,1.0,62.0,WHITE_CHEEKED_TURACO_5.jpg,PYGMY_KINGFISHER_2.jpg,3.0,,,,A2MOU3YD664C0H
843,83,,1.0,63.0,RUFOUS_KINGFISHER_1.jpg,HORNED_SUNGEM_4.jpg,3.0,,,,A2MOU3YD664C0H
844,84,,1.0,64.0,OVENBIRD_5.jpg,FAIRY_PENGUIN_1.jpg,2.0,,,,A2MOU3YD664C0H
845,20,,1.0,0.0,STRIPPED_SWALLOW_1.jpg,GO_AWAY_BIRD_5.jpg,3.0,,,,A2OT9ZJC4MQBS8
846,21,,1.0,1.0,LESSER_ADJUTANT_4.jpg,ALTAMIRA_YELLOWTHROAT_5.jpg,1.0,,,,A2OT9ZJC4MQBS8
847,22,,1.0,2.0,MYNA_1.jpg,GREY_PLOVER_4.jpg,2.0,,,,A2OT9ZJC4MQBS8
848,23,,1.0,3.0,EUROPEAN_TURTLE_DOVE_3.jpg,MALABAR_HORNBILL_2.jpg,3.0,,,,A2OT9ZJC4MQBS8
849,24,,1.0,4.0,DOUBLE_BRESTED_CORMARANT_5.jpg,GILDED_FLICKER_2.jpg,1.0,,,,A2OT9ZJC4MQBS8
850,25,,1.0,5.0,PYGMY_KINGFISHER_5.jpg,GRANDALA_2.jpg,1.0,,,,A2OT9ZJC4MQBS8
851,26,,1.0,6.0,GREY_PLOVER_1.jpg,HYACINTH_MACAW_3.jpg,1.0,,,,A2OT9ZJC4MQBS8
852,27,,1.0,7.0,NORTHERN_JACANA_3.jpg,SCARLET_IBIS_4.jpg,3.0,,,,A2OT9ZJC4MQBS8
853,28,,1.0,8.0,ASIAN_DOLLARD_BIRD_2.jpg,VIOLET_GREEN_SWALLOW_4.jpg,3.0,,,,A2OT9ZJC4MQBS8
854,29,,1.0,9.0,LITTLE_AUK_5.jpg,ORANGE_BRESTED_BUNTING_3.jpg,2.0,,,,A2OT9ZJC4MQBS8
855,30,,1.0,10.0,HAWAIIAN_GOOSE_4.jpg,CUBAN_TODY_3.jpg,1.0,,,,A2OT9ZJC4MQBS8
856,31,,0.0,11.0,right.jpg,,,right,,,A2OT9ZJC4MQBS8
857,32,,1.0,12.0,PARUS_MAJOR_1.jpg,CALIFORNIA_GULL_2.jpg,2.0,,,,A2OT9ZJC4MQBS8
858,33,,1.0,13.0,EASTERN_TOWEE_2.jpg,NORTHERN_BEARDLESS_TYRANNULET_5.jpg,3.0,,,,A2OT9ZJC4MQBS8
859,34,,1.0,14.0,GYRFALCON_1.jpg,FAIRY_TERN_1.jpg,3.0,,,,A2OT9ZJC4MQBS8
860,35,,1.0,15.0,RUBY_THROATED_HUMMINGBIRD_1.jpg,FRIGATE_1.jpg,3.0,,,,A2OT9ZJC4MQBS8
861,36,,1.0,16.0,KAGU_5.jpg,DEMOISELLE_CRANE_1.jpg,3.0,,,,A2OT9ZJC4MQBS8
862,37,,1.0,17.0,RUBY_THROATED_HUMMINGBIRD_2.jpg,APAPANE_4.jpg,2.0,,,,A2OT9ZJC4MQBS8
863,38,,1.0,18.0,IVORY_GULL_3.jpg,SNOWY_EGRET_4.jpg,3.0,,,,A2OT9ZJC4MQBS8
864,39,,1.0,19.0,OCELLATED_TURKEY_1.jpg,AMERICAN_PIPIT_1.jpg,2.0,,,,A2OT9ZJC4MQBS8
865,40,,1.0,20.0,ARARIPE_MANAKIN_4.jpg,BLACK_VULTURE_1.jpg,2.0,,,,A2OT9ZJC4MQBS8
866,41,,1.0,21.0,FLAME_BOWERBIRD_3.jpg,INDIAN_BUSTARD_2.jpg,1.0,,,,A2OT9ZJC4MQBS8
867,42,,1.0,22.0,VERMILION_FLYCATHER_3.jpg,CALIFORNIA_GULL_1.jpg,2.0,,,,A2OT9ZJC4MQBS8
868,43,right,1.0,23.0,right.jpg,,,right,1.7788,,A2OT9ZJC4MQBS8
869,44,,1.0,24.0,CRESTED_CARACARA_4.jpg,TOUCHAN_4.jpg,3.0,,,,A2OT9ZJC4MQBS8
870,45,,1.0,25.0,CHUKAR_PARTRIDGE_5.jpg,OSTRICH_5.jpg,1.0,,,,A2OT9ZJC4MQBS8
871,46,,1.0,26.0,INLAND_DOTTEREL_4.jpg,CASSOWARY_2.jpg,1.0,,,,A2OT9ZJC4MQBS8
872,47,,1.0,27.0,RUFOUS_KINGFISHER_1.jpg,SNOWY_OWL_5.jpg,1.0,,,,A2OT9ZJC4MQBS8
873,48,,1.0,28.0,CASPIAN_TERN_1.jpg,EUROPEAN_GOLDFINCH_4.jpg,2.0,,,,A2OT9ZJC4MQBS8
874,49,,1.0,29.0,LARK_BUNTING_2.jpg,KING_VULTURE_3.jpg,2.0,,,,A2OT9ZJC4MQBS8
875,50,left,1.0,30.0,left.jpg,,,left,1.7889,,A2OT9ZJC4MQBS8
876,51,,1.0,31.0,IVORY_GULL_1.jpg,WILSONS_BIRD_OF_PARADISE_4.jpg,1.0,,,,A2OT9ZJC4MQBS8
877,52,,1.0,32.0,BALI_STARLING_1.jpg,CAPE_LONGCLAW_5.jpg,1.0,,,,A2OT9ZJC4MQBS8
878,53,,1.0,33.0,BROWN_NOODY_3.jpg,SPANGLED_COTINGA_4.jpg,2.0,,,,A2OT9ZJC4MQBS8
879,54,,1.0,34.0,GOLDEN_CHEEKED_WARBLER_2.jpg,WHITE_THROATED_BEE_EATER_1.jpg,3.0,,,,A2OT9ZJC4MQBS8
880,55,,1.0,35.0,PEACOCK_3.jpg,CHATTERING_LORY_2.jpg,3.0,,,,A2OT9ZJC4MQBS8
881,56,,1.0,36.0,KILLDEAR_2.jpg,AZURE_TIT_5.jpg,3.0,,,,A2OT9ZJC4MQBS8
882,57,,1.0,37.0,GRAY_KINGBIRD_5.jpg,BALD_EAGLE_2.jpg,1.0,,,,A2OT9ZJC4MQBS8
883,58,,1.0,38.0,CASSOWARY_1.jpg,AFRICAN_OYSTER_CATCHER_2.jpg,3.0,,,,A2OT9ZJC4MQBS8
884,59,,1.0,39.0,SHOEBILL_3.jpg,BALD_EAGLE_5.jpg,3.0,,,,A2OT9ZJC4MQBS8
885,60,,1.0,40.0,MALACHITE_KINGFISHER_2.jpg,INCA_TERN_2.jpg,2.0,,,,A2OT9ZJC4MQBS8
886,61,,1.0,41.0,SCARLET_TANAGER_2.jpg,BEARDED_BARBET_2.jpg,1.0,,,,A2OT9ZJC4MQBS8
887,62,,1.0,42.0,MAGPIE_GOOSE_5.jpg,OYSTER_CATCHER_3.jpg,3.0,,,,A2OT9ZJC4MQBS8
888,63,,1.0,43.0,WHITE_CHEEKED_TURACO_5.jpg,NORTHERN_MOCKINGBIRD_4.jpg,1.0,,,,A2OT9ZJC4MQBS8
889,64,,0.0,44.0,left.jpg,,,left,,,A2OT9ZJC4MQBS8
890,65,,1.0,45.0,ASIAN_CRESTED_IBIS_4.jpg,CANARY_2.jpg,1.0,,,,A2OT9ZJC4MQBS8
891,66,,1.0,46.0,INDIGO_BUNTING_1.jpg,DARWINS_FLYCATCHER_2.jpg,3.0,,,,A2OT9ZJC4MQBS8
892,67,,1.0,47.0,SPLENDID_WREN_1.jpg,DOUBLE_BRESTED_CORMARANT_1.jpg,2.0,,,,A2OT9ZJC4MQBS8
893,68,,1.0,48.0,GOLDEN_CHLOROPHONIA_5.jpg,VERMILION_FLYCATHER_5.jpg,3.0,,,,A2OT9ZJC4MQBS8
894,69,,1.0,49.0,RED_HEADED_WOODPECKER_5.jpg,ASHY_STORM_PETREL_2.jpg,1.0,,,,A2OT9ZJC4MQBS8
895,70,,1.0,50.0,AFRICAN_PIED_HORNBILL_5.jpg,ALEXANDRINE_PARAKEET_1.jpg,2.0,,,,A2OT9ZJC4MQBS8
896,71,,1.0,51.0,BREWERS_BLACKBIRD_3.jpg,GUINEA_TURACO_3.jpg,1.0,,,,A2OT9ZJC4MQBS8
897,72,left,1.0,52.0,left.jpg,,,left,1.7163,,A2OT9ZJC4MQBS8
898,73,,1.0,53.0,PINK_ROBIN_4.jpg,SPOONBILL_3.jpg,1.0,,,,A2OT9ZJC4MQBS8
899,74,,1.0,54.0,TASMANIAN_HEN_5.jpg,AFRICAN_EMERALD_CUCKOO_5.jpg,2.0,,,,A2OT9ZJC4MQBS8
900,75,,1.0,55.0,BROWN_THRASHER_3.jpg,OYSTER_CATCHER_4.jpg,2.0,,,,A2OT9ZJC4MQBS8
901,76,,1.0,56.0,ALPINE_CHOUGH_4.jpg,EUROPEAN_GOLDFINCH_3.jpg,2.0,,,,A2OT9ZJC4MQBS8
902,77,,1.0,57.0,CRESTED_NUTHATCH_2.jpg,AFRICAN_FIREFINCH_1.jpg,2.0,,,,A2OT9ZJC4MQBS8
903,78,,1.0,58.0,OVENBIRD_5.jpg,MYNA_4.jpg,1.0,,,,A2OT9ZJC4MQBS8
904,79,,1.0,59.0,RUBY_THROATED_HUMMINGBIRD_3.jpg,NORTHERN_SHOVELER_1.jpg,3.0,,,,A2OT9ZJC4MQBS8
905,80,,1.0,60.0,ECUADORIAN_HILLSTAR_5.jpg,BOBOLINK_5.jpg,2.0,,,,A2OT9ZJC4MQBS8
906,81,,1.0,61.0,LESSER_ADJUTANT_5.jpg,RED_HEADED_WOODPECKER_1.jpg,3.0,,,,A2OT9ZJC4MQBS8
907,82,,1.0,62.0,AMERICAN_PIPIT_5.jpg,EMU_2.jpg,1.0,,,,A2OT9ZJC4MQBS8
908,83,,1.0,63.0,INCA_TERN_4.jpg,SMITHS_LONGSPUR_5.jpg,2.0,,,,A2OT9ZJC4MQBS8
909,84,,1.0,64.0,CERULEAN_WARBLER_1.jpg,AMERICAN_FLAMINGO_5.jpg,2.0,,,,A2OT9ZJC4MQBS8
910,20,,1.0,0.0,TASMANIAN_HEN_5.jpg,GREEN_BROADBILL_1.jpg,1.0,,,,A2PAWE1NW4MD8L
911,21,,1.0,1.0,RUFOUS_KINGFISHER_1.jpg,HORNED_SUNGEM_4.jpg,3.0,,,,A2PAWE1NW4MD8L
912,22,,1.0,2.0,GOLDEN_CHEEKED_WARBLER_2.jpg,WHITE_THROATED_BEE_EATER_1.jpg,3.0,,,,A2PAWE1NW4MD8L
913,23,,1.0,3.0,FLAME_BOWERBIRD_3.jpg,INDIAN_BUSTARD_2.jpg,1.0,,,,A2PAWE1NW4MD8L
914,24,,1.0,4.0,CASSOWARY_1.jpg,AFRICAN_OYSTER_CATCHER_2.jpg,3.0,,,,A2PAWE1NW4MD8L
915,25,,1.0,5.0,SHOEBILL_3.jpg,EASTERN_MEADOWLARK_1.jpg,1.0,,,,A2PAWE1NW4MD8L
916,26,,1.0,6.0,KILLDEAR_2.jpg,CAATINGA_CACHOLOTE_4.jpg,2.0,,,,A2PAWE1NW4MD8L
917,27,,1.0,7.0,ALPINE_CHOUGH_4.jpg,EUROPEAN_GOLDFINCH_3.jpg,2.0,,,,A2PAWE1NW4MD8L
918,28,,1.0,8.0,INDIGO_BUNTING_1.jpg,DARWINS_FLYCATCHER_2.jpg,3.0,,,,A2PAWE1NW4MD8L
919,29,,1.0,9.0,SCARLET_TANAGER_2.jpg,BORNEAN_LEAFBIRD_1.jpg,3.0,,,,A2PAWE1NW4MD8L
920,30,,1.0,10.0,OCELLATED_TURKEY_1.jpg,AMERICAN_PIPIT_1.jpg,2.0,,,,A2PAWE1NW4MD8L
921,31,,1.0,11.0,GRAY_KINGBIRD_5.jpg,AFRICAN_FIREFINCH_3.jpg,3.0,,,,A2PAWE1NW4MD8L
922,32,,1.0,12.0,OVENBIRD_5.jpg,SHORT_BILLED_DOWITCHER_5.jpg,3.0,,,,A2PAWE1NW4MD8L
923,33,right,1.0,13.0,right.jpg,,,right,1.008,,A2PAWE1NW4MD8L
924,34,,1.0,14.0,IVORY_GULL_3.jpg,FLAME_TANAGER_3.jpg,2.0,,,,A2PAWE1NW4MD8L
925,35,,1.0,15.0,NORTHERN_JACANA_3.jpg,AMERICAN_GOLDFINCH_4.jpg,1.0,,,,A2PAWE1NW4MD8L
926,36,left,1.0,16.0,left.jpg,,,left,1.029,,A2PAWE1NW4MD8L
927,37,,1.0,17.0,PINK_ROBIN_4.jpg,SPOONBILL_3.jpg,1.0,,,,A2PAWE1NW4MD8L
928,38,,1.0,18.0,LITTLE_AUK_5.jpg,ORANGE_BRESTED_BUNTING_3.jpg,2.0,,,,A2PAWE1NW4MD8L
929,39,,1.0,19.0,ASIAN_CRESTED_IBIS_4.jpg,IVORY_GULL_2.jpg,3.0,,,,A2PAWE1NW4MD8L
930,40,,1.0,20.0,IVORY_GULL_1.jpg,WILSONS_BIRD_OF_PARADISE_4.jpg,1.0,,,,A2PAWE1NW4MD8L
931,41,,1.0,21.0,BALI_STARLING_1.jpg,IBERIAN_MAGPIE_1.jpg,3.0,,,,A2PAWE1NW4MD8L
932,42,,1.0,22.0,ECUADORIAN_HILLSTAR_5.jpg,CRIMSON_SUNBIRD_5.jpg,3.0,,,,A2PAWE1NW4MD8L
933,43,,1.0,23.0,BROWN_THRASHER_3.jpg,OYSTER_CATCHER_4.jpg,2.0,,,,A2PAWE1NW4MD8L
934,44,,1.0,24.0,RED_HEADED_WOODPECKER_5.jpg,CRIMSON_CHAT_3.jpg,2.0,,,,A2PAWE1NW4MD8L
935,45,,1.0,25.0,KAGU_5.jpg,DEMOISELLE_CRANE_1.jpg,3.0,,,,A2PAWE1NW4MD8L
936,46,right,1.0,26.0,right.jpg,,,right,1.664,,A2PAWE1NW4MD8L
937,47,,1.0,27.0,BREWERS_BLACKBIRD_3.jpg,GUINEA_TURACO_3.jpg,1.0,,,,A2PAWE1NW4MD8L
938,48,,1.0,28.0,RUBY_THROATED_HUMMINGBIRD_1.jpg,BANANAQUIT_2.jpg,1.0,,,,A2PAWE1NW4MD8L
939,49,,1.0,29.0,ASIAN_DOLLARD_BIRD_2.jpg,LOGGERHEAD_SHRIKE_4.jpg,2.0,,,,A2PAWE1NW4MD8L
940,50,,1.0,30.0,RUBY_THROATED_HUMMINGBIRD_2.jpg,GOLDEN_CHLOROPHONIA_2.jpg,1.0,,,,A2PAWE1NW4MD8L
941,51,,1.0,31.0,PEACOCK_3.jpg,ANIANIAU_2.jpg,1.0,,,,A2PAWE1NW4MD8L
942,52,,1.0,32.0,BROWN_NOODY_3.jpg,SPANGLED_COTINGA_4.jpg,2.0,,,,A2PAWE1NW4MD8L
943,53,,1.0,33.0,MAGPIE_GOOSE_5.jpg,OYSTER_CATCHER_3.jpg,3.0,,,,A2PAWE1NW4MD8L
944,54,,1.0,34.0,EUROPEAN_TURTLE_DOVE_3.jpg,PAINTED_BUNTING_3.jpg,2.0,,,,A2PAWE1NW4MD8L
945,55,,1.0,35.0,LESSER_ADJUTANT_4.jpg,ALTAMIRA_YELLOWTHROAT_5.jpg,1.0,,,,A2PAWE1NW4MD8L
946,56,,1.0,36.0,AMERICAN_PIPIT_5.jpg,GREEN_MAGPIE_1.jpg,2.0,,,,A2PAWE1NW4MD8L
947,57,,1.0,37.0,STRIPPED_SWALLOW_1.jpg,DOUBLE_BRESTED_CORMARANT_4.jpg,1.0,,,,A2PAWE1NW4MD8L
948,58,,1.0,38.0,LARK_BUNTING_2.jpg,KING_VULTURE_3.jpg,2.0,,,,A2PAWE1NW4MD8L
949,59,,1.0,39.0,ARARIPE_MANAKIN_4.jpg,BLACK_VULTURE_1.jpg,2.0,,,,A2PAWE1NW4MD8L
950,60,,1.0,40.0,CASPIAN_TERN_1.jpg,COMMON_LOON_2.jpg,3.0,,,,A2PAWE1NW4MD8L
951,61,,1.0,41.0,LESSER_ADJUTANT_5.jpg,RED_HEADED_WOODPECKER_1.jpg,3.0,,,,A2PAWE1NW4MD8L
952,62,,1.0,42.0,CHUKAR_PARTRIDGE_5.jpg,RAZORBILL_1.jpg,2.0,,,,A2PAWE1NW4MD8L
953,63,,1.0,43.0,MALACHITE_KINGFISHER_2.jpg,GREEN_BROADBILL_5.jpg,3.0,,,,A2PAWE1NW4MD8L
954,64,right,1.0,44.0,right.jpg,,,right,2.082,,A2PAWE1NW4MD8L
955,65,,1.0,45.0,WHITE_CHEEKED_TURACO_5.jpg,PYGMY_KINGFISHER_2.jpg,3.0,,,,A2PAWE1NW4MD8L
956,66,,1.0,46.0,INCA_TERN_4.jpg,SMITHS_LONGSPUR_5.jpg,2.0,,,,A2PAWE1NW4MD8L
957,67,,1.0,47.0,GYRFALCON_1.jpg,OSTRICH_1.jpg,1.0,,,,A2PAWE1NW4MD8L
958,68,,1.0,48.0,DOUBLE_BRESTED_CORMARANT_5.jpg,GILDED_FLICKER_2.jpg,1.0,,,,A2PAWE1NW4MD8L
959,69,,1.0,49.0,CRESTED_NUTHATCH_2.jpg,AFRICAN_FIREFINCH_1.jpg,2.0,,,,A2PAWE1NW4MD8L
960,70,,1.0,50.0,GOLDEN_CHLOROPHONIA_5.jpg,ROADRUNNER_2.jpg,1.0,,,,A2PAWE1NW4MD8L
961,71,,1.0,51.0,VERMILION_FLYCATHER_3.jpg,RED_BEARDED_BEE_EATER_1.jpg,3.0,,,,A2PAWE1NW4MD8L
962,72,,1.0,52.0,MYNA_1.jpg,PARADISE_TANAGER_3.jpg,3.0,,,,A2PAWE1NW4MD8L
963,73,,1.0,53.0,CRESTED_CARACARA_4.jpg,INDIAN_PITTA_2.jpg,2.0,,,,A2PAWE1NW4MD8L
964,74,left,1.0,54.0,left.jpg,,,left,2.204,,A2PAWE1NW4MD8L
965,75,,1.0,55.0,INLAND_DOTTEREL_4.jpg,CRESTED_KINGFISHER_1.jpg,3.0,,,,A2PAWE1NW4MD8L
966,76,,1.0,56.0,GREY_PLOVER_1.jpg,GOULDIAN_FINCH_4.jpg,2.0,,,,A2PAWE1NW4MD8L
967,77,,1.0,57.0,CERULEAN_WARBLER_1.jpg,AMERICAN_FLAMINGO_5.jpg,2.0,,,,A2PAWE1NW4MD8L
968,78,,1.0,58.0,HAWAIIAN_GOOSE_4.jpg,CUBAN_TODY_3.jpg,1.0,,,,A2PAWE1NW4MD8L
969,79,,1.0,59.0,RUBY_THROATED_HUMMINGBIRD_3.jpg,MALAGASY_WHITE_EYE_2.jpg,1.0,,,,A2PAWE1NW4MD8L
970,80,,1.0,60.0,PYGMY_KINGFISHER_5.jpg,GRANDALA_2.jpg,1.0,,,,A2PAWE1NW4MD8L
971,81,,1.0,61.0,SPLENDID_WREN_1.jpg,POMARINE_JAEGER_5.jpg,1.0,,,,A2PAWE1NW4MD8L
972,82,,1.0,62.0,PARUS_MAJOR_1.jpg,SANDHILL_CRANE_4.jpg,1.0,,,,A2PAWE1NW4MD8L
973,83,,1.0,63.0,AFRICAN_PIED_HORNBILL_5.jpg,ALEXANDRINE_PARAKEET_1.jpg,2.0,,,,A2PAWE1NW4MD8L
974,84,,1.0,64.0,EASTERN_TOWEE_2.jpg,NORTHERN_BEARDLESS_TYRANNULET_5.jpg,3.0,,,,A2PAWE1NW4MD8L
975,20,,1.0,0.0,PINK_ROBIN_4.jpg,SPOONBILL_3.jpg,1.0,,,,A2RSBH1E3TEESG
976,21,,1.0,1.0,LITTLE_AUK_5.jpg,BEARDED_BELLBIRD_1.jpg,3.0,,,,A2RSBH1E3TEESG
977,22,,1.0,2.0,CRESTED_NUTHATCH_2.jpg,CANARY_1.jpg,3.0,,,,A2RSBH1E3TEESG
978,23,,1.0,3.0,PARUS_MAJOR_1.jpg,CALIFORNIA_GULL_2.jpg,2.0,,,,A2RSBH1E3TEESG
979,24,,1.0,4.0,IVORY_GULL_1.jpg,FAIRY_TERN_4.jpg,3.0,,,,A2RSBH1E3TEESG
980,25,,1.0,5.0,WHITE_CHEEKED_TURACO_5.jpg,GREAT_POTOO_3.jpg,2.0,,,,A2RSBH1E3TEESG
981,26,,1.0,6.0,SPLENDID_WREN_1.jpg,DOUBLE_BRESTED_CORMARANT_1.jpg,2.0,,,,A2RSBH1E3TEESG
982,27,,1.0,7.0,IVORY_GULL_3.jpg,SNOWY_EGRET_4.jpg,3.0,,,,A2RSBH1E3TEESG
983,28,right,1.0,8.0,right.jpg,,,right,1.2189,,A2RSBH1E3TEESG
984,29,,1.0,9.0,ECUADORIAN_HILLSTAR_5.jpg,CRIMSON_SUNBIRD_5.jpg,3.0,,,,A2RSBH1E3TEESG
985,30,,1.0,10.0,CERULEAN_WARBLER_1.jpg,AMERICAN_FLAMINGO_2.jpg,1.0,,,,A2RSBH1E3TEESG
986,31,,1.0,11.0,OVENBIRD_5.jpg,MYNA_4.jpg,1.0,,,,A2RSBH1E3TEESG
987,32,,1.0,12.0,CHUKAR_PARTRIDGE_5.jpg,OSTRICH_5.jpg,1.0,,,,A2RSBH1E3TEESG
988,33,,1.0,13.0,CASSOWARY_1.jpg,SCARLET_MACAW_1.jpg,2.0,,,,A2RSBH1E3TEESG
989,34,,1.0,14.0,AMERICAN_PIPIT_5.jpg,GREEN_MAGPIE_1.jpg,2.0,,,,A2RSBH1E3TEESG
990,35,,1.0,15.0,OCELLATED_TURKEY_1.jpg,AMERICAN_PIPIT_1.jpg,2.0,,,,A2RSBH1E3TEESG
991,36,,1.0,16.0,EUROPEAN_TURTLE_DOVE_3.jpg,TEAL_DUCK_2.jpg,1.0,,,,A2RSBH1E3TEESG
992,37,,1.0,17.0,BROWN_NOODY_3.jpg,SPANGLED_COTINGA_4.jpg,2.0,,,,A2RSBH1E3TEESG
993,38,,1.0,18.0,BREWERS_BLACKBIRD_3.jpg,CAPE_LONGCLAW_2.jpg,3.0,,,,A2RSBH1E3TEESG
994,39,,1.0,19.0,GRAY_KINGBIRD_5.jpg,AFRICAN_FIREFINCH_3.jpg,3.0,,,,A2RSBH1E3TEESG
995,40,,1.0,20.0,GREY_PLOVER_1.jpg,HYACINTH_MACAW_3.jpg,1.0,,,,A2RSBH1E3TEESG
996,41,,1.0,21.0,LARK_BUNTING_2.jpg,PEACOCK_1.jpg,1.0,,,,A2RSBH1E3TEESG
997,42,right,1.0,22.0,right.jpg,,,right,1.1595,,A2RSBH1E3TEESG
998,43,,1.0,23.0,RUBY_THROATED_HUMMINGBIRD_2.jpg,APAPANE_4.jpg,2.0,,,,A2RSBH1E3TEESG
999,44,,1.0,24.0,NORTHERN_JACANA_3.jpg,CRAB_PLOVER_3.jpg,2.0,,,,A2RSBH1E3TEESG
1000,45,,1.0,25.0,RUBY_THROATED_HUMMINGBIRD_1.jpg,BANANAQUIT_2.jpg,1.0,,,,A2RSBH1E3TEESG
1001,46,left,1.0,26.0,left.jpg,,,left,1.3492,,A2RSBH1E3TEESG
1002,47,,1.0,27.0,AFRICAN_PIED_HORNBILL_5.jpg,KIWI_4.jpg,1.0,,,,A2RSBH1E3TEESG
1003,48,,1.0,28.0,GOLDEN_CHLOROPHONIA_5.jpg,COMMON_HOUSE_MARTIN_4.jpg,2.0,,,,A2RSBH1E3TEESG
1004,49,,1.0,29.0,RUFOUS_KINGFISHER_1.jpg,MAGPIE_GOOSE_3.jpg,2.0,,,,A2RSBH1E3TEESG
1005,50,,1.0,30.0,CRESTED_CARACARA_4.jpg,TOUCHAN_4.jpg,3.0,,,,A2RSBH1E3TEESG
1006,51,,1.0,31.0,INCA_TERN_4.jpg,SMITHS_LONGSPUR_5.jpg,2.0,,,,A2RSBH1E3TEESG
1007,52,,1.0,32.0,KAGU_5.jpg,ASHY_STORM_PETREL_1.jpg,2.0,,,,A2RSBH1E3TEESG
1008,53,,1.0,33.0,DOUBLE_BRESTED_CORMARANT_5.jpg,CHINESE_POND_HERON_2.jpg,3.0,,,,A2RSBH1E3TEESG
1009,54,,1.0,34.0,LESSER_ADJUTANT_5.jpg,RED_HEADED_WOODPECKER_1.jpg,3.0,,,,A2RSBH1E3TEESG
1010,55,,1.0,35.0,INLAND_DOTTEREL_4.jpg,CRESTED_KINGFISHER_1.jpg,3.0,,,,A2RSBH1E3TEESG
1011,56,,1.0,36.0,ARARIPE_MANAKIN_4.jpg,BLACK_VULTURE_1.jpg,2.0,,,,A2RSBH1E3TEESG
1012,57,,1.0,37.0,VERMILION_FLYCATHER_3.jpg,INDIAN_BUSTARD_1.jpg,1.0,,,,A2RSBH1E3TEESG
1013,58,,1.0,38.0,GYRFALCON_1.jpg,FAIRY_TERN_1.jpg,3.0,,,,A2RSBH1E3TEESG
1014,59,,1.0,39.0,ALPINE_CHOUGH_4.jpg,BOBOLINK_3.jpg,3.0,,,,A2RSBH1E3TEESG
1015,60,right,1.0,40.0,right.jpg,,,right,1.1987,,A2RSBH1E3TEESG
1016,61,,1.0,41.0,SCARLET_TANAGER_2.jpg,BORNEAN_LEAFBIRD_1.jpg,3.0,,,,A2RSBH1E3TEESG
1017,62,,1.0,42.0,MYNA_1.jpg,GREY_PLOVER_4.jpg,2.0,,,,A2RSBH1E3TEESG
1018,63,,1.0,43.0,MAGPIE_GOOSE_5.jpg,DOUBLE_EYED_FIG_PARROT_5.jpg,1.0,,,,A2RSBH1E3TEESG
1019,64,,1.0,44.0,LESSER_ADJUTANT_4.jpg,RAINBOW_LORIKEET_5.jpg,2.0,,,,A2RSBH1E3TEESG
1020,65,,1.0,45.0,RED_HEADED_WOODPECKER_5.jpg,ASHY_STORM_PETREL_2.jpg,1.0,,,,A2RSBH1E3TEESG
1021,66,,1.0,46.0,KILLDEAR_2.jpg,PEACOCK_5.jpg,1.0,,,,A2RSBH1E3TEESG
1022,67,,1.0,47.0,INDIGO_BUNTING_1.jpg,NORTHERN_GANNET_1.jpg,2.0,,,,A2RSBH1E3TEESG
1023,68,,1.0,48.0,BALI_STARLING_1.jpg,IBERIAN_MAGPIE_1.jpg,3.0,,,,A2RSBH1E3TEESG
1024,69,,1.0,49.0,GOLDEN_CHEEKED_WARBLER_2.jpg,SPOONBILL_1.jpg,1.0,,,,A2RSBH1E3TEESG
1025,70,,1.0,50.0,SHOEBILL_3.jpg,BALD_EAGLE_5.jpg,3.0,,,,A2RSBH1E3TEESG
1026,71,left,1.0,51.0,left.jpg,,,left,1.1992,,A2RSBH1E3TEESG
1027,72,,1.0,52.0,CASPIAN_TERN_1.jpg,COMMON_LOON_2.jpg,3.0,,,,A2RSBH1E3TEESG
1028,73,,1.0,53.0,STRIPPED_SWALLOW_1.jpg,GO_AWAY_BIRD_5.jpg,3.0,,,,A2RSBH1E3TEESG
1029,74,,1.0,54.0,EASTERN_TOWEE_2.jpg,GOLDEN_CHLOROPHONIA_1.jpg,2.0,,,,A2RSBH1E3TEESG
1030,75,,1.0,55.0,TASMANIAN_HEN_5.jpg,AFRICAN_EMERALD_CUCKOO_5.jpg,2.0,,,,A2RSBH1E3TEESG
1031,76,,1.0,56.0,HAWAIIAN_GOOSE_4.jpg,CUBAN_TODY_3.jpg,1.0,,,,A2RSBH1E3TEESG
1032,77,,1.0,57.0,PYGMY_KINGFISHER_5.jpg,GRANDALA_2.jpg,1.0,,,,A2RSBH1E3TEESG
1033,78,,1.0,58.0,BROWN_THRASHER_3.jpg,OYSTER_CATCHER_4.jpg,2.0,,,,A2RSBH1E3TEESG
1034,79,,1.0,59.0,FLAME_BOWERBIRD_3.jpg,INDIAN_BUSTARD_2.jpg,1.0,,,,A2RSBH1E3TEESG
1035,80,,1.0,60.0,RUBY_THROATED_HUMMINGBIRD_3.jpg,NORTHERN_SHOVELER_1.jpg,3.0,,,,A2RSBH1E3TEESG
1036,81,,1.0,61.0,MALACHITE_KINGFISHER_2.jpg,AMERICAN_FLAMINGO_1.jpg,1.0,,,,A2RSBH1E3TEESG
1037,82,,1.0,62.0,ASIAN_DOLLARD_BIRD_2.jpg,VIOLET_GREEN_SWALLOW_4.jpg,3.0,,,,A2RSBH1E3TEESG
1038,83,,1.0,63.0,PEACOCK_3.jpg,ANIANIAU_2.jpg,1.0,,,,A2RSBH1E3TEESG
1039,84,,1.0,64.0,ASIAN_CRESTED_IBIS_4.jpg,CANARY_2.jpg,1.0,,,,A2RSBH1E3TEESG
1040,20,,1.0,0.0,RUBY_THROATED_HUMMINGBIRD_1.jpg,VULTURINE_GUINEAFOWL_4.jpg,2.0,,,,A2RWLFIP23FZA7
1041,21,,1.0,1.0,ASIAN_DOLLARD_BIRD_2.jpg,ALBATROSS_2.jpg,1.0,,,,A2RWLFIP23FZA7
1042,22,,1.0,2.0,LARK_BUNTING_2.jpg,CACTUS_WREN_3.jpg,3.0,,,,A2RWLFIP23FZA7
1043,23,,1.0,3.0,KAGU_5.jpg,DEMOISELLE_CRANE_1.jpg,3.0,,,,A2RWLFIP23FZA7
1044,24,,1.0,4.0,DOUBLE_BRESTED_CORMARANT_5.jpg,CHINESE_POND_HERON_2.jpg,3.0,,,,A2RWLFIP23FZA7
1045,25,,1.0,5.0,RUBY_THROATED_HUMMINGBIRD_2.jpg,GOLDEN_CHLOROPHONIA_2.jpg,1.0,,,,A2RWLFIP23FZA7
1046,26,left,1.0,6.0,left.jpg,,,left,0.704,,A2RWLFIP23FZA7
1047,27,,1.0,7.0,SCARLET_TANAGER_2.jpg,BEARDED_BARBET_2.jpg,1.0,,,,A2RWLFIP23FZA7
1048,28,,1.0,8.0,PEACOCK_3.jpg,ANIANIAU_2.jpg,1.0,,,,A2RWLFIP23FZA7
1049,29,,1.0,9.0,VERMILION_FLYCATHER_3.jpg,INDIAN_BUSTARD_1.jpg,1.0,,,,A2RWLFIP23FZA7
1050,30,,1.0,10.0,HAWAIIAN_GOOSE_4.jpg,CUBAN_TODY_3.jpg,1.0,,,,A2RWLFIP23FZA7
1051,31,,1.0,11.0,INLAND_DOTTEREL_4.jpg,NICOBAR_PIGEON_4.jpg,2.0,,,,A2RWLFIP23FZA7
1052,32,,1.0,12.0,ARARIPE_MANAKIN_4.jpg,BLACK_VULTURE_1.jpg,2.0,,,,A2RWLFIP23FZA7
1053,33,,1.0,13.0,KILLDEAR_2.jpg,AZURE_TIT_5.jpg,3.0,,,,A2RWLFIP23FZA7
1054,34,,1.0,14.0,CASSOWARY_1.jpg,SCARLET_MACAW_1.jpg,2.0,,,,A2RWLFIP23FZA7
1055,35,,1.0,15.0,SPLENDID_WREN_1.jpg,CUBAN_TODY_4.jpg,3.0,,,,A2RWLFIP23FZA7
1056,36,left,1.0,16.0,left.jpg,,,left,0.544,,A2RWLFIP23FZA7
1057,37,,1.0,17.0,CRESTED_NUTHATCH_2.jpg,SCARLET_IBIS_3.jpg,1.0,,,,A2RWLFIP23FZA7
1058,38,,1.0,18.0,INDIGO_BUNTING_1.jpg,DARWINS_FLYCATCHER_2.jpg,3.0,,,,A2RWLFIP23FZA7
1059,39,,1.0,19.0,PYGMY_KINGFISHER_5.jpg,GRANDALA_2.jpg,1.0,,,,A2RWLFIP23FZA7
1060,40,,1.0,20.0,FLAME_BOWERBIRD_3.jpg,BROWN_THRASHER_4.jpg,2.0,,,,A2RWLFIP23FZA7
1061,41,,1.0,21.0,IVORY_GULL_3.jpg,FLAME_TANAGER_3.jpg,2.0,,,,A2RWLFIP23FZA7
1062,42,,1.0,22.0,WHITE_CHEEKED_TURACO_5.jpg,GREAT_POTOO_3.jpg,2.0,,,,A2RWLFIP23FZA7
1063,43,,1.0,23.0,AMERICAN_PIPIT_5.jpg,HEPATIC_TANAGER_5.jpg,3.0,,,,A2RWLFIP23FZA7
1064,44,,1.0,24.0,PARUS_MAJOR_1.jpg,CALIFORNIA_GULL_2.jpg,2.0,,,,A2RWLFIP23FZA7
1065,45,,1.0,25.0,ALPINE_CHOUGH_4.jpg,SNOWY_EGRET_2.jpg,1.0,,,,A2RWLFIP23FZA7
1066,46,,1.0,26.0,GOLDEN_CHLOROPHONIA_5.jpg,VERMILION_FLYCATHER_5.jpg,3.0,,,,A2RWLFIP23FZA7
1067,47,,1.0,27.0,OCELLATED_TURKEY_1.jpg,AMERICAN_PIPIT_1.jpg,2.0,,,,A2RWLFIP23FZA7
1068,48,,1.0,28.0,SHOEBILL_3.jpg,GILDED_FLICKER_5.jpg,2.0,,,,A2RWLFIP23FZA7
1069,49,,1.0,29.0,CHUKAR_PARTRIDGE_5.jpg,BLACK_THROATED_BUSHTIT_1.jpg,3.0,,,,A2RWLFIP23FZA7
1070,50,,1.0,30.0,NORTHERN_JACANA_3.jpg,SCARLET_IBIS_4.jpg,3.0,,,,A2RWLFIP23FZA7
1071,51,,1.0,31.0,OVENBIRD_5.jpg,MYNA_4.jpg,1.0,,,,A2RWLFIP23FZA7
1072,52,,1.0,32.0,GOLDEN_CHEEKED_WARBLER_2.jpg,SPOONBILL_1.jpg,1.0,,,,A2RWLFIP23FZA7
1073,53,right,1.0,33.0,right.jpg,,,right,0.524,,A2RWLFIP23FZA7
1074,54,,1.0,34.0,IVORY_GULL_1.jpg,FAIRY_TERN_4.jpg,3.0,,,,A2RWLFIP23FZA7
1075,55,,1.0,35.0,ECUADORIAN_HILLSTAR_5.jpg,SCARLET_IBIS_2.jpg,1.0,,,,A2RWLFIP23FZA7
1076,56,,1.0,36.0,MYNA_1.jpg,OSTRICH_3.jpg,1.0,,,,A2RWLFIP23FZA7
1077,57,,1.0,37.0,RUFOUS_KINGFISHER_1.jpg,MAGPIE_GOOSE_3.jpg,2.0,,,,A2RWLFIP23FZA7
1078,58,,1.0,38.0,MAGPIE_GOOSE_5.jpg,DOUBLE_EYED_FIG_PARROT_5.jpg,1.0,,,,A2RWLFIP23FZA7
1079,59,,1.0,39.0,GRAY_KINGBIRD_5.jpg,BALD_EAGLE_2.jpg,1.0,,,,A2RWLFIP23FZA7
1080,60,right,1.0,40.0,right.jpg,,,right,0.565,,A2RWLFIP23FZA7
1081,61,,1.0,41.0,MALACHITE_KINGFISHER_2.jpg,AMERICAN_FLAMINGO_1.jpg,1.0,,,,A2RWLFIP23FZA7
1082,62,,1.0,42.0,EASTERN_TOWEE_2.jpg,SANDHILL_CRANE_2.jpg,1.0,,,,A2RWLFIP23FZA7
1083,63,,1.0,43.0,TASMANIAN_HEN_5.jpg,COPPERY_TAILED_COUCAL_1.jpg,3.0,,,,A2RWLFIP23FZA7
1084,64,,1.0,44.0,BREWERS_BLACKBIRD_3.jpg,GOLDEN_CHEEKED_WARBLER_3.jpg,2.0,,,,A2RWLFIP23FZA7
1085,65,,1.0,45.0,LITTLE_AUK_5.jpg,BEARDED_BELLBIRD_1.jpg,3.0,,,,A2RWLFIP23FZA7
1086,66,,1.0,46.0,CASPIAN_TERN_1.jpg,GREAT_GRAY_OWL_4.jpg,1.0,,,,A2RWLFIP23FZA7
1087,67,,1.0,47.0,RED_HEADED_WOODPECKER_5.jpg,COLLARED_ARACARI_1.jpg,3.0,,,,A2RWLFIP23FZA7
1088,68,right,1.0,48.0,right.jpg,,,right,0.48,,A2RWLFIP23FZA7
1089,69,,1.0,49.0,BROWN_THRASHER_3.jpg,OYSTER_CATCHER_4.jpg,2.0,,,,A2RWLFIP23FZA7
1090,70,,1.0,50.0,GYRFALCON_1.jpg,FAIRY_TERN_1.jpg,3.0,,,,A2RWLFIP23FZA7
1091,71,,1.0,51.0,CERULEAN_WARBLER_1.jpg,BANANAQUIT_1.jpg,3.0,,,,A2RWLFIP23FZA7
1092,72,,1.0,52.0,GREY_PLOVER_1.jpg,HYACINTH_MACAW_3.jpg,1.0,,,,A2RWLFIP23FZA7
1093,73,,1.0,53.0,PINK_ROBIN_4.jpg,COMMON_IORA_4.jpg,3.0,,,,A2RWLFIP23FZA7
1094,74,,1.0,54.0,LESSER_ADJUTANT_5.jpg,GAMBELS_QUAIL_1.jpg,2.0,,,,A2RWLFIP23FZA7
1095,75,,1.0,55.0,CRESTED_CARACARA_4.jpg,INDIAN_PITTA_2.jpg,2.0,,,,A2RWLFIP23FZA7
1096,76,,1.0,56.0,AFRICAN_PIED_HORNBILL_5.jpg,CAPUCHINBIRD_2.jpg,3.0,,,,A2RWLFIP23FZA7
1097,77,,1.0,57.0,EUROPEAN_TURTLE_DOVE_3.jpg,PAINTED_BUNTING_3.jpg,2.0,,,,A2RWLFIP23FZA7
1098,78,,1.0,58.0,LESSER_ADJUTANT_4.jpg,FAIRY_TERN_3.jpg,3.0,,,,A2RWLFIP23FZA7
1099,79,,1.0,59.0,RUBY_THROATED_HUMMINGBIRD_3.jpg,NORTHERN_SHOVELER_1.jpg,3.0,,,,A2RWLFIP23FZA7
1100,80,,1.0,60.0,INCA_TERN_4.jpg,SMITHS_LONGSPUR_5.jpg,2.0,,,,A2RWLFIP23FZA7
1101,81,,1.0,61.0,BALI_STARLING_1.jpg,CAPE_LONGCLAW_5.jpg,1.0,,,,A2RWLFIP23FZA7
1102,82,,1.0,62.0,ASIAN_CRESTED_IBIS_4.jpg,OYSTER_CATCHER_2.jpg,2.0,,,,A2RWLFIP23FZA7
1103,83,,1.0,63.0,STRIPPED_SWALLOW_1.jpg,MAGPIE_GOOSE_4.jpg,2.0,,,,A2RWLFIP23FZA7
1104,84,,1.0,64.0,BROWN_NOODY_3.jpg,SPANGLED_COTINGA_4.jpg,2.0,,,,A2RWLFIP23FZA7
1105,20,,1.0,0.0,AMERICAN_PIPIT_5.jpg,EMU_2.jpg,1.0,,,,A30RAYNDOWQ61S
1106,21,,1.0,1.0,RUBY_THROATED_HUMMINGBIRD_3.jpg,MYNA_5.jpg,2.0,,,,A30RAYNDOWQ61S
1107,22,,1.0,2.0,RUFOUS_KINGFISHER_1.jpg,HORNED_SUNGEM_4.jpg,3.0,,,,A30RAYNDOWQ61S
1108,23,,1.0,3.0,OVENBIRD_5.jpg,FAIRY_PENGUIN_1.jpg,2.0,,,,A30RAYNDOWQ61S
1109,24,,1.0,4.0,PARUS_MAJOR_1.jpg,SANDHILL_CRANE_4.jpg,1.0,,,,A30RAYNDOWQ61S
1110,25,,1.0,5.0,BREWERS_BLACKBIRD_3.jpg,GUINEA_TURACO_3.jpg,1.0,,,,A30RAYNDOWQ61S
1111,26,,1.0,6.0,GYRFALCON_1.jpg,OSTRICH_1.jpg,1.0,,,,A30RAYNDOWQ61S
1112,27,right,1.0,7.0,right.jpg,,,right,0.5279,,A30RAYNDOWQ61S
1113,28,,1.0,8.0,IVORY_GULL_3.jpg,FLAME_TANAGER_3.jpg,2.0,,,,A30RAYNDOWQ61S
1114,29,,1.0,9.0,INDIGO_BUNTING_1.jpg,FRIGATE_4.jpg,1.0,,,,A30RAYNDOWQ61S
1115,30,,1.0,10.0,RUBY_THROATED_HUMMINGBIRD_1.jpg,FRIGATE_1.jpg,3.0,,,,A30RAYNDOWQ61S
1116,31,,1.0,11.0,GREY_PLOVER_1.jpg,ECUADORIAN_HILLSTAR_3.jpg,3.0,,,,A30RAYNDOWQ61S
1117,32,,1.0,12.0,SHOEBILL_3.jpg,BALD_EAGLE_5.jpg,3.0,,,,A30RAYNDOWQ61S
1118,33,,1.0,13.0,KILLDEAR_2.jpg,AZURE_TIT_5.jpg,3.0,,,,A30RAYNDOWQ61S
1119,34,,1.0,14.0,MAGPIE_GOOSE_5.jpg,OYSTER_CATCHER_3.jpg,3.0,,,,A30RAYNDOWQ61S
1120,35,,1.0,15.0,RED_HEADED_WOODPECKER_5.jpg,COLLARED_ARACARI_1.jpg,3.0,,,,A30RAYNDOWQ61S
1121,36,,1.0,16.0,NORTHERN_JACANA_3.jpg,CRAB_PLOVER_3.jpg,2.0,,,,A30RAYNDOWQ61S
1122,37,,1.0,17.0,INCA_TERN_4.jpg,SMITHS_LONGSPUR_5.jpg,2.0,,,,A30RAYNDOWQ61S
1123,38,right,1.0,18.0,right.jpg,,,right,0.6942,,A30RAYNDOWQ61S
1124,39,,1.0,19.0,LESSER_ADJUTANT_4.jpg,FAIRY_TERN_3.jpg,3.0,,,,A30RAYNDOWQ61S
1125,40,,1.0,20.0,OCELLATED_TURKEY_1.jpg,CHIPPING_SPARROW_1.jpg,1.0,,,,A30RAYNDOWQ61S
1126,41,,1.0,21.0,LARK_BUNTING_2.jpg,PEACOCK_1.jpg,1.0,,,,A30RAYNDOWQ61S
1127,42,,1.0,22.0,CRESTED_NUTHATCH_2.jpg,AFRICAN_FIREFINCH_1.jpg,2.0,,,,A30RAYNDOWQ61S
1128,43,,1.0,23.0,ASIAN_DOLLARD_BIRD_2.jpg,LOGGERHEAD_SHRIKE_4.jpg,2.0,,,,A30RAYNDOWQ61S
1129,44,,1.0,24.0,EUROPEAN_TURTLE_DOVE_3.jpg,MALABAR_HORNBILL_2.jpg,3.0,,,,A30RAYNDOWQ61S
1130,45,,1.0,25.0,GOLDEN_CHEEKED_WARBLER_2.jpg,SPOONBILL_1.jpg,1.0,,,,A30RAYNDOWQ61S
1131,46,,1.0,26.0,EASTERN_TOWEE_2.jpg,SANDHILL_CRANE_2.jpg,1.0,,,,A30RAYNDOWQ61S
1132,47,,1.0,27.0,AFRICAN_PIED_HORNBILL_5.jpg,ALEXANDRINE_PARAKEET_1.jpg,2.0,,,,A30RAYNDOWQ61S
1133,48,,1.0,28.0,CHUKAR_PARTRIDGE_5.jpg,OSTRICH_5.jpg,1.0,,,,A30RAYNDOWQ61S
1134,49,,1.0,29.0,BALI_STARLING_1.jpg,PURPLE_FINCH_2.jpg,2.0,,,,A30RAYNDOWQ61S
1135,50,,1.0,30.0,ALPINE_CHOUGH_4.jpg,BOBOLINK_3.jpg,3.0,,,,A30RAYNDOWQ61S
1136,51,,1.0,31.0,CASPIAN_TERN_1.jpg,EUROPEAN_GOLDFINCH_4.jpg,2.0,,,,A30RAYNDOWQ61S
1137,52,right,1.0,32.0,right.jpg,,,right,0.5029,,A30RAYNDOWQ61S
1138,53,,1.0,33.0,GRAY_KINGBIRD_5.jpg,BALD_EAGLE_2.jpg,1.0,,,,A30RAYNDOWQ61S
1139,54,,1.0,34.0,INLAND_DOTTEREL_4.jpg,NICOBAR_PIGEON_4.jpg,2.0,,,,A30RAYNDOWQ61S
1140,55,,1.0,35.0,ECUADORIAN_HILLSTAR_5.jpg,CRIMSON_SUNBIRD_5.jpg,3.0,,,,A30RAYNDOWQ61S
1141,56,,1.0,36.0,ASIAN_CRESTED_IBIS_4.jpg,OYSTER_CATCHER_2.jpg,2.0,,,,A30RAYNDOWQ61S
1142,57,,1.0,37.0,PYGMY_KINGFISHER_5.jpg,DOUBLE_EYED_FIG_PARROT_4.jpg,3.0,,,,A30RAYNDOWQ61S
1143,58,left,1.0,38.0,left.jpg,,,left,0.5701,,A30RAYNDOWQ61S
1144,59,,1.0,39.0,LITTLE_AUK_5.jpg,SANDHILL_CRANE_3.jpg,1.0,,,,A30RAYNDOWQ61S
1145,60,,1.0,40.0,PINK_ROBIN_4.jpg,COMMON_IORA_4.jpg,3.0,,,,A30RAYNDOWQ61S
1146,61,,1.0,41.0,SPLENDID_WREN_1.jpg,POMARINE_JAEGER_5.jpg,1.0,,,,A30RAYNDOWQ61S
1147,62,,1.0,42.0,STRIPPED_SWALLOW_1.jpg,DOUBLE_BRESTED_CORMARANT_4.jpg,1.0,,,,A30RAYNDOWQ61S
1148,63,,1.0,43.0,TASMANIAN_HEN_5.jpg,AFRICAN_EMERALD_CUCKOO_5.jpg,2.0,,,,A30RAYNDOWQ61S
1149,64,,1.0,44.0,CRESTED_CARACARA_4.jpg,INDIAN_PITTA_2.jpg,2.0,,,,A30RAYNDOWQ61S
1150,65,,1.0,45.0,FLAME_BOWERBIRD_3.jpg,BROWN_THRASHER_4.jpg,2.0,,,,A30RAYNDOWQ61S
1151,66,,1.0,46.0,MYNA_1.jpg,PARADISE_TANAGER_3.jpg,3.0,,,,A30RAYNDOWQ61S
1152,67,,1.0,47.0,CASSOWARY_1.jpg,SCARLET_MACAW_1.jpg,2.0,,,,A30RAYNDOWQ61S
1153,68,,1.0,48.0,MALACHITE_KINGFISHER_2.jpg,AMERICAN_FLAMINGO_1.jpg,1.0,,,,A30RAYNDOWQ61S
1154,69,,1.0,49.0,IVORY_GULL_1.jpg,FAIRY_TERN_4.jpg,3.0,,,,A30RAYNDOWQ61S
1155,70,,1.0,50.0,DOUBLE_BRESTED_CORMARANT_5.jpg,EURASIAN_MAGPIE_4.jpg,2.0,,,,A30RAYNDOWQ61S
1156,71,left,1.0,51.0,left.jpg,,,left,0.57,,A30RAYNDOWQ61S
1157,72,,1.0,52.0,SCARLET_TANAGER_2.jpg,NORTHERN_GANNET_2.jpg,2.0,,,,A30RAYNDOWQ61S
1158,73,,1.0,53.0,VERMILION_FLYCATHER_3.jpg,INDIAN_BUSTARD_1.jpg,1.0,,,,A30RAYNDOWQ61S
1159,74,,1.0,54.0,WHITE_CHEEKED_TURACO_5.jpg,NORTHERN_MOCKINGBIRD_4.jpg,1.0,,,,A30RAYNDOWQ61S
1160,75,,1.0,55.0,BROWN_THRASHER_3.jpg,BLACK_BAZA_4.jpg,3.0,,,,A30RAYNDOWQ61S
1161,76,,1.0,56.0,GOLDEN_CHLOROPHONIA_5.jpg,ROADRUNNER_2.jpg,1.0,,,,A30RAYNDOWQ61S
1162,77,,1.0,57.0,PEACOCK_3.jpg,ANIANIAU_2.jpg,1.0,,,,A30RAYNDOWQ61S
1163,78,,1.0,58.0,RUBY_THROATED_HUMMINGBIRD_2.jpg,GOLDEN_CHLOROPHONIA_2.jpg,1.0,,,,A30RAYNDOWQ61S
1164,79,,1.0,59.0,HAWAIIAN_GOOSE_4.jpg,WATTLED_LAPWING_3.jpg,3.0,,,,A30RAYNDOWQ61S
1165,80,,1.0,60.0,LESSER_ADJUTANT_5.jpg,RED_HEADED_WOODPECKER_1.jpg,3.0,,,,A30RAYNDOWQ61S
1166,81,,1.0,61.0,BROWN_NOODY_3.jpg,GUINEA_TURACO_5.jpg,3.0,,,,A30RAYNDOWQ61S
1167,82,,1.0,62.0,ARARIPE_MANAKIN_4.jpg,BLACK_VULTURE_1.jpg,2.0,,,,A30RAYNDOWQ61S
1168,83,,1.0,63.0,KAGU_5.jpg,ASHY_STORM_PETREL_1.jpg,2.0,,,,A30RAYNDOWQ61S
1169,84,,1.0,64.0,CERULEAN_WARBLER_1.jpg,BANANAQUIT_1.jpg,3.0,,,,A30RAYNDOWQ61S
1170,20,,1.0,0.0,AMERICAN_PIPIT_5.jpg,HEPATIC_TANAGER_5.jpg,3.0,,,,A34LSCB90T5KYE
1171,21,,1.0,1.0,CRESTED_CARACARA_4.jpg,FAIRY_PENGUIN_5.jpg,1.0,,,,A34LSCB90T5KYE
1172,22,,1.0,2.0,NORTHERN_JACANA_3.jpg,CRAB_PLOVER_3.jpg,2.0,,,,A34LSCB90T5KYE
1173,23,,1.0,3.0,SHOEBILL_3.jpg,EASTERN_MEADOWLARK_1.jpg,1.0,,,,A34LSCB90T5KYE
1174,24,,1.0,4.0,ASIAN_DOLLARD_BIRD_2.jpg,ALBATROSS_2.jpg,1.0,,,,A34LSCB90T5KYE
1175,25,,1.0,5.0,CRESTED_NUTHATCH_2.jpg,CANARY_1.jpg,3.0,,,,A34LSCB90T5KYE
1176,26,,1.0,6.0,RUBY_THROATED_HUMMINGBIRD_3.jpg,MALAGASY_WHITE_EYE_2.jpg,1.0,,,,A34LSCB90T5KYE
1177,27,,1.0,7.0,RUBY_THROATED_HUMMINGBIRD_2.jpg,DUSKY_ROBIN_5.jpg,3.0,,,,A34LSCB90T5KYE
1178,28,,1.0,8.0,RED_HEADED_WOODPECKER_5.jpg,CRIMSON_CHAT_3.jpg,2.0,,,,A34LSCB90T5KYE
1179,29,,1.0,9.0,GOLDEN_CHEEKED_WARBLER_2.jpg,WHITE_THROATED_BEE_EATER_1.jpg,3.0,,,,A34LSCB90T5KYE
1180,30,,1.0,10.0,BROWN_NOODY_3.jpg,SPANGLED_COTINGA_4.jpg,2.0,,,,A34LSCB90T5KYE
1181,31,left,1.0,11.0,left.jpg,,,left,0.5843,,A34LSCB90T5KYE
1182,32,,1.0,12.0,LESSER_ADJUTANT_5.jpg,GREEN_BROADBILL_4.jpg,1.0,,,,A34LSCB90T5KYE
1183,33,,1.0,13.0,CERULEAN_WARBLER_1.jpg,AMERICAN_FLAMINGO_5.jpg,2.0,,,,A34LSCB90T5KYE
1184,34,,1.0,14.0,MALACHITE_KINGFISHER_2.jpg,GREEN_BROADBILL_5.jpg,3.0,,,,A34LSCB90T5KYE
1185,35,,1.0,15.0,PYGMY_KINGFISHER_5.jpg,GRANDALA_2.jpg,1.0,,,,A34LSCB90T5KYE
1186,36,right,1.0,16.0,right.jpg,,,right,0.4716,,A34LSCB90T5KYE
1187,37,,1.0,17.0,EUROPEAN_TURTLE_DOVE_3.jpg,PAINTED_BUNTING_3.jpg,2.0,,,,A34LSCB90T5KYE
1188,38,,1.0,18.0,HAWAIIAN_GOOSE_4.jpg,HIMALAYAN_MONAL_2.jpg,2.0,,,,A34LSCB90T5KYE
1189,39,,1.0,19.0,PEACOCK_3.jpg,CHATTERING_LORY_2.jpg,3.0,,,,A34LSCB90T5KYE
1190,40,,1.0,20.0,IVORY_GULL_1.jpg,EASTERN_GOLDEN_WEAVER_5.jpg,2.0,,,,A34LSCB90T5KYE
1191,41,,1.0,21.0,WHITE_CHEEKED_TURACO_5.jpg,PYGMY_KINGFISHER_2.jpg,3.0,,,,A34LSCB90T5KYE
1192,42,,1.0,22.0,GYRFALCON_1.jpg,CINNAMON_ATTILA_2.jpg,2.0,,,,A34LSCB90T5KYE
1193,43,,1.0,23.0,BALI_STARLING_1.jpg,IBERIAN_MAGPIE_1.jpg,3.0,,,,A34LSCB90T5KYE
1194,44,,1.0,24.0,RUBY_THROATED_HUMMINGBIRD_1.jpg,VULTURINE_GUINEAFOWL_4.jpg,2.0,,,,A34LSCB90T5KYE
1195,45,,1.0,25.0,LITTLE_AUK_5.jpg,ORANGE_BRESTED_BUNTING_3.jpg,2.0,,,,A34LSCB90T5KYE
1196,46,,1.0,26.0,RUFOUS_KINGFISHER_1.jpg,MAGPIE_GOOSE_3.jpg,2.0,,,,A34LSCB90T5KYE
1197,47,,1.0,27.0,IVORY_GULL_3.jpg,SNOWY_EGRET_4.jpg,3.0,,,,A34LSCB90T5KYE
1198,48,,1.0,28.0,OCELLATED_TURKEY_1.jpg,CHIPPING_SPARROW_1.jpg,1.0,,,,A34LSCB90T5KYE
1199,49,,1.0,29.0,KILLDEAR_2.jpg,AZURE_TIT_5.jpg,3.0,,,,A34LSCB90T5KYE
1200,50,,1.0,30.0,INCA_TERN_4.jpg,ELLIOTS__PHEASANT_4.jpg,1.0,,,,A34LSCB90T5KYE
1201,51,,1.0,31.0,SPLENDID_WREN_1.jpg,POMARINE_JAEGER_5.jpg,1.0,,,,A34LSCB90T5KYE
1202,52,,1.0,32.0,SCARLET_TANAGER_2.jpg,BEARDED_BARBET_2.jpg,1.0,,,,A34LSCB90T5KYE
1203,53,left,1.0,33.0,left.jpg,,,left,0.4777,,A34LSCB90T5KYE
1204,54,,1.0,34.0,TASMANIAN_HEN_5.jpg,GREEN_BROADBILL_1.jpg,1.0,,,,A34LSCB90T5KYE
1205,55,,1.0,35.0,LESSER_ADJUTANT_4.jpg,RAINBOW_LORIKEET_5.jpg,2.0,,,,A34LSCB90T5KYE
1206,56,,1.0,36.0,ECUADORIAN_HILLSTAR_5.jpg,SCARLET_IBIS_2.jpg,1.0,,,,A34LSCB90T5KYE
1207,57,left,1.0,37.0,left.jpg,,,left,0.4681,,A34LSCB90T5KYE
1208,58,,1.0,38.0,INLAND_DOTTEREL_4.jpg,CRESTED_KINGFISHER_1.jpg,3.0,,,,A34LSCB90T5KYE
1209,59,,1.0,39.0,BROWN_THRASHER_3.jpg,BLACK_BAZA_4.jpg,3.0,,,,A34LSCB90T5KYE
1210,60,,1.0,40.0,BREWERS_BLACKBIRD_3.jpg,GOLDEN_CHEEKED_WARBLER_3.jpg,2.0,,,,A34LSCB90T5KYE
1211,61,,1.0,41.0,PINK_ROBIN_4.jpg,COMMON_IORA_4.jpg,3.0,,,,A34LSCB90T5KYE
1212,62,,1.0,42.0,MAGPIE_GOOSE_5.jpg,DOUBLE_EYED_FIG_PARROT_5.jpg,1.0,,,,A34LSCB90T5KYE
1213,63,,1.0,43.0,KAGU_5.jpg,ASHY_STORM_PETREL_1.jpg,2.0,,,,A34LSCB90T5KYE
1214,64,,1.0,44.0,GRAY_KINGBIRD_5.jpg,AFRICAN_FIREFINCH_3.jpg,3.0,,,,A34LSCB90T5KYE
1215,65,,1.0,45.0,DOUBLE_BRESTED_CORMARANT_5.jpg,GILDED_FLICKER_2.jpg,1.0,,,,A34LSCB90T5KYE
1216,66,,1.0,46.0,CASPIAN_TERN_1.jpg,COMMON_LOON_2.jpg,3.0,,,,A34LSCB90T5KYE
1217,67,,1.0,47.0,STRIPPED_SWALLOW_1.jpg,MAGPIE_GOOSE_4.jpg,2.0,,,,A34LSCB90T5KYE
1218,68,,1.0,48.0,GOLDEN_CHLOROPHONIA_5.jpg,COMMON_HOUSE_MARTIN_4.jpg,2.0,,,,A34LSCB90T5KYE
1219,69,,1.0,49.0,AFRICAN_PIED_HORNBILL_5.jpg,ALEXANDRINE_PARAKEET_1.jpg,2.0,,,,A34LSCB90T5KYE
1220,70,,1.0,50.0,ALPINE_CHOUGH_4.jpg,BOBOLINK_3.jpg,3.0,,,,A34LSCB90T5KYE
1221,71,,1.0,51.0,ASIAN_CRESTED_IBIS_4.jpg,CANARY_2.jpg,1.0,,,,A34LSCB90T5KYE
1222,72,left,1.0,52.0,left.jpg,,,left,1.7487,,A34LSCB90T5KYE
1223,73,,1.0,53.0,LARK_BUNTING_2.jpg,PEACOCK_1.jpg,1.0,,,,A34LSCB90T5KYE
1224,74,,1.0,54.0,CHUKAR_PARTRIDGE_5.jpg,BLACK_THROATED_BUSHTIT_1.jpg,3.0,,,,A34LSCB90T5KYE
1225,75,,1.0,55.0,OVENBIRD_5.jpg,MYNA_4.jpg,1.0,,,,A34LSCB90T5KYE
1226,76,,1.0,56.0,ARARIPE_MANAKIN_4.jpg,KIWI_3.jpg,1.0,,,,A34LSCB90T5KYE
1227,77,,1.0,57.0,PARUS_MAJOR_1.jpg,SANDHILL_CRANE_4.jpg,1.0,,,,A34LSCB90T5KYE
1228,78,,1.0,58.0,FLAME_BOWERBIRD_3.jpg,BROWN_THRASHER_4.jpg,2.0,,,,A34LSCB90T5KYE
1229,79,,1.0,59.0,CASSOWARY_1.jpg,ROSY_FACED_LOVEBIRD_4.jpg,1.0,,,,A34LSCB90T5KYE
1230,80,,1.0,60.0,INDIGO_BUNTING_1.jpg,DARWINS_FLYCATCHER_2.jpg,3.0,,,,A34LSCB90T5KYE
1231,81,,1.0,61.0,MYNA_1.jpg,GREY_PLOVER_4.jpg,2.0,,,,A34LSCB90T5KYE
1232,82,,1.0,62.0,EASTERN_TOWEE_2.jpg,GOLDEN_CHLOROPHONIA_1.jpg,2.0,,,,A34LSCB90T5KYE
1233,83,,1.0,63.0,GREY_PLOVER_1.jpg,ECUADORIAN_HILLSTAR_3.jpg,3.0,,,,A34LSCB90T5KYE
1234,84,,1.0,64.0,VERMILION_FLYCATHER_3.jpg,RED_BEARDED_BEE_EATER_1.jpg,3.0,,,,A34LSCB90T5KYE
1235,20,,1.0,0.0,FLAME_BOWERBIRD_3.jpg,INDIAN_BUSTARD_2.jpg,1.0,,,,A36BPBYVFDSNBB
1236,21,,1.0,1.0,MAGPIE_GOOSE_5.jpg,HAMERKOP_1.jpg,2.0,,,,A36BPBYVFDSNBB
1237,22,,1.0,2.0,CASPIAN_TERN_1.jpg,EUROPEAN_GOLDFINCH_4.jpg,2.0,,,,A36BPBYVFDSNBB
1238,23,,1.0,3.0,WHITE_CHEEKED_TURACO_5.jpg,GREAT_POTOO_3.jpg,2.0,,,,A36BPBYVFDSNBB
1239,24,,1.0,4.0,CERULEAN_WARBLER_1.jpg,BANANAQUIT_1.jpg,3.0,,,,A36BPBYVFDSNBB
1240,25,,1.0,5.0,CHUKAR_PARTRIDGE_5.jpg,RAZORBILL_1.jpg,2.0,,,,A36BPBYVFDSNBB
1241,26,,1.0,6.0,SPLENDID_WREN_1.jpg,POMARINE_JAEGER_5.jpg,1.0,,,,A36BPBYVFDSNBB
1242,27,,1.0,7.0,BREWERS_BLACKBIRD_3.jpg,GUINEA_TURACO_3.jpg,1.0,,,,A36BPBYVFDSNBB
1243,28,,1.0,8.0,ARARIPE_MANAKIN_4.jpg,BORNEAN_LEAFBIRD_3.jpg,3.0,,,,A36BPBYVFDSNBB
1244,29,,1.0,9.0,OCELLATED_TURKEY_1.jpg,CHIPPING_SPARROW_1.jpg,1.0,,,,A36BPBYVFDSNBB
1245,30,,1.0,10.0,HAWAIIAN_GOOSE_4.jpg,WATTLED_LAPWING_3.jpg,3.0,,,,A36BPBYVFDSNBB
1246,31,,1.0,11.0,LARK_BUNTING_2.jpg,PEACOCK_1.jpg,1.0,,,,A36BPBYVFDSNBB
