,index,test_encoding_response.keys,test_encoding_response.corr,trials.thisTrialN,target_image,pair,layer,correct,test_encoding_response.rt,key_resp_end.keys,subject
0,20,,1.0,0.0,2592380177-354626.jpg,2864901386-286797.jpg,2.0,,,,A10FSZLB75VZ14
1,21,,1.0,1.0,2901941401-292798.jpg,2898618327-366317.jpg,1.0,,,,A10FSZLB75VZ14
2,22,,1.0,2.0,2964223381-294447.jpg,2901941438-69836.jpg,2.0,,,,A10FSZLB75VZ14
3,23,,1.0,3.0,2898633421-291973.jpg,2575118671-277663.jpg,2.0,,,,A10FSZLB75VZ14
4,24,,1.0,4.0,2964218374-144967.jpg,2981231446-294732.jpg,3.0,,,,A10FSZLB75VZ14
5,25,,1.0,5.0,2874307433-66280.jpg,2986447306-296584.jpg,1.0,,,,A10FSZLB75VZ14
6,26,,1.0,6.0,2901947423-70311.jpg,2238573447-333826.jpg,2.0,,,,A10FSZLB75VZ14
7,27,,1.0,7.0,2901952513-70703.jpg,2864907361-287062.jpg,1.0,,,,A10FSZLB75VZ14
8,28,,1.0,8.0,2446759347-347016.jpg,2238569117-333045.jpg,3.0,,,,A10FSZLB75VZ14
9,29,,1.0,9.0,2592380177-354629.jpg,2512875587-350044.jpg,3.0,,,,A10FSZLB75VZ14
10,30,,1.0,10.0,2898618390-216538.jpg,2986449336-296644.jpg,1.0,,,,A10FSZLB75VZ14
11,31,,1.0,11.0,2446759803-49249.jpg,2446760601-272099.jpg,1.0,,,,A10FSZLB75VZ14
12,32,,1.0,12.0,2868474407-362883.jpg,2901948383-70363.jpg,3.0,,,,A10FSZLB75VZ14
13,33,,1.0,13.0,2238572663-35822.jpg,2986419333-73361.jpg,1.0,,,,A10FSZLB75VZ14
14,34,right,1.0,14.0,right.jpg,,,right,1.3726,,A10FSZLB75VZ14
15,35,,1.0,15.0,2898617468-68274.jpg,2864906345-212360.jpg,1.0,,,,A10FSZLB75VZ14
16,36,,0.0,16.0,left.jpg,,,left,,,A10FSZLB75VZ14
17,37,,1.0,17.0,2898635428-69104.jpg,2446759803-49250.jpg,1.0,,,,A10FSZLB75VZ14
18,38,,1.0,18.0,2460547467-349422.jpg,2898618440-216545.jpg,1.0,,,,A10FSZLB75VZ14
19,39,,1.0,19.0,2874303365-214262.jpg,2609793677-355397.jpg,1.0,,,,A10FSZLB75VZ14
20,40,,1.0,20.0,2864910426-287204.jpg,2874299429-139694.jpg,2.0,,,,A10FSZLB75VZ14
21,41,,1.0,21.0,2458347385-199723.jpg,2427874554-121863.jpg,2.0,,,,A10FSZLB75VZ14
22,42,,1.0,22.0,2898635427-367120.jpg,2868479517-363220.jpg,2.0,,,,A10FSZLB75VZ14
23,43,,1.0,23.0,2986451363-73599.jpg,2238434559-90406.jpg,3.0,,,,A10FSZLB75VZ14
24,44,,1.0,24.0,2238580740-186218.jpg,2238521193-26285.jpg,2.0,,,,A10FSZLB75VZ14
25,45,,1.0,25.0,2449441881-272368.jpg,2984615358-72439.jpg,2.0,,,,A10FSZLB75VZ14
26,46,,1.0,26.0,2874302418-65979.jpg,2238578544-111698.jpg,3.0,,,,A10FSZLB75VZ14
27,47,,1.0,27.0,2901948350-218459.jpg,2417208001-267065.jpg,2.0,,,,A10FSZLB75VZ14
28,48,,1.0,28.0,2238560245-182099.jpg,2874314526-289684.jpg,2.0,,,,A10FSZLB75VZ14
29,49,right,1.0,29.0,right.jpg,,,right,1.1122,,A10FSZLB75VZ14
30,50,,1.0,30.0,2898618444-142233.jpg,2898618444-142232.jpg,3.0,,,,A10FSZLB75VZ14
31,51,,1.0,31.0,2901939379-143479.jpg,2460547467-349423.jpg,1.0,,,,A10FSZLB75VZ14
32,52,,1.0,32.0,2868475410-213219.jpg,2868474407-362885.jpg,3.0,,,,A10FSZLB75VZ14
33,53,,1.0,33.0,2874299429-139695.jpg,2883266388-67750.jpg,1.0,,,,A10FSZLB75VZ14
34,54,,1.0,34.0,2883256307-365057.jpg,2864904453-63933.jpg,3.0,,,,A10FSZLB75VZ14
35,55,,1.0,35.0,2449442529-124445.jpg,2898632385-217137.jpg,3.0,,,,A10FSZLB75VZ14
36,56,right,1.0,36.0,right.jpg,,,right,1.182400001,,A10FSZLB75VZ14
37,57,,1.0,37.0,2874302418-65978.jpg,2238481198-19823.jpg,2.0,,,,A10FSZLB75VZ14
38,58,,1.0,38.0,2964213381-294060.jpg,2964213381-294061.jpg,3.0,,,,A10FSZLB75VZ14
39,59,,1.0,39.0,2898634397-367080.jpg,2901934408-69289.jpg,2.0,,,,A10FSZLB75VZ14
40,60,,1.0,40.0,2446758985-197609.jpg,2981240424-145795.jpg,1.0,,,,A10FSZLB75VZ14
41,61,,1.0,41.0,2883268471-290842.jpg,2883255450-215310.jpg,2.0,,,,A10FSZLB75VZ14
42,62,,1.0,42.0,2981241414-145842.jpg,2427873848-47312.jpg,3.0,,,,A10FSZLB75VZ14
43,63,,1.0,43.0,2883254439-140941.jpg,2981231446-294730.jpg,3.0,,,,A10FSZLB75VZ14
44,64,,1.0,44.0,2452380832-348593.jpg,2238328478-11678.jpg,1.0,,,,A10FSZLB75VZ14
45,65,,1.0,45.0,2238480677-317399.jpg,2238481630-168218.jpg,1.0,,,,A10FSZLB75VZ14
46,66,,1.0,46.0,2452381505-199546.jpg,2238567168-34916.jpg,2.0,,,,A10FSZLB75VZ14
47,67,,1.0,47.0,2575120738-55529.jpg,2898632385-217138.jpg,1.0,,,,A10FSZLB75VZ14
48,68,,1.0,48.0,2449442529-124446.jpg,2898632385-217139.jpg,3.0,,,,A10FSZLB75VZ14
49,69,,1.0,49.0,2981231403-71642.jpg,2427873763-47290.jpg,3.0,,,,A10FSZLB75VZ14
50,70,,1.0,50.0,2864907432-362042.jpg,2901947423-70310.jpg,2.0,,,,A10FSZLB75VZ14
51,71,,1.0,51.0,2592379964-131054.jpg,2575963989-130576.jpg,1.0,,,,A10FSZLB75VZ14
52,72,,1.0,52.0,2874301407-363895.jpg,2901947323-70275.jpg,3.0,,,,A10FSZLB75VZ14
53,73,left,1.0,53.0,left.jpg,,,left,1.1891,,A10FSZLB75VZ14
54,74,,1.0,54.0,2898624426-291546.jpg,2981236443-71859.jpg,2.0,,,,A10FSZLB75VZ14
55,75,,1.0,55.0,2238425482-313537.jpg,2898633480-217190.jpg,3.0,,,,A10FSZLB75VZ14
56,76,,1.0,56.0,2512875899-126682.jpg,2592380177-354628.jpg,2.0,,,,A10FSZLB75VZ14
57,77,,1.0,57.0,2238481198-19822.jpg,2862691449-137104.jpg,1.0,,,,A10FSZLB75VZ14
58,78,,1.0,58.0,2883268412-365898.jpg,2984626312-370849.jpg,1.0,,,,A10FSZLB75VZ14
59,79,,1.0,59.0,2460547508-51571.jpg,2981232437-369759.jpg,2.0,,,,A10FSZLB75VZ14
60,80,,1.0,60.0,2964216465-219242.jpg,2898619327-366362.jpg,3.0,,,,A10FSZLB75VZ14
61,81,,1.0,61.0,2901939379-143480.jpg,2981229442-369621.jpg,2.0,,,,A10FSZLB75VZ14
62,82,,1.0,62.0,2460547467-349421.jpg,2898631394-142727.jpg,1.0,,,,A10FSZLB75VZ14
63,83,,1.0,63.0,2238481928-19949.jpg,2981241419-145844.jpg,3.0,,,,A10FSZLB75VZ14
64,84,,1.0,64.0,2238428357-313623.jpg,2575121987-353817.jpg,3.0,,,,A10FSZLB75VZ14
65,20,,1.0,0.0,2874301407-363895.jpg,2986397322-371109.jpg,2.0,,,,AXTIQHZSLC0FE
66,21,,1.0,1.0,2898633421-291973.jpg,2238550049-105691.jpg,3.0,,,,AXTIQHZSLC0FE
67,22,,1.0,2.0,2981231403-71642.jpg,2981244403-72215.jpg,2.0,,,,AXTIQHZSLC0FE
68,23,,1.0,3.0,2901947423-70311.jpg,2238573447-333826.jpg,2.0,,,,AXTIQHZSLC0FE
69,24,,1.0,4.0,2575120738-55529.jpg,2238531493-28260.jpg,3.0,,,,AXTIQHZSLC0FE
70,25,,1.0,5.0,2964216465-219242.jpg,2898619327-366362.jpg,3.0,,,,AXTIQHZSLC0FE
71,26,right,1.0,6.0,right.jpg,,,right,2.1807,,AXTIQHZSLC0FE
72,27,,1.0,7.0,2868474407-362883.jpg,2901948383-70363.jpg,3.0,,,,AXTIQHZSLC0FE
73,28,,1.0,8.0,2964213381-294060.jpg,2458348012-349114.jpg,2.0,,,,AXTIQHZSLC0FE
74,29,,1.0,9.0,2592379964-131054.jpg,2238479053-19457.jpg,2.0,,,,AXTIQHZSLC0FE
75,30,,1.0,10.0,2452381505-199546.jpg,2901938432-367627.jpg,1.0,,,,AXTIQHZSLC0FE
76,31,,1.0,11.0,2898618444-142233.jpg,2898618444-142232.jpg,3.0,,,,AXTIQHZSLC0FE
77,32,,1.0,12.0,2874303365-214262.jpg,2238563377-332054.jpg,2.0,,,,AXTIQHZSLC0FE
78,33,,1.0,13.0,2452380832-348593.jpg,2238481813-19930.jpg,2.0,,,,AXTIQHZSLC0FE
79,34,,1.0,14.0,2883268471-290842.jpg,2883268471-290843.jpg,1.0,,,,AXTIQHZSLC0FE
80,35,,1.0,15.0,2874302418-65979.jpg,2238578544-111698.jpg,3.0,,,,AXTIQHZSLC0FE
81,36,,1.0,16.0,2864910426-287204.jpg,2874299429-139694.jpg,2.0,,,,AXTIQHZSLC0FE
82,37,,1.0,17.0,2238480677-317399.jpg,2238481630-168218.jpg,1.0,,,,AXTIQHZSLC0FE
83,38,left,1.0,18.0,left.jpg,,,left,1.875,,AXTIQHZSLC0FE
84,39,,1.0,19.0,2901952513-70703.jpg,2868469411-287540.jpg,2.0,,,,AXTIQHZSLC0FE
85,40,,1.0,20.0,2592380177-354626.jpg,2238117096-228518.jpg,3.0,,,,AXTIQHZSLC0FE
86,41,,1.0,21.0,2901939379-143479.jpg,2460547467-349423.jpg,1.0,,,,AXTIQHZSLC0FE
87,42,,1.0,22.0,2238572663-35822.jpg,2238571930-184143.jpg,2.0,,,,AXTIQHZSLC0FE
88,43,,1.0,23.0,2898634397-367080.jpg,2901934408-69289.jpg,2.0,,,,AXTIQHZSLC0FE
89,44,,1.0,24.0,2874299429-139695.jpg,2883266388-67750.jpg,1.0,,,,AXTIQHZSLC0FE
90,45,,1.0,25.0,2883256307-365057.jpg,2611628310-206388.jpg,1.0,,,,AXTIQHZSLC0FE
91,46,,1.0,26.0,2981241414-145842.jpg,2427873848-47312.jpg,3.0,,,,AXTIQHZSLC0FE
92,47,,1.0,27.0,2238580740-186218.jpg,2964220333-71258.jpg,3.0,,,,AXTIQHZSLC0FE
93,48,,1.0,28.0,2238425482-313537.jpg,2898633480-217190.jpg,3.0,,,,AXTIQHZSLC0FE
94,49,,1.0,29.0,2864907432-362042.jpg,2901947423-70310.jpg,2.0,,,,AXTIQHZSLC0FE
95,50,,1.0,30.0,2964223381-294447.jpg,2427874231-269884.jpg,1.0,,,,AXTIQHZSLC0FE
96,51,,1.0,31.0,2238481198-19822.jpg,2238480803-19737.jpg,3.0,,,,AXTIQHZSLC0FE
97,52,,1.0,32.0,2449442529-124445.jpg,2452380171-273112.jpg,1.0,,,,AXTIQHZSLC0FE
98,53,,1.0,33.0,2460547467-349421.jpg,2898631394-142727.jpg,1.0,,,,AXTIQHZSLC0FE
99,54,right,1.0,34.0,right.jpg,,,right,2.2547,,AXTIQHZSLC0FE
100,55,,1.0,35.0,2460547467-349422.jpg,2864909447-362146.jpg,3.0,,,,AXTIQHZSLC0FE
101,56,,1.0,36.0,2901948350-218459.jpg,2804906319-133082.jpg,1.0,,,,AXTIQHZSLC0FE
102,57,,1.0,37.0,2446759803-49249.jpg,2446760601-272099.jpg,1.0,,,,AXTIQHZSLC0FE
103,58,,1.0,38.0,2874302418-65978.jpg,2898626385-216899.jpg,1.0,,,,AXTIQHZSLC0FE
104,59,,1.0,39.0,2446759347-347016.jpg,2238569117-333045.jpg,3.0,,,,AXTIQHZSLC0FE
105,60,,1.0,40.0,2446758985-197609.jpg,2981240424-145795.jpg,1.0,,,,AXTIQHZSLC0FE
106,61,,1.0,41.0,2874307433-66280.jpg,2986447306-296584.jpg,1.0,,,,AXTIQHZSLC0FE
107,62,,1.0,42.0,2592380177-354629.jpg,2579432534-130704.jpg,2.0,,,,AXTIQHZSLC0FE
108,63,,1.0,43.0,2883268412-365898.jpg,2984615361-295510.jpg,2.0,,,,AXTIQHZSLC0FE
109,64,left,1.0,44.0,left.jpg,,,left,1.7724,,AXTIQHZSLC0FE
110,65,,1.0,45.0,2868475410-213219.jpg,2901946465-218350.jpg,1.0,,,,AXTIQHZSLC0FE
111,66,,1.0,46.0,2901939379-143480.jpg,2901942428-69919.jpg,1.0,,,,AXTIQHZSLC0FE
112,67,,1.0,47.0,2901941401-292798.jpg,2883273443-68193.jpg,3.0,,,,AXTIQHZSLC0FE
113,68,,1.0,48.0,2238428357-313623.jpg,2238499057-320266.jpg,1.0,,,,AXTIQHZSLC0FE
114,69,,1.0,49.0,2449442529-124446.jpg,2460547536-274181.jpg,2.0,,,,AXTIQHZSLC0FE
115,70,left,1.0,50.0,left.jpg,,,left,1.706,,AXTIQHZSLC0FE
116,71,,1.0,51.0,2238481928-19949.jpg,2864900357-361688.jpg,2.0,,,,AXTIQHZSLC0FE
117,72,,1.0,52.0,2898635427-367120.jpg,2898621427-366486.jpg,3.0,,,,AXTIQHZSLC0FE
118,73,,1.0,53.0,2883254439-140941.jpg,2898632385-217136.jpg,2.0,,,,AXTIQHZSLC0FE
119,74,,1.0,54.0,2898617468-68274.jpg,2864906345-212360.jpg,1.0,,,,AXTIQHZSLC0FE
120,75,,1.0,55.0,2458347385-199723.jpg,2458347252-348911.jpg,3.0,,,,AXTIQHZSLC0FE
121,76,,1.0,56.0,2238560245-182099.jpg,2874314526-289684.jpg,2.0,,,,AXTIQHZSLC0FE
122,77,,1.0,57.0,2964218374-144967.jpg,2883254439-140940.jpg,2.0,,,,AXTIQHZSLC0FE
123,78,,1.0,58.0,2898635428-69104.jpg,2898625336-291572.jpg,3.0,,,,AXTIQHZSLC0FE
124,79,,1.0,59.0,2898618390-216538.jpg,2575120609-129862.jpg,3.0,,,,AXTIQHZSLC0FE
125,80,,1.0,60.0,2449441881-272368.jpg,2883268412-365899.jpg,1.0,,,,AXTIQHZSLC0FE
126,81,,1.0,61.0,2512875899-126682.jpg,2592380177-354628.jpg,2.0,,,,AXTIQHZSLC0FE
127,82,,1.0,62.0,2898624426-291546.jpg,2981235446-294900.jpg,3.0,,,,AXTIQHZSLC0FE
128,83,,1.0,63.0,2460547508-51571.jpg,2901941438-69835.jpg,3.0,,,,AXTIQHZSLC0FE
129,84,,1.0,64.0,2986451363-73599.jpg,2901939327-367669.jpg,1.0,,,,AXTIQHZSLC0FE
130,20,,1.0,0.0,2238481928-19949.jpg,2864900357-361688.jpg,2.0,,,,ARIWYNIH12MLF
131,21,,1.0,1.0,2238572663-35822.jpg,2986419333-73361.jpg,1.0,,,,ARIWYNIH12MLF
132,22,,1.0,2.0,2460547508-51571.jpg,2901941438-69835.jpg,3.0,,,,ARIWYNIH12MLF
133,23,,1.0,3.0,2901948350-218459.jpg,2981246360-220352.jpg,3.0,,,,ARIWYNIH12MLF
134,24,,1.0,4.0,2981231403-71642.jpg,2274829821-263682.jpg,1.0,,,,ARIWYNIH12MLF
135,25,,1.0,5.0,2449442529-124446.jpg,2446759803-49251.jpg,1.0,,,,ARIWYNIH12MLF
136,26,,1.0,6.0,2883254439-140941.jpg,2898632385-217136.jpg,2.0,,,,ARIWYNIH12MLF
137,27,,1.0,7.0,2874303365-214262.jpg,2238563377-332054.jpg,2.0,,,,ARIWYNIH12MLF
138,28,,1.0,8.0,2901952513-70703.jpg,2238481198-19821.jpg,3.0,,,,ARIWYNIH12MLF
139,29,,1.0,9.0,2883268412-365898.jpg,2984626312-370849.jpg,1.0,,,,ARIWYNIH12MLF
140,30,,1.0,10.0,2964218374-144967.jpg,2883254439-140940.jpg,2.0,,,,ARIWYNIH12MLF
141,31,,1.0,11.0,2964216465-219242.jpg,2864900319-137787.jpg,2.0,,,,ARIWYNIH12MLF
142,32,,1.0,12.0,2874299429-139695.jpg,2901942443-69923.jpg,2.0,,,,ARIWYNIH12MLF
143,33,,1.0,13.0,2874307433-66280.jpg,2986447306-296584.jpg,1.0,,,,ARIWYNIH12MLF
144,34,left,1.0,14.0,left.jpg,,,left,0.7044,,ARIWYNIH12MLF
145,35,,1.0,15.0,2238425482-313537.jpg,2898633480-217190.jpg,3.0,,,,ARIWYNIH12MLF
146,36,,1.0,16.0,2446759347-347016.jpg,2964224310-219528.jpg,1.0,,,,ARIWYNIH12MLF
147,37,,1.0,17.0,2964223381-294447.jpg,2898628438-68785.jpg,3.0,,,,ARIWYNIH12MLF
148,38,,1.0,18.0,2452381505-199546.jpg,2238567168-34916.jpg,2.0,,,,ARIWYNIH12MLF
149,39,,1.0,19.0,2964213381-294060.jpg,2458348012-349114.jpg,2.0,,,,ARIWYNIH12MLF
150,40,,1.0,20.0,2592380177-354626.jpg,2238117096-228518.jpg,3.0,,,,ARIWYNIH12MLF
151,41,,1.0,21.0,2238481198-19822.jpg,2238480803-19737.jpg,3.0,,,,ARIWYNIH12MLF
152,42,,1.0,22.0,2898624426-291546.jpg,2964218432-369263.jpg,1.0,,,,ARIWYNIH12MLF
153,43,right,1.0,23.0,right.jpg,,,right,0.7483,,ARIWYNIH12MLF
154,44,,1.0,24.0,2986451363-73599.jpg,2860302315-210704.jpg,2.0,,,,ARIWYNIH12MLF
155,45,,1.0,25.0,2874301407-363895.jpg,2901947323-70275.jpg,3.0,,,,ARIWYNIH12MLF
156,46,,1.0,26.0,2901947423-70311.jpg,2860312398-62572.jpg,1.0,,,,ARIWYNIH12MLF
157,47,,1.0,27.0,2864907432-362042.jpg,2864901420-212147.jpg,1.0,,,,ARIWYNIH12MLF
158,48,,1.0,28.0,2238580740-186218.jpg,2238550816-254000.jpg,1.0,,,,ARIWYNIH12MLF
159,49,,1.0,29.0,2512875899-126682.jpg,2460547536-274179.jpg,1.0,,,,ARIWYNIH12MLF
160,50,,1.0,30.0,2460547467-349422.jpg,2868487415-213924.jpg,2.0,,,,ARIWYNIH12MLF
161,51,,1.0,31.0,2883268471-290842.jpg,2901947448-70314.jpg,3.0,,,,ARIWYNIH12MLF
162,52,,1.0,32.0,2452380832-348593.jpg,2449442181-272436.jpg,3.0,,,,ARIWYNIH12MLF
163,53,,1.0,33.0,2446759803-49249.jpg,2898618440-216547.jpg,2.0,,,,ARIWYNIH12MLF
164,54,right,1.0,34.0,right.jpg,,,right,0.7351,,ARIWYNIH12MLF
165,55,,1.0,35.0,2449441881-272368.jpg,2883268412-365899.jpg,1.0,,,,ARIWYNIH12MLF
166,56,,1.0,36.0,2575120738-55529.jpg,2575120738-55528.jpg,2.0,,,,ARIWYNIH12MLF
167,57,,1.0,37.0,2874302418-65979.jpg,2413147898-43548.jpg,1.0,,,,ARIWYNIH12MLF
168,58,,1.0,38.0,2460547467-349421.jpg,2898631394-142727.jpg,1.0,,,,ARIWYNIH12MLF
169,59,,1.0,39.0,2901939379-143479.jpg,2446758985-197610.jpg,2.0,,,,ARIWYNIH12MLF
170,60,,1.0,40.0,2874302418-65978.jpg,2898633321-291943.jpg,3.0,,,,ARIWYNIH12MLF
171,61,,1.0,41.0,2592379964-131054.jpg,2592380272-354673.jpg,3.0,,,,ARIWYNIH12MLF
172,62,right,1.0,42.0,right.jpg,,,right,0.6369,,ARIWYNIH12MLF
173,63,,1.0,43.0,2238480677-317399.jpg,2238480278-19661.jpg,3.0,,,,ARIWYNIH12MLF
174,64,,1.0,44.0,2446758985-197609.jpg,2981240424-145795.jpg,1.0,,,,ARIWYNIH12MLF
175,65,,1.0,45.0,2901939379-143480.jpg,2901938432-367629.jpg,3.0,,,,ARIWYNIH12MLF
176,66,,1.0,46.0,2898634397-367080.jpg,2237944827-301472.jpg,1.0,,,,ARIWYNIH12MLF
177,67,,1.0,47.0,2868475410-213219.jpg,2868474407-362885.jpg,3.0,,,,ARIWYNIH12MLF
178,68,,1.0,48.0,2238560245-182099.jpg,2874314526-289684.jpg,2.0,,,,ARIWYNIH12MLF
179,69,left,1.0,49.0,left.jpg,,,left,0.6341,,ARIWYNIH12MLF
180,70,,1.0,50.0,2981241414-145842.jpg,2874301404-139813.jpg,2.0,,,,ARIWYNIH12MLF
181,71,,1.0,51.0,2592380177-354629.jpg,2898633421-291974.jpg,1.0,,,,ARIWYNIH12MLF
182,72,,1.0,52.0,2898635427-367120.jpg,2868479517-363220.jpg,2.0,,,,ARIWYNIH12MLF
183,73,,1.0,53.0,2898633421-291973.jpg,2238550049-105691.jpg,3.0,,,,ARIWYNIH12MLF
184,74,,1.0,54.0,2864910426-287204.jpg,2901939433-69672.jpg,3.0,,,,ARIWYNIH12MLF
185,75,,1.0,55.0,2458347385-199723.jpg,2427874554-121863.jpg,2.0,,,,ARIWYNIH12MLF
186,76,,1.0,56.0,2898617468-68274.jpg,2901943387-368037.jpg,2.0,,,,ARIWYNIH12MLF
187,77,,1.0,57.0,2883256307-365057.jpg,2864904453-63933.jpg,3.0,,,,ARIWYNIH12MLF
188,78,,1.0,58.0,2449442529-124445.jpg,2898632385-217137.jpg,3.0,,,,ARIWYNIH12MLF
189,79,,1.0,59.0,2898618390-216538.jpg,2901939327-367670.jpg,2.0,,,,ARIWYNIH12MLF
190,80,,1.0,60.0,2898618444-142233.jpg,2898631359-142721.jpg,1.0,,,,ARIWYNIH12MLF
191,81,,1.0,61.0,2238428357-313623.jpg,2984615361-295509.jpg,2.0,,,,ARIWYNIH12MLF
192,82,,1.0,62.0,2901941401-292798.jpg,2898618327-366317.jpg,1.0,,,,ARIWYNIH12MLF
193,83,,1.0,63.0,2868474407-362883.jpg,2238516618-25604.jpg,1.0,,,,ARIWYNIH12MLF
194,84,,1.0,64.0,2898635428-69104.jpg,2898625336-291572.jpg,3.0,,,,ARIWYNIH12MLF
195,20,,1.0,0.0,2964216465-219242.jpg,2898619327-366362.jpg,3.0,,,,A3J4YYW1M62T39
196,21,,1.0,1.0,2449441881-272368.jpg,2449441881-272367.jpg,3.0,,,,A3J4YYW1M62T39
197,22,,1.0,2.0,2981241414-145842.jpg,2856919327-359676.jpg,1.0,,,,A3J4YYW1M62T39
198,23,,1.0,3.0,2864907432-362042.jpg,2989726338-74002.jpg,3.0,,,,A3J4YYW1M62T39
199,24,,1.0,4.0,2238580740-186218.jpg,2964220333-71258.jpg,3.0,,,,A3J4YYW1M62T39
200,25,,1.0,5.0,2901941401-292798.jpg,2883273443-68193.jpg,3.0,,,,A3J4YYW1M62T39
201,26,,1.0,6.0,2874303365-214262.jpg,2238563377-332054.jpg,2.0,,,,A3J4YYW1M62T39
202,27,,1.0,7.0,2883254439-140941.jpg,2981231446-294730.jpg,3.0,,,,A3J4YYW1M62T39
203,28,,1.0,8.0,2964218374-144967.jpg,2883254439-140940.jpg,2.0,,,,A3J4YYW1M62T39
204,29,,1.0,9.0,2449442529-124445.jpg,2452380171-273112.jpg,1.0,,,,A3J4YYW1M62T39
205,30,,1.0,10.0,2446758985-197609.jpg,2981240424-145795.jpg,1.0,,,,A3J4YYW1M62T39
206,31,left,1.0,11.0,left.jpg,,,left,1.4158,,A3J4YYW1M62T39
207,32,,1.0,12.0,2575120738-55529.jpg,2898632385-217138.jpg,1.0,,,,A3J4YYW1M62T39
208,33,,1.0,13.0,2901939379-143480.jpg,2901938432-367629.jpg,3.0,,,,A3J4YYW1M62T39
209,34,,1.0,14.0,2883268471-290842.jpg,2883268471-290843.jpg,1.0,,,,A3J4YYW1M62T39
210,35,,1.0,15.0,2238480677-317399.jpg,2238573546-258454.jpg,2.0,,,,A3J4YYW1M62T39
211,36,,1.0,16.0,2964223381-294447.jpg,2898628438-68785.jpg,3.0,,,,A3J4YYW1M62T39
212,37,,1.0,17.0,2238425482-313537.jpg,2898633480-217190.jpg,3.0,,,,A3J4YYW1M62T39
213,38,,1.0,18.0,2238572663-35822.jpg,2864903351-286874.jpg,3.0,,,,A3J4YYW1M62T39
214,39,,1.0,19.0,2901948350-218459.jpg,2804906319-133082.jpg,1.0,,,,A3J4YYW1M62T39
215,40,left,1.0,20.0,left.jpg,,,left,1.0009,,A3J4YYW1M62T39
216,41,,1.0,21.0,2460547467-349422.jpg,2898618440-216545.jpg,1.0,,,,A3J4YYW1M62T39
217,42,,1.0,22.0,2901952513-70703.jpg,2864907361-287062.jpg,1.0,,,,A3J4YYW1M62T39
218,43,,1.0,23.0,2864910426-287204.jpg,2901939433-69672.jpg,3.0,,,,A3J4YYW1M62T39
219,44,,1.0,24.0,2460547508-51571.jpg,2981232437-369759.jpg,2.0,,,,A3J4YYW1M62T39
220,45,,1.0,25.0,2452381505-199546.jpg,2901938432-367627.jpg,1.0,,,,A3J4YYW1M62T39
221,46,,1.0,26.0,2874299429-139695.jpg,2901942443-69923.jpg,2.0,,,,A3J4YYW1M62T39
222,47,,1.0,27.0,2898635427-367120.jpg,2868479517-363220.jpg,2.0,,,,A3J4YYW1M62T39
223,48,,1.0,28.0,2592379964-131054.jpg,2238479053-19457.jpg,2.0,,,,A3J4YYW1M62T39
224,49,right,1.0,29.0,right.jpg,,,right,0.8887,,A3J4YYW1M62T39
225,50,,1.0,30.0,2868475410-213219.jpg,2868474407-362885.jpg,3.0,,,,A3J4YYW1M62T39
226,51,,1.0,31.0,2981231403-71642.jpg,2981244403-72215.jpg,2.0,,,,A3J4YYW1M62T39
227,52,,1.0,32.0,2868474407-362883.jpg,2981246400-220363.jpg,2.0,,,,A3J4YYW1M62T39
228,53,,1.0,33.0,2592380177-354629.jpg,2898633421-291974.jpg,1.0,,,,A3J4YYW1M62T39
229,54,,1.0,34.0,2238428357-313623.jpg,2238499057-320266.jpg,1.0,,,,A3J4YYW1M62T39
230,55,,1.0,35.0,2898633421-291973.jpg,2512876023-52283.jpg,1.0,,,,A3J4YYW1M62T39
231,56,,1.0,36.0,2460547467-349421.jpg,2981235446-294901.jpg,3.0,,,,A3J4YYW1M62T39
232,57,,1.0,37.0,2986451363-73599.jpg,2901939327-367669.jpg,1.0,,,,A3J4YYW1M62T39
233,58,,1.0,38.0,2883268412-365898.jpg,2984615361-295510.jpg,2.0,,,,A3J4YYW1M62T39
234,59,,1.0,39.0,2238481928-19949.jpg,2883264367-365620.jpg,1.0,,,,A3J4YYW1M62T39
235,60,,1.0,40.0,2449442529-124446.jpg,2898632385-217139.jpg,3.0,,,,A3J4YYW1M62T39
236,61,,1.0,41.0,2874307433-66280.jpg,2986447306-296584.jpg,1.0,,,,A3J4YYW1M62T39
237,62,left,1.0,42.0,left.jpg,,,left,0.9929,,A3J4YYW1M62T39
238,63,,1.0,43.0,2874302418-65979.jpg,2238578544-111698.jpg,3.0,,,,A3J4YYW1M62T39
239,64,,1.0,44.0,2452380832-348593.jpg,2449442181-272436.jpg,3.0,,,,A3J4YYW1M62T39
240,65,,1.0,45.0,2898618444-142233.jpg,2898631359-142721.jpg,1.0,,,,A3J4YYW1M62T39
241,66,,1.0,46.0,2901947423-70311.jpg,2238573447-333826.jpg,2.0,,,,A3J4YYW1M62T39
242,67,,1.0,47.0,2898635428-69104.jpg,2446759803-49250.jpg,1.0,,,,A3J4YYW1M62T39
243,68,,1.0,48.0,2964213381-294060.jpg,2458348012-349114.jpg,2.0,,,,A3J4YYW1M62T39
244,69,left,1.0,49.0,left.jpg,,,left,0.8799,,A3J4YYW1M62T39
245,70,,1.0,50.0,2898617468-68274.jpg,2901943387-368037.jpg,2.0,,,,A3J4YYW1M62T39
246,71,,1.0,51.0,2883256307-365057.jpg,2964210336-293945.jpg,2.0,,,,A3J4YYW1M62T39
247,72,,1.0,52.0,2898624426-291546.jpg,2964218432-369263.jpg,1.0,,,,A3J4YYW1M62T39
248,73,,1.0,53.0,2238481198-19822.jpg,2901946436-293242.jpg,2.0,,,,A3J4YYW1M62T39
249,74,,1.0,54.0,2874301407-363895.jpg,2986397322-371109.jpg,2.0,,,,A3J4YYW1M62T39
250,75,,1.0,55.0,2874302418-65978.jpg,2898633321-291943.jpg,3.0,,,,A3J4YYW1M62T39
251,76,,1.0,56.0,2898618390-216538.jpg,2901939327-367670.jpg,2.0,,,,A3J4YYW1M62T39
252,77,,1.0,57.0,2592380177-354626.jpg,2986408339-146952.jpg,1.0,,,,A3J4YYW1M62T39
253,78,,1.0,58.0,2446759803-49249.jpg,2898618440-216547.jpg,2.0,,,,A3J4YYW1M62T39
254,79,,1.0,59.0,2238560245-182099.jpg,2874314526-289684.jpg,2.0,,,,A3J4YYW1M62T39
255,80,,1.0,60.0,2458347385-199723.jpg,2427874554-121863.jpg,2.0,,,,A3J4YYW1M62T39
256,81,,1.0,61.0,2901939379-143479.jpg,2460547467-349423.jpg,1.0,,,,A3J4YYW1M62T39
257,82,,1.0,62.0,2512875899-126682.jpg,2986447332-371497.jpg,3.0,,,,A3J4YYW1M62T39
258,83,,1.0,63.0,2446759347-347016.jpg,2238569117-333045.jpg,3.0,,,,A3J4YYW1M62T39
259,84,,1.0,64.0,2898634397-367080.jpg,2964217461-294238.jpg,3.0,,,,A3J4YYW1M62T39
260,20,,1.0,0.0,2964223381-294447.jpg,2427874231-269884.jpg,1.0,,,,A34Z9LMI089LMT
261,21,,1.0,1.0,2874307433-66280.jpg,2981246400-220365.jpg,2.0,,,,A34Z9LMI089LMT
262,22,,1.0,2.0,2901941401-292798.jpg,2898618327-366317.jpg,1.0,,,,A34Z9LMI089LMT
263,23,,1.0,3.0,2874303365-214262.jpg,2609793677-355397.jpg,1.0,,,,A34Z9LMI089LMT
264,24,,1.0,4.0,2452381505-199546.jpg,2901938432-367627.jpg,1.0,,,,A34Z9LMI089LMT
265,25,,1.0,5.0,2981241414-145842.jpg,2427873848-47312.jpg,3.0,,,,A34Z9LMI089LMT
266,26,,1.0,6.0,2883268412-365898.jpg,2984626312-370849.jpg,1.0,,,,A34Z9LMI089LMT
267,27,,1.0,7.0,2864910426-287204.jpg,2901939433-69672.jpg,3.0,,,,A34Z9LMI089LMT
268,28,,1.0,8.0,2868475410-213219.jpg,2868474407-362885.jpg,3.0,,,,A34Z9LMI089LMT
269,29,,1.0,9.0,2449442529-124445.jpg,2452380171-273112.jpg,1.0,,,,A34Z9LMI089LMT
270,30,,1.0,10.0,2238572663-35822.jpg,2986419333-73361.jpg,1.0,,,,A34Z9LMI089LMT
271,31,,1.0,11.0,2898618390-216538.jpg,2901939327-367670.jpg,2.0,,,,A34Z9LMI089LMT
272,32,,0.0,12.0,right.jpg,,,right,,,A34Z9LMI089LMT
273,33,,1.0,13.0,2238481198-19822.jpg,2238480803-19737.jpg,3.0,,,,A34Z9LMI089LMT
274,34,,1.0,14.0,2964218374-144967.jpg,2883254439-140940.jpg,2.0,,,,A34Z9LMI089LMT
275,35,,1.0,15.0,2883256307-365057.jpg,2611628310-206388.jpg,1.0,,,,A34Z9LMI089LMT
276,36,,1.0,16.0,2452380832-348593.jpg,2238481813-19930.jpg,2.0,,,,A34Z9LMI089LMT
277,37,,1.0,17.0,2964216465-219242.jpg,2864900319-137787.jpg,2.0,,,,A34Z9LMI089LMT
278,38,,1.0,18.0,2575120738-55529.jpg,2575120738-55528.jpg,2.0,,,,A34Z9LMI089LMT
279,39,left,1.0,19.0,left.jpg,,,left,0.8916,,A34Z9LMI089LMT
280,40,,1.0,20.0,2883254439-140941.jpg,2981231446-294730.jpg,3.0,,,,A34Z9LMI089LMT
281,41,,1.0,21.0,2512875899-126682.jpg,2986447332-371497.jpg,3.0,,,,A34Z9LMI089LMT
282,42,,1.0,22.0,2449441881-272368.jpg,2984615358-72439.jpg,2.0,,,,A34Z9LMI089LMT
283,43,,1.0,23.0,2898618444-142233.jpg,2898631359-142721.jpg,1.0,,,,A34Z9LMI089LMT
284,44,,1.0,24.0,2898635427-367120.jpg,2901946439-144040.jpg,1.0,,,,A34Z9LMI089LMT
285,45,,1.0,25.0,2964213381-294060.jpg,2964213381-294061.jpg,3.0,,,,A34Z9LMI089LMT
286,46,,1.0,26.0,2446758985-197609.jpg,2981240424-145795.jpg,1.0,,,,A34Z9LMI089LMT
287,47,,1.0,27.0,2901948350-218459.jpg,2981246360-220352.jpg,3.0,,,,A34Z9LMI089LMT
288,48,,1.0,28.0,2981231403-71642.jpg,2274829821-263682.jpg,1.0,,,,A34Z9LMI089LMT
289,49,,1.0,29.0,2898617468-68274.jpg,2964207374-144577.jpg,3.0,,,,A34Z9LMI089LMT
290,50,,1.0,30.0,2446759803-49249.jpg,2446760601-272099.jpg,1.0,,,,A34Z9LMI089LMT
291,51,right,0.0,31.0,left.jpg,,,left,0.0086,,A34Z9LMI089LMT
292,52,,1.0,32.0,2449442529-124446.jpg,2460547536-274181.jpg,2.0,,,,A34Z9LMI089LMT
293,53,,1.0,33.0,2883268471-290842.jpg,2901947448-70314.jpg,3.0,,,,A34Z9LMI089LMT
294,54,,1.0,34.0,2901939379-143480.jpg,2981229442-369621.jpg,2.0,,,,A34Z9LMI089LMT
295,55,,1.0,35.0,2898633421-291973.jpg,2512876023-52283.jpg,1.0,,,,A34Z9LMI089LMT
296,56,,1.0,36.0,2874302418-65978.jpg,2898633321-291943.jpg,3.0,,,,A34Z9LMI089LMT
297,57,,1.0,37.0,2898624426-291546.jpg,2981236443-71859.jpg,2.0,,,,A34Z9LMI089LMT
298,58,left,1.0,38.0,left.jpg,,,left,0.0087,,A34Z9LMI089LMT
299,59,,1.0,39.0,2238425482-313537.jpg,2238471391-240918.jpg,1.0,,,,A34Z9LMI089LMT
300,60,,1.0,40.0,2458347385-199723.jpg,2238480434-93829.jpg,1.0,,,,A34Z9LMI089LMT
301,61,,1.0,41.0,2460547467-349421.jpg,2452380166-273110.jpg,2.0,,,,A34Z9LMI089LMT
302,62,,1.0,42.0,2238428357-313623.jpg,2238499057-320266.jpg,1.0,,,,A34Z9LMI089LMT
303,63,,1.0,43.0,2446759347-347016.jpg,2238569117-333045.jpg,3.0,,,,A34Z9LMI089LMT
304,64,,1.0,44.0,2238580740-186218.jpg,2964220333-71258.jpg,3.0,,,,A34Z9LMI089LMT
305,65,,1.0,45.0,2901947423-70311.jpg,2238573447-333826.jpg,2.0,,,,A34Z9LMI089LMT
306,66,,1.0,46.0,2238481928-19949.jpg,2981241419-145844.jpg,3.0,,,,A34Z9LMI089LMT
307,67,,1.0,47.0,2901952513-70703.jpg,2864907361-287062.jpg,1.0,,,,A34Z9LMI089LMT
308,68,,1.0,48.0,2592380177-354626.jpg,2864901386-286797.jpg,2.0,,,,A34Z9LMI089LMT
309,69,,1.0,49.0,2592379964-131054.jpg,2238479053-19457.jpg,2.0,,,,A34Z9LMI089LMT
310,70,right,0.0,50.0,left.jpg,,,left,0.0097,,A34Z9LMI089LMT
311,71,,1.0,51.0,2898634397-367080.jpg,2901934408-69289.jpg,2.0,,,,A34Z9LMI089LMT
312,72,,1.0,52.0,2238560245-182099.jpg,2549106624-127823.jpg,1.0,,,,A34Z9LMI089LMT
313,73,,1.0,53.0,2864907432-362042.jpg,2989726338-74002.jpg,3.0,,,,A34Z9LMI089LMT
314,74,,1.0,54.0,2592380177-354629.jpg,2579432534-130704.jpg,2.0,,,,A34Z9LMI089LMT
315,75,,1.0,55.0,2874301407-363895.jpg,2901947323-70275.jpg,3.0,,,,A34Z9LMI089LMT
316,76,,1.0,56.0,2868474407-362883.jpg,2981246400-220363.jpg,2.0,,,,A34Z9LMI089LMT
317,77,,1.0,57.0,2901939379-143479.jpg,2446758985-197610.jpg,2.0,,,,A34Z9LMI089LMT
318,78,,1.0,58.0,2238480677-317399.jpg,2238573546-258454.jpg,2.0,,,,A34Z9LMI089LMT
319,79,,1.0,59.0,2460547467-349422.jpg,2864909447-362146.jpg,3.0,,,,A34Z9LMI089LMT
320,80,,1.0,60.0,2874299429-139695.jpg,2446760917-347439.jpg,3.0,,,,A34Z9LMI089LMT
321,81,,1.0,61.0,2898635428-69104.jpg,2446759803-49250.jpg,1.0,,,,A34Z9LMI089LMT
322,82,,1.0,62.0,2460547508-51571.jpg,2901941438-69835.jpg,3.0,,,,A34Z9LMI089LMT
323,83,,1.0,63.0,2874302418-65979.jpg,2238480648-19714.jpg,2.0,,,,A34Z9LMI089LMT
324,84,,1.0,64.0,2986451363-73599.jpg,2238434559-90406.jpg,3.0,,,,A34Z9LMI089LMT
325,20,,1.0,0.0,2901939379-143480.jpg,2981229442-369621.jpg,2.0,,,,AZ5KAKZR0CVR
326,21,,1.0,1.0,2964218374-144967.jpg,2883254439-140940.jpg,2.0,,,,AZ5KAKZR0CVR
327,22,,1.0,2.0,2964216465-219242.jpg,2898619327-366362.jpg,3.0,,,,AZ5KAKZR0CVR
328,23,,1.0,3.0,2452381505-199546.jpg,2238567168-34916.jpg,2.0,,,,AZ5KAKZR0CVR
329,24,,1.0,4.0,2449442529-124446.jpg,2460547536-274181.jpg,2.0,,,,AZ5KAKZR0CVR
330,25,,1.0,5.0,2238425482-313537.jpg,2238436322-314047.jpg,2.0,,,,AZ5KAKZR0CVR
331,26,,1.0,6.0,2874302418-65978.jpg,2238481198-19823.jpg,2.0,,,,AZ5KAKZR0CVR
332,27,,1.0,7.0,2901939379-143479.jpg,2446758985-197610.jpg,2.0,,,,AZ5KAKZR0CVR
333,28,,1.0,8.0,2901947423-70311.jpg,2238577590-185467.jpg,3.0,,,,AZ5KAKZR0CVR
334,29,,0.0,9.0,left.jpg,,,left,,,AZ5KAKZR0CVR
335,30,,1.0,10.0,2238580740-186218.jpg,2238550816-254000.jpg,1.0,,,,AZ5KAKZR0CVR
336,31,,1.0,11.0,2452380832-348593.jpg,2449442181-272436.jpg,3.0,,,,AZ5KAKZR0CVR
337,32,,1.0,12.0,2238480677-317399.jpg,2238480278-19661.jpg,3.0,,,,AZ5KAKZR0CVR
338,33,,1.0,13.0,2874299429-139695.jpg,2446760917-347439.jpg,3.0,,,,AZ5KAKZR0CVR
339,34,,1.0,14.0,2898618444-142233.jpg,2898631359-142721.jpg,1.0,,,,AZ5KAKZR0CVR
340,35,,1.0,15.0,2898634397-367080.jpg,2237944827-301472.jpg,1.0,,,,AZ5KAKZR0CVR
341,36,,1.0,16.0,2238481198-19822.jpg,2862691449-137104.jpg,1.0,,,,AZ5KAKZR0CVR
342,37,,1.0,17.0,2964213381-294060.jpg,2981244394-145974.jpg,1.0,,,,AZ5KAKZR0CVR
343,38,,1.0,18.0,2238481928-19949.jpg,2981241419-145844.jpg,3.0,,,,AZ5KAKZR0CVR
344,39,,1.0,19.0,2883268412-365898.jpg,2984615361-295510.jpg,2.0,,,,AZ5KAKZR0CVR
345,40,,1.0,20.0,2898635427-367120.jpg,2901946439-144040.jpg,1.0,,,,AZ5KAKZR0CVR
346,41,left,1.0,21.0,left.jpg,,,left,1.5175,,AZ5KAKZR0CVR
347,42,,1.0,22.0,2460547467-349421.jpg,2452380166-273110.jpg,2.0,,,,AZ5KAKZR0CVR
348,43,,1.0,23.0,2986451363-73599.jpg,2860302315-210704.jpg,2.0,,,,AZ5KAKZR0CVR
349,44,,1.0,24.0,2874301407-363895.jpg,2883264368-67631.jpg,1.0,,,,AZ5KAKZR0CVR
350,45,,1.0,25.0,2901941401-292798.jpg,2883273443-68193.jpg,3.0,,,,AZ5KAKZR0CVR
351,46,,1.0,26.0,2446759347-347016.jpg,2238569117-333045.jpg,3.0,,,,AZ5KAKZR0CVR
352,47,,1.0,27.0,2868474407-362883.jpg,2981246400-220363.jpg,2.0,,,,AZ5KAKZR0CVR
353,48,,1.0,28.0,2449442529-124445.jpg,2898632385-217137.jpg,3.0,,,,AZ5KAKZR0CVR
354,49,,0.0,29.0,right.jpg,,,right,,,AZ5KAKZR0CVR
355,50,,1.0,30.0,2460547467-349422.jpg,2898618440-216545.jpg,1.0,,,,AZ5KAKZR0CVR
356,51,,1.0,31.0,2898633421-291973.jpg,2512876023-52283.jpg,1.0,,,,AZ5KAKZR0CVR
357,52,,1.0,32.0,2883268471-290842.jpg,2901947448-70314.jpg,3.0,,,,AZ5KAKZR0CVR
358,53,,1.0,33.0,2238572663-35822.jpg,2986419333-73361.jpg,1.0,,,,AZ5KAKZR0CVR
359,54,,1.0,34.0,2898617468-68274.jpg,2964207374-144577.jpg,3.0,,,,AZ5KAKZR0CVR
360,55,,1.0,35.0,2981231403-71642.jpg,2981244403-72215.jpg,2.0,,,,AZ5KAKZR0CVR
361,56,,1.0,36.0,2864910426-287204.jpg,2901939433-69672.jpg,3.0,,,,AZ5KAKZR0CVR
362,57,,1.0,37.0,2898618390-216538.jpg,2986449336-296644.jpg,1.0,,,,AZ5KAKZR0CVR
363,58,right,1.0,38.0,right.jpg,,,right,1.5163,,AZ5KAKZR0CVR
364,59,,1.0,39.0,2592379964-131054.jpg,2592380272-354673.jpg,3.0,,,,AZ5KAKZR0CVR
365,60,,1.0,40.0,2864907432-362042.jpg,2901947423-70310.jpg,2.0,,,,AZ5KAKZR0CVR
366,61,,1.0,41.0,2883254439-140941.jpg,2898632385-217136.jpg,2.0,,,,AZ5KAKZR0CVR
367,62,,1.0,42.0,2446758985-197609.jpg,2898624426-291544.jpg,3.0,,,,AZ5KAKZR0CVR
368,63,,1.0,43.0,2449441881-272368.jpg,2449441881-272367.jpg,3.0,,,,AZ5KAKZR0CVR
369,64,,1.0,44.0,2460547508-51571.jpg,2981232437-369759.jpg,2.0,,,,AZ5KAKZR0CVR
370,65,,1.0,45.0,2868475410-213219.jpg,2901946465-218350.jpg,1.0,,,,AZ5KAKZR0CVR
371,66,,1.0,46.0,2458347385-199723.jpg,2458347252-348911.jpg,3.0,,,,AZ5KAKZR0CVR
372,67,,1.0,47.0,2898624426-291546.jpg,2964218432-369263.jpg,1.0,,,,AZ5KAKZR0CVR
373,68,left,1.0,48.0,left.jpg,,,left,1.1298,,AZ5KAKZR0CVR
374,69,,1.0,49.0,2901952513-70703.jpg,2238481198-19821.jpg,3.0,,,,AZ5KAKZR0CVR
375,70,,1.0,50.0,2964223381-294447.jpg,2901941438-69836.jpg,2.0,,,,AZ5KAKZR0CVR
376,71,,1.0,51.0,2575120738-55529.jpg,2575120738-55528.jpg,2.0,,,,AZ5KAKZR0CVR
377,72,,1.0,52.0,2901948350-218459.jpg,2804906319-133082.jpg,1.0,,,,AZ5KAKZR0CVR
378,73,,1.0,53.0,2238428357-313623.jpg,2238499057-320266.jpg,1.0,,,,AZ5KAKZR0CVR
379,74,,1.0,54.0,2512875899-126682.jpg,2460547536-274179.jpg,1.0,,,,AZ5KAKZR0CVR
380,75,,1.0,55.0,2592380177-354629.jpg,2579432534-130704.jpg,2.0,,,,AZ5KAKZR0CVR
381,76,,1.0,56.0,2238560245-182099.jpg,2549106624-127823.jpg,1.0,,,,AZ5KAKZR0CVR
382,77,,1.0,57.0,2446759803-49249.jpg,2898618440-216547.jpg,2.0,,,,AZ5KAKZR0CVR
383,78,,1.0,58.0,2874303365-214262.jpg,2609793677-355397.jpg,1.0,,,,AZ5KAKZR0CVR
384,79,,1.0,59.0,2981241414-145842.jpg,2427873848-47312.jpg,3.0,,,,AZ5KAKZR0CVR
385,80,,1.0,60.0,2874307433-66280.jpg,2981231422-369714.jpg,3.0,,,,AZ5KAKZR0CVR
386,81,,1.0,61.0,2592380177-354626.jpg,2864901386-286797.jpg,2.0,,,,AZ5KAKZR0CVR
387,82,,1.0,62.0,2883256307-365057.jpg,2611628310-206388.jpg,1.0,,,,AZ5KAKZR0CVR
388,83,,1.0,63.0,2898635428-69104.jpg,2898625336-291572.jpg,3.0,,,,AZ5KAKZR0CVR
389,84,,1.0,64.0,2874302418-65979.jpg,2413147898-43548.jpg,1.0,,,,AZ5KAKZR0CVR
390,20,,1.0,0.0,2864907432-362042.jpg,2901947423-70310.jpg,2.0,,,,A2P0EZBOOTBSAL
391,21,,1.0,1.0,2898617468-68274.jpg,2864906345-212360.jpg,1.0,,,,A2P0EZBOOTBSAL
392,22,,1.0,2.0,2238425482-313537.jpg,2238436322-314047.jpg,2.0,,,,A2P0EZBOOTBSAL
393,23,,1.0,3.0,2964218374-144967.jpg,2981231446-294732.jpg,3.0,,,,A2P0EZBOOTBSAL
394,24,,1.0,4.0,2864910426-287204.jpg,2874299429-139694.jpg,2.0,,,,A2P0EZBOOTBSAL
395,25,,1.0,5.0,2901939379-143480.jpg,2901938432-367629.jpg,3.0,,,,A2P0EZBOOTBSAL
396,26,right,1.0,6.0,right.jpg,,,right,1.133,,A2P0EZBOOTBSAL
397,27,,1.0,7.0,2964213381-294060.jpg,2981244394-145974.jpg,1.0,,,,A2P0EZBOOTBSAL
398,28,,1.0,8.0,2449442529-124445.jpg,2898632385-217137.jpg,3.0,,,,A2P0EZBOOTBSAL
399,29,,1.0,9.0,2883256307-365057.jpg,2964210336-293945.jpg,2.0,,,,A2P0EZBOOTBSAL
400,30,,1.0,10.0,2238480677-317399.jpg,2238573546-258454.jpg,2.0,,,,A2P0EZBOOTBSAL
401,31,,1.0,11.0,2238560245-182099.jpg,2549106624-127823.jpg,1.0,,,,A2P0EZBOOTBSAL
402,32,,1.0,12.0,2238572663-35822.jpg,2864903351-286874.jpg,3.0,,,,A2P0EZBOOTBSAL
403,33,,1.0,13.0,2901948350-218459.jpg,2804906319-133082.jpg,1.0,,,,A2P0EZBOOTBSAL
404,34,,1.0,14.0,2883268471-290842.jpg,2883255450-215310.jpg,2.0,,,,A2P0EZBOOTBSAL
405,35,,1.0,15.0,2901939379-143479.jpg,2460547467-349423.jpg,1.0,,,,A2P0EZBOOTBSAL
406,36,,1.0,16.0,2981241414-145842.jpg,2856919327-359676.jpg,1.0,,,,A2P0EZBOOTBSAL
407,37,,1.0,17.0,2964216465-219242.jpg,2238544191-252422.jpg,1.0,,,,A2P0EZBOOTBSAL
408,38,,1.0,18.0,2901947423-70311.jpg,2860312398-62572.jpg,1.0,,,,A2P0EZBOOTBSAL
409,39,,1.0,19.0,2898634397-367080.jpg,2901934408-69289.jpg,2.0,,,,A2P0EZBOOTBSAL
410,40,,1.0,20.0,2898624426-291546.jpg,2964218432-369263.jpg,1.0,,,,A2P0EZBOOTBSAL
411,41,right,1.0,21.0,right.jpg,,,right,0.984,,A2P0EZBOOTBSAL
412,42,,1.0,22.0,2874302418-65979.jpg,2238578544-111698.jpg,3.0,,,,A2P0EZBOOTBSAL
413,43,,1.0,23.0,2460547508-51571.jpg,2901941438-69835.jpg,3.0,,,,A2P0EZBOOTBSAL
414,44,,1.0,24.0,2883254439-140941.jpg,2981231446-294730.jpg,3.0,,,,A2P0EZBOOTBSAL
415,45,,1.0,25.0,2901941401-292798.jpg,2883273443-68193.jpg,3.0,,,,A2P0EZBOOTBSAL
416,46,,1.0,26.0,2446759347-347016.jpg,2964224310-219528.jpg,1.0,,,,A2P0EZBOOTBSAL
417,47,,1.0,27.0,2452380832-348593.jpg,2449442181-272436.jpg,3.0,,,,A2P0EZBOOTBSAL
418,48,,1.0,28.0,2898635428-69104.jpg,2898625336-291572.jpg,3.0,,,,A2P0EZBOOTBSAL
419,49,,1.0,29.0,2458347385-199723.jpg,2458347252-348911.jpg,3.0,,,,A2P0EZBOOTBSAL
420,50,,1.0,30.0,2592380177-354626.jpg,2864901386-286797.jpg,2.0,,,,A2P0EZBOOTBSAL
421,51,,1.0,31.0,2238428357-313623.jpg,2575121987-353817.jpg,3.0,,,,A2P0EZBOOTBSAL
422,52,left,1.0,32.0,left.jpg,,,left,1.211,,A2P0EZBOOTBSAL
423,53,,1.0,33.0,2592380177-354629.jpg,2898633421-291974.jpg,1.0,,,,A2P0EZBOOTBSAL
424,54,,1.0,34.0,2898635427-367120.jpg,2901946439-144040.jpg,1.0,,,,A2P0EZBOOTBSAL
425,55,,1.0,35.0,2901952513-70703.jpg,2238481198-19821.jpg,3.0,,,,A2P0EZBOOTBSAL
426,56,left,1.0,36.0,left.jpg,,,left,0.973,,A2P0EZBOOTBSAL
427,57,,1.0,37.0,2868475410-213219.jpg,2901946465-218350.jpg,1.0,,,,A2P0EZBOOTBSAL
428,58,,1.0,38.0,2898618444-142233.jpg,2238555262-330312.jpg,2.0,,,,A2P0EZBOOTBSAL
429,59,,1.0,39.0,2883268412-365898.jpg,2984615361-295510.jpg,2.0,,,,A2P0EZBOOTBSAL
430,60,,1.0,40.0,2446759803-49249.jpg,2898618440-216547.jpg,2.0,,,,A2P0EZBOOTBSAL
431,61,,1.0,41.0,2460547467-349422.jpg,2864909447-362146.jpg,3.0,,,,A2P0EZBOOTBSAL
432,62,,1.0,42.0,2460547467-349421.jpg,2452380166-273110.jpg,2.0,,,,A2P0EZBOOTBSAL
433,63,,1.0,43.0,2874302418-65978.jpg,2898633321-291943.jpg,3.0,,,,A2P0EZBOOTBSAL
434,64,,1.0,44.0,2981231403-71642.jpg,2427873763-47290.jpg,3.0,,,,A2P0EZBOOTBSAL
435,65,,1.0,45.0,2964223381-294447.jpg,2901941438-69836.jpg,2.0,,,,A2P0EZBOOTBSAL
436,66,,1.0,46.0,2874301407-363895.jpg,2986397322-371109.jpg,2.0,,,,A2P0EZBOOTBSAL
437,67,,1.0,47.0,2874303365-214262.jpg,2609793677-355397.jpg,1.0,,,,A2P0EZBOOTBSAL
438,68,,1.0,48.0,2452381505-199546.jpg,2901938432-367627.jpg,1.0,,,,A2P0EZBOOTBSAL
439,69,,1.0,49.0,2238580740-186218.jpg,2964220333-71258.jpg,3.0,,,,A2P0EZBOOTBSAL
440,70,,1.0,50.0,2449441881-272368.jpg,2883268412-365899.jpg,1.0,,,,A2P0EZBOOTBSAL
441,71,,1.0,51.0,2449442529-124446.jpg,2446759803-49251.jpg,1.0,,,,A2P0EZBOOTBSAL
442,72,right,1.0,52.0,right.jpg,,,right,0.97,,A2P0EZBOOTBSAL
443,73,,1.0,53.0,2874299429-139695.jpg,2446760917-347439.jpg,3.0,,,,A2P0EZBOOTBSAL
444,74,,1.0,54.0,2575120738-55529.jpg,2238531493-28260.jpg,3.0,,,,A2P0EZBOOTBSAL
445,75,,1.0,55.0,2512875899-126682.jpg,2460547536-274179.jpg,1.0,,,,A2P0EZBOOTBSAL
446,76,,1.0,56.0,2898633421-291973.jpg,2575118671-277663.jpg,2.0,,,,A2P0EZBOOTBSAL
447,77,,1.0,57.0,2898618390-216538.jpg,2901939327-367670.jpg,2.0,,,,A2P0EZBOOTBSAL
448,78,,1.0,58.0,2238481198-19822.jpg,2901946436-293242.jpg,2.0,,,,A2P0EZBOOTBSAL
449,79,,1.0,59.0,2592379964-131054.jpg,2575963989-130576.jpg,1.0,,,,A2P0EZBOOTBSAL
450,80,,1.0,60.0,2874307433-66280.jpg,2981246400-220365.jpg,2.0,,,,A2P0EZBOOTBSAL
451,81,,1.0,61.0,2238481928-19949.jpg,2864900357-361688.jpg,2.0,,,,A2P0EZBOOTBSAL
452,82,,1.0,62.0,2446758985-197609.jpg,2864909447-362144.jpg,2.0,,,,A2P0EZBOOTBSAL
453,83,,1.0,63.0,2986451363-73599.jpg,2238434559-90406.jpg,3.0,,,,A2P0EZBOOTBSAL
454,84,,1.0,64.0,2868474407-362883.jpg,2238516618-25604.jpg,1.0,,,,A2P0EZBOOTBSAL
455,20,,1.0,0.0,2449442529-124446.jpg,2446759803-49251.jpg,1.0,,,,AH7Z2M3KSQ4DW
456,21,,1.0,1.0,2901948350-218459.jpg,2981246360-220352.jpg,3.0,,,,AH7Z2M3KSQ4DW
457,22,,1.0,2.0,2238425482-313537.jpg,2238471391-240918.jpg,1.0,,,,AH7Z2M3KSQ4DW
458,23,,1.0,3.0,2874302418-65978.jpg,2898626385-216899.jpg,1.0,,,,AH7Z2M3KSQ4DW
459,24,,1.0,4.0,2874307433-66280.jpg,2981246400-220365.jpg,2.0,,,,AH7Z2M3KSQ4DW
460,25,,1.0,5.0,2883254439-140941.jpg,2898632385-217136.jpg,2.0,,,,AH7Z2M3KSQ4DW
461,26,,1.0,6.0,2868475410-213219.jpg,2238480803-19739.jpg,2.0,,,,AH7Z2M3KSQ4DW
462,27,,1.0,7.0,2964216465-219242.jpg,2238544191-252422.jpg,1.0,,,,AH7Z2M3KSQ4DW
463,28,,1.0,8.0,2964218374-144967.jpg,2981231446-294732.jpg,3.0,,,,AH7Z2M3KSQ4DW
464,29,left,1.0,9.0,left.jpg,,,left,0.6894,,AH7Z2M3KSQ4DW
465,30,,1.0,10.0,2964223381-294447.jpg,2898628438-68785.jpg,3.0,,,,AH7Z2M3KSQ4DW
466,31,,1.0,11.0,2446759803-49249.jpg,2898618440-216547.jpg,2.0,,,,AH7Z2M3KSQ4DW
467,32,,1.0,12.0,2898618390-216538.jpg,2575120609-129862.jpg,3.0,,,,AH7Z2M3KSQ4DW
468,33,,1.0,13.0,2864907432-362042.jpg,2901947423-70310.jpg,2.0,,,,AH7Z2M3KSQ4DW
469,34,,1.0,14.0,2458347385-199723.jpg,2238480434-93829.jpg,1.0,,,,AH7Z2M3KSQ4DW
470,35,,1.0,15.0,2986451363-73599.jpg,2901939327-367669.jpg,1.0,,,,AH7Z2M3KSQ4DW
471,36,,1.0,16.0,2864910426-287204.jpg,2874299429-139694.jpg,2.0,,,,AH7Z2M3KSQ4DW
472,37,right,1.0,17.0,right.jpg,,,right,0.6458,,AH7Z2M3KSQ4DW
473,38,,1.0,18.0,2575120738-55529.jpg,2238531493-28260.jpg,3.0,,,,AH7Z2M3KSQ4DW
474,39,,1.0,19.0,2874299429-139695.jpg,2446760917-347439.jpg,3.0,,,,AH7Z2M3KSQ4DW
475,40,,1.0,20.0,2238572663-35822.jpg,2986419333-73361.jpg,1.0,,,,AH7Z2M3KSQ4DW
476,41,,1.0,21.0,2452381505-199546.jpg,2994401319-148290.jpg,3.0,,,,AH7Z2M3KSQ4DW
477,42,,1.0,22.0,2981231403-71642.jpg,2427873763-47290.jpg,3.0,,,,AH7Z2M3KSQ4DW
478,43,,1.0,23.0,2898635427-367120.jpg,2898621427-366486.jpg,3.0,,,,AH7Z2M3KSQ4DW
479,44,,1.0,24.0,2238580740-186218.jpg,2238550816-254000.jpg,1.0,,,,AH7Z2M3KSQ4DW
480,45,,1.0,25.0,2449442529-124445.jpg,2986408373-73286.jpg,2.0,,,,AH7Z2M3KSQ4DW
481,46,,1.0,26.0,2460547467-349422.jpg,2898618440-216545.jpg,1.0,,,,AH7Z2M3KSQ4DW
482,47,,1.0,27.0,2512875899-126682.jpg,2986447332-371497.jpg,3.0,,,,AH7Z2M3KSQ4DW
483,48,,1.0,28.0,2898624426-291546.jpg,2981236443-71859.jpg,2.0,,,,AH7Z2M3KSQ4DW
484,49,,1.0,29.0,2901941401-292798.jpg,2981243412-370222.jpg,2.0,,,,AH7Z2M3KSQ4DW
485,50,,1.0,30.0,2883256307-365057.jpg,2864904453-63933.jpg,3.0,,,,AH7Z2M3KSQ4DW
486,51,,1.0,31.0,2460547467-349421.jpg,2981235446-294901.jpg,3.0,,,,AH7Z2M3KSQ4DW
487,52,,1.0,32.0,2592380177-354629.jpg,2512875587-350044.jpg,3.0,,,,AH7Z2M3KSQ4DW
488,53,,1.0,33.0,2592380177-354626.jpg,2238117096-228518.jpg,3.0,,,,AH7Z2M3KSQ4DW
489,54,right,1.0,34.0,right.jpg,,,right,0.8903,,AH7Z2M3KSQ4DW
490,55,,1.0,35.0,2883268471-290842.jpg,2883268471-290843.jpg,1.0,,,,AH7Z2M3KSQ4DW
491,56,,1.0,36.0,2238560245-182099.jpg,2238480980-168129.jpg,3.0,,,,AH7Z2M3KSQ4DW
492,57,,1.0,37.0,2592379964-131054.jpg,2238479053-19457.jpg,2.0,,,,AH7Z2M3KSQ4DW
493,58,,1.0,38.0,2874302418-65979.jpg,2413147898-43548.jpg,1.0,,,,AH7Z2M3KSQ4DW
494,59,,1.0,39.0,2901939379-143479.jpg,2981240424-145794.jpg,3.0,,,,AH7Z2M3KSQ4DW
495,60,left,1.0,40.0,left.jpg,,,left,0.7766,,AH7Z2M3KSQ4DW
496,61,,1.0,41.0,2446758985-197609.jpg,2864909447-362144.jpg,2.0,,,,AH7Z2M3KSQ4DW
497,62,,1.0,42.0,2874301407-363895.jpg,2883264368-67631.jpg,1.0,,,,AH7Z2M3KSQ4DW
498,63,,1.0,43.0,2460547508-51571.jpg,2460547291-274110.jpg,1.0,,,,AH7Z2M3KSQ4DW
499,64,,1.0,44.0,2964213381-294060.jpg,2458348012-349114.jpg,2.0,,,,AH7Z2M3KSQ4DW
500,65,,1.0,45.0,2901952513-70703.jpg,2868469411-287540.jpg,2.0,,,,AH7Z2M3KSQ4DW
501,66,right,1.0,46.0,right.jpg,,,right,0.6635,,AH7Z2M3KSQ4DW
502,67,,1.0,47.0,2238481928-19949.jpg,2883264367-365620.jpg,1.0,,,,AH7Z2M3KSQ4DW
503,68,,1.0,48.0,2901939379-143480.jpg,2901942428-69919.jpg,1.0,,,,AH7Z2M3KSQ4DW
504,69,,1.0,49.0,2898633421-291973.jpg,2512876023-52283.jpg,1.0,,,,AH7Z2M3KSQ4DW
505,70,,1.0,50.0,2449441881-272368.jpg,2984615358-72439.jpg,2.0,,,,AH7Z2M3KSQ4DW
506,71,,1.0,51.0,2898617468-68274.jpg,2964207374-144577.jpg,3.0,,,,AH7Z2M3KSQ4DW
507,72,,1.0,52.0,2898634397-367080.jpg,2237944827-301472.jpg,1.0,,,,AH7Z2M3KSQ4DW
508,73,,1.0,53.0,2452380832-348593.jpg,2238328478-11678.jpg,1.0,,,,AH7Z2M3KSQ4DW
509,74,,1.0,54.0,2446759347-347016.jpg,2238569117-333045.jpg,3.0,,,,AH7Z2M3KSQ4DW
510,75,,1.0,55.0,2898635428-69104.jpg,2898625336-291572.jpg,3.0,,,,AH7Z2M3KSQ4DW
511,76,,1.0,56.0,2238480677-317399.jpg,2238573546-258454.jpg,2.0,,,,AH7Z2M3KSQ4DW
512,77,,1.0,57.0,2238481198-19822.jpg,2901946436-293242.jpg,2.0,,,,AH7Z2M3KSQ4DW
513,78,,1.0,58.0,2981241414-145842.jpg,2856919327-359676.jpg,1.0,,,,AH7Z2M3KSQ4DW
514,79,,1.0,59.0,2868474407-362883.jpg,2981246400-220363.jpg,2.0,,,,AH7Z2M3KSQ4DW
515,80,,1.0,60.0,2874303365-214262.jpg,2609793677-355397.jpg,1.0,,,,AH7Z2M3KSQ4DW
516,81,,1.0,61.0,2883268412-365898.jpg,2984615361-295510.jpg,2.0,,,,AH7Z2M3KSQ4DW
517,82,,1.0,62.0,2901947423-70311.jpg,2238577590-185467.jpg,3.0,,,,AH7Z2M3KSQ4DW
518,83,,1.0,63.0,2238428357-313623.jpg,2984615361-295509.jpg,2.0,,,,AH7Z2M3KSQ4DW
519,84,,1.0,64.0,2898618444-142233.jpg,2238555262-330312.jpg,2.0,,,,AH7Z2M3KSQ4DW
520,20,,1.0,0.0,2238481198-19822.jpg,2901946436-293242.jpg,2.0,,,,A3VG8YYPGF02CA
521,21,,1.0,1.0,2901947423-70311.jpg,2238577590-185467.jpg,3.0,,,,A3VG8YYPGF02CA
522,22,,1.0,2.0,2446759347-347016.jpg,2901951350-218702.jpg,2.0,,,,A3VG8YYPGF02CA
523,23,,1.0,3.0,2898635428-69104.jpg,2898625336-291572.jpg,3.0,,,,A3VG8YYPGF02CA
524,24,,1.0,4.0,2898617468-68274.jpg,2964207374-144577.jpg,3.0,,,,A3VG8YYPGF02CA
525,25,,1.0,5.0,2460547467-349422.jpg,2898618440-216545.jpg,1.0,,,,A3VG8YYPGF02CA
526,26,,1.0,6.0,2460547508-51571.jpg,2460547291-274110.jpg,1.0,,,,A3VG8YYPGF02CA
527,27,,1.0,7.0,2592380177-354629.jpg,2512875587-350044.jpg,3.0,,,,A3VG8YYPGF02CA
528,28,left,1.0,8.0,left.jpg,,,left,0.8027,,A3VG8YYPGF02CA
529,29,,1.0,9.0,2901952513-70703.jpg,2868469411-287540.jpg,2.0,,,,A3VG8YYPGF02CA
530,30,,1.0,10.0,2238560245-182099.jpg,2549106624-127823.jpg,1.0,,,,A3VG8YYPGF02CA
531,31,,1.0,11.0,2449441881-272368.jpg,2984615358-72439.jpg,2.0,,,,A3VG8YYPGF02CA
532,32,,1.0,12.0,2883268412-365898.jpg,2238436252-314037.jpg,3.0,,,,A3VG8YYPGF02CA
533,33,,1.0,13.0,2874302418-65979.jpg,2413147898-43548.jpg,1.0,,,,A3VG8YYPGF02CA
534,34,,1.0,14.0,2986451363-73599.jpg,2860302315-210704.jpg,2.0,,,,A3VG8YYPGF02CA
535,35,,1.0,15.0,2452380832-348593.jpg,2238481813-19930.jpg,2.0,,,,A3VG8YYPGF02CA
536,36,,1.0,16.0,2964218374-144967.jpg,2883254439-140940.jpg,2.0,,,,A3VG8YYPGF02CA
537,37,,1.0,17.0,2898635427-367120.jpg,2868479517-363220.jpg,2.0,,,,A3VG8YYPGF02CA
538,38,,1.0,18.0,2964223381-294447.jpg,2901941438-69836.jpg,2.0,,,,A3VG8YYPGF02CA
539,39,,1.0,19.0,2874302418-65978.jpg,2898626385-216899.jpg,1.0,,,,A3VG8YYPGF02CA
540,40,,1.0,20.0,2901941401-292798.jpg,2898618327-366317.jpg,1.0,,,,A3VG8YYPGF02CA
541,41,,1.0,21.0,2452381505-199546.jpg,2901938432-367627.jpg,1.0,,,,A3VG8YYPGF02CA
542,42,,1.0,22.0,2874301407-363895.jpg,2901947323-70275.jpg,3.0,,,,A3VG8YYPGF02CA
543,43,,1.0,23.0,2883254439-140941.jpg,2981231446-294730.jpg,3.0,,,,A3VG8YYPGF02CA
544,44,,0.0,24.0,left.jpg,,,left,,,A3VG8YYPGF02CA
545,45,,1.0,25.0,2868475410-213219.jpg,2868474407-362885.jpg,3.0,,,,A3VG8YYPGF02CA
546,46,,1.0,26.0,2901948350-218459.jpg,2417208001-267065.jpg,2.0,,,,A3VG8YYPGF02CA
547,47,,1.0,27.0,2901939379-143479.jpg,2446758985-197610.jpg,2.0,,,,A3VG8YYPGF02CA
548,48,,1.0,28.0,2592379964-131054.jpg,2575963989-130576.jpg,1.0,,,,A3VG8YYPGF02CA
549,49,,1.0,29.0,2874307433-66280.jpg,2981246400-220365.jpg,2.0,,,,A3VG8YYPGF02CA
550,50,,1.0,30.0,2458347385-199723.jpg,2238480434-93829.jpg,1.0,,,,A3VG8YYPGF02CA
551,51,,0.0,31.0,right.jpg,,,right,,,A3VG8YYPGF02CA
552,52,,1.0,32.0,2449442529-124445.jpg,2898632385-217137.jpg,3.0,,,,A3VG8YYPGF02CA
553,53,,1.0,33.0,2981231403-71642.jpg,2981244403-72215.jpg,2.0,,,,A3VG8YYPGF02CA
554,54,,1.0,34.0,2449442529-124446.jpg,2446759803-49251.jpg,1.0,,,,A3VG8YYPGF02CA
555,55,,1.0,35.0,2883268471-290842.jpg,2901947448-70314.jpg,3.0,,,,A3VG8YYPGF02CA
556,56,,1.0,36.0,2981241414-145842.jpg,2427873848-47312.jpg,3.0,,,,A3VG8YYPGF02CA
557,57,,1.0,37.0,2446759803-49249.jpg,2446760601-272099.jpg,1.0,,,,A3VG8YYPGF02CA
558,58,,1.0,38.0,2874303365-214262.jpg,2238563377-332054.jpg,2.0,,,,A3VG8YYPGF02CA
559,59,,1.0,39.0,2898618390-216538.jpg,2986449336-296644.jpg,1.0,,,,A3VG8YYPGF02CA
560,60,,0.0,40.0,left.jpg,,,left,,,A3VG8YYPGF02CA
561,61,,1.0,41.0,2460547467-349421.jpg,2898631394-142727.jpg,1.0,,,,A3VG8YYPGF02CA
562,62,,1.0,42.0,2874299429-139695.jpg,2446760917-347439.jpg,3.0,,,,A3VG8YYPGF02CA
563,63,,1.0,43.0,2883256307-365057.jpg,2964210336-293945.jpg,2.0,,,,A3VG8YYPGF02CA
564,64,,1.0,44.0,2575120738-55529.jpg,2238531493-28260.jpg,3.0,,,,A3VG8YYPGF02CA
565,65,,1.0,45.0,2864907432-362042.jpg,2864901420-212147.jpg,1.0,,,,A3VG8YYPGF02CA
566,66,,1.0,46.0,2964216465-219242.jpg,2238544191-252422.jpg,1.0,,,,A3VG8YYPGF02CA
567,67,,1.0,47.0,2238428357-313623.jpg,2984615361-295509.jpg,2.0,,,,A3VG8YYPGF02CA
568,68,,1.0,48.0,2964213381-294060.jpg,2458348012-349114.jpg,2.0,,,,A3VG8YYPGF02CA
569,69,,1.0,49.0,2898618444-142233.jpg,2898631359-142721.jpg,1.0,,,,A3VG8YYPGF02CA
570,70,,1.0,50.0,2238425482-313537.jpg,2238471391-240918.jpg,1.0,,,,A3VG8YYPGF02CA
571,71,,0.0,51.0,right.jpg,,,right,,,A3VG8YYPGF02CA
572,72,,1.0,52.0,2238580740-186218.jpg,2964220333-71258.jpg,3.0,,,,A3VG8YYPGF02CA
573,73,,1.0,53.0,2238480677-317399.jpg,2238481630-168218.jpg,1.0,,,,A3VG8YYPGF02CA
574,74,,1.0,54.0,2901939379-143480.jpg,2901942428-69919.jpg,1.0,,,,A3VG8YYPGF02CA
575,75,,1.0,55.0,2868474407-362883.jpg,2981246400-220363.jpg,2.0,,,,A3VG8YYPGF02CA
576,76,,1.0,56.0,2898634397-367080.jpg,2964217461-294238.jpg,3.0,,,,A3VG8YYPGF02CA
577,77,,1.0,57.0,2238481928-19949.jpg,2864900357-361688.jpg,2.0,,,,A3VG8YYPGF02CA
578,78,,1.0,58.0,2898624426-291546.jpg,2981235446-294900.jpg,3.0,,,,A3VG8YYPGF02CA
579,79,,1.0,59.0,2864910426-287204.jpg,2901939433-69672.jpg,3.0,,,,A3VG8YYPGF02CA
580,80,,1.0,60.0,2512875899-126682.jpg,2986447332-371497.jpg,3.0,,,,A3VG8YYPGF02CA
581,81,,1.0,61.0,2446758985-197609.jpg,2981240424-145795.jpg,1.0,,,,A3VG8YYPGF02CA
582,82,,1.0,62.0,2898633421-291973.jpg,2575118671-277663.jpg,2.0,,,,A3VG8YYPGF02CA
583,83,,1.0,63.0,2238572663-35822.jpg,2864903351-286874.jpg,3.0,,,,A3VG8YYPGF02CA
584,84,,1.0,64.0,2592380177-354626.jpg,2238117096-228518.jpg,3.0,,,,A3VG8YYPGF02CA
585,20,,1.0,0.0,2898635428-69104.jpg,2901943411-292945.jpg,2.0,,,,A37R0JYAB3QEX9
586,21,,1.0,1.0,2874302418-65979.jpg,2238578544-111698.jpg,3.0,,,,A37R0JYAB3QEX9
587,22,,1.0,2.0,2449442529-124446.jpg,2460547536-274181.jpg,2.0,,,,A37R0JYAB3QEX9
588,23,,1.0,3.0,2864910426-287204.jpg,2874299429-139694.jpg,2.0,,,,A37R0JYAB3QEX9
589,24,,1.0,4.0,2898624426-291546.jpg,2981235446-294900.jpg,3.0,,,,A37R0JYAB3QEX9
590,25,,1.0,5.0,2449441881-272368.jpg,2883268412-365899.jpg,1.0,,,,A37R0JYAB3QEX9
591,26,,1.0,6.0,2446759803-49249.jpg,2446760601-272099.jpg,1.0,,,,A37R0JYAB3QEX9
592,27,left,1.0,7.0,left.jpg,,,left,0.6387,,A37R0JYAB3QEX9
593,28,,1.0,8.0,2898633421-291973.jpg,2575118671-277663.jpg,2.0,,,,A37R0JYAB3QEX9
594,29,,1.0,9.0,2898618390-216538.jpg,2986449336-296644.jpg,1.0,,,,A37R0JYAB3QEX9
595,30,,1.0,10.0,2901939379-143479.jpg,2981240424-145794.jpg,3.0,,,,A37R0JYAB3QEX9
596,31,,1.0,11.0,2868474407-362883.jpg,2238516618-25604.jpg,1.0,,,,A37R0JYAB3QEX9
597,32,,1.0,12.0,2883268471-290842.jpg,2883255450-215310.jpg,2.0,,,,A37R0JYAB3QEX9
598,33,,1.0,13.0,2238560245-182099.jpg,2549106624-127823.jpg,1.0,,,,A37R0JYAB3QEX9
599,34,,1.0,14.0,2868475410-213219.jpg,2901946465-218350.jpg,1.0,,,,A37R0JYAB3QEX9
600,35,,1.0,15.0,2238481198-19822.jpg,2901946436-293242.jpg,2.0,,,,A37R0JYAB3QEX9
601,36,,1.0,16.0,2446758985-197609.jpg,2898624426-291544.jpg,3.0,,,,A37R0JYAB3QEX9
602,37,,1.0,17.0,2512875899-126682.jpg,2460547536-274179.jpg,1.0,,,,A37R0JYAB3QEX9
603,38,,1.0,18.0,2460547467-349421.jpg,2898631394-142727.jpg,1.0,,,,A37R0JYAB3QEX9
604,39,,1.0,19.0,2452381505-199546.jpg,2994401319-148290.jpg,3.0,,,,A37R0JYAB3QEX9
605,40,,1.0,20.0,2575120738-55529.jpg,2898632385-217138.jpg,1.0,,,,A37R0JYAB3QEX9
606,41,,1.0,21.0,2458347385-199723.jpg,2238480434-93829.jpg,1.0,,,,A37R0JYAB3QEX9
607,42,left,1.0,22.0,left.jpg,,,left,0.7168,,A37R0JYAB3QEX9
608,43,,1.0,23.0,2883256307-365057.jpg,2864904453-63933.jpg,3.0,,,,A37R0JYAB3QEX9
609,44,,1.0,24.0,2981241414-145842.jpg,2874301404-139813.jpg,2.0,,,,A37R0JYAB3QEX9
610,45,,1.0,25.0,2964218374-144967.jpg,2981231446-294732.jpg,3.0,,,,A37R0JYAB3QEX9
611,46,,1.0,26.0,2901939379-143480.jpg,2981229442-369621.jpg,2.0,,,,A37R0JYAB3QEX9
612,47,,1.0,27.0,2901948350-218459.jpg,2417208001-267065.jpg,2.0,,,,A37R0JYAB3QEX9
613,48,,1.0,28.0,2883254439-140941.jpg,2898632385-217136.jpg,2.0,,,,A37R0JYAB3QEX9
614,49,right,1.0,29.0,right.jpg,,,right,0.6659,,A37R0JYAB3QEX9
615,50,,1.0,30.0,2964213381-294060.jpg,2981244394-145974.jpg,1.0,,,,A37R0JYAB3QEX9
616,51,,1.0,31.0,2864907432-362042.jpg,2864901420-212147.jpg,1.0,,,,A37R0JYAB3QEX9
617,52,,1.0,32.0,2898634397-367080.jpg,2964217461-294238.jpg,3.0,,,,A37R0JYAB3QEX9
618,53,,1.0,33.0,2901941401-292798.jpg,2883273443-68193.jpg,3.0,,,,A37R0JYAB3QEX9
619,54,,1.0,34.0,2874303365-214262.jpg,2864911457-362260.jpg,3.0,,,,A37R0JYAB3QEX9
620,55,,1.0,35.0,2238572663-35822.jpg,2864903351-286874.jpg,3.0,,,,A37R0JYAB3QEX9
621,56,,0.0,36.0,left.jpg,,,left,,,A37R0JYAB3QEX9
622,57,,1.0,37.0,2592379964-131054.jpg,2575963989-130576.jpg,1.0,,,,A37R0JYAB3QEX9
623,58,,1.0,38.0,2874302418-65978.jpg,2898633321-291943.jpg,3.0,,,,A37R0JYAB3QEX9
624,59,,1.0,39.0,2446759347-347016.jpg,2238569117-333045.jpg,3.0,,,,A37R0JYAB3QEX9
625,60,,1.0,40.0,2874307433-66280.jpg,2986447306-296584.jpg,1.0,,,,A37R0JYAB3QEX9
626,61,,1.0,41.0,2452380832-348593.jpg,2238481813-19930.jpg,2.0,,,,A37R0JYAB3QEX9
627,62,,1.0,42.0,2964223381-294447.jpg,2427874231-269884.jpg,1.0,,,,A37R0JYAB3QEX9
628,63,,1.0,43.0,2883268412-365898.jpg,2984626312-370849.jpg,1.0,,,,A37R0JYAB3QEX9
629,64,,1.0,44.0,2898635427-367120.jpg,2901946439-144040.jpg,1.0,,,,A37R0JYAB3QEX9
630,65,,1.0,45.0,2898618444-142233.jpg,2898618444-142232.jpg,3.0,,,,A37R0JYAB3QEX9
631,66,left,1.0,46.0,left.jpg,,,left,0.4421,,A37R0JYAB3QEX9
632,67,,1.0,47.0,2238480677-317399.jpg,2238573546-258454.jpg,2.0,,,,A37R0JYAB3QEX9
633,68,,1.0,48.0,2901947423-70311.jpg,2860312398-62572.jpg,1.0,,,,A37R0JYAB3QEX9
634,69,,1.0,49.0,2238428357-313623.jpg,2575121987-353817.jpg,3.0,,,,A37R0JYAB3QEX9
635,70,,1.0,50.0,2981231403-71642.jpg,2981244403-72215.jpg,2.0,,,,A37R0JYAB3QEX9
636,71,,1.0,51.0,2592380177-354626.jpg,2864901386-286797.jpg,2.0,,,,A37R0JYAB3QEX9
637,72,,1.0,52.0,2460547508-51571.jpg,2460547291-274110.jpg,1.0,,,,A37R0JYAB3QEX9
638,73,,1.0,53.0,2592380177-354629.jpg,2579432534-130704.jpg,2.0,,,,A37R0JYAB3QEX9
639,74,,1.0,54.0,2460547467-349422.jpg,2864909447-362146.jpg,3.0,,,,A37R0JYAB3QEX9
640,75,,1.0,55.0,2898617468-68274.jpg,2901943387-368037.jpg,2.0,,,,A37R0JYAB3QEX9
641,76,,1.0,56.0,2449442529-124445.jpg,2898632385-217137.jpg,3.0,,,,A37R0JYAB3QEX9
642,77,,1.0,57.0,2874301407-363895.jpg,2901947323-70275.jpg,3.0,,,,A37R0JYAB3QEX9
643,78,,1.0,58.0,2238580740-186218.jpg,2238550816-254000.jpg,1.0,,,,A37R0JYAB3QEX9
644,79,,1.0,59.0,2874299429-139695.jpg,2901942443-69923.jpg,2.0,,,,A37R0JYAB3QEX9
645,80,,1.0,60.0,2964216465-219242.jpg,2864900319-137787.jpg,2.0,,,,A37R0JYAB3QEX9
646,81,,1.0,61.0,2238481928-19949.jpg,2981241419-145844.jpg,3.0,,,,A37R0JYAB3QEX9
647,82,,1.0,62.0,2901952513-70703.jpg,2868469411-287540.jpg,2.0,,,,A37R0JYAB3QEX9
648,83,,1.0,63.0,2986451363-73599.jpg,2238434559-90406.jpg,3.0,,,,A37R0JYAB3QEX9
649,84,,1.0,64.0,2238425482-313537.jpg,2238436322-314047.jpg,2.0,,,,A37R0JYAB3QEX9
650,20,,1.0,0.0,2898635428-69104.jpg,2901943411-292945.jpg,2.0,,,,A34H7SANVXDBFA
651,21,,1.0,1.0,2874302418-65979.jpg,2238578544-111698.jpg,3.0,,,,A34H7SANVXDBFA
652,22,,1.0,2.0,2449442529-124446.jpg,2460547536-274181.jpg,2.0,,,,A34H7SANVXDBFA
653,23,,1.0,3.0,2864910426-287204.jpg,2874299429-139694.jpg,2.0,,,,A34H7SANVXDBFA
654,24,,1.0,4.0,2898624426-291546.jpg,2981235446-294900.jpg,3.0,,,,A34H7SANVXDBFA
655,25,,1.0,5.0,2449441881-272368.jpg,2883268412-365899.jpg,1.0,,,,A34H7SANVXDBFA
656,26,,1.0,6.0,2446759803-49249.jpg,2446760601-272099.jpg,1.0,,,,A34H7SANVXDBFA
657,27,left,1.0,7.0,left.jpg,,,left,1.2648,,A34H7SANVXDBFA
658,28,,1.0,8.0,2898633421-291973.jpg,2575118671-277663.jpg,2.0,,,,A34H7SANVXDBFA
659,29,,1.0,9.0,2898618390-216538.jpg,2986449336-296644.jpg,1.0,,,,A34H7SANVXDBFA
660,30,,1.0,10.0,2901939379-143479.jpg,2981240424-145794.jpg,3.0,,,,A34H7SANVXDBFA
661,31,,1.0,11.0,2868474407-362883.jpg,2238516618-25604.jpg,1.0,,,,A34H7SANVXDBFA
662,32,,1.0,12.0,2883268471-290842.jpg,2883255450-215310.jpg,2.0,,,,A34H7SANVXDBFA
663,33,,1.0,13.0,2238560245-182099.jpg,2549106624-127823.jpg,1.0,,,,A34H7SANVXDBFA
664,34,,1.0,14.0,2868475410-213219.jpg,2901946465-218350.jpg,1.0,,,,A34H7SANVXDBFA
665,35,,1.0,15.0,2238481198-19822.jpg,2901946436-293242.jpg,2.0,,,,A34H7SANVXDBFA
666,36,,1.0,16.0,2446758985-197609.jpg,2898624426-291544.jpg,3.0,,,,A34H7SANVXDBFA
667,37,,1.0,17.0,2512875899-126682.jpg,2460547536-274179.jpg,1.0,,,,A34H7SANVXDBFA
668,38,,1.0,18.0,2460547467-349421.jpg,2898631394-142727.jpg,1.0,,,,A34H7SANVXDBFA
669,39,,1.0,19.0,2452381505-199546.jpg,2994401319-148290.jpg,3.0,,,,A34H7SANVXDBFA
670,40,,1.0,20.0,2575120738-55529.jpg,2898632385-217138.jpg,1.0,,,,A34H7SANVXDBFA
671,41,,1.0,21.0,2458347385-199723.jpg,2238480434-93829.jpg,1.0,,,,A34H7SANVXDBFA
672,42,,0.0,22.0,left.jpg,,,left,,,A34H7SANVXDBFA
673,43,,1.0,23.0,2883256307-365057.jpg,2864904453-63933.jpg,3.0,,,,A34H7SANVXDBFA
674,44,,1.0,24.0,2981241414-145842.jpg,2874301404-139813.jpg,2.0,,,,A34H7SANVXDBFA
675,45,,1.0,25.0,2964218374-144967.jpg,2981231446-294732.jpg,3.0,,,,A34H7SANVXDBFA
676,46,,1.0,26.0,2901939379-143480.jpg,2981229442-369621.jpg,2.0,,,,A34H7SANVXDBFA
677,47,,1.0,27.0,2901948350-218459.jpg,2417208001-267065.jpg,2.0,,,,A34H7SANVXDBFA
678,48,,1.0,28.0,2883254439-140941.jpg,2898632385-217136.jpg,2.0,,,,A34H7SANVXDBFA
679,49,right,1.0,29.0,right.jpg,,,right,1.277,,A34H7SANVXDBFA
680,50,,1.0,30.0,2964213381-294060.jpg,2981244394-145974.jpg,1.0,,,,A34H7SANVXDBFA
681,51,,1.0,31.0,2864907432-362042.jpg,2864901420-212147.jpg,1.0,,,,A34H7SANVXDBFA
682,52,,1.0,32.0,2898634397-367080.jpg,2964217461-294238.jpg,3.0,,,,A34H7SANVXDBFA
683,53,,1.0,33.0,2901941401-292798.jpg,2883273443-68193.jpg,3.0,,,,A34H7SANVXDBFA
684,54,,1.0,34.0,2874303365-214262.jpg,2864911457-362260.jpg,3.0,,,,A34H7SANVXDBFA
685,55,,1.0,35.0,2238572663-35822.jpg,2864903351-286874.jpg,3.0,,,,A34H7SANVXDBFA
686,56,left,1.0,36.0,left.jpg,,,left,1.1587,,A34H7SANVXDBFA
687,57,,1.0,37.0,2592379964-131054.jpg,2575963989-130576.jpg,1.0,,,,A34H7SANVXDBFA
688,58,,1.0,38.0,2874302418-65978.jpg,2898633321-291943.jpg,3.0,,,,A34H7SANVXDBFA
689,59,,1.0,39.0,2446759347-347016.jpg,2238569117-333045.jpg,3.0,,,,A34H7SANVXDBFA
690,60,,1.0,40.0,2874307433-66280.jpg,2986447306-296584.jpg,1.0,,,,A34H7SANVXDBFA
691,61,,1.0,41.0,2452380832-348593.jpg,2238481813-19930.jpg,2.0,,,,A34H7SANVXDBFA
692,62,,1.0,42.0,2964223381-294447.jpg,2427874231-269884.jpg,1.0,,,,A34H7SANVXDBFA
693,63,,1.0,43.0,2883268412-365898.jpg,2984626312-370849.jpg,1.0,,,,A34H7SANVXDBFA
694,64,,1.0,44.0,2898635427-367120.jpg,2901946439-144040.jpg,1.0,,,,A34H7SANVXDBFA
695,65,,1.0,45.0,2898618444-142233.jpg,2898618444-142232.jpg,3.0,,,,A34H7SANVXDBFA
696,66,,0.0,46.0,left.jpg,,,left,,,A34H7SANVXDBFA
697,67,,1.0,47.0,2238480677-317399.jpg,2238573546-258454.jpg,2.0,,,,A34H7SANVXDBFA
698,68,,1.0,48.0,2901947423-70311.jpg,2860312398-62572.jpg,1.0,,,,A34H7SANVXDBFA
699,69,,1.0,49.0,2238428357-313623.jpg,2575121987-353817.jpg,3.0,,,,A34H7SANVXDBFA
700,70,,1.0,50.0,2981231403-71642.jpg,2981244403-72215.jpg,2.0,,,,A34H7SANVXDBFA
701,71,,1.0,51.0,2592380177-354626.jpg,2864901386-286797.jpg,2.0,,,,A34H7SANVXDBFA
702,72,,1.0,52.0,2460547508-51571.jpg,2460547291-274110.jpg,1.0,,,,A34H7SANVXDBFA
703,73,,1.0,53.0,2592380177-354629.jpg,2579432534-130704.jpg,2.0,,,,A34H7SANVXDBFA
704,74,,1.0,54.0,2460547467-349422.jpg,2864909447-362146.jpg,3.0,,,,A34H7SANVXDBFA
705,75,,1.0,55.0,2898617468-68274.jpg,2901943387-368037.jpg,2.0,,,,A34H7SANVXDBFA
706,76,,1.0,56.0,2449442529-124445.jpg,2898632385-217137.jpg,3.0,,,,A34H7SANVXDBFA
707,77,,1.0,57.0,2874301407-363895.jpg,2901947323-70275.jpg,3.0,,,,A34H7SANVXDBFA
708,78,,1.0,58.0,2238580740-186218.jpg,2238550816-254000.jpg,1.0,,,,A34H7SANVXDBFA
709,79,,1.0,59.0,2874299429-139695.jpg,2901942443-69923.jpg,2.0,,,,A34H7SANVXDBFA
710,80,,1.0,60.0,2964216465-219242.jpg,2864900319-137787.jpg,2.0,,,,A34H7SANVXDBFA
711,81,,1.0,61.0,2238481928-19949.jpg,2981241419-145844.jpg,3.0,,,,A34H7SANVXDBFA
712,82,,1.0,62.0,2901952513-70703.jpg,2868469411-287540.jpg,2.0,,,,A34H7SANVXDBFA
713,83,,1.0,63.0,2986451363-73599.jpg,2238434559-90406.jpg,3.0,,,,A34H7SANVXDBFA
714,84,,1.0,64.0,2238425482-313537.jpg,2238436322-314047.jpg,2.0,,,,A34H7SANVXDBFA
715,20,,1.0,0.0,2981231403-71642.jpg,2427873763-47290.jpg,3.0,,,,A2EZ5YR6PJ6XX0
716,21,,1.0,1.0,2964213381-294060.jpg,2964213381-294061.jpg,3.0,,,,A2EZ5YR6PJ6XX0
717,22,,1.0,2.0,2901939379-143479.jpg,2460547467-349423.jpg,1.0,,,,A2EZ5YR6PJ6XX0
718,23,,1.0,3.0,2901941401-292798.jpg,2981243412-370222.jpg,2.0,,,,A2EZ5YR6PJ6XX0
719,24,,1.0,4.0,2449441881-272368.jpg,2449441881-272367.jpg,3.0,,,,A2EZ5YR6PJ6XX0
720,25,,1.0,5.0,2452380832-348593.jpg,2238481813-19930.jpg,2.0,,,,A2EZ5YR6PJ6XX0
721,26,,1.0,6.0,2898635428-69104.jpg,2901943411-292945.jpg,2.0,,,,A2EZ5YR6PJ6XX0
722,27,,1.0,7.0,2874307433-66280.jpg,2986447306-296584.jpg,1.0,,,,A2EZ5YR6PJ6XX0
723,28,,1.0,8.0,2901952513-70703.jpg,2238481198-19821.jpg,3.0,,,,A2EZ5YR6PJ6XX0
724,29,,1.0,9.0,2592380177-354629.jpg,2579432534-130704.jpg,2.0,,,,A2EZ5YR6PJ6XX0
725,30,,0.0,10.0,left.jpg,,,left,,,A2EZ5YR6PJ6XX0
726,31,,1.0,11.0,2874302418-65979.jpg,2413147898-43548.jpg,1.0,,,,A2EZ5YR6PJ6XX0
727,32,,1.0,12.0,2883268412-365898.jpg,2238436252-314037.jpg,3.0,,,,A2EZ5YR6PJ6XX0
728,33,,1.0,13.0,2512875899-126682.jpg,2986447332-371497.jpg,3.0,,,,A2EZ5YR6PJ6XX0
729,34,,1.0,14.0,2458347385-199723.jpg,2458347252-348911.jpg,3.0,,,,A2EZ5YR6PJ6XX0
730,35,,1.0,15.0,2883254439-140941.jpg,2981231446-294730.jpg,3.0,,,,A2EZ5YR6PJ6XX0
731,36,,1.0,16.0,2874303365-214262.jpg,2864911457-362260.jpg,3.0,,,,A2EZ5YR6PJ6XX0
732,37,,1.0,17.0,2898618444-142233.jpg,2898618444-142232.jpg,3.0,,,,A2EZ5YR6PJ6XX0
733,38,right,0.0,18.0,left.jpg,,,left,0.0946,,A2EZ5YR6PJ6XX0
734,39,,1.0,19.0,2986451363-73599.jpg,2860302315-210704.jpg,2.0,,,,A2EZ5YR6PJ6XX0
735,40,,1.0,20.0,2238425482-313537.jpg,2238471391-240918.jpg,1.0,,,,A2EZ5YR6PJ6XX0
736,41,,1.0,21.0,2452381505-199546.jpg,2994401319-148290.jpg,3.0,,,,A2EZ5YR6PJ6XX0
737,42,,1.0,22.0,2898633421-291973.jpg,2575118671-277663.jpg,2.0,,,,A2EZ5YR6PJ6XX0
738,43,,1.0,23.0,2238481928-19949.jpg,2883264367-365620.jpg,1.0,,,,A2EZ5YR6PJ6XX0
739,44,,1.0,24.0,2883256307-365057.jpg,2611628310-206388.jpg,1.0,,,,A2EZ5YR6PJ6XX0
740,45,,1.0,25.0,2238572663-35822.jpg,2238571930-184143.jpg,2.0,,,,A2EZ5YR6PJ6XX0
741,46,,1.0,26.0,2898617468-68274.jpg,2864906345-212360.jpg,1.0,,,,A2EZ5YR6PJ6XX0
742,47,,1.0,27.0,2981241414-145842.jpg,2874301404-139813.jpg,2.0,,,,A2EZ5YR6PJ6XX0
743,48,,1.0,28.0,2964218374-144967.jpg,2981231446-294732.jpg,3.0,,,,A2EZ5YR6PJ6XX0
744,49,,1.0,29.0,2901947423-70311.jpg,2238573447-333826.jpg,2.0,,,,A2EZ5YR6PJ6XX0
745,50,,1.0,30.0,2874301407-363895.jpg,2986397322-371109.jpg,2.0,,,,A2EZ5YR6PJ6XX0
746,51,,0.0,31.0,left.jpg,,,left,,,A2EZ5YR6PJ6XX0
747,52,,1.0,32.0,2446759347-347016.jpg,2901951350-218702.jpg,2.0,,,,A2EZ5YR6PJ6XX0
748,53,,1.0,33.0,2238580740-186218.jpg,2964220333-71258.jpg,3.0,,,,A2EZ5YR6PJ6XX0
749,54,,1.0,34.0,2868475410-213219.jpg,2868474407-362885.jpg,3.0,,,,A2EZ5YR6PJ6XX0
750,55,,1.0,35.0,2901948350-218459.jpg,2981246360-220352.jpg,3.0,,,,A2EZ5YR6PJ6XX0
751,56,,1.0,36.0,2874299429-139695.jpg,2883266388-67750.jpg,1.0,,,,A2EZ5YR6PJ6XX0
752,57,right,0.0,37.0,left.jpg,,,left,0.0962,,A2EZ5YR6PJ6XX0
753,58,,1.0,38.0,2874302418-65978.jpg,2898633321-291943.jpg,3.0,,,,A2EZ5YR6PJ6XX0
754,59,,1.0,39.0,2864910426-287204.jpg,2864902304-137862.jpg,1.0,,,,A2EZ5YR6PJ6XX0
755,60,,1.0,40.0,2964216465-219242.jpg,2898619327-366362.jpg,3.0,,,,A2EZ5YR6PJ6XX0
756,61,,1.0,41.0,2460547467-349421.jpg,2981235446-294901.jpg,3.0,,,,A2EZ5YR6PJ6XX0
757,62,,1.0,42.0,2592379964-131054.jpg,2575963989-130576.jpg,1.0,,,,A2EZ5YR6PJ6XX0
758,63,,1.0,43.0,2460547467-349422.jpg,2868487415-213924.jpg,2.0,,,,A2EZ5YR6PJ6XX0
759,64,,1.0,44.0,2898624426-291546.jpg,2964218432-369263.jpg,1.0,,,,A2EZ5YR6PJ6XX0
760,65,,1.0,45.0,2901939379-143480.jpg,2901942428-69919.jpg,1.0,,,,A2EZ5YR6PJ6XX0
761,66,,1.0,46.0,2898634397-367080.jpg,2237944827-301472.jpg,1.0,,,,A2EZ5YR6PJ6XX0
762,67,,1.0,47.0,2883268471-290842.jpg,2883268471-290843.jpg,1.0,,,,A2EZ5YR6PJ6XX0
763,68,,1.0,48.0,2964223381-294447.jpg,2427874231-269884.jpg,1.0,,,,A2EZ5YR6PJ6XX0
764,69,,1.0,49.0,2575120738-55529.jpg,2898632385-217138.jpg,1.0,,,,A2EZ5YR6PJ6XX0
765,70,,0.0,50.0,right.jpg,,,right,,,A2EZ5YR6PJ6XX0
766,71,,1.0,51.0,2238428357-313623.jpg,2238499057-320266.jpg,1.0,,,,A2EZ5YR6PJ6XX0
767,72,,1.0,52.0,2446759803-49249.jpg,2898618440-216547.jpg,2.0,,,,A2EZ5YR6PJ6XX0
768,73,,1.0,53.0,2868474407-362883.jpg,2981246400-220363.jpg,2.0,,,,A2EZ5YR6PJ6XX0
769,74,,1.0,54.0,2898618390-216538.jpg,2901939327-367670.jpg,2.0,,,,A2EZ5YR6PJ6XX0
770,75,,1.0,55.0,2898635427-367120.jpg,2898621427-366486.jpg,3.0,,,,A2EZ5YR6PJ6XX0
771,76,,1.0,56.0,2238481198-19822.jpg,2862691449-137104.jpg,1.0,,,,A2EZ5YR6PJ6XX0
772,77,,1.0,57.0,2238480677-317399.jpg,2238480278-19661.jpg,3.0,,,,A2EZ5YR6PJ6XX0
773,78,,1.0,58.0,2446758985-197609.jpg,2981240424-145795.jpg,1.0,,,,A2EZ5YR6PJ6XX0
774,79,,1.0,59.0,2592380177-354626.jpg,2864901386-286797.jpg,2.0,,,,A2EZ5YR6PJ6XX0
775,80,,1.0,60.0,2864907432-362042.jpg,2864901420-212147.jpg,1.0,,,,A2EZ5YR6PJ6XX0
776,81,,1.0,61.0,2449442529-124445.jpg,2986408373-73286.jpg,2.0,,,,A2EZ5YR6PJ6XX0
777,82,,1.0,62.0,2238560245-182099.jpg,2874314526-289684.jpg,2.0,,,,A2EZ5YR6PJ6XX0
778,83,,1.0,63.0,2460547508-51571.jpg,2981232437-369759.jpg,2.0,,,,A2EZ5YR6PJ6XX0
779,84,,1.0,64.0,2449442529-124446.jpg,2460547536-274181.jpg,2.0,,,,A2EZ5YR6PJ6XX0
780,20,,1.0,0.0,2874301407-363895.jpg,2901947323-70275.jpg,3.0,,,,A12NT768CR36E5
781,21,,1.0,1.0,2874302418-65978.jpg,2898626385-216899.jpg,1.0,,,,A12NT768CR36E5
782,22,,1.0,2.0,2452380832-348593.jpg,2238328478-11678.jpg,1.0,,,,A12NT768CR36E5
783,23,,1.0,3.0,2883268412-365898.jpg,2984615361-295510.jpg,2.0,,,,A12NT768CR36E5
784,24,,1.0,4.0,2898618444-142233.jpg,2238555262-330312.jpg,2.0,,,,A12NT768CR36E5
785,25,,1.0,5.0,2964216465-219242.jpg,2864900319-137787.jpg,2.0,,,,A12NT768CR36E5
786,26,,1.0,6.0,2901952513-70703.jpg,2864907361-287062.jpg,1.0,,,,A12NT768CR36E5
787,27,,1.0,7.0,2883254439-140941.jpg,2898632385-217136.jpg,2.0,,,,A12NT768CR36E5
788,28,,1.0,8.0,2901947423-70311.jpg,2238577590-185467.jpg,3.0,,,,A12NT768CR36E5
789,29,,1.0,9.0,2449442529-124446.jpg,2446759803-49251.jpg,1.0,,,,A12NT768CR36E5
790,30,right,1.0,10.0,right.jpg,,,right,0.928,,A12NT768CR36E5
791,31,,1.0,11.0,2460547467-349421.jpg,2981235446-294901.jpg,3.0,,,,A12NT768CR36E5
792,32,,1.0,12.0,2238480677-317399.jpg,2238481630-168218.jpg,1.0,,,,A12NT768CR36E5
793,33,,1.0,13.0,2238580740-186218.jpg,2238550816-254000.jpg,1.0,,,,A12NT768CR36E5
794,34,,1.0,14.0,2446758985-197609.jpg,2864909447-362144.jpg,2.0,,,,A12NT768CR36E5
795,35,,1.0,15.0,2898617468-68274.jpg,2964207374-144577.jpg,3.0,,,,A12NT768CR36E5
796,36,,1.0,16.0,2868475410-213219.jpg,2868474407-362885.jpg,3.0,,,,A12NT768CR36E5
797,37,,1.0,17.0,2874299429-139695.jpg,2883266388-67750.jpg,1.0,,,,A12NT768CR36E5
798,38,,1.0,18.0,2592380177-354629.jpg,2512875587-350044.jpg,3.0,,,,A12NT768CR36E5
799,39,,1.0,19.0,2460547508-51571.jpg,2901941438-69835.jpg,3.0,,,,A12NT768CR36E5
800,40,,1.0,20.0,2864907432-362042.jpg,2989726338-74002.jpg,3.0,,,,A12NT768CR36E5
801,41,,1.0,21.0,2449441881-272368.jpg,2883268412-365899.jpg,1.0,,,,A12NT768CR36E5
802,42,left,1.0,22.0,left.jpg,,,left,1.341,,A12NT768CR36E5
803,43,,1.0,23.0,2238560245-182099.jpg,2238480980-168129.jpg,3.0,,,,A12NT768CR36E5
804,44,,1.0,24.0,2901948350-218459.jpg,2417208001-267065.jpg,2.0,,,,A12NT768CR36E5
805,45,,1.0,25.0,2238428357-313623.jpg,2984615361-295509.jpg,2.0,,,,A12NT768CR36E5
806,46,,1.0,26.0,2512875899-126682.jpg,2592380177-354628.jpg,2.0,,,,A12NT768CR36E5
807,47,,1.0,27.0,2874303365-214262.jpg,2238563377-332054.jpg,2.0,,,,A12NT768CR36E5
808,48,,1.0,28.0,2592379964-131054.jpg,2592380272-354673.jpg,3.0,,,,A12NT768CR36E5
809,49,,1.0,29.0,2986451363-73599.jpg,2860302315-210704.jpg,2.0,,,,A12NT768CR36E5
810,50,left,1.0,30.0,left.jpg,,,left,1.689,,A12NT768CR36E5
811,51,,1.0,31.0,2898633421-291973.jpg,2512876023-52283.jpg,1.0,,,,A12NT768CR36E5
812,52,,1.0,32.0,2898634397-367080.jpg,2964217461-294238.jpg,3.0,,,,A12NT768CR36E5
813,53,,1.0,33.0,2898624426-291546.jpg,2981236443-71859.jpg,2.0,,,,A12NT768CR36E5
814,54,,1.0,34.0,2883268471-290842.jpg,2883255450-215310.jpg,2.0,,,,A12NT768CR36E5
815,55,,1.0,35.0,2238481198-19822.jpg,2238480803-19737.jpg,3.0,,,,A12NT768CR36E5
816,56,,1.0,36.0,2883256307-365057.jpg,2864904453-63933.jpg,3.0,,,,A12NT768CR36E5
817,57,,1.0,37.0,2575120738-55529.jpg,2238531493-28260.jpg,3.0,,,,A12NT768CR36E5
818,58,,1.0,38.0,2446759347-347016.jpg,2964224310-219528.jpg,1.0,,,,A12NT768CR36E5
819,59,,1.0,39.0,2898618390-216538.jpg,2986449336-296644.jpg,1.0,,,,A12NT768CR36E5
820,60,,1.0,40.0,2238425482-313537.jpg,2238436322-314047.jpg,2.0,,,,A12NT768CR36E5
821,61,,1.0,41.0,2446759803-49249.jpg,2898618440-216547.jpg,2.0,,,,A12NT768CR36E5
822,62,left,1.0,42.0,left.jpg,,,left,0.787,,A12NT768CR36E5
823,63,,1.0,43.0,2898635427-367120.jpg,2868479517-363220.jpg,2.0,,,,A12NT768CR36E5
824,64,,1.0,44.0,2864910426-287204.jpg,2874299429-139694.jpg,2.0,,,,A12NT768CR36E5
825,65,,1.0,45.0,2592380177-354626.jpg,2986408339-146952.jpg,1.0,,,,A12NT768CR36E5
826,66,,1.0,46.0,2964218374-144967.jpg,2964218374-144968.jpg,1.0,,,,A12NT768CR36E5
827,67,,1.0,47.0,2874302418-65979.jpg,2238480648-19714.jpg,2.0,,,,A12NT768CR36E5
828,68,,1.0,48.0,2901939379-143479.jpg,2981240424-145794.jpg,3.0,,,,A12NT768CR36E5
829,69,,1.0,49.0,2874307433-66280.jpg,2986447306-296584.jpg,1.0,,,,A12NT768CR36E5
830,70,right,1.0,50.0,right.jpg,,,right,0.808,,A12NT768CR36E5
831,71,,1.0,51.0,2964223381-294447.jpg,2898628438-68785.jpg,3.0,,,,A12NT768CR36E5
832,72,,1.0,52.0,2452381505-199546.jpg,2994401319-148290.jpg,3.0,,,,A12NT768CR36E5
833,73,,1.0,53.0,2460547467-349422.jpg,2868487415-213924.jpg,2.0,,,,A12NT768CR36E5
834,74,,1.0,54.0,2238481928-19949.jpg,2883264367-365620.jpg,1.0,,,,A12NT768CR36E5
835,75,,1.0,55.0,2901939379-143480.jpg,2981229442-369621.jpg,2.0,,,,A12NT768CR36E5
836,76,,1.0,56.0,2458347385-199723.jpg,2427874554-121863.jpg,2.0,,,,A12NT768CR36E5
837,77,,1.0,57.0,2238572663-35822.jpg,2986419333-73361.jpg,1.0,,,,A12NT768CR36E5
838,78,,1.0,58.0,2901941401-292798.jpg,2898618327-366317.jpg,1.0,,,,A12NT768CR36E5
839,79,,1.0,59.0,2868474407-362883.jpg,2238516618-25604.jpg,1.0,,,,A12NT768CR36E5
840,80,,1.0,60.0,2898635428-69104.jpg,2446759803-49250.jpg,1.0,,,,A12NT768CR36E5
841,81,,1.0,61.0,2449442529-124445.jpg,2898632385-217137.jpg,3.0,,,,A12NT768CR36E5
842,82,,1.0,62.0,2981231403-71642.jpg,2427873763-47290.jpg,3.0,,,,A12NT768CR36E5
843,83,,1.0,63.0,2981241414-145842.jpg,2856919327-359676.jpg,1.0,,,,A12NT768CR36E5
844,84,,1.0,64.0,2964213381-294060.jpg,2964213381-294061.jpg,3.0,,,,A12NT768CR36E5
845,20,,1.0,0.0,2592380177-354626.jpg,2986408339-146952.jpg,1.0,,,,A1UFS2BDTPT5DX
846,21,,1.0,1.0,2238481198-19822.jpg,2862691449-137104.jpg,1.0,,,,A1UFS2BDTPT5DX
847,22,,1.0,2.0,2964218374-144967.jpg,2883254439-140940.jpg,2.0,,,,A1UFS2BDTPT5DX
848,23,,1.0,3.0,2238572663-35822.jpg,2864903351-286874.jpg,3.0,,,,A1UFS2BDTPT5DX
849,24,,1.0,4.0,2883268412-365898.jpg,2238436252-314037.jpg,3.0,,,,A1UFS2BDTPT5DX
850,25,,1.0,5.0,2460547467-349421.jpg,2452380166-273110.jpg,2.0,,,,A1UFS2BDTPT5DX
851,26,,1.0,6.0,2874301407-363895.jpg,2901947323-70275.jpg,3.0,,,,A1UFS2BDTPT5DX
852,27,,1.0,7.0,2874302418-65978.jpg,2238481198-19823.jpg,2.0,,,,A1UFS2BDTPT5DX
853,28,,1.0,8.0,2898624426-291546.jpg,2981236443-71859.jpg,2.0,,,,A1UFS2BDTPT5DX
854,29,,1.0,9.0,2449441881-272368.jpg,2449441881-272367.jpg,3.0,,,,A1UFS2BDTPT5DX
855,30,,0.0,10.0,left.jpg,,,left,,,A1UFS2BDTPT5DX
856,31,,1.0,11.0,2898635427-367120.jpg,2901946439-144040.jpg,1.0,,,,A1UFS2BDTPT5DX
857,32,,1.0,12.0,2964213381-294060.jpg,2964213381-294061.jpg,3.0,,,,A1UFS2BDTPT5DX
858,33,,1.0,13.0,2449442529-124446.jpg,2446759803-49251.jpg,1.0,,,,A1UFS2BDTPT5DX
859,34,,1.0,14.0,2460547508-51571.jpg,2981232437-369759.jpg,2.0,,,,A1UFS2BDTPT5DX
860,35,,1.0,15.0,2981231403-71642.jpg,2274829821-263682.jpg,1.0,,,,A1UFS2BDTPT5DX
861,36,right,1.0,16.0,right.jpg,,,right,1.77,,A1UFS2BDTPT5DX
862,37,,1.0,17.0,2864910426-287204.jpg,2901939433-69672.jpg,3.0,,,,A1UFS2BDTPT5DX
863,38,,1.0,18.0,2446759803-49249.jpg,2452380166-273109.jpg,3.0,,,,A1UFS2BDTPT5DX
864,39,,1.0,19.0,2898633421-291973.jpg,2238550049-105691.jpg,3.0,,,,A1UFS2BDTPT5DX
865,40,,1.0,20.0,2964216465-219242.jpg,2864900319-137787.jpg,2.0,,,,A1UFS2BDTPT5DX
866,41,,1.0,21.0,2964223381-294447.jpg,2901941438-69836.jpg,2.0,,,,A1UFS2BDTPT5DX
867,42,,1.0,22.0,2452380832-348593.jpg,2238481813-19930.jpg,2.0,,,,A1UFS2BDTPT5DX
868,43,,1.0,23.0,2868474407-362883.jpg,2981246400-220363.jpg,2.0,,,,A1UFS2BDTPT5DX
869,44,,1.0,24.0,2898634397-367080.jpg,2964217461-294238.jpg,3.0,,,,A1UFS2BDTPT5DX
870,45,,1.0,25.0,2883254439-140941.jpg,2898632385-217136.jpg,2.0,,,,A1UFS2BDTPT5DX
871,46,,1.0,26.0,2898618444-142233.jpg,2898618444-142232.jpg,3.0,,,,A1UFS2BDTPT5DX
872,47,,1.0,27.0,2986451363-73599.jpg,2860302315-210704.jpg,2.0,,,,A1UFS2BDTPT5DX
873,48,,1.0,28.0,2901947423-70311.jpg,2860312398-62572.jpg,1.0,,,,A1UFS2BDTPT5DX
874,49,,1.0,29.0,2883256307-365057.jpg,2964210336-293945.jpg,2.0,,,,A1UFS2BDTPT5DX
875,50,,1.0,30.0,2868475410-213219.jpg,2901946465-218350.jpg,1.0,,,,A1UFS2BDTPT5DX
876,51,,1.0,31.0,2446759347-347016.jpg,2964224310-219528.jpg,1.0,,,,A1UFS2BDTPT5DX
877,52,,1.0,32.0,2446758985-197609.jpg,2898624426-291544.jpg,3.0,,,,A1UFS2BDTPT5DX
878,53,,0.0,33.0,left.jpg,,,left,,,A1UFS2BDTPT5DX
879,54,,1.0,34.0,2901939379-143479.jpg,2981240424-145794.jpg,3.0,,,,A1UFS2BDTPT5DX
880,55,,1.0,35.0,2981241414-145842.jpg,2874301404-139813.jpg,2.0,,,,A1UFS2BDTPT5DX
881,56,,1.0,36.0,2901939379-143480.jpg,2901942428-69919.jpg,1.0,,,,A1UFS2BDTPT5DX
882,57,,1.0,37.0,2238481928-19949.jpg,2883264367-365620.jpg,1.0,,,,A1UFS2BDTPT5DX
883,58,,1.0,38.0,2901948350-218459.jpg,2981246360-220352.jpg,3.0,,,,A1UFS2BDTPT5DX
884,59,left,1.0,39.0,left.jpg,,,left,1.674,,A1UFS2BDTPT5DX
885,60,,1.0,40.0,2874302418-65979.jpg,2238578544-111698.jpg,3.0,,,,A1UFS2BDTPT5DX
886,61,,1.0,41.0,2238580740-186218.jpg,2238521193-26285.jpg,2.0,,,,A1UFS2BDTPT5DX
887,62,,1.0,42.0,2458347385-199723.jpg,2238480434-93829.jpg,1.0,,,,A1UFS2BDTPT5DX
888,63,,1.0,43.0,2898635428-69104.jpg,2446759803-49250.jpg,1.0,,,,A1UFS2BDTPT5DX
889,64,,1.0,44.0,2449442529-124445.jpg,2452380171-273112.jpg,1.0,,,,A1UFS2BDTPT5DX
890,65,,1.0,45.0,2874307433-66280.jpg,2986447306-296584.jpg,1.0,,,,A1UFS2BDTPT5DX
891,66,,1.0,46.0,2898618390-216538.jpg,2901939327-367670.jpg,2.0,,,,A1UFS2BDTPT5DX
892,67,,0.0,47.0,right.jpg,,,right,,,A1UFS2BDTPT5DX
893,68,,1.0,48.0,2452381505-199546.jpg,2238567168-34916.jpg,2.0,,,,A1UFS2BDTPT5DX
894,69,,1.0,49.0,2864907432-362042.jpg,2989726338-74002.jpg,3.0,,,,A1UFS2BDTPT5DX
895,70,,1.0,50.0,2874299429-139695.jpg,2446760917-347439.jpg,3.0,,,,A1UFS2BDTPT5DX
896,71,,1.0,51.0,2238480677-317399.jpg,2238573546-258454.jpg,2.0,,,,A1UFS2BDTPT5DX
897,72,,1.0,52.0,2883268471-290842.jpg,2901947448-70314.jpg,3.0,,,,A1UFS2BDTPT5DX
898,73,,1.0,53.0,2238560245-182099.jpg,2549106624-127823.jpg,1.0,,,,A1UFS2BDTPT5DX
899,74,,1.0,54.0,2460547467-349422.jpg,2898618440-216545.jpg,1.0,,,,A1UFS2BDTPT5DX
900,75,,1.0,55.0,2575120738-55529.jpg,2575120738-55528.jpg,2.0,,,,A1UFS2BDTPT5DX
901,76,,1.0,56.0,2238425482-313537.jpg,2898633480-217190.jpg,3.0,,,,A1UFS2BDTPT5DX
902,77,,1.0,57.0,2592380177-354629.jpg,2512875587-350044.jpg,3.0,,,,A1UFS2BDTPT5DX
903,78,,1.0,58.0,2874303365-214262.jpg,2864911457-362260.jpg,3.0,,,,A1UFS2BDTPT5DX
904,79,,1.0,59.0,2901952513-70703.jpg,2868469411-287540.jpg,2.0,,,,A1UFS2BDTPT5DX
905,80,,1.0,60.0,2901941401-292798.jpg,2898618327-366317.jpg,1.0,,,,A1UFS2BDTPT5DX
906,81,,1.0,61.0,2592379964-131054.jpg,2575963989-130576.jpg,1.0,,,,A1UFS2BDTPT5DX
907,82,,1.0,62.0,2898617468-68274.jpg,2901943387-368037.jpg,2.0,,,,A1UFS2BDTPT5DX
908,83,,1.0,63.0,2512875899-126682.jpg,2460547536-274179.jpg,1.0,,,,A1UFS2BDTPT5DX
909,84,,1.0,64.0,2238428357-313623.jpg,2238499057-320266.jpg,1.0,,,,A1UFS2BDTPT5DX
910,20,,1.0,0.0,2986451363-73599.jpg,2901939327-367669.jpg,1.0,,,,A4VUQ6627RJX8
911,21,,1.0,1.0,2898635427-367120.jpg,2901946439-144040.jpg,1.0,,,,A4VUQ6627RJX8
912,22,,1.0,2.0,2449441881-272368.jpg,2984615358-72439.jpg,2.0,,,,A4VUQ6627RJX8
913,23,,1.0,3.0,2883268471-290842.jpg,2883255450-215310.jpg,2.0,,,,A4VUQ6627RJX8
914,24,,1.0,4.0,2964218374-144967.jpg,2964218374-144968.jpg,1.0,,,,A4VUQ6627RJX8
915,25,,1.0,5.0,2874301407-363895.jpg,2901947323-70275.jpg,3.0,,,,A4VUQ6627RJX8
916,26,left,1.0,6.0,left.jpg,,,left,1.42,,A4VUQ6627RJX8
917,27,,1.0,7.0,2238572663-35822.jpg,2986419333-73361.jpg,1.0,,,,A4VUQ6627RJX8
918,28,,1.0,8.0,2901947423-70311.jpg,2860312398-62572.jpg,1.0,,,,A4VUQ6627RJX8
919,29,,1.0,9.0,2874303365-214262.jpg,2864911457-362260.jpg,3.0,,,,A4VUQ6627RJX8
920,30,,1.0,10.0,2901939379-143479.jpg,2446758985-197610.jpg,2.0,,,,A4VUQ6627RJX8
921,31,,1.0,11.0,2901952513-70703.jpg,2864907361-287062.jpg,1.0,,,,A4VUQ6627RJX8
922,32,,1.0,12.0,2575120738-55529.jpg,2898632385-217138.jpg,1.0,,,,A4VUQ6627RJX8
923,33,,1.0,13.0,2898618390-216538.jpg,2901939327-367670.jpg,2.0,,,,A4VUQ6627RJX8
924,34,,1.0,14.0,2901939379-143480.jpg,2901942428-69919.jpg,1.0,,,,A4VUQ6627RJX8
925,35,,1.0,15.0,2898617468-68274.jpg,2964207374-144577.jpg,3.0,,,,A4VUQ6627RJX8
926,36,,1.0,16.0,2864910426-287204.jpg,2901939433-69672.jpg,3.0,,,,A4VUQ6627RJX8
927,37,,1.0,17.0,2868474407-362883.jpg,2901948383-70363.jpg,3.0,,,,A4VUQ6627RJX8
928,38,,1.0,18.0,2868475410-213219.jpg,2238480803-19739.jpg,2.0,,,,A4VUQ6627RJX8
929,39,,1.0,19.0,2238481198-19822.jpg,2901946436-293242.jpg,2.0,,,,A4VUQ6627RJX8
930,40,right,1.0,20.0,right.jpg,,,right,1.572,,A4VUQ6627RJX8
931,41,,1.0,21.0,2964213381-294060.jpg,2964213381-294061.jpg,3.0,,,,A4VUQ6627RJX8
932,42,,1.0,22.0,2238560245-182099.jpg,2874314526-289684.jpg,2.0,,,,A4VUQ6627RJX8
933,43,,1.0,23.0,2964223381-294447.jpg,2898628438-68785.jpg,3.0,,,,A4VUQ6627RJX8
934,44,,1.0,24.0,2460547467-349422.jpg,2898618440-216545.jpg,1.0,,,,A4VUQ6627RJX8
935,45,,1.0,25.0,2981241414-145842.jpg,2874301404-139813.jpg,2.0,,,,A4VUQ6627RJX8
936,46,,1.0,26.0,2898624426-291546.jpg,2981235446-294900.jpg,3.0,,,,A4VUQ6627RJX8
937,47,right,1.0,27.0,right.jpg,,,right,1.535,,A4VUQ6627RJX8
938,48,,1.0,28.0,2446759347-347016.jpg,2901951350-218702.jpg,2.0,,,,A4VUQ6627RJX8
939,49,,1.0,29.0,2592379964-131054.jpg,2238479053-19457.jpg,2.0,,,,A4VUQ6627RJX8
940,50,,1.0,30.0,2898633421-291973.jpg,2575118671-277663.jpg,2.0,,,,A4VUQ6627RJX8
941,51,,1.0,31.0,2864907432-362042.jpg,2864901420-212147.jpg,1.0,,,,A4VUQ6627RJX8
942,52,,1.0,32.0,2238428357-313623.jpg,2575121987-353817.jpg,3.0,,,,A4VUQ6627RJX8
943,53,,1.0,33.0,2238481928-19949.jpg,2981241419-145844.jpg,3.0,,,,A4VUQ6627RJX8
944,54,,1.0,34.0,2238580740-186218.jpg,2238550816-254000.jpg,1.0,,,,A4VUQ6627RJX8
945,55,,1.0,35.0,2458347385-199723.jpg,2458347252-348911.jpg,3.0,,,,A4VUQ6627RJX8
946,56,,1.0,36.0,2898634397-367080.jpg,2237944827-301472.jpg,1.0,,,,A4VUQ6627RJX8
947,57,,1.0,37.0,2449442529-124446.jpg,2898632385-217139.jpg,3.0,,,,A4VUQ6627RJX8
948,58,,1.0,38.0,2449442529-124445.jpg,2452380171-273112.jpg,1.0,,,,A4VUQ6627RJX8
949,59,,1.0,39.0,2460547467-349421.jpg,2898631394-142727.jpg,1.0,,,,A4VUQ6627RJX8
950,60,right,1.0,40.0,right.jpg,,,right,2.049,,A4VUQ6627RJX8
951,61,,1.0,41.0,2446758985-197609.jpg,2898624426-291544.jpg,3.0,,,,A4VUQ6627RJX8
952,62,,1.0,42.0,2874302418-65979.jpg,2238480648-19714.jpg,2.0,,,,A4VUQ6627RJX8
953,63,,1.0,43.0,2964216465-219242.jpg,2864900319-137787.jpg,2.0,,,,A4VUQ6627RJX8
954,64,,1.0,44.0,2452380832-348593.jpg,2449442181-272436.jpg,3.0,,,,A4VUQ6627RJX8
955,65,,1.0,45.0,2446759803-49249.jpg,2452380166-273109.jpg,3.0,,,,A4VUQ6627RJX8
956,66,,1.0,46.0,2238425482-313537.jpg,2238436322-314047.jpg,2.0,,,,A4VUQ6627RJX8
957,67,,1.0,47.0,2898618444-142233.jpg,2238555262-330312.jpg,2.0,,,,A4VUQ6627RJX8
958,68,,1.0,48.0,2452381505-199546.jpg,2994401319-148290.jpg,3.0,,,,A4VUQ6627RJX8
959,69,,1.0,49.0,2898635428-69104.jpg,2898625336-291572.jpg,3.0,,,,A4VUQ6627RJX8
960,70,left,1.0,50.0,left.jpg,,,left,1.555,,A4VUQ6627RJX8
961,71,,1.0,51.0,2238480677-317399.jpg,2238480278-19661.jpg,3.0,,,,A4VUQ6627RJX8
962,72,,1.0,52.0,2901948350-218459.jpg,2417208001-267065.jpg,2.0,,,,A4VUQ6627RJX8
963,73,,1.0,53.0,2883256307-365057.jpg,2964210336-293945.jpg,2.0,,,,A4VUQ6627RJX8
964,74,,1.0,54.0,2592380177-354626.jpg,2986408339-146952.jpg,1.0,,,,A4VUQ6627RJX8
965,75,,1.0,55.0,2874302418-65978.jpg,2238481198-19823.jpg,2.0,,,,A4VUQ6627RJX8
966,76,,1.0,56.0,2460547508-51571.jpg,2981232437-369759.jpg,2.0,,,,A4VUQ6627RJX8
967,77,,1.0,57.0,2512875899-126682.jpg,2460547536-274179.jpg,1.0,,,,A4VUQ6627RJX8
968,78,,1.0,58.0,2874307433-66280.jpg,2981231422-369714.jpg,3.0,,,,A4VUQ6627RJX8
969,79,,1.0,59.0,2592380177-354629.jpg,2898633421-291974.jpg,1.0,,,,A4VUQ6627RJX8
970,80,,1.0,60.0,2883254439-140941.jpg,2446760844-124088.jpg,1.0,,,,A4VUQ6627RJX8
971,81,,1.0,61.0,2981231403-71642.jpg,2981244403-72215.jpg,2.0,,,,A4VUQ6627RJX8
972,82,,1.0,62.0,2874299429-139695.jpg,2883266388-67750.jpg,1.0,,,,A4VUQ6627RJX8
973,83,,1.0,63.0,2901941401-292798.jpg,2898618327-366317.jpg,1.0,,,,A4VUQ6627RJX8
974,84,,1.0,64.0,2883268412-365898.jpg,2238436252-314037.jpg,3.0,,,,A4VUQ6627RJX8
975,20,,1.0,0.0,2883254439-140941.jpg,2446760844-124088.jpg,1.0,,,,A222GZB608T1B8
976,21,,1.0,1.0,2898635428-69104.jpg,2901943411-292945.jpg,2.0,,,,A222GZB608T1B8
977,22,,1.0,2.0,2964216465-219242.jpg,2238544191-252422.jpg,1.0,,,,A222GZB608T1B8
978,23,,1.0,3.0,2238425482-313537.jpg,2898633480-217190.jpg,3.0,,,,A222GZB608T1B8
979,24,,1.0,4.0,2901941401-292798.jpg,2883273443-68193.jpg,3.0,,,,A222GZB608T1B8
980,25,,1.0,5.0,2898617468-68274.jpg,2964207374-144577.jpg,3.0,,,,A222GZB608T1B8
981,26,,1.0,6.0,2592379964-131054.jpg,2575963989-130576.jpg,1.0,,,,A222GZB608T1B8
982,27,,1.0,7.0,2452381505-199546.jpg,2994401319-148290.jpg,3.0,,,,A222GZB608T1B8
983,28,,1.0,8.0,2901952513-70703.jpg,2868469411-287540.jpg,2.0,,,,A222GZB608T1B8
984,29,,1.0,9.0,2460547508-51571.jpg,2460547291-274110.jpg,1.0,,,,A222GZB608T1B8
985,30,,1.0,10.0,2238580740-186218.jpg,2238521193-26285.jpg,2.0,,,,A222GZB608T1B8
986,31,left,1.0,11.0,left.jpg,,,left,1.9566,,A222GZB608T1B8
987,32,,1.0,12.0,2898633421-291973.jpg,2238550049-105691.jpg,3.0,,,,A222GZB608T1B8
988,33,,1.0,13.0,2449442529-124446.jpg,2460547536-274181.jpg,2.0,,,,A222GZB608T1B8
989,34,,1.0,14.0,2883268412-365898.jpg,2238436252-314037.jpg,3.0,,,,A222GZB608T1B8
990,35,,1.0,15.0,2964213381-294060.jpg,2458348012-349114.jpg,2.0,,,,A222GZB608T1B8
991,36,,1.0,16.0,2592380177-354629.jpg,2898633421-291974.jpg,1.0,,,,A222GZB608T1B8
992,37,,1.0,17.0,2874303365-214262.jpg,2864911457-362260.jpg,3.0,,,,A222GZB608T1B8
993,38,,1.0,18.0,2901939379-143479.jpg,2446758985-197610.jpg,2.0,,,,A222GZB608T1B8
994,39,,1.0,19.0,2981241414-145842.jpg,2856919327-359676.jpg,1.0,,,,A222GZB608T1B8
995,40,,1.0,20.0,2460547467-349422.jpg,2898618440-216545.jpg,1.0,,,,A222GZB608T1B8
996,41,,1.0,21.0,2883268471-290842.jpg,2883268471-290843.jpg,1.0,,,,A222GZB608T1B8
997,42,left,1.0,22.0,left.jpg,,,left,1.8175,,A222GZB608T1B8
998,43,,1.0,23.0,2575120738-55529.jpg,2575120738-55528.jpg,2.0,,,,A222GZB608T1B8
999,44,,1.0,24.0,2874301407-363895.jpg,2986397322-371109.jpg,2.0,,,,A222GZB608T1B8
1000,45,,1.0,25.0,2864907432-362042.jpg,2989726338-74002.jpg,3.0,,,,A222GZB608T1B8
1001,46,,1.0,26.0,2452380832-348593.jpg,2238328478-11678.jpg,1.0,,,,A222GZB608T1B8
1002,47,,1.0,27.0,2238428357-313623.jpg,2984615361-295509.jpg,2.0,,,,A222GZB608T1B8
1003,48,left,1.0,28.0,left.jpg,,,left,1.8671,,A222GZB608T1B8
1004,49,,1.0,29.0,2898635427-367120.jpg,2898621427-366486.jpg,3.0,,,,A222GZB608T1B8
1005,50,,1.0,30.0,2874299429-139695.jpg,2446760917-347439.jpg,3.0,,,,A222GZB608T1B8
1006,51,,1.0,31.0,2898618444-142233.jpg,2898618444-142232.jpg,3.0,,,,A222GZB608T1B8
1007,52,,1.0,32.0,2238481198-19822.jpg,2901946436-293242.jpg,2.0,,,,A222GZB608T1B8
1008,53,,1.0,33.0,2238572663-35822.jpg,2864903351-286874.jpg,3.0,,,,A222GZB608T1B8
1009,54,,1.0,34.0,2449442529-124445.jpg,2986408373-73286.jpg,2.0,,,,A222GZB608T1B8
1010,55,,1.0,35.0,2446759803-49249.jpg,2898618440-216547.jpg,2.0,,,,A222GZB608T1B8
1011,56,,1.0,36.0,2898624426-291546.jpg,2981235446-294900.jpg,3.0,,,,A222GZB608T1B8
1012,57,,1.0,37.0,2883256307-365057.jpg,2964210336-293945.jpg,2.0,,,,A222GZB608T1B8
1013,58,,1.0,38.0,2592380177-354626.jpg,2986408339-146952.jpg,1.0,,,,A222GZB608T1B8
1014,59,,1.0,39.0,2986451363-73599.jpg,2238434559-90406.jpg,3.0,,,,A222GZB608T1B8
1015,60,,1.0,40.0,2238560245-182099.jpg,2874314526-289684.jpg,2.0,,,,A222GZB608T1B8
1016,61,right,1.0,41.0,right.jpg,,,right,1.8705,,A222GZB608T1B8
1017,62,,1.0,42.0,2460547467-349421.jpg,2452380166-273110.jpg,2.0,,,,A222GZB608T1B8
1018,63,,1.0,43.0,2449441881-272368.jpg,2984615358-72439.jpg,2.0,,,,A222GZB608T1B8
1019,64,,1.0,44.0,2238481928-19949.jpg,2981241419-145844.jpg,3.0,,,,A222GZB608T1B8
1020,65,,1.0,45.0,2874302418-65979.jpg,2413147898-43548.jpg,1.0,,,,A222GZB608T1B8
1021,66,,1.0,46.0,2901947423-70311.jpg,2238573447-333826.jpg,2.0,,,,A222GZB608T1B8
1022,67,,1.0,47.0,2981231403-71642.jpg,2274829821-263682.jpg,1.0,,,,A222GZB608T1B8
1023,68,,1.0,48.0,2901948350-218459.jpg,2804906319-133082.jpg,1.0,,,,A222GZB608T1B8
1024,69,,1.0,49.0,2864910426-287204.jpg,2864902304-137862.jpg,1.0,,,,A222GZB608T1B8
1025,70,,1.0,50.0,2458347385-199723.jpg,2427874554-121863.jpg,2.0,,,,A222GZB608T1B8
1026,71,,1.0,51.0,2512875899-126682.jpg,2592380177-354628.jpg,2.0,,,,A222GZB608T1B8
1027,72,,1.0,52.0,2964218374-144967.jpg,2964218374-144968.jpg,1.0,,,,A222GZB608T1B8
1028,73,,1.0,53.0,2446758985-197609.jpg,2898624426-291544.jpg,3.0,,,,A222GZB608T1B8
1029,74,right,1.0,54.0,right.jpg,,,right,1.9085,,A222GZB608T1B8
1030,75,,1.0,55.0,2898634397-367080.jpg,2237944827-301472.jpg,1.0,,,,A222GZB608T1B8
1031,76,,1.0,56.0,2446759347-347016.jpg,2238569117-333045.jpg,3.0,,,,A222GZB608T1B8
1032,77,,1.0,57.0,2874307433-66280.jpg,2981231422-369714.jpg,3.0,,,,A222GZB608T1B8
1033,78,,1.0,58.0,2901939379-143480.jpg,2981229442-369621.jpg,2.0,,,,A222GZB608T1B8
1034,79,,1.0,59.0,2898618390-216538.jpg,2986449336-296644.jpg,1.0,,,,A222GZB608T1B8
1035,80,,1.0,60.0,2874302418-65978.jpg,2898626385-216899.jpg,1.0,,,,A222GZB608T1B8
1036,81,,1.0,61.0,2238480677-317399.jpg,2238480278-19661.jpg,3.0,,,,A222GZB608T1B8
1037,82,,1.0,62.0,2868474407-362883.jpg,2901948383-70363.jpg,3.0,,,,A222GZB608T1B8
1038,83,,1.0,63.0,2964223381-294447.jpg,2427874231-269884.jpg,1.0,,,,A222GZB608T1B8
1039,84,,1.0,64.0,2868475410-213219.jpg,2901946465-218350.jpg,1.0,,,,A222GZB608T1B8
1040,20,,1.0,0.0,2460547467-349421.jpg,2452380166-273110.jpg,2.0,,,,A3TH6B3RUD1MUQ
1041,21,,1.0,1.0,2460547467-349422.jpg,2864909447-362146.jpg,3.0,,,,A3TH6B3RUD1MUQ
1042,22,,1.0,2.0,2868475410-213219.jpg,2868474407-362885.jpg,3.0,,,,A3TH6B3RUD1MUQ
1043,23,,1.0,3.0,2898635427-367120.jpg,2901946439-144040.jpg,1.0,,,,A3TH6B3RUD1MUQ
1044,24,,1.0,4.0,2592380177-354629.jpg,2512875587-350044.jpg,3.0,,,,A3TH6B3RUD1MUQ
1045,25,,1.0,5.0,2883268412-365898.jpg,2238436252-314037.jpg,3.0,,,,A3TH6B3RUD1MUQ
1046,26,,1.0,6.0,2238481928-19949.jpg,2981241419-145844.jpg,3.0,,,,A3TH6B3RUD1MUQ
1047,27,,1.0,7.0,2575120738-55529.jpg,2575120738-55528.jpg,2.0,,,,A3TH6B3RUD1MUQ
1048,28,,1.0,8.0,2898618390-216538.jpg,2901939327-367670.jpg,2.0,,,,A3TH6B3RUD1MUQ
1049,29,,1.0,9.0,2452381505-199546.jpg,2901938432-367627.jpg,1.0,,,,A3TH6B3RUD1MUQ
1050,30,,1.0,10.0,2964218374-144967.jpg,2981231446-294732.jpg,3.0,,,,A3TH6B3RUD1MUQ
1051,31,,1.0,11.0,2883254439-140941.jpg,2898632385-217136.jpg,2.0,,,,A3TH6B3RUD1MUQ
1052,32,,1.0,12.0,2592379964-131054.jpg,2592380272-354673.jpg,3.0,,,,A3TH6B3RUD1MUQ
1053,33,,0.0,13.0,left.jpg,,,left,,,A3TH6B3RUD1MUQ
1054,34,,1.0,14.0,2898634397-367080.jpg,2964217461-294238.jpg,3.0,,,,A3TH6B3RUD1MUQ
1055,35,,1.0,15.0,2864907432-362042.jpg,2901947423-70310.jpg,2.0,,,,A3TH6B3RUD1MUQ
1056,36,,1.0,16.0,2874299429-139695.jpg,2901942443-69923.jpg,2.0,,,,A3TH6B3RUD1MUQ
1057,37,,1.0,17.0,2981241414-145842.jpg,2427873848-47312.jpg,3.0,,,,A3TH6B3RUD1MUQ
1058,38,,1.0,18.0,2883268471-290842.jpg,2901947448-70314.jpg,3.0,,,,A3TH6B3RUD1MUQ
1059,39,,1.0,19.0,2964213381-294060.jpg,2981244394-145974.jpg,1.0,,,,A3TH6B3RUD1MUQ
1060,40,,1.0,20.0,2452380832-348593.jpg,2449442181-272436.jpg,3.0,,,,A3TH6B3RUD1MUQ
1061,41,,1.0,21.0,2964216465-219242.jpg,2864900319-137787.jpg,2.0,,,,A3TH6B3RUD1MUQ
1062,42,,1.0,22.0,2901941401-292798.jpg,2981243412-370222.jpg,2.0,,,,A3TH6B3RUD1MUQ
1063,43,,0.0,23.0,left.jpg,,,left,,,A3TH6B3RUD1MUQ
1064,44,,1.0,24.0,2874301407-363895.jpg,2883264368-67631.jpg,1.0,,,,A3TH6B3RUD1MUQ
1065,45,,1.0,25.0,2238560245-182099.jpg,2549106624-127823.jpg,1.0,,,,A3TH6B3RUD1MUQ
1066,46,,1.0,26.0,2986451363-73599.jpg,2901939327-367669.jpg,1.0,,,,A3TH6B3RUD1MUQ
1067,47,,1.0,27.0,2446759347-347016.jpg,2964224310-219528.jpg,1.0,,,,A3TH6B3RUD1MUQ
1068,48,,1.0,28.0,2238428357-313623.jpg,2238499057-320266.jpg,1.0,,,,A3TH6B3RUD1MUQ
1069,49,,1.0,29.0,2901947423-70311.jpg,2238577590-185467.jpg,3.0,,,,A3TH6B3RUD1MUQ
1070,50,,1.0,30.0,2238481198-19822.jpg,2862691449-137104.jpg,1.0,,,,A3TH6B3RUD1MUQ
1071,51,,1.0,31.0,2901939379-143480.jpg,2901938432-367629.jpg,3.0,,,,A3TH6B3RUD1MUQ
1072,52,,0.0,32.0,left.jpg,,,left,,,A3TH6B3RUD1MUQ
1073,53,,1.0,33.0,2874302418-65978.jpg,2898633321-291943.jpg,3.0,,,,A3TH6B3RUD1MUQ
1074,54,,1.0,34.0,2901948350-218459.jpg,2417208001-267065.jpg,2.0,,,,A3TH6B3RUD1MUQ
1075,55,,1.0,35.0,2883256307-365057.jpg,2864904453-63933.jpg,3.0,,,,A3TH6B3RUD1MUQ
1076,56,,1.0,36.0,2901952513-70703.jpg,2238481198-19821.jpg,3.0,,,,A3TH6B3RUD1MUQ
1077,57,,1.0,37.0,2864910426-287204.jpg,2874299429-139694.jpg,2.0,,,,A3TH6B3RUD1MUQ
1078,58,,1.0,38.0,2446758985-197609.jpg,2864909447-362144.jpg,2.0,,,,A3TH6B3RUD1MUQ
1079,59,,0.0,39.0,right.jpg,,,right,,,A3TH6B3RUD1MUQ
1080,60,,1.0,40.0,2446759803-49249.jpg,2446760601-272099.jpg,1.0,,,,A3TH6B3RUD1MUQ
1081,61,,1.0,41.0,2238425482-313537.jpg,2238436322-314047.jpg,2.0,,,,A3TH6B3RUD1MUQ
1082,62,,1.0,42.0,2901939379-143479.jpg,2460547467-349423.jpg,1.0,,,,A3TH6B3RUD1MUQ
1083,63,,1.0,43.0,2898624426-291546.jpg,2981236443-71859.jpg,2.0,,,,A3TH6B3RUD1MUQ
1084,64,,1.0,44.0,2238572663-35822.jpg,2986419333-73361.jpg,1.0,,,,A3TH6B3RUD1MUQ
1085,65,,1.0,45.0,2874302418-65979.jpg,2238480648-19714.jpg,2.0,,,,A3TH6B3RUD1MUQ
1086,66,,1.0,46.0,2449442529-124445.jpg,2452380171-273112.jpg,1.0,,,,A3TH6B3RUD1MUQ
1087,67,,1.0,47.0,2449441881-272368.jpg,2984615358-72439.jpg,2.0,,,,A3TH6B3RUD1MUQ
1088,68,,0.0,48.0,right.jpg,,,right,,,A3TH6B3RUD1MUQ
1089,69,,1.0,49.0,2512875899-126682.jpg,2986447332-371497.jpg,3.0,,,,A3TH6B3RUD1MUQ
1090,70,,1.0,50.0,2449442529-124446.jpg,2446759803-49251.jpg,1.0,,,,A3TH6B3RUD1MUQ
1091,71,,1.0,51.0,2874303365-214262.jpg,2238563377-332054.jpg,2.0,,,,A3TH6B3RUD1MUQ
1092,72,,1.0,52.0,2460547508-51571.jpg,2981232437-369759.jpg,2.0,,,,A3TH6B3RUD1MUQ
1093,73,,1.0,53.0,2898618444-142233.jpg,2238555262-330312.jpg,2.0,,,,A3TH6B3RUD1MUQ
1094,74,,1.0,54.0,2868474407-362883.jpg,2901948383-70363.jpg,3.0,,,,A3TH6B3RUD1MUQ
1095,75,,1.0,55.0,2898617468-68274.jpg,2864906345-212360.jpg,1.0,,,,A3TH6B3RUD1MUQ
1096,76,,1.0,56.0,2238580740-186218.jpg,2238521193-26285.jpg,2.0,,,,A3TH6B3RUD1MUQ
1097,77,,1.0,57.0,2592380177-354626.jpg,2986408339-146952.jpg,1.0,,,,A3TH6B3RUD1MUQ
1098,78,,1.0,58.0,2981231403-71642.jpg,2274829821-263682.jpg,1.0,,,,A3TH6B3RUD1MUQ
1099,79,,1.0,59.0,2898633421-291973.jpg,2575118671-277663.jpg,2.0,,,,A3TH6B3RUD1MUQ
1100,80,,1.0,60.0,2964223381-294447.jpg,2898628438-68785.jpg,3.0,,,,A3TH6B3RUD1MUQ
1101,81,,1.0,61.0,2458347385-199723.jpg,2238480434-93829.jpg,1.0,,,,A3TH6B3RUD1MUQ
1102,82,,1.0,62.0,2238480677-317399.jpg,2238481630-168218.jpg,1.0,,,,A3TH6B3RUD1MUQ
1103,83,,1.0,63.0,2898635428-69104.jpg,2898625336-291572.jpg,3.0,,,,A3TH6B3RUD1MUQ
1104,84,,1.0,64.0,2874307433-66280.jpg,2986447306-296584.jpg,1.0,,,,A3TH6B3RUD1MUQ
1105,20,,1.0,0.0,2898635428-69104.jpg,2898625336-291572.jpg,3.0,,,,A2HJKL3641S7R
1106,21,,1.0,1.0,2452380832-348593.jpg,2449442181-272436.jpg,3.0,,,,A2HJKL3641S7R
1107,22,,1.0,2.0,2446759803-49249.jpg,2446760601-272099.jpg,1.0,,,,A2HJKL3641S7R
1108,23,,1.0,3.0,2898617468-68274.jpg,2864906345-212360.jpg,1.0,,,,A2HJKL3641S7R
1109,24,,1.0,4.0,2986451363-73599.jpg,2901939327-367669.jpg,1.0,,,,A2HJKL3641S7R
1110,25,,1.0,5.0,2592380177-354626.jpg,2238117096-228518.jpg,3.0,,,,A2HJKL3641S7R
1111,26,,1.0,6.0,2238428357-313623.jpg,2984615361-295509.jpg,2.0,,,,A2HJKL3641S7R
1112,27,,1.0,7.0,2874307433-66280.jpg,2986447306-296584.jpg,1.0,,,,A2HJKL3641S7R
1113,28,,1.0,8.0,2864907432-362042.jpg,2864901420-212147.jpg,1.0,,,,A2HJKL3641S7R
1114,29,,1.0,9.0,2238572663-35822.jpg,2864903351-286874.jpg,3.0,,,,A2HJKL3641S7R
1115,30,,1.0,10.0,2449442529-124445.jpg,2986408373-73286.jpg,2.0,,,,A2HJKL3641S7R
1116,31,,1.0,11.0,2964213381-294060.jpg,2981244394-145974.jpg,1.0,,,,A2HJKL3641S7R
1117,32,,1.0,12.0,2898635427-367120.jpg,2868479517-363220.jpg,2.0,,,,A2HJKL3641S7R
1118,33,right,1.0,13.0,right.jpg,,,right,1.939,,A2HJKL3641S7R
1119,34,,1.0,14.0,2901947423-70311.jpg,2238577590-185467.jpg,3.0,,,,A2HJKL3641S7R
1120,35,,1.0,15.0,2592379964-131054.jpg,2575963989-130576.jpg,1.0,,,,A2HJKL3641S7R
1121,36,left,1.0,16.0,left.jpg,,,left,1.647,,A2HJKL3641S7R
1122,37,,1.0,17.0,2868474407-362883.jpg,2238516618-25604.jpg,1.0,,,,A2HJKL3641S7R
1123,38,,1.0,18.0,2458347385-199723.jpg,2238480434-93829.jpg,1.0,,,,A2HJKL3641S7R
1124,39,,1.0,19.0,2964223381-294447.jpg,2427874231-269884.jpg,1.0,,,,A2HJKL3641S7R
1125,40,,1.0,20.0,2449441881-272368.jpg,2883268412-365899.jpg,1.0,,,,A2HJKL3641S7R
1126,41,,1.0,21.0,2898618444-142233.jpg,2238555262-330312.jpg,2.0,,,,A2HJKL3641S7R
1127,42,,1.0,22.0,2883268471-290842.jpg,2883268471-290843.jpg,1.0,,,,A2HJKL3641S7R
1128,43,,1.0,23.0,2868475410-213219.jpg,2238480803-19739.jpg,2.0,,,,A2HJKL3641S7R
1129,44,,1.0,24.0,2452381505-199546.jpg,2994401319-148290.jpg,3.0,,,,A2HJKL3641S7R
1130,45,,1.0,25.0,2864910426-287204.jpg,2864902304-137862.jpg,1.0,,,,A2HJKL3641S7R
1131,46,,1.0,26.0,2874299429-139695.jpg,2901942443-69923.jpg,2.0,,,,A2HJKL3641S7R
1132,47,,1.0,27.0,2446759347-347016.jpg,2901951350-218702.jpg,2.0,,,,A2HJKL3641S7R
1133,48,,1.0,28.0,2981241414-145842.jpg,2427873848-47312.jpg,3.0,,,,A2HJKL3641S7R
1134,49,,1.0,29.0,2874302418-65979.jpg,2413147898-43548.jpg,1.0,,,,A2HJKL3641S7R
1135,50,,1.0,30.0,2238481198-19822.jpg,2901946436-293242.jpg,2.0,,,,A2HJKL3641S7R
1136,51,,1.0,31.0,2964216465-219242.jpg,2898619327-366362.jpg,3.0,,,,A2HJKL3641S7R
1137,52,right,1.0,32.0,right.jpg,,,right,1.453,,A2HJKL3641S7R
1138,53,,1.0,33.0,2898634397-367080.jpg,2901934408-69289.jpg,2.0,,,,A2HJKL3641S7R
1139,54,,1.0,34.0,2460547467-349422.jpg,2864909447-362146.jpg,3.0,,,,A2HJKL3641S7R
1140,55,,1.0,35.0,2901941401-292798.jpg,2898618327-366317.jpg,1.0,,,,A2HJKL3641S7R
1141,56,,1.0,36.0,2898633421-291973.jpg,2238550049-105691.jpg,3.0,,,,A2HJKL3641S7R
1142,57,,1.0,37.0,2592380177-354629.jpg,2579432534-130704.jpg,2.0,,,,A2HJKL3641S7R
1143,58,,1.0,38.0,2901939379-143480.jpg,2981229442-369621.jpg,2.0,,,,A2HJKL3641S7R
1144,59,,1.0,39.0,2874303365-214262.jpg,2609793677-355397.jpg,1.0,,,,A2HJKL3641S7R
1145,60,,1.0,40.0,2512875899-126682.jpg,2986447332-371497.jpg,3.0,,,,A2HJKL3641S7R
1146,61,,1.0,41.0,2874301407-363895.jpg,2986397322-371109.jpg,2.0,,,,A2HJKL3641S7R
1147,62,,1.0,42.0,2460547467-349421.jpg,2981235446-294901.jpg,3.0,,,,A2HJKL3641S7R
1148,63,,1.0,43.0,2238560245-182099.jpg,2238480980-168129.jpg,3.0,,,,A2HJKL3641S7R
1149,64,right,1.0,44.0,right.jpg,,,right,1.784,,A2HJKL3641S7R
1150,65,,1.0,45.0,2898624426-291546.jpg,2964218432-369263.jpg,1.0,,,,A2HJKL3641S7R
1151,66,,1.0,46.0,2449442529-124446.jpg,2898632385-217139.jpg,3.0,,,,A2HJKL3641S7R
1152,67,,1.0,47.0,2883256307-365057.jpg,2864904453-63933.jpg,3.0,,,,A2HJKL3641S7R
1153,68,,1.0,48.0,2901948350-218459.jpg,2804906319-133082.jpg,1.0,,,,A2HJKL3641S7R
1154,69,,1.0,49.0,2238480677-317399.jpg,2238480278-19661.jpg,3.0,,,,A2HJKL3641S7R
1155,70,,1.0,50.0,2901939379-143479.jpg,2446758985-197610.jpg,2.0,,,,A2HJKL3641S7R
1156,71,,1.0,51.0,2901952513-70703.jpg,2238481198-19821.jpg,3.0,,,,A2HJKL3641S7R
1157,72,,0.0,52.0,left.jpg,,,left,,,A2HJKL3641S7R
1158,73,,1.0,53.0,2238425482-313537.jpg,2238436322-314047.jpg,2.0,,,,A2HJKL3641S7R
1159,74,,1.0,54.0,2981231403-71642.jpg,2427873763-47290.jpg,3.0,,,,A2HJKL3641S7R
1160,75,,1.0,55.0,2238481928-19949.jpg,2864900357-361688.jpg,2.0,,,,A2HJKL3641S7R
1161,76,,1.0,56.0,2238580740-186218.jpg,2238521193-26285.jpg,2.0,,,,A2HJKL3641S7R
1162,77,,1.0,57.0,2883254439-140941.jpg,2446760844-124088.jpg,1.0,,,,A2HJKL3641S7R
1163,78,,1.0,58.0,2883268412-365898.jpg,2984615361-295510.jpg,2.0,,,,A2HJKL3641S7R
1164,79,,1.0,59.0,2446758985-197609.jpg,2864909447-362144.jpg,2.0,,,,A2HJKL3641S7R
1165,80,,1.0,60.0,2460547508-51571.jpg,2901941438-69835.jpg,3.0,,,,A2HJKL3641S7R
1166,81,,1.0,61.0,2898618390-216538.jpg,2575120609-129862.jpg,3.0,,,,A2HJKL3641S7R
1167,82,,1.0,62.0,2874302418-65978.jpg,2238481198-19823.jpg,2.0,,,,A2HJKL3641S7R
1168,83,,1.0,63.0,2575120738-55529.jpg,2898632385-217138.jpg,1.0,,,,A2HJKL3641S7R
1169,84,,1.0,64.0,2964218374-144967.jpg,2883254439-140940.jpg,2.0,,,,A2HJKL3641S7R
1170,20,,1.0,0.0,2238481198-19822.jpg,2901946436-293242.jpg,2.0,,,,AILT4SWETTAUL
1171,21,,1.0,1.0,2901947423-70311.jpg,2238577590-185467.jpg,3.0,,,,AILT4SWETTAUL
1172,22,,1.0,2.0,2446759347-347016.jpg,2901951350-218702.jpg,2.0,,,,AILT4SWETTAUL
1173,23,,1.0,3.0,2898635428-69104.jpg,2898625336-291572.jpg,3.0,,,,AILT4SWETTAUL
1174,24,,1.0,4.0,2898617468-68274.jpg,2964207374-144577.jpg,3.0,,,,AILT4SWETTAUL
1175,25,,1.0,5.0,2460547467-349422.jpg,2898618440-216545.jpg,1.0,,,,AILT4SWETTAUL
1176,26,,1.0,6.0,2460547508-51571.jpg,2460547291-274110.jpg,1.0,,,,AILT4SWETTAUL
1177,27,,1.0,7.0,2592380177-354629.jpg,2512875587-350044.jpg,3.0,,,,AILT4SWETTAUL
1178,28,,0.0,8.0,left.jpg,,,left,,,AILT4SWETTAUL
1179,29,,1.0,9.0,2901952513-70703.jpg,2868469411-287540.jpg,2.0,,,,AILT4SWETTAUL
1180,30,,1.0,10.0,2238560245-182099.jpg,2549106624-127823.jpg,1.0,,,,AILT4SWETTAUL
1181,31,,1.0,11.0,2449441881-272368.jpg,2984615358-72439.jpg,2.0,,,,AILT4SWETTAUL
1182,32,,1.0,12.0,2883268412-365898.jpg,2238436252-314037.jpg,3.0,,,,AILT4SWETTAUL
1183,33,,1.0,13.0,2874302418-65979.jpg,2413147898-43548.jpg,1.0,,,,AILT4SWETTAUL
1184,34,,1.0,14.0,2986451363-73599.jpg,2860302315-210704.jpg,2.0,,,,AILT4SWETTAUL
1185,35,,1.0,15.0,2452380832-348593.jpg,2238481813-19930.jpg,2.0,,,,AILT4SWETTAUL
1186,36,,1.0,16.0,2964218374-144967.jpg,2883254439-140940.jpg,2.0,,,,AILT4SWETTAUL
1187,37,,1.0,17.0,2898635427-367120.jpg,2868479517-363220.jpg,2.0,,,,AILT4SWETTAUL
1188,38,,1.0,18.0,2964223381-294447.jpg,2901941438-69836.jpg,2.0,,,,AILT4SWETTAUL
1189,39,,1.0,19.0,2874302418-65978.jpg,2898626385-216899.jpg,1.0,,,,AILT4SWETTAUL
1190,40,,1.0,20.0,2901941401-292798.jpg,2898618327-366317.jpg,1.0,,,,AILT4SWETTAUL
1191,41,,1.0,21.0,2452381505-199546.jpg,2901938432-367627.jpg,1.0,,,,AILT4SWETTAUL
1192,42,,1.0,22.0,2874301407-363895.jpg,2901947323-70275.jpg,3.0,,,,AILT4SWETTAUL
1193,43,,1.0,23.0,2883254439-140941.jpg,2981231446-294730.jpg,3.0,,,,AILT4SWETTAUL
1194,44,,0.0,24.0,left.jpg,,,left,,,AILT4SWETTAUL
1195,45,,1.0,25.0,2868475410-213219.jpg,2868474407-362885.jpg,3.0,,,,AILT4SWETTAUL
1196,46,,1.0,26.0,2901948350-218459.jpg,2417208001-267065.jpg,2.0,,,,AILT4SWETTAUL
1197,47,,1.0,27.0,2901939379-143479.jpg,2446758985-197610.jpg,2.0,,,,AILT4SWETTAUL
1198,48,,1.0,28.0,2592379964-131054.jpg,2575963989-130576.jpg,1.0,,,,AILT4SWETTAUL
1199,49,,1.0,29.0,2874307433-66280.jpg,2981246400-220365.jpg,2.0,,,,AILT4SWETTAUL
1200,50,,1.0,30.0,2458347385-199723.jpg,2238480434-93829.jpg,1.0,,,,AILT4SWETTAUL
1201,51,,0.0,31.0,right.jpg,,,right,,,AILT4SWETTAUL
1202,52,,1.0,32.0,2449442529-124445.jpg,2898632385-217137.jpg,3.0,,,,AILT4SWETTAUL
1203,53,,1.0,33.0,2981231403-71642.jpg,2981244403-72215.jpg,2.0,,,,AILT4SWETTAUL
1204,54,,1.0,34.0,2449442529-124446.jpg,2446759803-49251.jpg,1.0,,,,AILT4SWETTAUL
1205,55,,1.0,35.0,2883268471-290842.jpg,2901947448-70314.jpg,3.0,,,,AILT4SWETTAUL
1206,56,,1.0,36.0,2981241414-145842.jpg,2427873848-47312.jpg,3.0,,,,AILT4SWETTAUL
1207,57,,1.0,37.0,2446759803-49249.jpg,2446760601-272099.jpg,1.0,,,,AILT4SWETTAUL
1208,58,,1.0,38.0,2874303365-214262.jpg,2238563377-332054.jpg,2.0,,,,AILT4SWETTAUL
1209,59,,1.0,39.0,2898618390-216538.jpg,2986449336-296644.jpg,1.0,,,,AILT4SWETTAUL
1210,60,,0.0,40.0,left.jpg,,,left,,,AILT4SWETTAUL
1211,61,,1.0,41.0,2460547467-349421.jpg,2898631394-142727.jpg,1.0,,,,AILT4SWETTAUL
1212,62,,1.0,42.0,2874299429-139695.jpg,2446760917-347439.jpg,3.0,,,,AILT4SWETTAUL
1213,63,,1.0,43.0,2883256307-365057.jpg,2964210336-293945.jpg,2.0,,,,AILT4SWETTAUL
1214,64,,1.0,44.0,2575120738-55529.jpg,2238531493-28260.jpg,3.0,,,,AILT4SWETTAUL
1215,65,,1.0,45.0,2864907432-362042.jpg,2864901420-212147.jpg,1.0,,,,AILT4SWETTAUL
1216,66,,1.0,46.0,2964216465-219242.jpg,2238544191-252422.jpg,1.0,,,,AILT4SWETTAUL
1217,67,,1.0,47.0,2238428357-313623.jpg,2984615361-295509.jpg,2.0,,,,AILT4SWETTAUL
1218,68,,1.0,48.0,2964213381-294060.jpg,2458348012-349114.jpg,2.0,,,,AILT4SWETTAUL
1219,69,,1.0,49.0,2898618444-142233.jpg,2898631359-142721.jpg,1.0,,,,AILT4SWETTAUL
1220,70,,1.0,50.0,2238425482-313537.jpg,2238471391-240918.jpg,1.0,,,,AILT4SWETTAUL
1221,71,,0.0,51.0,right.jpg,,,right,,,AILT4SWETTAUL
1222,72,,1.0,52.0,2238580740-186218.jpg,2964220333-71258.jpg,3.0,,,,AILT4SWETTAUL
1223,73,,1.0,53.0,2238480677-317399.jpg,2238481630-168218.jpg,1.0,,,,AILT4SWETTAUL
1224,74,,1.0,54.0,2901939379-143480.jpg,2901942428-69919.jpg,1.0,,,,AILT4SWETTAUL
1225,75,,1.0,55.0,2868474407-362883.jpg,2981246400-220363.jpg,2.0,,,,AILT4SWETTAUL
1226,76,,1.0,56.0,2898634397-367080.jpg,2964217461-294238.jpg,3.0,,,,AILT4SWETTAUL
1227,77,,1.0,57.0,2238481928-19949.jpg,2864900357-361688.jpg,2.0,,,,AILT4SWETTAUL
1228,78,,1.0,58.0,2898624426-291546.jpg,2981235446-294900.jpg,3.0,,,,AILT4SWETTAUL
1229,79,,1.0,59.0,2864910426-287204.jpg,2901939433-69672.jpg,3.0,,,,AILT4SWETTAUL
1230,80,,1.0,60.0,2512875899-126682.jpg,2986447332-371497.jpg,3.0,,,,AILT4SWETTAUL
1231,81,,1.0,61.0,2446758985-197609.jpg,2981240424-145795.jpg,1.0,,,,AILT4SWETTAUL
1232,82,,1.0,62.0,2898633421-291973.jpg,2575118671-277663.jpg,2.0,,,,AILT4SWETTAUL
1233,83,,1.0,63.0,2238572663-35822.jpg,2864903351-286874.jpg,3.0,,,,AILT4SWETTAUL
1234,84,,1.0,64.0,2592380177-354626.jpg,2238117096-228518.jpg,3.0,,,,AILT4SWETTAUL
1235,20,,1.0,0.0,2452380832-348593.jpg,2238328478-11678.jpg,1.0,,,,A2TC7B46WQ695O
1236,21,,1.0,1.0,2901939379-143480.jpg,2981229442-369621.jpg,2.0,,,,A2TC7B46WQ695O
1237,22,,1.0,2.0,2592380177-354626.jpg,2864901386-286797.jpg,2.0,,,,A2TC7B46WQ695O
1238,23,,1.0,3.0,2986451363-73599.jpg,2238434559-90406.jpg,3.0,,,,A2TC7B46WQ695O
1239,24,,1.0,4.0,2883256307-365057.jpg,2864904453-63933.jpg,3.0,,,,A2TC7B46WQ695O
1240,25,,1.0,5.0,2898634397-367080.jpg,2237944827-301472.jpg,1.0,,,,A2TC7B46WQ695O
1241,26,,1.0,6.0,2592379964-131054.jpg,2238479053-19457.jpg,2.0,,,,A2TC7B46WQ695O
1242,27,,1.0,7.0,2460547508-51571.jpg,2460547291-274110.jpg,1.0,,,,A2TC7B46WQ695O
1243,28,,1.0,8.0,2898635427-367120.jpg,2901946439-144040.jpg,1.0,,,,A2TC7B46WQ695O
1244,29,left,0.0,9.0,right.jpg,,,right,0.0093,,A2TC7B46WQ695O
