,layer,correct,test_test_response.keys,test_test_response.corr,test_test_response.rt,trials_2.thisRepN,trials_2.thisTrialN,trials_2.thisN,trials_2.thisIndex,trials_2.ran,image1,image2,subject
0,1.0,right,right,1.0,316.708,0.0,0.0,0.0,0.0,1.0,2238499057-320266.jpg,2238428357-313623.jpg,A11EXIB1MVBZFJ
1,3.0,right,left,0.0,5.956,0.0,1.0,1.0,1.0,1.0,2901941438-69835.jpg,2460547508-51571.jpg,A11EXIB1MVBZFJ
2,3.0,left,right,0.0,3.076,0.0,2.0,2.0,2.0,1.0,2238560245-182099.jpg,2238480980-168129.jpg,A11EXIB1MVBZFJ
3,1.0,right,right,1.0,1.61,0.0,3.0,3.0,3.0,1.0,2864901420-212147.jpg,2864907432-362042.jpg,A11EXIB1MVBZFJ
4,1.0,right,right,1.0,1.676,0.0,4.0,4.0,4.0,1.0,2446759803-49250.jpg,2898635428-69104.jpg,A11EXIB1MVBZFJ
5,2.0,right,left,0.0,1.049,0.0,5.0,5.0,5.0,1.0,2238480803-19739.jpg,2868475410-213219.jpg,A11EXIB1MVBZFJ
6,1.0,left,right,0.0,3.861,0.0,6.0,6.0,6.0,1.0,2986451363-73599.jpg,2901939327-367669.jpg,A11EXIB1MVBZFJ
7,2.0,left,right,0.0,3.103,0.0,7.0,7.0,7.0,1.0,2901947423-70311.jpg,2238573447-333826.jpg,A11EXIB1MVBZFJ
8,3.0,right,right,1.0,1.558,0.0,8.0,8.0,8.0,1.0,2449442181-272436.jpg,2452380832-348593.jpg,A11EXIB1MVBZFJ
9,2.0,left,left,1.0,1.099,0.0,9.0,9.0,9.0,1.0,2874302418-65978.jpg,2238481198-19823.jpg,A11EXIB1MVBZFJ
10,3.0,right,left,0.0,4.041,0.0,10.0,10.0,10.0,1.0,2981240424-145794.jpg,2901939379-143479.jpg,A11EXIB1MVBZFJ
11,2.0,left,left,1.0,1.621,0.0,11.0,11.0,11.0,1.0,2460547467-349421.jpg,2452380166-273110.jpg,A11EXIB1MVBZFJ
12,3.0,right,right,1.0,2.397,0.0,12.0,12.0,12.0,1.0,2238569117-333045.jpg,2446759347-347016.jpg,A11EXIB1MVBZFJ
13,1.0,right,left,0.0,2.317,0.0,13.0,13.0,13.0,1.0,2862691449-137104.jpg,2238481198-19822.jpg,A11EXIB1MVBZFJ
14,2.0,right,left,0.0,1.354,0.0,14.0,14.0,14.0,1.0,2986408373-73286.jpg,2449442529-124445.jpg,A11EXIB1MVBZFJ
15,2.0,right,right,1.0,1.082,0.0,15.0,15.0,15.0,1.0,2575120738-55528.jpg,2575120738-55529.jpg,A11EXIB1MVBZFJ
16,2.0,left,left,1.0,0.957,0.0,16.0,16.0,16.0,1.0,2238572663-35822.jpg,2238571930-184143.jpg,A11EXIB1MVBZFJ
17,2.0,left,right,0.0,1.401,0.0,17.0,17.0,17.0,1.0,2512875899-126682.jpg,2592380177-354628.jpg,A11EXIB1MVBZFJ
18,1.0,right,left,0.0,1.707,0.0,18.0,18.0,18.0,1.0,2901942428-69919.jpg,2901939379-143480.jpg,A11EXIB1MVBZFJ
19,1.0,left,left,1.0,1.793,0.0,19.0,19.0,19.0,1.0,2883254439-140941.jpg,2446760844-124088.jpg,A11EXIB1MVBZFJ
20,3.0,right,right,1.0,1.187,0.0,20.0,20.0,20.0,1.0,2238550049-105691.jpg,2898633421-291973.jpg,A11EXIB1MVBZFJ
21,2.0,right,right,1.0,2.333,0.0,21.0,21.0,21.0,1.0,2986397322-371109.jpg,2874301407-363895.jpg,A11EXIB1MVBZFJ
22,3.0,right,right,1.0,1.521,0.0,22.0,22.0,22.0,1.0,2864911457-362260.jpg,2874303365-214262.jpg,A11EXIB1MVBZFJ
23,1.0,left,left,1.0,1.806,0.0,23.0,23.0,23.0,1.0,2964218374-144967.jpg,2964218374-144968.jpg,A11EXIB1MVBZFJ
24,1.0,right,left,0.0,1.511,0.0,24.0,24.0,24.0,1.0,2981240424-145795.jpg,2446758985-197609.jpg,A11EXIB1MVBZFJ
25,3.0,left,right,0.0,1.406,0.0,25.0,25.0,25.0,1.0,2449441881-272368.jpg,2449441881-272367.jpg,A11EXIB1MVBZFJ
26,1.0,right,left,0.0,1.966,0.0,26.0,26.0,26.0,1.0,2986408339-146952.jpg,2592380177-354626.jpg,A11EXIB1MVBZFJ
27,2.0,right,right,1.0,1.585,0.0,27.0,27.0,27.0,1.0,2901941438-69836.jpg,2964223381-294447.jpg,A11EXIB1MVBZFJ
28,2.0,right,left,0.0,1.267,0.0,28.0,28.0,28.0,1.0,2868487415-213924.jpg,2460547467-349422.jpg,A11EXIB1MVBZFJ
29,1.0,right,right,1.0,1.444,0.0,29.0,29.0,29.0,1.0,2446760601-272099.jpg,2446759803-49249.jpg,A11EXIB1MVBZFJ
30,3.0,left,right,0.0,1.483,0.0,30.0,30.0,30.0,1.0,2883256307-365057.jpg,2864904453-63933.jpg,A11EXIB1MVBZFJ
31,2.0,left,left,1.0,1.166,0.0,31.0,31.0,31.0,1.0,2901948350-218459.jpg,2417208001-267065.jpg,A11EXIB1MVBZFJ
32,2.0,left,right,0.0,3.495,0.0,32.0,32.0,32.0,1.0,2874307433-66280.jpg,2981246400-220365.jpg,A11EXIB1MVBZFJ
33,3.0,right,left,0.0,51.757,0.0,33.0,33.0,33.0,1.0,2592380272-354673.jpg,2592379964-131054.jpg,A11EXIB1MVBZFJ
34,3.0,left,left,1.0,1.38,0.0,34.0,34.0,34.0,1.0,2898635427-367120.jpg,2898621427-366486.jpg,A11EXIB1MVBZFJ
35,1.0,left,left,1.0,1.935,0.0,35.0,35.0,35.0,1.0,2883268471-290842.jpg,2883268471-290843.jpg,A11EXIB1MVBZFJ
36,1.0,left,left,1.0,2.285,0.0,36.0,36.0,36.0,1.0,2864910426-287204.jpg,2864902304-137862.jpg,A11EXIB1MVBZFJ
37,2.0,right,left,0.0,1.316,0.0,37.0,37.0,37.0,1.0,2458348012-349114.jpg,2964213381-294060.jpg,A11EXIB1MVBZFJ
38,3.0,left,right,0.0,1.308,0.0,38.0,38.0,38.0,1.0,2898618444-142233.jpg,2898618444-142232.jpg,A11EXIB1MVBZFJ
39,3.0,right,right,1.0,1.339,0.0,39.0,39.0,39.0,1.0,2458347252-348911.jpg,2458347385-199723.jpg,A11EXIB1MVBZFJ
40,1.0,right,right,1.0,4.106,0.0,40.0,40.0,40.0,1.0,2238544191-252422.jpg,2964216465-219242.jpg,A11EXIB1MVBZFJ
41,3.0,right,right,1.0,9.362,0.0,41.0,41.0,41.0,1.0,2512875587-350044.jpg,2592380177-354629.jpg,A11EXIB1MVBZFJ
42,1.0,right,left,0.0,1.306,0.0,42.0,42.0,42.0,1.0,2238516618-25604.jpg,2868474407-362883.jpg,A11EXIB1MVBZFJ
43,2.0,left,right,0.0,1.311,0.0,43.0,43.0,43.0,1.0,2238480677-317399.jpg,2238573546-258454.jpg,A11EXIB1MVBZFJ
44,3.0,right,right,1.0,1.658,0.0,44.0,44.0,44.0,1.0,2575120609-129862.jpg,2898618390-216538.jpg,A11EXIB1MVBZFJ
45,3.0,left,left,1.0,0.799,0.0,45.0,45.0,45.0,1.0,2449442529-124446.jpg,2898632385-217139.jpg,A11EXIB1MVBZFJ
46,3.0,left,right,0.0,1.411,0.0,46.0,46.0,46.0,1.0,2874302418-65979.jpg,2238578544-111698.jpg,A11EXIB1MVBZFJ
47,3.0,right,left,0.0,2.229,0.0,47.0,47.0,47.0,1.0,2994401319-148290.jpg,2452381505-199546.jpg,A11EXIB1MVBZFJ
48,2.0,right,left,0.0,1.389,0.0,48.0,48.0,48.0,1.0,2981243412-370222.jpg,2901941401-292798.jpg,A11EXIB1MVBZFJ
49,1.0,right,left,0.0,1.549,0.0,49.0,49.0,49.0,1.0,2883264367-365620.jpg,2238481928-19949.jpg,A11EXIB1MVBZFJ
50,2.0,left,left,1.0,1.183,0.0,50.0,50.0,50.0,1.0,2874299429-139695.jpg,2901942443-69923.jpg,A11EXIB1MVBZFJ
51,2.0,right,right,1.0,0.822,0.0,51.0,51.0,51.0,1.0,2984615361-295510.jpg,2883268412-365898.jpg,A11EXIB1MVBZFJ
52,1.0,right,right,1.0,1.446,0.0,52.0,52.0,52.0,1.0,2238471391-240918.jpg,2238425482-313537.jpg,A11EXIB1MVBZFJ
53,2.0,left,left,1.0,0.993,0.0,53.0,53.0,53.0,1.0,2898634397-367080.jpg,2901934408-69289.jpg,A11EXIB1MVBZFJ
54,1.0,left,right,0.0,1.562,0.0,54.0,54.0,54.0,1.0,2981231403-71642.jpg,2274829821-263682.jpg,A11EXIB1MVBZFJ
55,3.0,right,left,0.0,1.744,0.0,55.0,55.0,55.0,1.0,2981235446-294900.jpg,2898624426-291546.jpg,A11EXIB1MVBZFJ
56,3.0,left,right,0.0,2.308,0.0,56.0,56.0,56.0,1.0,2901952513-70703.jpg,2238481198-19821.jpg,A11EXIB1MVBZFJ
57,1.0,left,left,1.0,1.219,0.0,57.0,57.0,57.0,1.0,2981241414-145842.jpg,2856919327-359676.jpg,A11EXIB1MVBZFJ
58,1.0,left,left,1.0,6.765,0.0,58.0,58.0,58.0,1.0,2898617468-68274.jpg,2864906345-212360.jpg,A11EXIB1MVBZFJ
59,2.0,left,right,0.0,4.913,0.0,59.0,59.0,59.0,1.0,2238580740-186218.jpg,2238521193-26285.jpg,A11EXIB1MVBZFJ
60,2.0,left,left,1.0,1.2727,0.0,0.0,0.0,0.0,1.0,2238481928-19949.jpg,2864900357-361688.jpg,A1F9KLZGHE9DTA
61,1.0,left,left,1.0,1.221,0.0,1.0,1.0,1.0,1.0,2868474407-362883.jpg,2238516618-25604.jpg,A1F9KLZGHE9DTA
62,3.0,left,right,0.0,1.5779,0.0,2.0,2.0,2.0,1.0,2449442529-124446.jpg,2898632385-217139.jpg,A1F9KLZGHE9DTA
63,3.0,right,left,0.0,1.6088,0.0,3.0,3.0,3.0,1.0,2864904453-63933.jpg,2883256307-365057.jpg,A1F9KLZGHE9DTA
64,2.0,left,left,1.0,1.0675,0.0,4.0,4.0,4.0,1.0,2446758985-197609.jpg,2864909447-362144.jpg,A1F9KLZGHE9DTA
65,1.0,right,right,1.0,1.837,0.0,5.0,5.0,5.0,1.0,2883268471-290843.jpg,2883268471-290842.jpg,A1F9KLZGHE9DTA
66,1.0,right,right,1.0,1.3226,0.0,6.0,6.0,6.0,1.0,2898618327-366317.jpg,2901941401-292798.jpg,A1F9KLZGHE9DTA
67,3.0,left,left,1.0,1.12,0.0,7.0,7.0,7.0,1.0,2898635428-69104.jpg,2898625336-291572.jpg,A1F9KLZGHE9DTA
68,1.0,right,right,1.0,1.8683,0.0,8.0,8.0,8.0,1.0,2898632385-217138.jpg,2575120738-55529.jpg,A1F9KLZGHE9DTA
69,2.0,right,left,0.0,1.7671,0.0,9.0,9.0,9.0,1.0,2901946436-293242.jpg,2238481198-19822.jpg,A1F9KLZGHE9DTA
70,2.0,left,left,1.0,1.4143,0.0,10.0,10.0,10.0,1.0,2868475410-213219.jpg,2238480803-19739.jpg,A1F9KLZGHE9DTA
71,3.0,left,left,1.0,1.1852,0.0,11.0,11.0,11.0,1.0,2981231403-71642.jpg,2427873763-47290.jpg,A1F9KLZGHE9DTA
72,2.0,left,left,1.0,1.1661,0.0,12.0,12.0,12.0,1.0,2446759347-347016.jpg,2901951350-218702.jpg,A1F9KLZGHE9DTA
73,2.0,right,right,1.0,1.2169,0.0,13.0,13.0,13.0,1.0,2238521193-26285.jpg,2238580740-186218.jpg,A1F9KLZGHE9DTA
74,1.0,right,right,1.0,1.487,0.0,14.0,14.0,14.0,1.0,2864901420-212147.jpg,2864907432-362042.jpg,A1F9KLZGHE9DTA
75,2.0,left,left,1.0,1.1797,0.0,15.0,15.0,15.0,1.0,2898635427-367120.jpg,2868479517-363220.jpg,A1F9KLZGHE9DTA
76,1.0,left,left,1.0,1.2912,0.0,16.0,16.0,16.0,1.0,2874302418-65979.jpg,2413147898-43548.jpg,A1F9KLZGHE9DTA
77,1.0,left,left,1.0,1.4848,0.0,17.0,17.0,17.0,1.0,2864910426-287204.jpg,2864902304-137862.jpg,A1F9KLZGHE9DTA
78,1.0,right,left,0.0,1.5489,0.0,18.0,18.0,18.0,1.0,2883268412-365899.jpg,2449441881-272368.jpg,A1F9KLZGHE9DTA
79,3.0,right,right,1.0,1.635,0.0,19.0,19.0,19.0,1.0,2449442181-272436.jpg,2452380832-348593.jpg,A1F9KLZGHE9DTA
80,3.0,left,left,1.0,1.385,0.0,20.0,20.0,20.0,1.0,2512875899-126682.jpg,2986447332-371497.jpg,A1F9KLZGHE9DTA
81,3.0,right,left,0.0,2.2348,0.0,21.0,21.0,21.0,1.0,2864909447-362146.jpg,2460547467-349422.jpg,A1F9KLZGHE9DTA
82,1.0,right,right,1.0,1.1767,0.0,22.0,22.0,22.0,1.0,2804906319-133082.jpg,2901948350-218459.jpg,A1F9KLZGHE9DTA
83,1.0,left,right,0.0,2.4148,0.0,23.0,23.0,23.0,1.0,2964223381-294447.jpg,2427874231-269884.jpg,A1F9KLZGHE9DTA
84,2.0,right,left,0.0,1.852,0.0,24.0,24.0,24.0,1.0,2238481198-19823.jpg,2874302418-65978.jpg,A1F9KLZGHE9DTA
85,3.0,left,left,1.0,1.3847,0.0,25.0,25.0,25.0,1.0,2460547467-349421.jpg,2981235446-294901.jpg,A1F9KLZGHE9DTA
86,2.0,left,left,1.0,1.3457,0.0,26.0,26.0,26.0,1.0,2898618444-142233.jpg,2238555262-330312.jpg,A1F9KLZGHE9DTA
87,2.0,left,left,1.0,1.2345,0.0,27.0,27.0,27.0,1.0,2874299429-139695.jpg,2901942443-69923.jpg,A1F9KLZGHE9DTA
88,1.0,left,right,0.0,1.8345,0.0,28.0,28.0,28.0,1.0,2458347385-199723.jpg,2238480434-93829.jpg,A1F9KLZGHE9DTA
89,1.0,left,left,1.0,1.3352,0.0,29.0,29.0,29.0,1.0,2964213381-294060.jpg,2981244394-145974.jpg,A1F9KLZGHE9DTA
90,2.0,left,left,1.0,1.2321,0.0,30.0,30.0,30.0,1.0,2449442529-124445.jpg,2986408373-73286.jpg,A1F9KLZGHE9DTA
91,3.0,left,right,0.0,1.2156,0.0,31.0,31.0,31.0,1.0,2964216465-219242.jpg,2898619327-366362.jpg,A1F9KLZGHE9DTA
92,2.0,left,right,0.0,1.1985,0.0,32.0,32.0,32.0,1.0,2883268412-365898.jpg,2984615361-295510.jpg,A1F9KLZGHE9DTA
93,2.0,left,left,1.0,1.2044,0.0,33.0,33.0,33.0,1.0,2592380177-354629.jpg,2579432534-130704.jpg,A1F9KLZGHE9DTA
94,2.0,right,left,0.0,0.9539,0.0,34.0,34.0,34.0,1.0,2446758985-197610.jpg,2901939379-143479.jpg,A1F9KLZGHE9DTA
95,2.0,right,left,0.0,1.2413,0.0,35.0,35.0,35.0,1.0,2901934408-69289.jpg,2898634397-367080.jpg,A1F9KLZGHE9DTA
96,3.0,right,left,0.0,1.2826,0.0,36.0,36.0,36.0,1.0,2994401319-148290.jpg,2452381505-199546.jpg,A1F9KLZGHE9DTA
97,3.0,left,left,1.0,1.7125,0.0,37.0,37.0,37.0,1.0,2898618390-216538.jpg,2575120609-129862.jpg,A1F9KLZGHE9DTA
98,3.0,right,right,1.0,1.5993,0.0,38.0,38.0,38.0,1.0,2238550049-105691.jpg,2898633421-291973.jpg,A1F9KLZGHE9DTA
99,1.0,right,left,0.0,1.1825,0.0,39.0,39.0,39.0,1.0,2964218432-369263.jpg,2898624426-291546.jpg,A1F9KLZGHE9DTA
100,2.0,right,left,0.0,1.2051,0.0,40.0,40.0,40.0,1.0,2883254439-140940.jpg,2964218374-144967.jpg,A1F9KLZGHE9DTA
101,1.0,left,right,0.0,1.6008,0.0,41.0,41.0,41.0,1.0,2874307433-66280.jpg,2986447306-296584.jpg,A1F9KLZGHE9DTA
102,2.0,right,left,0.0,1.0048,0.0,42.0,42.0,42.0,1.0,2981229442-369621.jpg,2901939379-143480.jpg,A1F9KLZGHE9DTA
103,3.0,right,left,0.0,1.164,0.0,43.0,43.0,43.0,1.0,2427873848-47312.jpg,2981241414-145842.jpg,A1F9KLZGHE9DTA
104,3.0,right,left,0.0,1.5533,0.0,44.0,44.0,44.0,1.0,2238480980-168129.jpg,2238560245-182099.jpg,A1F9KLZGHE9DTA
105,1.0,left,right,0.0,1.3828,0.0,45.0,45.0,45.0,1.0,2898617468-68274.jpg,2864906345-212360.jpg,A1F9KLZGHE9DTA
106,3.0,right,right,1.0,1.4991,0.0,46.0,46.0,46.0,1.0,2238480278-19661.jpg,2238480677-317399.jpg,A1F9KLZGHE9DTA
107,1.0,left,left,1.0,1.2147,0.0,47.0,47.0,47.0,1.0,2446759803-49249.jpg,2446760601-272099.jpg,A1F9KLZGHE9DTA
108,1.0,left,left,1.0,1.3073,0.0,48.0,48.0,48.0,1.0,2874303365-214262.jpg,2609793677-355397.jpg,A1F9KLZGHE9DTA
109,2.0,right,right,1.0,1.3124,0.0,49.0,49.0,49.0,1.0,2986397322-371109.jpg,2874301407-363895.jpg,A1F9KLZGHE9DTA
110,2.0,right,left,0.0,1.3497,0.0,50.0,50.0,50.0,1.0,2984615361-295509.jpg,2238428357-313623.jpg,A1F9KLZGHE9DTA
111,1.0,left,left,1.0,1.5851,0.0,51.0,51.0,51.0,1.0,2592379964-131054.jpg,2575963989-130576.jpg,A1F9KLZGHE9DTA
112,3.0,left,left,1.0,1.2228,0.0,52.0,52.0,52.0,1.0,2238572663-35822.jpg,2864903351-286874.jpg,A1F9KLZGHE9DTA
113,1.0,left,left,1.0,1.7326,0.0,53.0,53.0,53.0,1.0,2986451363-73599.jpg,2901939327-367669.jpg,A1F9KLZGHE9DTA
114,1.0,right,left,0.0,1.1678,0.0,54.0,54.0,54.0,1.0,2446760844-124088.jpg,2883254439-140941.jpg,A1F9KLZGHE9DTA
115,3.0,right,left,0.0,1.3202,0.0,55.0,55.0,55.0,1.0,2901941438-69835.jpg,2460547508-51571.jpg,A1F9KLZGHE9DTA
116,3.0,right,left,0.0,1.1691,0.0,56.0,56.0,56.0,1.0,2238481198-19821.jpg,2901952513-70703.jpg,A1F9KLZGHE9DTA
117,3.0,left,right,0.0,1.7518,0.0,57.0,57.0,57.0,1.0,2901947423-70311.jpg,2238577590-185467.jpg,A1F9KLZGHE9DTA
118,3.0,right,left,0.0,1.6226,0.0,58.0,58.0,58.0,1.0,2238117096-228518.jpg,2592380177-354626.jpg,A1F9KLZGHE9DTA
119,2.0,right,right,1.0,1.6522,0.0,59.0,59.0,59.0,1.0,2238436322-314047.jpg,2238425482-313537.jpg,A1F9KLZGHE9DTA
120,2.0,right,right,1.0,3.7089,0.0,0.0,0.0,0.0,1.0,2417208001-267065.jpg,2901948350-218459.jpg,A1LCUPRZ0I8S3I
121,3.0,left,right,0.0,3.2356,0.0,1.0,1.0,1.0,1.0,2883254439-140941.jpg,2981231446-294730.jpg,A1LCUPRZ0I8S3I
122,2.0,left,left,1.0,1.943,0.0,2.0,2.0,2.0,1.0,2898624426-291546.jpg,2981236443-71859.jpg,A1LCUPRZ0I8S3I
123,2.0,left,right,0.0,2.6058,0.0,3.0,3.0,3.0,1.0,2864907432-362042.jpg,2901947423-70310.jpg,A1LCUPRZ0I8S3I
124,3.0,right,right,1.0,1.4972,0.0,4.0,4.0,4.0,1.0,2898632385-217137.jpg,2449442529-124445.jpg,A1LCUPRZ0I8S3I
125,3.0,right,right,1.0,1.7096,0.0,5.0,5.0,5.0,1.0,2981231446-294732.jpg,2964218374-144967.jpg,A1LCUPRZ0I8S3I
126,2.0,right,right,1.0,2.1537,0.0,6.0,6.0,6.0,1.0,2901934408-69289.jpg,2898634397-367080.jpg,A1LCUPRZ0I8S3I
127,2.0,right,right,1.0,2.1357,0.0,7.0,7.0,7.0,1.0,2238481198-19823.jpg,2874302418-65978.jpg,A1LCUPRZ0I8S3I
128,3.0,left,left,1.0,2.3881,0.0,8.0,8.0,8.0,1.0,2874302418-65979.jpg,2238578544-111698.jpg,A1LCUPRZ0I8S3I
129,2.0,left,left,1.0,2.6338,0.0,9.0,9.0,9.0,1.0,2449441881-272368.jpg,2984615358-72439.jpg,A1LCUPRZ0I8S3I
130,2.0,left,right,0.0,2.8081,0.0,10.0,10.0,10.0,1.0,2238580740-186218.jpg,2238521193-26285.jpg,A1LCUPRZ0I8S3I
131,3.0,left,left,1.0,2.6739,0.0,11.0,11.0,11.0,1.0,2446759347-347016.jpg,2238569117-333045.jpg,A1LCUPRZ0I8S3I
132,2.0,left,right,0.0,3.0875,0.0,12.0,12.0,12.0,1.0,2512875899-126682.jpg,2592380177-354628.jpg,A1LCUPRZ0I8S3I
133,3.0,right,right,1.0,5.5828,0.0,13.0,13.0,13.0,1.0,2901947323-70275.jpg,2874301407-363895.jpg,A1LCUPRZ0I8S3I
134,3.0,right,left,0.0,8.3401,0.0,14.0,14.0,14.0,1.0,2864904453-63933.jpg,2883256307-365057.jpg,A1LCUPRZ0I8S3I
135,3.0,left,right,0.0,7.584,0.0,15.0,15.0,15.0,1.0,2986451363-73599.jpg,2238434559-90406.jpg,A1LCUPRZ0I8S3I
136,2.0,right,right,1.0,5.413,0.0,16.0,16.0,16.0,1.0,2864901386-286797.jpg,2592380177-354626.jpg,A1LCUPRZ0I8S3I
137,2.0,right,left,0.0,2.4883,0.0,17.0,17.0,17.0,1.0,2874314526-289684.jpg,2238560245-182099.jpg,A1LCUPRZ0I8S3I
138,1.0,left,right,0.0,1.8502,0.0,18.0,18.0,18.0,1.0,2898635428-69104.jpg,2446759803-49250.jpg,A1LCUPRZ0I8S3I
139,1.0,right,right,1.0,1.3522,0.0,19.0,19.0,19.0,1.0,2862691449-137104.jpg,2238481198-19822.jpg,A1LCUPRZ0I8S3I
140,2.0,left,right,0.0,1.9778,0.0,20.0,20.0,20.0,1.0,2964223381-294447.jpg,2901941438-69836.jpg,A1LCUPRZ0I8S3I
141,1.0,left,right,0.0,1.3966,0.0,21.0,21.0,21.0,1.0,2901941401-292798.jpg,2898618327-366317.jpg,A1LCUPRZ0I8S3I
142,3.0,right,right,1.0,2.0495,0.0,22.0,22.0,22.0,1.0,2427873763-47290.jpg,2981231403-71642.jpg,A1LCUPRZ0I8S3I
143,1.0,left,left,1.0,2.2448,0.0,23.0,23.0,23.0,1.0,2898617468-68274.jpg,2864906345-212360.jpg,A1LCUPRZ0I8S3I
144,3.0,left,left,1.0,1.8809,0.0,24.0,24.0,24.0,1.0,2898618444-142233.jpg,2898618444-142232.jpg,A1LCUPRZ0I8S3I
145,1.0,right,right,1.0,2.183,0.0,25.0,25.0,25.0,1.0,2609793677-355397.jpg,2874303365-214262.jpg,A1LCUPRZ0I8S3I
146,3.0,right,right,1.0,1.7707,0.0,26.0,26.0,26.0,1.0,2512875587-350044.jpg,2592380177-354629.jpg,A1LCUPRZ0I8S3I
147,2.0,left,right,0.0,1.7814,0.0,27.0,27.0,27.0,1.0,2883268471-290842.jpg,2883255450-215310.jpg,A1LCUPRZ0I8S3I
148,3.0,right,left,0.0,1.697,0.0,28.0,28.0,28.0,1.0,2898619327-366362.jpg,2964216465-219242.jpg,A1LCUPRZ0I8S3I
149,2.0,right,right,1.0,1.8595,0.0,29.0,29.0,29.0,1.0,2981232437-369759.jpg,2460547508-51571.jpg,A1LCUPRZ0I8S3I
150,3.0,left,left,1.0,1.7254,0.0,30.0,30.0,30.0,1.0,2964213381-294060.jpg,2964213381-294061.jpg,A1LCUPRZ0I8S3I
151,1.0,left,left,1.0,2.1021,0.0,31.0,31.0,31.0,1.0,2446758985-197609.jpg,2981240424-145795.jpg,A1LCUPRZ0I8S3I
152,2.0,left,right,0.0,2.0348,0.0,32.0,32.0,32.0,1.0,2901947423-70311.jpg,2238573447-333826.jpg,A1LCUPRZ0I8S3I
153,2.0,right,right,1.0,1.4911,0.0,33.0,33.0,33.0,1.0,2868479517-363220.jpg,2898635427-367120.jpg,A1LCUPRZ0I8S3I
154,1.0,right,right,1.0,1.3725,0.0,34.0,34.0,34.0,1.0,2898618440-216545.jpg,2460547467-349422.jpg,A1LCUPRZ0I8S3I
155,1.0,left,left,1.0,2.3798,0.0,35.0,35.0,35.0,1.0,2898618390-216538.jpg,2986449336-296644.jpg,A1LCUPRZ0I8S3I
156,1.0,right,left,0.0,2.0542,0.0,36.0,36.0,36.0,1.0,2883266388-67750.jpg,2874299429-139695.jpg,A1LCUPRZ0I8S3I
157,1.0,left,left,1.0,2.4771,0.0,37.0,37.0,37.0,1.0,2238480677-317399.jpg,2238481630-168218.jpg,A1LCUPRZ0I8S3I
158,2.0,left,left,1.0,2.8545,0.0,38.0,38.0,38.0,1.0,2898633421-291973.jpg,2575118671-277663.jpg,A1LCUPRZ0I8S3I
159,2.0,right,left,0.0,5.6117,0.0,39.0,39.0,39.0,1.0,2874299429-139694.jpg,2864910426-287204.jpg,A1LCUPRZ0I8S3I
160,2.0,right,right,1.0,2.5819,0.0,40.0,40.0,40.0,1.0,2981229442-369621.jpg,2901939379-143480.jpg,A1LCUPRZ0I8S3I
161,1.0,right,right,1.0,2.3452,0.0,41.0,41.0,41.0,1.0,2460547467-349423.jpg,2901939379-143479.jpg,A1LCUPRZ0I8S3I
162,3.0,right,right,1.0,1.6859,0.0,42.0,42.0,42.0,1.0,2898633480-217190.jpg,2238425482-313537.jpg,A1LCUPRZ0I8S3I
163,3.0,left,right,0.0,1.4763,0.0,43.0,43.0,43.0,1.0,2449442529-124446.jpg,2898632385-217139.jpg,A1LCUPRZ0I8S3I
164,3.0,right,left,0.0,1.4871,0.0,44.0,44.0,44.0,1.0,2901948383-70363.jpg,2868474407-362883.jpg,A1LCUPRZ0I8S3I
165,1.0,left,left,1.0,2.6812,0.0,45.0,45.0,45.0,1.0,2460547467-349421.jpg,2898631394-142727.jpg,A1LCUPRZ0I8S3I
166,3.0,left,left,1.0,2.178,0.0,46.0,46.0,46.0,1.0,2238481928-19949.jpg,2981241419-145844.jpg,A1LCUPRZ0I8S3I
167,1.0,left,right,0.0,2.1481,0.0,47.0,47.0,47.0,1.0,2592379964-131054.jpg,2575963989-130576.jpg,A1LCUPRZ0I8S3I
168,3.0,right,right,1.0,2.6287,0.0,48.0,48.0,48.0,1.0,2575121987-353817.jpg,2238428357-313623.jpg,A1LCUPRZ0I8S3I
169,2.0,left,right,0.0,1.6601,0.0,49.0,49.0,49.0,1.0,2452381505-199546.jpg,2238567168-34916.jpg,A1LCUPRZ0I8S3I
170,3.0,right,right,1.0,1.4745,0.0,50.0,50.0,50.0,1.0,2427873848-47312.jpg,2981241414-145842.jpg,A1LCUPRZ0I8S3I
171,1.0,left,left,1.0,2.2493,0.0,51.0,51.0,51.0,1.0,2446759803-49249.jpg,2446760601-272099.jpg,A1LCUPRZ0I8S3I
172,3.0,right,left,0.0,2.4449,0.0,52.0,52.0,52.0,1.0,2868474407-362885.jpg,2868475410-213219.jpg,A1LCUPRZ0I8S3I
173,1.0,left,left,1.0,2.0371,0.0,53.0,53.0,53.0,1.0,2452380832-348593.jpg,2238328478-11678.jpg,A1LCUPRZ0I8S3I
174,1.0,left,right,0.0,4.1898,0.0,54.0,54.0,54.0,1.0,2575120738-55529.jpg,2898632385-217138.jpg,A1LCUPRZ0I8S3I
175,1.0,left,left,1.0,5.4224,0.0,55.0,55.0,55.0,1.0,2238572663-35822.jpg,2986419333-73361.jpg,A1LCUPRZ0I8S3I
176,1.0,right,right,1.0,2.2755,0.0,56.0,56.0,56.0,1.0,2986447306-296584.jpg,2874307433-66280.jpg,A1LCUPRZ0I8S3I
177,1.0,right,right,1.0,2.2263,0.0,57.0,57.0,57.0,1.0,2864907361-287062.jpg,2901952513-70703.jpg,A1LCUPRZ0I8S3I
178,2.0,left,right,0.0,3.6969,0.0,58.0,58.0,58.0,1.0,2458347385-199723.jpg,2427874554-121863.jpg,A1LCUPRZ0I8S3I
179,1.0,left,left,1.0,3.9697,0.0,59.0,59.0,59.0,1.0,2883268412-365898.jpg,2984626312-370849.jpg,A1LCUPRZ0I8S3I
180,2.0,right,right,1.0,79.4761,0.0,0.0,0.0,0.0,1.0,2417208001-267065.jpg,2901948350-218459.jpg,A1OOCYEFLAJD98
181,3.0,left,left,1.0,5.6316,0.0,1.0,1.0,1.0,1.0,2883254439-140941.jpg,2981231446-294730.jpg,A1OOCYEFLAJD98
182,2.0,left,left,1.0,2.1151,0.0,2.0,2.0,2.0,1.0,2898624426-291546.jpg,2981236443-71859.jpg,A1OOCYEFLAJD98
183,2.0,left,right,0.0,1.8657,0.0,3.0,3.0,3.0,1.0,2864907432-362042.jpg,2901947423-70310.jpg,A1OOCYEFLAJD98
184,3.0,right,right,1.0,1.9883,0.0,4.0,4.0,4.0,1.0,2898632385-217137.jpg,2449442529-124445.jpg,A1OOCYEFLAJD98
185,3.0,right,right,1.0,2.3331,0.0,5.0,5.0,5.0,1.0,2981231446-294732.jpg,2964218374-144967.jpg,A1OOCYEFLAJD98
186,2.0,right,left,0.0,3.0144,0.0,6.0,6.0,6.0,1.0,2901934408-69289.jpg,2898634397-367080.jpg,A1OOCYEFLAJD98
187,2.0,right,right,1.0,1.3602,0.0,7.0,7.0,7.0,1.0,2238481198-19823.jpg,2874302418-65978.jpg,A1OOCYEFLAJD98
188,3.0,left,right,0.0,4.7828,0.0,8.0,8.0,8.0,1.0,2874302418-65979.jpg,2238578544-111698.jpg,A1OOCYEFLAJD98
189,2.0,left,right,0.0,1.0345,0.0,9.0,9.0,9.0,1.0,2449441881-272368.jpg,2984615358-72439.jpg,A1OOCYEFLAJD98
190,2.0,left,right,0.0,2.93,0.0,10.0,10.0,10.0,1.0,2238580740-186218.jpg,2238521193-26285.jpg,A1OOCYEFLAJD98
191,3.0,left,left,1.0,3.4295,0.0,11.0,11.0,11.0,1.0,2446759347-347016.jpg,2238569117-333045.jpg,A1OOCYEFLAJD98
192,2.0,left,left,1.0,2.3848,0.0,12.0,12.0,12.0,1.0,2512875899-126682.jpg,2592380177-354628.jpg,A1OOCYEFLAJD98
193,3.0,right,left,0.0,1.4981,0.0,13.0,13.0,13.0,1.0,2901947323-70275.jpg,2874301407-363895.jpg,A1OOCYEFLAJD98
194,3.0,right,left,0.0,1.8639,0.0,14.0,14.0,14.0,1.0,2864904453-63933.jpg,2883256307-365057.jpg,A1OOCYEFLAJD98
195,3.0,left,left,1.0,1.5764,0.0,15.0,15.0,15.0,1.0,2986451363-73599.jpg,2238434559-90406.jpg,A1OOCYEFLAJD98
196,2.0,right,right,1.0,2.8612,0.0,16.0,16.0,16.0,1.0,2864901386-286797.jpg,2592380177-354626.jpg,A1OOCYEFLAJD98
197,2.0,right,left,0.0,1.2918,0.0,17.0,17.0,17.0,1.0,2874314526-289684.jpg,2238560245-182099.jpg,A1OOCYEFLAJD98
198,1.0,left,right,0.0,1.2479,0.0,18.0,18.0,18.0,1.0,2898635428-69104.jpg,2446759803-49250.jpg,A1OOCYEFLAJD98
199,1.0,right,right,1.0,2.1353,0.0,19.0,19.0,19.0,1.0,2862691449-137104.jpg,2238481198-19822.jpg,A1OOCYEFLAJD98
200,2.0,left,left,1.0,2.4653,0.0,20.0,20.0,20.0,1.0,2964223381-294447.jpg,2901941438-69836.jpg,A1OOCYEFLAJD98
201,1.0,left,left,1.0,3.8952,0.0,21.0,21.0,21.0,1.0,2901941401-292798.jpg,2898618327-366317.jpg,A1OOCYEFLAJD98
202,3.0,right,left,0.0,1.3508,0.0,22.0,22.0,22.0,1.0,2427873763-47290.jpg,2981231403-71642.jpg,A1OOCYEFLAJD98
203,1.0,left,left,1.0,2.2577,0.0,23.0,23.0,23.0,1.0,2898617468-68274.jpg,2864906345-212360.jpg,A1OOCYEFLAJD98
204,3.0,left,left,1.0,1.2053,0.0,24.0,24.0,24.0,1.0,2898618444-142233.jpg,2898618444-142232.jpg,A1OOCYEFLAJD98
205,1.0,right,right,1.0,2.1445,0.0,25.0,25.0,25.0,1.0,2609793677-355397.jpg,2874303365-214262.jpg,A1OOCYEFLAJD98
206,3.0,right,right,1.0,1.7088,0.0,26.0,26.0,26.0,1.0,2512875587-350044.jpg,2592380177-354629.jpg,A1OOCYEFLAJD98
207,2.0,left,left,1.0,4.0129,0.0,27.0,27.0,27.0,1.0,2883268471-290842.jpg,2883255450-215310.jpg,A1OOCYEFLAJD98
208,3.0,right,left,0.0,1.8511,0.0,28.0,28.0,28.0,1.0,2898619327-366362.jpg,2964216465-219242.jpg,A1OOCYEFLAJD98
209,2.0,right,right,1.0,2.2056,0.0,29.0,29.0,29.0,1.0,2981232437-369759.jpg,2460547508-51571.jpg,A1OOCYEFLAJD98
210,3.0,left,right,0.0,2.8497,0.0,30.0,30.0,30.0,1.0,2964213381-294060.jpg,2964213381-294061.jpg,A1OOCYEFLAJD98
211,1.0,left,left,1.0,3.3538,0.0,31.0,31.0,31.0,1.0,2446758985-197609.jpg,2981240424-145795.jpg,A1OOCYEFLAJD98
212,2.0,left,left,1.0,1.662,0.0,32.0,32.0,32.0,1.0,2901947423-70311.jpg,2238573447-333826.jpg,A1OOCYEFLAJD98
213,2.0,right,right,1.0,1.7382,0.0,33.0,33.0,33.0,1.0,2868479517-363220.jpg,2898635427-367120.jpg,A1OOCYEFLAJD98
214,1.0,right,right,1.0,1.1076,0.0,34.0,34.0,34.0,1.0,2898618440-216545.jpg,2460547467-349422.jpg,A1OOCYEFLAJD98
215,1.0,left,left,1.0,1.2632,0.0,35.0,35.0,35.0,1.0,2898618390-216538.jpg,2986449336-296644.jpg,A1OOCYEFLAJD98
216,1.0,right,left,0.0,1.4357,0.0,36.0,36.0,36.0,1.0,2883266388-67750.jpg,2874299429-139695.jpg,A1OOCYEFLAJD98
217,1.0,left,left,1.0,1.2484,0.0,37.0,37.0,37.0,1.0,2238480677-317399.jpg,2238481630-168218.jpg,A1OOCYEFLAJD98
218,2.0,left,left,1.0,1.8725,0.0,38.0,38.0,38.0,1.0,2898633421-291973.jpg,2575118671-277663.jpg,A1OOCYEFLAJD98
219,2.0,right,left,0.0,3.1813,0.0,39.0,39.0,39.0,1.0,2874299429-139694.jpg,2864910426-287204.jpg,A1OOCYEFLAJD98
220,2.0,right,right,1.0,3.1472,0.0,40.0,40.0,40.0,1.0,2981229442-369621.jpg,2901939379-143480.jpg,A1OOCYEFLAJD98
221,1.0,right,right,1.0,1.8358,0.0,41.0,41.0,41.0,1.0,2460547467-349423.jpg,2901939379-143479.jpg,A1OOCYEFLAJD98
222,3.0,right,right,1.0,1.791,0.0,42.0,42.0,42.0,1.0,2898633480-217190.jpg,2238425482-313537.jpg,A1OOCYEFLAJD98
223,3.0,left,left,1.0,1.4654,0.0,43.0,43.0,43.0,1.0,2449442529-124446.jpg,2898632385-217139.jpg,A1OOCYEFLAJD98
224,3.0,right,left,0.0,2.3496,0.0,44.0,44.0,44.0,1.0,2901948383-70363.jpg,2868474407-362883.jpg,A1OOCYEFLAJD98
225,1.0,left,left,1.0,2.5336,0.0,45.0,45.0,45.0,1.0,2460547467-349421.jpg,2898631394-142727.jpg,A1OOCYEFLAJD98
226,3.0,left,left,1.0,1.6649,0.0,46.0,46.0,46.0,1.0,2238481928-19949.jpg,2981241419-145844.jpg,A1OOCYEFLAJD98
227,1.0,left,right,0.0,3.4162,0.0,47.0,47.0,47.0,1.0,2592379964-131054.jpg,2575963989-130576.jpg,A1OOCYEFLAJD98
228,3.0,right,left,0.0,3.8699,0.0,48.0,48.0,48.0,1.0,2575121987-353817.jpg,2238428357-313623.jpg,A1OOCYEFLAJD98
229,2.0,left,left,1.0,1.7935,0.0,49.0,49.0,49.0,1.0,2452381505-199546.jpg,2238567168-34916.jpg,A1OOCYEFLAJD98
230,3.0,right,right,1.0,4.8305,0.0,50.0,50.0,50.0,1.0,2427873848-47312.jpg,2981241414-145842.jpg,A1OOCYEFLAJD98
231,1.0,left,right,0.0,3.0046,0.0,51.0,51.0,51.0,1.0,2446759803-49249.jpg,2446760601-272099.jpg,A1OOCYEFLAJD98
232,3.0,right,right,1.0,2.4861,0.0,52.0,52.0,52.0,1.0,2868474407-362885.jpg,2868475410-213219.jpg,A1OOCYEFLAJD98
233,1.0,left,left,1.0,2.3002,0.0,53.0,53.0,53.0,1.0,2452380832-348593.jpg,2238328478-11678.jpg,A1OOCYEFLAJD98
234,1.0,left,left,1.0,2.83,0.0,54.0,54.0,54.0,1.0,2575120738-55529.jpg,2898632385-217138.jpg,A1OOCYEFLAJD98
235,1.0,left,right,0.0,2.0969,0.0,55.0,55.0,55.0,1.0,2238572663-35822.jpg,2986419333-73361.jpg,A1OOCYEFLAJD98
236,1.0,right,right,1.0,1.3845,0.0,56.0,56.0,56.0,1.0,2986447306-296584.jpg,2874307433-66280.jpg,A1OOCYEFLAJD98
237,1.0,right,right,1.0,1.1324,0.0,57.0,57.0,57.0,1.0,2864907361-287062.jpg,2901952513-70703.jpg,A1OOCYEFLAJD98
238,2.0,left,left,1.0,4.1569,0.0,58.0,58.0,58.0,1.0,2458347385-199723.jpg,2427874554-121863.jpg,A1OOCYEFLAJD98
239,1.0,left,left,1.0,2.0498,0.0,59.0,59.0,59.0,1.0,2883268412-365898.jpg,2984626312-370849.jpg,A1OOCYEFLAJD98
240,1.0,right,left,0.0,4.0168,0.0,0.0,0.0,0.0,1.0,2549106624-127823.jpg,2238560245-182099.jpg,A1U0FDPQ953KXX
241,2.0,right,left,0.0,5.789,0.0,1.0,1.0,1.0,1.0,2981246400-220365.jpg,2874307433-66280.jpg,A1U0FDPQ953KXX
242,3.0,left,left,1.0,2.0125,0.0,2.0,2.0,2.0,1.0,2449442529-124445.jpg,2898632385-217137.jpg,A1U0FDPQ953KXX
243,2.0,right,right,1.0,1.5975,0.0,3.0,3.0,3.0,1.0,2981229442-369621.jpg,2901939379-143480.jpg,A1U0FDPQ953KXX
244,1.0,left,left,1.0,1.8961,0.0,4.0,4.0,4.0,1.0,2238572663-35822.jpg,2986419333-73361.jpg,A1U0FDPQ953KXX
245,3.0,left,left,1.0,2.0184,0.0,5.0,5.0,5.0,1.0,2901939379-143479.jpg,2981240424-145794.jpg,A1U0FDPQ953KXX
246,1.0,left,left,1.0,4.1487,0.0,6.0,6.0,6.0,1.0,2868474407-362883.jpg,2238516618-25604.jpg,A1U0FDPQ953KXX
247,2.0,left,left,1.0,1.9338,0.0,7.0,7.0,7.0,1.0,2898624426-291546.jpg,2981236443-71859.jpg,A1U0FDPQ953KXX
248,1.0,right,right,1.0,3.1497,0.0,8.0,8.0,8.0,1.0,2964218374-144968.jpg,2964218374-144967.jpg,A1U0FDPQ953KXX
249,1.0,right,left,0.0,2.7173,0.0,9.0,9.0,9.0,1.0,2898631359-142721.jpg,2898618444-142233.jpg,A1U0FDPQ953KXX
250,1.0,right,right,1.0,2.0589,0.0,10.0,10.0,10.0,1.0,2446759803-49250.jpg,2898635428-69104.jpg,A1U0FDPQ953KXX
251,2.0,right,left,0.0,2.0853,0.0,11.0,11.0,11.0,1.0,2238480803-19739.jpg,2868475410-213219.jpg,A1U0FDPQ953KXX
252,1.0,right,left,0.0,2.3053,0.0,12.0,12.0,12.0,1.0,2460547536-274179.jpg,2512875899-126682.jpg,A1U0FDPQ953KXX
253,3.0,left,left,1.0,2.6016,0.0,13.0,13.0,13.0,1.0,2592380177-354626.jpg,2238117096-228518.jpg,A1U0FDPQ953KXX
254,3.0,right,right,1.0,3.3598,0.0,14.0,14.0,14.0,1.0,2238436252-314037.jpg,2883268412-365898.jpg,A1U0FDPQ953KXX
255,3.0,left,right,0.0,2.1643,0.0,15.0,15.0,15.0,1.0,2460547508-51571.jpg,2901941438-69835.jpg,A1U0FDPQ953KXX
256,3.0,right,right,1.0,1.9283,0.0,16.0,16.0,16.0,1.0,2449441881-272367.jpg,2449441881-272368.jpg,A1U0FDPQ953KXX
257,3.0,left,left,1.0,1.8125,0.0,17.0,17.0,17.0,1.0,2898635427-367120.jpg,2898621427-366486.jpg,A1U0FDPQ953KXX
258,2.0,left,left,1.0,2.1342,0.0,18.0,18.0,18.0,1.0,2964216465-219242.jpg,2864900319-137787.jpg,A1U0FDPQ953KXX
259,2.0,left,left,1.0,2.1461,0.0,19.0,19.0,19.0,1.0,2452381505-199546.jpg,2238567168-34916.jpg,A1U0FDPQ953KXX
260,2.0,left,right,0.0,2.7937,0.0,20.0,20.0,20.0,1.0,2898618390-216538.jpg,2901939327-367670.jpg,A1U0FDPQ953KXX
261,2.0,right,right,1.0,2.835,0.0,21.0,21.0,21.0,1.0,2864900357-361688.jpg,2238481928-19949.jpg,A1U0FDPQ953KXX
262,3.0,right,right,1.0,2.3702,0.0,22.0,22.0,22.0,1.0,2901947323-70275.jpg,2874301407-363895.jpg,A1U0FDPQ953KXX
263,1.0,right,left,0.0,5.7133,0.0,23.0,23.0,23.0,1.0,2864906345-212360.jpg,2898617468-68274.jpg,A1U0FDPQ953KXX
264,3.0,left,left,1.0,2.0789,0.0,24.0,24.0,24.0,1.0,2452380832-348593.jpg,2449442181-272436.jpg,A1U0FDPQ953KXX
265,2.0,left,right,0.0,4.2506,0.0,25.0,25.0,25.0,1.0,2981231403-71642.jpg,2981244403-72215.jpg,A1U0FDPQ953KXX
266,3.0,left,left,1.0,2.1675,0.0,26.0,26.0,26.0,1.0,2964223381-294447.jpg,2898628438-68785.jpg,A1U0FDPQ953KXX
267,2.0,left,left,1.0,8.8167,0.0,27.0,27.0,27.0,1.0,2883268471-290842.jpg,2883255450-215310.jpg,A1U0FDPQ953KXX
268,3.0,right,right,1.0,1.9084,0.0,28.0,28.0,28.0,1.0,2864904453-63933.jpg,2883256307-365057.jpg,A1U0FDPQ953KXX
269,3.0,right,left,0.0,1.897,0.0,29.0,29.0,29.0,1.0,2964217461-294238.jpg,2898634397-367080.jpg,A1U0FDPQ953KXX
270,1.0,left,left,1.0,2.7931,0.0,30.0,30.0,30.0,1.0,2981241414-145842.jpg,2856919327-359676.jpg,A1U0FDPQ953KXX
271,3.0,left,right,0.0,2.3787,0.0,31.0,31.0,31.0,1.0,2883254439-140941.jpg,2981231446-294730.jpg,A1U0FDPQ953KXX
272,3.0,right,right,1.0,2.2614,0.0,32.0,32.0,32.0,1.0,2238577590-185467.jpg,2901947423-70311.jpg,A1U0FDPQ953KXX
273,1.0,left,left,1.0,7.005,0.0,33.0,33.0,33.0,1.0,2238425482-313537.jpg,2238471391-240918.jpg,A1U0FDPQ953KXX
274,1.0,right,right,1.0,1.7832,0.0,34.0,34.0,34.0,1.0,2864907361-287062.jpg,2901952513-70703.jpg,A1U0FDPQ953KXX
275,2.0,left,left,1.0,2.2049,0.0,35.0,35.0,35.0,1.0,2446758985-197609.jpg,2864909447-362144.jpg,A1U0FDPQ953KXX
276,3.0,left,left,1.0,24.3477,0.0,36.0,36.0,36.0,1.0,2592380177-354629.jpg,2512875587-350044.jpg,A1U0FDPQ953KXX
277,2.0,left,right,0.0,2.7159,0.0,37.0,37.0,37.0,1.0,2864910426-287204.jpg,2874299429-139694.jpg,A1U0FDPQ953KXX
278,3.0,left,left,1.0,1.751,0.0,38.0,38.0,38.0,1.0,2592379964-131054.jpg,2592380272-354673.jpg,A1U0FDPQ953KXX
279,1.0,right,right,1.0,1.8926,0.0,39.0,39.0,39.0,1.0,2898618440-216545.jpg,2460547467-349422.jpg,A1U0FDPQ953KXX
280,1.0,left,left,1.0,1.9876,0.0,40.0,40.0,40.0,1.0,2874303365-214262.jpg,2609793677-355397.jpg,A1U0FDPQ953KXX
281,2.0,right,left,0.0,2.2849,0.0,41.0,41.0,41.0,1.0,2238573546-258454.jpg,2238480677-317399.jpg,A1U0FDPQ953KXX
282,3.0,right,left,0.0,2.0396,0.0,42.0,42.0,42.0,1.0,2238550049-105691.jpg,2898633421-291973.jpg,A1U0FDPQ953KXX
283,1.0,right,right,1.0,1.9145,0.0,43.0,43.0,43.0,1.0,2981244394-145974.jpg,2964213381-294060.jpg,A1U0FDPQ953KXX
284,2.0,left,left,1.0,2.0091,0.0,44.0,44.0,44.0,1.0,2575120738-55529.jpg,2575120738-55528.jpg,A1U0FDPQ953KXX
285,2.0,right,right,1.0,4.2149,0.0,45.0,45.0,45.0,1.0,2860302315-210704.jpg,2986451363-73599.jpg,A1U0FDPQ953KXX
286,2.0,right,left,0.0,1.5277,0.0,46.0,46.0,46.0,1.0,2460547536-274181.jpg,2449442529-124446.jpg,A1U0FDPQ953KXX
287,1.0,left,right,0.0,3.2205,0.0,47.0,47.0,47.0,1.0,2446759347-347016.jpg,2964224310-219528.jpg,A1U0FDPQ953KXX
288,3.0,right,right,1.0,2.9319,0.0,48.0,48.0,48.0,1.0,2964220333-71258.jpg,2238580740-186218.jpg,A1U0FDPQ953KXX
289,1.0,left,left,1.0,2.2668,0.0,49.0,49.0,49.0,1.0,2874302418-65979.jpg,2413147898-43548.jpg,A1U0FDPQ953KXX
290,3.0,left,right,0.0,2.457,0.0,50.0,50.0,50.0,1.0,2901941401-292798.jpg,2883273443-68193.jpg,A1U0FDPQ953KXX
291,1.0,right,right,1.0,2.0935,0.0,51.0,51.0,51.0,1.0,2883266388-67750.jpg,2874299429-139695.jpg,A1U0FDPQ953KXX
292,3.0,right,left,0.0,2.2582,0.0,52.0,52.0,52.0,1.0,2981246360-220352.jpg,2901948350-218459.jpg,A1U0FDPQ953KXX
293,2.0,right,right,1.0,2.3106,0.0,53.0,53.0,53.0,1.0,2901947423-70310.jpg,2864907432-362042.jpg,A1U0FDPQ953KXX
294,2.0,right,right,1.0,1.6082,0.0,54.0,54.0,54.0,1.0,2984615361-295509.jpg,2238428357-313623.jpg,A1U0FDPQ953KXX
295,2.0,left,left,1.0,6.5494,0.0,55.0,55.0,55.0,1.0,2460547467-349421.jpg,2452380166-273110.jpg,A1U0FDPQ953KXX
296,1.0,right,right,1.0,1.7282,0.0,56.0,56.0,56.0,1.0,2862691449-137104.jpg,2238481198-19822.jpg,A1U0FDPQ953KXX
297,1.0,right,right,1.0,4.1989,0.0,57.0,57.0,57.0,1.0,2898626385-216899.jpg,2874302418-65978.jpg,A1U0FDPQ953KXX
298,2.0,right,left,0.0,3.4943,0.0,58.0,58.0,58.0,1.0,2427874554-121863.jpg,2458347385-199723.jpg,A1U0FDPQ953KXX
299,1.0,left,left,1.0,1.7532,0.0,59.0,59.0,59.0,1.0,2446759803-49249.jpg,2446760601-272099.jpg,A1U0FDPQ953KXX
300,1.0,left,right,0.0,9.3085,0.0,0.0,0.0,0.0,1.0,2460547508-51571.jpg,2460547291-274110.jpg,A2ASRB2MTHDHPD
301,3.0,left,left,1.0,5.1335,0.0,1.0,1.0,1.0,1.0,2238481198-19822.jpg,2238480803-19737.jpg,A2ASRB2MTHDHPD
302,2.0,right,left,0.0,33.8576,0.0,2.0,2.0,2.0,1.0,2238567168-34916.jpg,2452381505-199546.jpg,A2ASRB2MTHDHPD
303,1.0,right,right,1.0,2.8161,0.0,3.0,3.0,3.0,1.0,2609793677-355397.jpg,2874303365-214262.jpg,A2ASRB2MTHDHPD
304,1.0,left,left,1.0,1.3893,0.0,4.0,4.0,4.0,1.0,2964223381-294447.jpg,2427874231-269884.jpg,A2ASRB2MTHDHPD
305,1.0,left,left,1.0,2.0883,0.0,5.0,5.0,5.0,1.0,2964218374-144967.jpg,2964218374-144968.jpg,A2ASRB2MTHDHPD
306,1.0,left,left,1.0,2.4038,0.0,6.0,6.0,6.0,1.0,2901939379-143479.jpg,2460547467-349423.jpg,A2ASRB2MTHDHPD
307,1.0,left,left,1.0,1.4403,0.0,7.0,7.0,7.0,1.0,2898617468-68274.jpg,2864906345-212360.jpg,A2ASRB2MTHDHPD
308,3.0,left,left,1.0,1.0862,0.0,8.0,8.0,8.0,1.0,2898618444-142233.jpg,2898618444-142232.jpg,A2ASRB2MTHDHPD
309,2.0,right,left,0.0,1.8064,0.0,9.0,9.0,9.0,1.0,2898632385-217136.jpg,2883254439-140941.jpg,A2ASRB2MTHDHPD
310,3.0,right,left,0.0,0.8006,0.0,10.0,10.0,10.0,1.0,2883273443-68193.jpg,2901941401-292798.jpg,A2ASRB2MTHDHPD
311,3.0,right,left,0.0,1.9103,0.0,11.0,11.0,11.0,1.0,2238531493-28260.jpg,2575120738-55529.jpg,A2ASRB2MTHDHPD
312,1.0,left,left,1.0,1.5559,0.0,12.0,12.0,12.0,1.0,2901947423-70311.jpg,2860312398-62572.jpg,A2ASRB2MTHDHPD
313,3.0,left,left,1.0,2.1748,0.0,13.0,13.0,13.0,1.0,2883256307-365057.jpg,2864904453-63933.jpg,A2ASRB2MTHDHPD
314,2.0,left,right,0.0,1.1854,0.0,14.0,14.0,14.0,1.0,2592380177-354626.jpg,2864901386-286797.jpg,A2ASRB2MTHDHPD
315,2.0,right,left,0.0,3.1268,0.0,15.0,15.0,15.0,1.0,2579432534-130704.jpg,2592380177-354629.jpg,A2ASRB2MTHDHPD
316,3.0,left,right,0.0,2.6594,0.0,16.0,16.0,16.0,1.0,2868474407-362883.jpg,2901948383-70363.jpg,A2ASRB2MTHDHPD
317,2.0,right,left,0.0,2.9204,0.0,17.0,17.0,17.0,1.0,2860302315-210704.jpg,2986451363-73599.jpg,A2ASRB2MTHDHPD
318,2.0,left,left,1.0,1.5376,0.0,18.0,18.0,18.0,1.0,2874302418-65979.jpg,2238480648-19714.jpg,A2ASRB2MTHDHPD
319,3.0,right,right,1.0,1.0875,0.0,19.0,19.0,19.0,1.0,2901947448-70314.jpg,2883268471-290842.jpg,A2ASRB2MTHDHPD
320,1.0,left,left,1.0,2.3428,0.0,20.0,20.0,20.0,1.0,2964213381-294060.jpg,2981244394-145974.jpg,A2ASRB2MTHDHPD
321,3.0,right,left,0.0,8.7123,0.0,21.0,21.0,21.0,1.0,2981241419-145844.jpg,2238481928-19949.jpg,A2ASRB2MTHDHPD
322,1.0,right,left,0.0,1.995,0.0,22.0,22.0,22.0,1.0,2901942428-69919.jpg,2901939379-143480.jpg,A2ASRB2MTHDHPD
323,2.0,right,right,1.0,4.6317,0.0,23.0,23.0,23.0,1.0,2901943411-292945.jpg,2898635428-69104.jpg,A2ASRB2MTHDHPD
324,2.0,right,left,0.0,0.6385,0.0,24.0,24.0,24.0,1.0,2417208001-267065.jpg,2901948350-218459.jpg,A2ASRB2MTHDHPD
325,2.0,left,right,0.0,1.1529,0.0,25.0,25.0,25.0,1.0,2446758985-197609.jpg,2864909447-362144.jpg,A2ASRB2MTHDHPD
326,3.0,right,right,1.0,1.0527,0.0,26.0,26.0,26.0,1.0,2427873848-47312.jpg,2981241414-145842.jpg,A2ASRB2MTHDHPD
327,2.0,left,right,0.0,1.486,0.0,27.0,27.0,27.0,1.0,2874301407-363895.jpg,2986397322-371109.jpg,A2ASRB2MTHDHPD
328,3.0,right,right,1.0,1.6735,0.0,28.0,28.0,28.0,1.0,2238569117-333045.jpg,2446759347-347016.jpg,A2ASRB2MTHDHPD
329,1.0,left,left,1.0,0.6599,0.0,29.0,29.0,29.0,1.0,2238425482-313537.jpg,2238471391-240918.jpg,A2ASRB2MTHDHPD
330,1.0,left,left,1.0,0.7676,0.0,30.0,30.0,30.0,1.0,2460547467-349421.jpg,2898631394-142727.jpg,A2ASRB2MTHDHPD
331,3.0,right,left,0.0,1.754,0.0,31.0,31.0,31.0,1.0,2449442181-272436.jpg,2452380832-348593.jpg,A2ASRB2MTHDHPD
332,3.0,right,left,0.0,5.1499,0.0,32.0,32.0,32.0,1.0,2898632385-217139.jpg,2449442529-124446.jpg,A2ASRB2MTHDHPD
333,1.0,left,right,0.0,1.6939,0.0,33.0,33.0,33.0,1.0,2449441881-272368.jpg,2883268412-365899.jpg,A2ASRB2MTHDHPD
334,3.0,left,left,1.0,0.6512,0.0,34.0,34.0,34.0,1.0,2868475410-213219.jpg,2868474407-362885.jpg,A2ASRB2MTHDHPD
335,1.0,left,right,0.0,2.7274,0.0,35.0,35.0,35.0,1.0,2874302418-65978.jpg,2898626385-216899.jpg,A2ASRB2MTHDHPD
336,3.0,left,left,1.0,2.805,0.0,36.0,36.0,36.0,1.0,2238480677-317399.jpg,2238480278-19661.jpg,A2ASRB2MTHDHPD
337,1.0,right,left,0.0,3.0631,0.0,37.0,37.0,37.0,1.0,2452380171-273112.jpg,2449442529-124445.jpg,A2ASRB2MTHDHPD
338,2.0,left,right,0.0,1.4527,0.0,38.0,38.0,38.0,1.0,2458347385-199723.jpg,2427874554-121863.jpg,A2ASRB2MTHDHPD
339,1.0,right,right,1.0,1.1668,0.0,39.0,39.0,39.0,1.0,2986447306-296584.jpg,2874307433-66280.jpg,A2ASRB2MTHDHPD
340,2.0,right,right,1.0,1.0678,0.0,40.0,40.0,40.0,1.0,2238521193-26285.jpg,2238580740-186218.jpg,A2ASRB2MTHDHPD
341,2.0,right,left,0.0,0.7689,0.0,41.0,41.0,41.0,1.0,2984615361-295510.jpg,2883268412-365898.jpg,A2ASRB2MTHDHPD
342,1.0,left,left,1.0,2.2671,0.0,42.0,42.0,42.0,1.0,2898618390-216538.jpg,2986449336-296644.jpg,A2ASRB2MTHDHPD
343,2.0,right,right,1.0,3.8965,0.0,43.0,43.0,43.0,1.0,2868479517-363220.jpg,2898635427-367120.jpg,A2ASRB2MTHDHPD
344,3.0,left,left,1.0,0.7035,0.0,44.0,44.0,44.0,1.0,2898634397-367080.jpg,2964217461-294238.jpg,A2ASRB2MTHDHPD
345,2.0,right,left,0.0,1.0676,0.0,45.0,45.0,45.0,1.0,2901942443-69923.jpg,2874299429-139695.jpg,A2ASRB2MTHDHPD
346,2.0,left,right,0.0,1.1855,0.0,46.0,46.0,46.0,1.0,2864910426-287204.jpg,2874299429-139694.jpg,A2ASRB2MTHDHPD
347,1.0,left,left,1.0,1.0511,0.0,47.0,47.0,47.0,1.0,2981231403-71642.jpg,2274829821-263682.jpg,A2ASRB2MTHDHPD
348,3.0,left,left,1.0,0.7432,0.0,48.0,48.0,48.0,1.0,2964216465-219242.jpg,2898619327-366362.jpg,A2ASRB2MTHDHPD
349,1.0,left,right,0.0,2.0552,0.0,49.0,49.0,49.0,1.0,2592379964-131054.jpg,2575963989-130576.jpg,A2ASRB2MTHDHPD
350,1.0,left,left,1.0,0.8358,0.0,50.0,50.0,50.0,1.0,2898624426-291546.jpg,2964218432-369263.jpg,A2ASRB2MTHDHPD
351,1.0,left,left,1.0,0.663,0.0,51.0,51.0,51.0,1.0,2238560245-182099.jpg,2549106624-127823.jpg,A2ASRB2MTHDHPD
352,2.0,right,left,0.0,1.098,0.0,52.0,52.0,52.0,1.0,2238571930-184143.jpg,2238572663-35822.jpg,A2ASRB2MTHDHPD
353,3.0,right,left,0.0,1.0696,0.0,53.0,53.0,53.0,1.0,2864909447-362146.jpg,2460547467-349422.jpg,A2ASRB2MTHDHPD
354,3.0,right,left,0.0,0.5662,0.0,54.0,54.0,54.0,1.0,2452380166-273109.jpg,2446759803-49249.jpg,A2ASRB2MTHDHPD
355,2.0,left,right,0.0,0.716,0.0,55.0,55.0,55.0,1.0,2864907432-362042.jpg,2901947423-70310.jpg,A2ASRB2MTHDHPD
356,3.0,right,right,1.0,1.6703,0.0,56.0,56.0,56.0,1.0,2575121987-353817.jpg,2238428357-313623.jpg,A2ASRB2MTHDHPD
357,3.0,left,right,0.0,0.9328,0.0,57.0,57.0,57.0,1.0,2901952513-70703.jpg,2238481198-19821.jpg,A2ASRB2MTHDHPD
358,2.0,left,right,0.0,1.6881,0.0,58.0,58.0,58.0,1.0,2512875899-126682.jpg,2592380177-354628.jpg,A2ASRB2MTHDHPD
359,2.0,left,left,1.0,1.4217,0.0,59.0,59.0,59.0,1.0,2898633421-291973.jpg,2575118671-277663.jpg,A2ASRB2MTHDHPD
360,2.0,right,right,1.0,2.0596,0.0,0.0,0.0,0.0,1.0,2238479053-19457.jpg,2592379964-131054.jpg,A2M183CETUMR96
361,1.0,right,right,1.0,3.9197,0.0,1.0,1.0,1.0,1.0,2964218432-369263.jpg,2898624426-291546.jpg,A2M183CETUMR96
362,2.0,left,left,1.0,2.4876,0.0,2.0,2.0,2.0,1.0,2238481198-19822.jpg,2901946436-293242.jpg,A2M183CETUMR96
363,3.0,right,right,1.0,3.303,0.0,3.0,3.0,3.0,1.0,2981240424-145794.jpg,2901939379-143479.jpg,A2M183CETUMR96
364,2.0,left,right,0.0,3.4638,0.0,4.0,4.0,4.0,1.0,2449441881-272368.jpg,2984615358-72439.jpg,A2M183CETUMR96
365,3.0,left,left,1.0,2.9397,0.0,5.0,5.0,5.0,1.0,2874299429-139695.jpg,2446760917-347439.jpg,A2M183CETUMR96
366,2.0,left,left,1.0,1.4703,0.0,6.0,6.0,6.0,1.0,2898633421-291973.jpg,2575118671-277663.jpg,A2M183CETUMR96
367,2.0,right,right,1.0,1.834,0.0,7.0,7.0,7.0,1.0,2864900319-137787.jpg,2964216465-219242.jpg,A2M183CETUMR96
368,2.0,left,left,1.0,2.4648,0.0,8.0,8.0,8.0,1.0,2575120738-55529.jpg,2575120738-55528.jpg,A2M183CETUMR96
369,1.0,right,right,1.0,1.5834,0.0,9.0,9.0,9.0,1.0,2611628310-206388.jpg,2883256307-365057.jpg,A2M183CETUMR96
370,1.0,left,left,1.0,1.67,0.0,10.0,10.0,10.0,1.0,2446759347-347016.jpg,2964224310-219528.jpg,A2M183CETUMR96
371,3.0,left,left,1.0,7.0972,0.0,11.0,11.0,11.0,1.0,2449442529-124446.jpg,2898632385-217139.jpg,A2M183CETUMR96
372,3.0,right,right,1.0,1.4509,0.0,12.0,12.0,12.0,1.0,2452380166-273109.jpg,2446759803-49249.jpg,A2M183CETUMR96
373,1.0,left,left,1.0,7.2456,0.0,13.0,13.0,13.0,1.0,2898635427-367120.jpg,2901946439-144040.jpg,A2M183CETUMR96
374,1.0,left,left,1.0,2.5411,0.0,14.0,14.0,14.0,1.0,2592380177-354626.jpg,2986408339-146952.jpg,A2M183CETUMR96
375,3.0,right,right,1.0,1.8989,0.0,15.0,15.0,15.0,1.0,2575120609-129862.jpg,2898618390-216538.jpg,A2M183CETUMR96
376,3.0,left,left,1.0,2.6664,0.0,16.0,16.0,16.0,1.0,2964218374-144967.jpg,2981231446-294732.jpg,A2M183CETUMR96
377,3.0,left,left,1.0,5.0193,0.0,17.0,17.0,17.0,1.0,2981241414-145842.jpg,2427873848-47312.jpg,A2M183CETUMR96
378,3.0,left,left,1.0,2.5662,0.0,18.0,18.0,18.0,1.0,2238560245-182099.jpg,2238480980-168129.jpg,A2M183CETUMR96
379,2.0,left,left,1.0,2.7977,0.0,19.0,19.0,19.0,1.0,2874307433-66280.jpg,2981246400-220365.jpg,A2M183CETUMR96
380,3.0,left,left,1.0,2.0821,0.0,20.0,20.0,20.0,1.0,2864910426-287204.jpg,2901939433-69672.jpg,A2M183CETUMR96
381,3.0,left,left,1.0,2.1193,0.0,21.0,21.0,21.0,1.0,2868475410-213219.jpg,2868474407-362885.jpg,A2M183CETUMR96
382,3.0,right,right,1.0,1.29,0.0,22.0,22.0,22.0,1.0,2898633321-291943.jpg,2874302418-65978.jpg,A2M183CETUMR96
383,2.0,left,left,1.0,2.7481,0.0,23.0,23.0,23.0,1.0,2883268412-365898.jpg,2984615361-295510.jpg,A2M183CETUMR96
384,1.0,left,left,1.0,1.7173,0.0,24.0,24.0,24.0,1.0,2874303365-214262.jpg,2609793677-355397.jpg,A2M183CETUMR96
385,1.0,right,right,1.0,11.3612,0.0,25.0,25.0,25.0,1.0,2883268471-290843.jpg,2883268471-290842.jpg,A2M183CETUMR96
386,2.0,left,left,1.0,1.3053,0.0,26.0,26.0,26.0,1.0,2901952513-70703.jpg,2868469411-287540.jpg,A2M183CETUMR96
387,1.0,left,left,1.0,2.2559,0.0,27.0,27.0,27.0,1.0,2898635428-69104.jpg,2446759803-49250.jpg,A2M183CETUMR96
388,3.0,right,left,0.0,7.261,0.0,28.0,28.0,28.0,1.0,2989726338-74002.jpg,2864907432-362042.jpg,A2M183CETUMR96
389,2.0,left,right,0.0,4.4746,0.0,29.0,29.0,29.0,1.0,2964223381-294447.jpg,2901941438-69836.jpg,A2M183CETUMR96
390,3.0,right,right,1.0,1.5102,0.0,30.0,30.0,30.0,1.0,2898618444-142232.jpg,2898618444-142233.jpg,A2M183CETUMR96
391,1.0,left,left,1.0,4.4464,0.0,31.0,31.0,31.0,1.0,2238428357-313623.jpg,2238499057-320266.jpg,A2M183CETUMR96
392,2.0,right,right,1.0,1.5602,0.0,32.0,32.0,32.0,1.0,2860302315-210704.jpg,2986451363-73599.jpg,A2M183CETUMR96
393,2.0,left,left,1.0,2.3507,0.0,33.0,33.0,33.0,1.0,2238481928-19949.jpg,2864900357-361688.jpg,A2M183CETUMR96
394,2.0,right,right,1.0,3.6148,0.0,34.0,34.0,34.0,1.0,2864909447-362144.jpg,2446758985-197609.jpg,A2M183CETUMR96
395,2.0,left,left,1.0,3.4126,0.0,35.0,35.0,35.0,1.0,2512875899-126682.jpg,2592380177-354628.jpg,A2M183CETUMR96
396,1.0,left,left,1.0,2.4275,0.0,36.0,36.0,36.0,1.0,2238580740-186218.jpg,2238550816-254000.jpg,A2M183CETUMR96
397,3.0,left,left,1.0,3.0855,0.0,37.0,37.0,37.0,1.0,2874301407-363895.jpg,2901947323-70275.jpg,A2M183CETUMR96
398,2.0,right,right,1.0,2.5167,0.0,38.0,38.0,38.0,1.0,2238573546-258454.jpg,2238480677-317399.jpg,A2M183CETUMR96
399,1.0,right,right,1.0,11.7966,0.0,39.0,39.0,39.0,1.0,2901938432-367627.jpg,2452381505-199546.jpg,A2M183CETUMR96
400,1.0,left,right,0.0,1.5921,0.0,40.0,40.0,40.0,1.0,2901941401-292798.jpg,2898618327-366317.jpg,A2M183CETUMR96
401,3.0,left,left,1.0,3.2641,0.0,41.0,41.0,41.0,1.0,2898634397-367080.jpg,2964217461-294238.jpg,A2M183CETUMR96
402,1.0,right,right,1.0,5.2675,0.0,42.0,42.0,42.0,1.0,2238471391-240918.jpg,2238425482-313537.jpg,A2M183CETUMR96
403,3.0,left,left,1.0,7.6697,0.0,43.0,43.0,43.0,1.0,2901948350-218459.jpg,2981246360-220352.jpg,A2M183CETUMR96
404,1.0,left,left,1.0,2.4368,0.0,44.0,44.0,44.0,1.0,2460547467-349422.jpg,2898618440-216545.jpg,A2M183CETUMR96
405,1.0,left,left,1.0,2.0878,0.0,45.0,45.0,45.0,1.0,2238572663-35822.jpg,2986419333-73361.jpg,A2M183CETUMR96
406,2.0,right,right,1.0,4.5689,0.0,46.0,46.0,46.0,1.0,2901943387-368037.jpg,2898617468-68274.jpg,A2M183CETUMR96
407,3.0,left,left,1.0,11.0914,0.0,47.0,47.0,47.0,1.0,2981231403-71642.jpg,2427873763-47290.jpg,A2M183CETUMR96
408,1.0,left,left,1.0,4.1301,0.0,48.0,48.0,48.0,1.0,2458347385-199723.jpg,2238480434-93829.jpg,A2M183CETUMR96
409,2.0,left,left,1.0,6.8541,0.0,49.0,49.0,49.0,1.0,2874302418-65979.jpg,2238480648-19714.jpg,A2M183CETUMR96
410,1.0,right,right,1.0,1.3804,0.0,50.0,50.0,50.0,1.0,2238328478-11678.jpg,2452380832-348593.jpg,A2M183CETUMR96
411,3.0,right,right,1.0,1.6164,0.0,51.0,51.0,51.0,1.0,2898632385-217137.jpg,2449442529-124445.jpg,A2M183CETUMR96
412,2.0,left,left,1.0,2.6151,0.0,52.0,52.0,52.0,1.0,2901939379-143480.jpg,2981229442-369621.jpg,A2M183CETUMR96
413,3.0,right,left,0.0,4.0846,0.0,53.0,53.0,53.0,1.0,2981235446-294901.jpg,2460547467-349421.jpg,A2M183CETUMR96
414,1.0,left,left,1.0,4.0132,0.0,54.0,54.0,54.0,1.0,2592380177-354629.jpg,2898633421-291974.jpg,A2M183CETUMR96
415,2.0,left,left,1.0,3.3527,0.0,55.0,55.0,55.0,1.0,2460547508-51571.jpg,2981232437-369759.jpg,A2M183CETUMR96
416,3.0,right,right,1.0,2.2138,0.0,56.0,56.0,56.0,1.0,2964213381-294061.jpg,2964213381-294060.jpg,A2M183CETUMR96
417,1.0,right,left,0.0,2.1826,0.0,57.0,57.0,57.0,1.0,2446760844-124088.jpg,2883254439-140941.jpg,A2M183CETUMR96
418,1.0,left,left,1.0,2.1315,0.0,58.0,58.0,58.0,1.0,2901947423-70311.jpg,2860312398-62572.jpg,A2M183CETUMR96
419,2.0,left,left,1.0,3.9806,0.0,59.0,59.0,59.0,1.0,2868474407-362883.jpg,2981246400-220363.jpg,A2M183CETUMR96
420,2.0,right,right,1.0,61.082,0.0,0.0,0.0,0.0,1.0,2238479053-19457.jpg,2592379964-131054.jpg,A3JJXDML3XNSQP
421,1.0,right,right,1.0,0.409,0.0,1.0,1.0,1.0,1.0,2964218432-369263.jpg,2898624426-291546.jpg,A3JJXDML3XNSQP
422,2.0,left,right,0.0,0.273,0.0,2.0,2.0,2.0,1.0,2238481198-19822.jpg,2901946436-293242.jpg,A3JJXDML3XNSQP
423,3.0,right,left,0.0,2.012,0.0,3.0,3.0,3.0,1.0,2981240424-145794.jpg,2901939379-143479.jpg,A3JJXDML3XNSQP
424,2.0,left,left,1.0,2.213,0.0,4.0,4.0,4.0,1.0,2449441881-272368.jpg,2984615358-72439.jpg,A3JJXDML3XNSQP
425,3.0,left,right,0.0,5.167,0.0,5.0,5.0,5.0,1.0,2874299429-139695.jpg,2446760917-347439.jpg,A3JJXDML3XNSQP
426,2.0,left,left,1.0,5.187,0.0,6.0,6.0,6.0,1.0,2898633421-291973.jpg,2575118671-277663.jpg,A3JJXDML3XNSQP
427,2.0,right,left,0.0,2.803,0.0,7.0,7.0,7.0,1.0,2864900319-137787.jpg,2964216465-219242.jpg,A3JJXDML3XNSQP
428,2.0,left,right,0.0,2.11,0.0,8.0,8.0,8.0,1.0,2575120738-55529.jpg,2575120738-55528.jpg,A3JJXDML3XNSQP
429,1.0,right,left,0.0,3.338,0.0,9.0,9.0,9.0,1.0,2611628310-206388.jpg,2883256307-365057.jpg,A3JJXDML3XNSQP
430,1.0,left,right,0.0,3.03,0.0,10.0,10.0,10.0,1.0,2446759347-347016.jpg,2964224310-219528.jpg,A3JJXDML3XNSQP
431,3.0,left,left,1.0,2.944,0.0,11.0,11.0,11.0,1.0,2449442529-124446.jpg,2898632385-217139.jpg,A3JJXDML3XNSQP
432,3.0,right,left,0.0,3.353,0.0,12.0,12.0,12.0,1.0,2452380166-273109.jpg,2446759803-49249.jpg,A3JJXDML3XNSQP
433,1.0,left,right,0.0,2.084,0.0,13.0,13.0,13.0,1.0,2898635427-367120.jpg,2901946439-144040.jpg,A3JJXDML3XNSQP
434,1.0,left,left,1.0,2.788,0.0,14.0,14.0,14.0,1.0,2592380177-354626.jpg,2986408339-146952.jpg,A3JJXDML3XNSQP
435,3.0,right,right,1.0,3.275,0.0,15.0,15.0,15.0,1.0,2575120609-129862.jpg,2898618390-216538.jpg,A3JJXDML3XNSQP
436,3.0,left,right,0.0,3.651,0.0,16.0,16.0,16.0,1.0,2964218374-144967.jpg,2981231446-294732.jpg,A3JJXDML3XNSQP
437,3.0,left,left,1.0,6.182,0.0,17.0,17.0,17.0,1.0,2981241414-145842.jpg,2427873848-47312.jpg,A3JJXDML3XNSQP
438,3.0,left,left,1.0,5.418,0.0,18.0,18.0,18.0,1.0,2238560245-182099.jpg,2238480980-168129.jpg,A3JJXDML3XNSQP
439,2.0,left,right,0.0,3.787,0.0,19.0,19.0,19.0,1.0,2874307433-66280.jpg,2981246400-220365.jpg,A3JJXDML3XNSQP
440,3.0,left,left,1.0,5.231,0.0,20.0,20.0,20.0,1.0,2864910426-287204.jpg,2901939433-69672.jpg,A3JJXDML3XNSQP
441,3.0,left,right,0.0,2.9,0.0,21.0,21.0,21.0,1.0,2868475410-213219.jpg,2868474407-362885.jpg,A3JJXDML3XNSQP
442,3.0,right,right,1.0,2.805,0.0,22.0,22.0,22.0,1.0,2898633321-291943.jpg,2874302418-65978.jpg,A3JJXDML3XNSQP
443,2.0,left,right,0.0,3.289,0.0,23.0,23.0,23.0,1.0,2883268412-365898.jpg,2984615361-295510.jpg,A3JJXDML3XNSQP
444,1.0,left,left,1.0,2.971,0.0,24.0,24.0,24.0,1.0,2874303365-214262.jpg,2609793677-355397.jpg,A3JJXDML3XNSQP
445,1.0,right,left,0.0,3.051,0.0,25.0,25.0,25.0,1.0,2883268471-290843.jpg,2883268471-290842.jpg,A3JJXDML3XNSQP
446,2.0,left,right,0.0,4.846,0.0,26.0,26.0,26.0,1.0,2901952513-70703.jpg,2868469411-287540.jpg,A3JJXDML3XNSQP
447,1.0,left,right,0.0,3.115,0.0,27.0,27.0,27.0,1.0,2898635428-69104.jpg,2446759803-49250.jpg,A3JJXDML3XNSQP
448,3.0,right,right,1.0,3.186,0.0,28.0,28.0,28.0,1.0,2989726338-74002.jpg,2864907432-362042.jpg,A3JJXDML3XNSQP
449,2.0,left,right,0.0,3.996,0.0,29.0,29.0,29.0,1.0,2964223381-294447.jpg,2901941438-69836.jpg,A3JJXDML3XNSQP
450,3.0,right,left,0.0,3.521,0.0,30.0,30.0,30.0,1.0,2898618444-142232.jpg,2898618444-142233.jpg,A3JJXDML3XNSQP
451,1.0,left,right,0.0,5.56,0.0,31.0,31.0,31.0,1.0,2238428357-313623.jpg,2238499057-320266.jpg,A3JJXDML3XNSQP
452,2.0,right,left,0.0,2.276,0.0,32.0,32.0,32.0,1.0,2860302315-210704.jpg,2986451363-73599.jpg,A3JJXDML3XNSQP
453,2.0,left,right,0.0,2.939,0.0,33.0,33.0,33.0,1.0,2238481928-19949.jpg,2864900357-361688.jpg,A3JJXDML3XNSQP
454,2.0,right,right,1.0,7.185,0.0,34.0,34.0,34.0,1.0,2864909447-362144.jpg,2446758985-197609.jpg,A3JJXDML3XNSQP
455,2.0,left,left,1.0,20.078,0.0,35.0,35.0,35.0,1.0,2512875899-126682.jpg,2592380177-354628.jpg,A3JJXDML3XNSQP
456,1.0,left,right,0.0,22.177,0.0,36.0,36.0,36.0,1.0,2238580740-186218.jpg,2238550816-254000.jpg,A3JJXDML3XNSQP
457,3.0,left,left,1.0,3.037,0.0,37.0,37.0,37.0,1.0,2874301407-363895.jpg,2901947323-70275.jpg,A3JJXDML3XNSQP
458,2.0,right,left,0.0,2.419,0.0,38.0,38.0,38.0,1.0,2238573546-258454.jpg,2238480677-317399.jpg,A3JJXDML3XNSQP
459,1.0,right,left,0.0,1.913,0.0,39.0,39.0,39.0,1.0,2901938432-367627.jpg,2452381505-199546.jpg,A3JJXDML3XNSQP
460,1.0,left,right,0.0,2.428,0.0,40.0,40.0,40.0,1.0,2901941401-292798.jpg,2898618327-366317.jpg,A3JJXDML3XNSQP
461,3.0,left,left,1.0,2.695,0.0,41.0,41.0,41.0,1.0,2898634397-367080.jpg,2964217461-294238.jpg,A3JJXDML3XNSQP
462,1.0,right,right,1.0,3.435,0.0,42.0,42.0,42.0,1.0,2238471391-240918.jpg,2238425482-313537.jpg,A3JJXDML3XNSQP
463,3.0,left,right,0.0,4.793,0.0,43.0,43.0,43.0,1.0,2901948350-218459.jpg,2981246360-220352.jpg,A3JJXDML3XNSQP
464,1.0,left,right,0.0,5.994,0.0,44.0,44.0,44.0,1.0,2460547467-349422.jpg,2898618440-216545.jpg,A3JJXDML3XNSQP
465,1.0,left,left,1.0,5.458,0.0,45.0,45.0,45.0,1.0,2238572663-35822.jpg,2986419333-73361.jpg,A3JJXDML3XNSQP
466,2.0,right,right,1.0,3.087,0.0,46.0,46.0,46.0,1.0,2901943387-368037.jpg,2898617468-68274.jpg,A3JJXDML3XNSQP
467,3.0,left,left,1.0,2.82,0.0,47.0,47.0,47.0,1.0,2981231403-71642.jpg,2427873763-47290.jpg,A3JJXDML3XNSQP
468,1.0,left,right,0.0,2.176,0.0,48.0,48.0,48.0,1.0,2458347385-199723.jpg,2238480434-93829.jpg,A3JJXDML3XNSQP
469,2.0,left,right,0.0,2.333,0.0,49.0,49.0,49.0,1.0,2874302418-65979.jpg,2238480648-19714.jpg,A3JJXDML3XNSQP
470,1.0,right,left,0.0,2.123,0.0,50.0,50.0,50.0,1.0,2238328478-11678.jpg,2452380832-348593.jpg,A3JJXDML3XNSQP
471,3.0,right,right,1.0,2.367,0.0,51.0,51.0,51.0,1.0,2898632385-217137.jpg,2449442529-124445.jpg,A3JJXDML3XNSQP
472,2.0,left,left,1.0,3.269,0.0,52.0,52.0,52.0,1.0,2901939379-143480.jpg,2981229442-369621.jpg,A3JJXDML3XNSQP
473,3.0,right,left,0.0,3.977,0.0,53.0,53.0,53.0,1.0,2981235446-294901.jpg,2460547467-349421.jpg,A3JJXDML3XNSQP
474,1.0,left,right,0.0,4.517,0.0,54.0,54.0,54.0,1.0,2592380177-354629.jpg,2898633421-291974.jpg,A3JJXDML3XNSQP
475,2.0,left,left,1.0,4.17,0.0,55.0,55.0,55.0,1.0,2460547508-51571.jpg,2981232437-369759.jpg,A3JJXDML3XNSQP
476,3.0,right,right,1.0,3.948,0.0,56.0,56.0,56.0,1.0,2964213381-294061.jpg,2964213381-294060.jpg,A3JJXDML3XNSQP
477,1.0,right,left,0.0,1.965,0.0,57.0,57.0,57.0,1.0,2446760844-124088.jpg,2883254439-140941.jpg,A3JJXDML3XNSQP
478,1.0,left,left,1.0,4.717,0.0,58.0,58.0,58.0,1.0,2901947423-70311.jpg,2860312398-62572.jpg,A3JJXDML3XNSQP
479,2.0,left,left,1.0,3.665,0.0,59.0,59.0,59.0,1.0,2868474407-362883.jpg,2981246400-220363.jpg,A3JJXDML3XNSQP
480,3.0,left,left,1.0,8.8989,0.0,0.0,0.0,0.0,1.0,2512875899-126682.jpg,2986447332-371497.jpg,A3RDT5DH21PVAR
481,2.0,right,left,0.0,5.0616,0.0,1.0,1.0,1.0,1.0,2981243412-370222.jpg,2901941401-292798.jpg,A3RDT5DH21PVAR
482,3.0,left,right,0.0,3.4813,0.0,2.0,2.0,2.0,1.0,2868474407-362883.jpg,2901948383-70363.jpg,A3RDT5DH21PVAR
483,2.0,left,right,0.0,0.0994,0.0,3.0,3.0,3.0,1.0,2898633421-291973.jpg,2575118671-277663.jpg,A3RDT5DH21PVAR
484,1.0,right,right,1.0,2.1658,0.0,4.0,4.0,4.0,1.0,2274829821-263682.jpg,2981231403-71642.jpg,A3RDT5DH21PVAR
485,1.0,right,left,0.0,1.7924,0.0,5.0,5.0,5.0,1.0,2901946439-144040.jpg,2898635427-367120.jpg,A3RDT5DH21PVAR
486,2.0,right,left,0.0,2.5094,0.0,6.0,6.0,6.0,1.0,2984615358-72439.jpg,2449441881-272368.jpg,A3RDT5DH21PVAR
487,3.0,left,right,0.0,1.5888,0.0,7.0,7.0,7.0,1.0,2883268471-290842.jpg,2901947448-70314.jpg,A3RDT5DH21PVAR
488,3.0,left,right,0.0,2.2424,0.0,8.0,8.0,8.0,1.0,2592379964-131054.jpg,2592380272-354673.jpg,A3RDT5DH21PVAR
489,3.0,left,right,0.0,1.1156,0.0,9.0,9.0,9.0,1.0,2874302418-65978.jpg,2898633321-291943.jpg,A3RDT5DH21PVAR
490,1.0,left,right,0.0,1.3124,0.0,10.0,10.0,10.0,1.0,2446759803-49249.jpg,2446760601-272099.jpg,A3RDT5DH21PVAR
491,1.0,right,right,1.0,5.7024,0.0,11.0,11.0,11.0,1.0,2238481630-168218.jpg,2238480677-317399.jpg,A3RDT5DH21PVAR
492,3.0,right,left,0.0,0.7483,0.0,12.0,12.0,12.0,1.0,2981241419-145844.jpg,2238481928-19949.jpg,A3RDT5DH21PVAR
493,2.0,left,right,0.0,0.7753,0.0,13.0,13.0,13.0,1.0,2575120738-55529.jpg,2575120738-55528.jpg,A3RDT5DH21PVAR
494,1.0,left,left,1.0,0.8429,0.0,14.0,14.0,14.0,1.0,2446759347-347016.jpg,2964224310-219528.jpg,A3RDT5DH21PVAR
495,1.0,left,right,0.0,0.9673,0.0,15.0,15.0,15.0,1.0,2458347385-199723.jpg,2238480434-93829.jpg,A3RDT5DH21PVAR
496,1.0,right,right,1.0,0.726,0.0,16.0,16.0,16.0,1.0,2981244394-145974.jpg,2964213381-294060.jpg,A3RDT5DH21PVAR
497,1.0,right,right,1.0,1.4299,0.0,17.0,17.0,17.0,1.0,2452380171-273112.jpg,2449442529-124445.jpg,A3RDT5DH21PVAR
498,2.0,right,left,0.0,1.3028,0.0,18.0,18.0,18.0,1.0,2901947423-70310.jpg,2864907432-362042.jpg,A3RDT5DH21PVAR
499,3.0,right,right,1.0,1.6785,0.0,19.0,19.0,19.0,1.0,2238577590-185467.jpg,2901947423-70311.jpg,A3RDT5DH21PVAR
500,3.0,left,left,1.0,1.5283,0.0,20.0,20.0,20.0,1.0,2460547467-349422.jpg,2864909447-362146.jpg,A3RDT5DH21PVAR
501,1.0,right,left,0.0,2.2423,0.0,21.0,21.0,21.0,1.0,2986408339-146952.jpg,2592380177-354626.jpg,A3RDT5DH21PVAR
502,1.0,right,right,1.0,1.7886,0.0,22.0,22.0,22.0,1.0,2864906345-212360.jpg,2898617468-68274.jpg,A3RDT5DH21PVAR
503,2.0,left,left,1.0,2.0587,0.0,23.0,23.0,23.0,1.0,2874299429-139695.jpg,2901942443-69923.jpg,A3RDT5DH21PVAR
504,3.0,right,right,1.0,1.5114,0.0,24.0,24.0,24.0,1.0,2864904453-63933.jpg,2883256307-365057.jpg,A3RDT5DH21PVAR
505,2.0,left,left,1.0,2.2822,0.0,25.0,25.0,25.0,1.0,2238580740-186218.jpg,2238521193-26285.jpg,A3RDT5DH21PVAR
506,2.0,right,right,1.0,0.85,0.0,26.0,26.0,26.0,1.0,2238480648-19714.jpg,2874302418-65979.jpg,A3RDT5DH21PVAR
507,1.0,left,right,0.0,0.8426,0.0,27.0,27.0,27.0,1.0,2901939379-143479.jpg,2460547467-349423.jpg,A3RDT5DH21PVAR
508,1.0,right,right,1.0,1.525,0.0,28.0,28.0,28.0,1.0,2883264368-67631.jpg,2874301407-363895.jpg,A3RDT5DH21PVAR
509,3.0,right,left,0.0,1.2177,0.0,29.0,29.0,29.0,1.0,2964217461-294238.jpg,2898634397-367080.jpg,A3RDT5DH21PVAR
510,3.0,right,left,0.0,1.0433,0.0,30.0,30.0,30.0,1.0,2449442181-272436.jpg,2452380832-348593.jpg,A3RDT5DH21PVAR
511,2.0,left,right,0.0,0.9396,0.0,31.0,31.0,31.0,1.0,2964216465-219242.jpg,2864900319-137787.jpg,A3RDT5DH21PVAR
512,3.0,right,right,1.0,1.1326,0.0,32.0,32.0,32.0,1.0,2901938432-367629.jpg,2901939379-143480.jpg,A3RDT5DH21PVAR
513,2.0,right,right,1.0,1.5048,0.0,33.0,33.0,33.0,1.0,2874299429-139694.jpg,2864910426-287204.jpg,A3RDT5DH21PVAR
514,3.0,left,left,1.0,0.9355,0.0,34.0,34.0,34.0,1.0,2898635428-69104.jpg,2898625336-291572.jpg,A3RDT5DH21PVAR
515,3.0,left,right,0.0,0.8401,0.0,35.0,35.0,35.0,1.0,2964223381-294447.jpg,2898628438-68785.jpg,A3RDT5DH21PVAR
516,3.0,left,left,1.0,1.1179,0.0,36.0,36.0,36.0,1.0,2868475410-213219.jpg,2868474407-362885.jpg,A3RDT5DH21PVAR
517,1.0,right,right,1.0,1.0142,0.0,37.0,37.0,37.0,1.0,2549106624-127823.jpg,2238560245-182099.jpg,A3RDT5DH21PVAR
518,1.0,left,left,1.0,0.858,0.0,38.0,38.0,38.0,1.0,2452381505-199546.jpg,2901938432-367627.jpg,A3RDT5DH21PVAR
519,1.0,left,right,0.0,0.9467,0.0,39.0,39.0,39.0,1.0,2238428357-313623.jpg,2238499057-320266.jpg,A3RDT5DH21PVAR
520,3.0,right,left,0.0,1.4079,0.0,40.0,40.0,40.0,1.0,2238436252-314037.jpg,2883268412-365898.jpg,A3RDT5DH21PVAR
521,3.0,left,right,0.0,0.6814,0.0,41.0,41.0,41.0,1.0,2901952513-70703.jpg,2238481198-19821.jpg,A3RDT5DH21PVAR
522,2.0,right,left,0.0,0.755,0.0,42.0,42.0,42.0,1.0,2238436322-314047.jpg,2238425482-313537.jpg,A3RDT5DH21PVAR
523,2.0,left,right,0.0,0.4719,0.0,43.0,43.0,43.0,1.0,2874303365-214262.jpg,2238563377-332054.jpg,A3RDT5DH21PVAR
524,2.0,left,left,1.0,0.4788,0.0,44.0,44.0,44.0,1.0,2446758985-197609.jpg,2864909447-362144.jpg,A3RDT5DH21PVAR
525,1.0,right,right,1.0,0.2836,0.0,45.0,45.0,45.0,1.0,2986419333-73361.jpg,2238572663-35822.jpg,A3RDT5DH21PVAR
526,2.0,left,right,0.0,0.8479,0.0,46.0,46.0,46.0,1.0,2460547467-349421.jpg,2452380166-273110.jpg,A3RDT5DH21PVAR
527,1.0,right,left,0.0,0.3833,0.0,47.0,47.0,47.0,1.0,2901939327-367669.jpg,2986451363-73599.jpg,A3RDT5DH21PVAR
528,1.0,left,right,0.0,0.382,0.0,48.0,48.0,48.0,1.0,2874307433-66280.jpg,2986447306-296584.jpg,A3RDT5DH21PVAR
529,1.0,right,left,0.0,0.2901,0.0,49.0,49.0,49.0,1.0,2446759803-49251.jpg,2449442529-124446.jpg,A3RDT5DH21PVAR
530,3.0,left,right,0.0,0.3008,0.0,50.0,50.0,50.0,1.0,2964218374-144967.jpg,2981231446-294732.jpg,A3RDT5DH21PVAR
531,2.0,left,right,0.0,0.6597,0.0,51.0,51.0,51.0,1.0,2901948350-218459.jpg,2417208001-267065.jpg,A3RDT5DH21PVAR
532,1.0,right,left,0.0,0.7594,0.0,52.0,52.0,52.0,1.0,2862691449-137104.jpg,2238481198-19822.jpg,A3RDT5DH21PVAR
533,3.0,right,left,0.0,0.7563,0.0,53.0,53.0,53.0,1.0,2427873848-47312.jpg,2981241414-145842.jpg,A3RDT5DH21PVAR
534,2.0,right,right,1.0,0.7668,0.0,54.0,54.0,54.0,1.0,2898632385-217136.jpg,2883254439-140941.jpg,A3RDT5DH21PVAR
535,3.0,right,right,1.0,0.774,0.0,55.0,55.0,55.0,1.0,2512875587-350044.jpg,2592380177-354629.jpg,A3RDT5DH21PVAR
536,2.0,left,left,1.0,0.7582,0.0,56.0,56.0,56.0,1.0,2898618390-216538.jpg,2901939327-367670.jpg,A3RDT5DH21PVAR
537,2.0,left,right,0.0,0.678,0.0,57.0,57.0,57.0,1.0,2898618444-142233.jpg,2238555262-330312.jpg,A3RDT5DH21PVAR
538,2.0,left,right,0.0,1.3193,0.0,58.0,58.0,58.0,1.0,2460547508-51571.jpg,2981232437-369759.jpg,A3RDT5DH21PVAR
539,2.0,right,left,0.0,0.5622,0.0,59.0,59.0,59.0,1.0,2981236443-71859.jpg,2898624426-291546.jpg,A3RDT5DH21PVAR
540,2.0,left,left,1.0,4.5107,0.0,0.0,0.0,0.0,1.0,2874299429-139695.jpg,2901942443-69923.jpg,A3VHDQR8A9JJ4F
541,1.0,right,left,0.0,1.9624,0.0,1.0,1.0,1.0,1.0,2864907361-287062.jpg,2901952513-70703.jpg,A3VHDQR8A9JJ4F
542,1.0,left,left,1.0,1.0105,0.0,2.0,2.0,2.0,1.0,2981231403-71642.jpg,2274829821-263682.jpg,A3VHDQR8A9JJ4F
543,2.0,left,left,1.0,0.9127,0.0,3.0,3.0,3.0,1.0,2238480677-317399.jpg,2238573546-258454.jpg,A3VHDQR8A9JJ4F
544,1.0,right,right,1.0,1.1933,0.0,4.0,4.0,4.0,1.0,2238471391-240918.jpg,2238425482-313537.jpg,A3VHDQR8A9JJ4F
545,2.0,left,left,1.0,1.5234,0.0,5.0,5.0,5.0,1.0,2898618444-142233.jpg,2238555262-330312.jpg,A3VHDQR8A9JJ4F
546,1.0,right,left,0.0,1.5162,0.0,6.0,6.0,6.0,1.0,2901939327-367669.jpg,2986451363-73599.jpg,A3VHDQR8A9JJ4F
547,3.0,left,left,1.0,1.2743,0.0,7.0,7.0,7.0,1.0,2449442529-124446.jpg,2898632385-217139.jpg,A3VHDQR8A9JJ4F
548,2.0,right,left,0.0,1.4797,0.0,8.0,8.0,8.0,1.0,2964210336-293945.jpg,2883256307-365057.jpg,A3VHDQR8A9JJ4F
549,1.0,right,right,1.0,1.7248,0.0,9.0,9.0,9.0,1.0,2238328478-11678.jpg,2452380832-348593.jpg,A3VHDQR8A9JJ4F
550,1.0,right,right,1.0,1.6967,0.0,10.0,10.0,10.0,1.0,2986419333-73361.jpg,2238572663-35822.jpg,A3VHDQR8A9JJ4F
551,2.0,right,right,1.0,1.0936,0.0,11.0,11.0,11.0,1.0,2579432534-130704.jpg,2592380177-354629.jpg,A3VHDQR8A9JJ4F
552,1.0,left,right,0.0,1.6682,0.0,12.0,12.0,12.0,1.0,2238481198-19822.jpg,2862691449-137104.jpg,A3VHDQR8A9JJ4F
553,2.0,right,right,1.0,0.729,0.0,13.0,13.0,13.0,1.0,2458348012-349114.jpg,2964213381-294060.jpg,A3VHDQR8A9JJ4F
554,2.0,left,left,1.0,1.0689,0.0,14.0,14.0,14.0,1.0,2449442529-124445.jpg,2986408373-73286.jpg,A3VHDQR8A9JJ4F
555,1.0,right,left,0.0,1.0508,0.0,15.0,15.0,15.0,1.0,2427874231-269884.jpg,2964223381-294447.jpg,A3VHDQR8A9JJ4F
556,3.0,right,left,0.0,1.2685,0.0,16.0,16.0,16.0,1.0,2238480980-168129.jpg,2238560245-182099.jpg,A3VHDQR8A9JJ4F
557,2.0,right,right,1.0,1.2497,0.0,17.0,17.0,17.0,1.0,2238480803-19739.jpg,2868475410-213219.jpg,A3VHDQR8A9JJ4F
558,3.0,right,left,0.0,0.8516,0.0,18.0,18.0,18.0,1.0,2883273443-68193.jpg,2901941401-292798.jpg,A3VHDQR8A9JJ4F
559,3.0,right,left,0.0,1.0943,0.0,19.0,19.0,19.0,1.0,2238577590-185467.jpg,2901947423-70311.jpg,A3VHDQR8A9JJ4F
560,2.0,right,left,0.0,0.7838,0.0,20.0,20.0,20.0,1.0,2452380166-273110.jpg,2460547467-349421.jpg,A3VHDQR8A9JJ4F
561,2.0,right,left,0.0,1.384,0.0,21.0,21.0,21.0,1.0,2901951350-218702.jpg,2446759347-347016.jpg,A3VHDQR8A9JJ4F
562,2.0,right,right,1.0,0.8762,0.0,22.0,22.0,22.0,1.0,2986397322-371109.jpg,2874301407-363895.jpg,A3VHDQR8A9JJ4F
563,3.0,right,left,0.0,1.0567,0.0,23.0,23.0,23.0,1.0,2964217461-294238.jpg,2898634397-367080.jpg,A3VHDQR8A9JJ4F
564,2.0,right,right,1.0,1.0643,0.0,24.0,24.0,24.0,1.0,2981229442-369621.jpg,2901939379-143480.jpg,A3VHDQR8A9JJ4F
565,1.0,left,left,1.0,1.2107,0.0,25.0,25.0,25.0,1.0,2901948350-218459.jpg,2804906319-133082.jpg,A3VHDQR8A9JJ4F
566,3.0,left,left,1.0,1.5529,0.0,26.0,26.0,26.0,1.0,2449441881-272368.jpg,2449441881-272367.jpg,A3VHDQR8A9JJ4F
567,1.0,left,left,1.0,1.113,0.0,27.0,27.0,27.0,1.0,2964218374-144967.jpg,2964218374-144968.jpg,A3VHDQR8A9JJ4F
568,1.0,right,right,1.0,1.0093,0.0,28.0,28.0,28.0,1.0,2238480434-93829.jpg,2458347385-199723.jpg,A3VHDQR8A9JJ4F
569,3.0,left,right,0.0,1.5455,0.0,29.0,29.0,29.0,1.0,2864907432-362042.jpg,2989726338-74002.jpg,A3VHDQR8A9JJ4F
570,2.0,right,left,0.0,1.2378,0.0,30.0,30.0,30.0,1.0,2981246400-220365.jpg,2874307433-66280.jpg,A3VHDQR8A9JJ4F
571,3.0,left,left,1.0,0.7452,0.0,31.0,31.0,31.0,1.0,2238428357-313623.jpg,2575121987-353817.jpg,A3VHDQR8A9JJ4F
572,2.0,left,left,1.0,1.3668,0.0,32.0,32.0,32.0,1.0,2460547508-51571.jpg,2981232437-369759.jpg,A3VHDQR8A9JJ4F
573,2.0,left,right,0.0,0.6113,0.0,33.0,33.0,33.0,1.0,2883254439-140941.jpg,2898632385-217136.jpg,A3VHDQR8A9JJ4F
574,2.0,right,right,1.0,1.2324,0.0,34.0,34.0,34.0,1.0,2981246400-220363.jpg,2868474407-362883.jpg,A3VHDQR8A9JJ4F
575,2.0,left,left,1.0,0.9149,0.0,35.0,35.0,35.0,1.0,2964216465-219242.jpg,2864900319-137787.jpg,A3VHDQR8A9JJ4F
576,1.0,right,left,0.0,1.5065,0.0,36.0,36.0,36.0,1.0,2575963989-130576.jpg,2592379964-131054.jpg,A3VHDQR8A9JJ4F
577,3.0,left,left,1.0,1.5582,0.0,37.0,37.0,37.0,1.0,2592380177-354626.jpg,2238117096-228518.jpg,A3VHDQR8A9JJ4F
578,3.0,right,left,0.0,1.0773,0.0,38.0,38.0,38.0,1.0,2901947448-70314.jpg,2883268471-290842.jpg,A3VHDQR8A9JJ4F
579,3.0,right,right,1.0,0.8205,0.0,39.0,39.0,39.0,1.0,2981240424-145794.jpg,2901939379-143479.jpg,A3VHDQR8A9JJ4F
580,1.0,left,left,1.0,0.7696,0.0,40.0,40.0,40.0,1.0,2898624426-291546.jpg,2964218432-369263.jpg,A3VHDQR8A9JJ4F
581,2.0,right,left,0.0,1.3551,0.0,41.0,41.0,41.0,1.0,2874299429-139694.jpg,2864910426-287204.jpg,A3VHDQR8A9JJ4F
582,3.0,left,left,1.0,0.738,0.0,42.0,42.0,42.0,1.0,2452381505-199546.jpg,2994401319-148290.jpg,A3VHDQR8A9JJ4F
583,3.0,right,left,0.0,1.2221,0.0,43.0,43.0,43.0,1.0,2575120609-129862.jpg,2898618390-216538.jpg,A3VHDQR8A9JJ4F
584,1.0,left,left,1.0,1.3829,0.0,44.0,44.0,44.0,1.0,2238580740-186218.jpg,2238550816-254000.jpg,A3VHDQR8A9JJ4F
585,1.0,left,left,1.0,1.2654,0.0,45.0,45.0,45.0,1.0,2883268412-365898.jpg,2984626312-370849.jpg,A3VHDQR8A9JJ4F
586,1.0,right,left,0.0,0.8456,0.0,46.0,46.0,46.0,1.0,2981240424-145795.jpg,2446758985-197609.jpg,A3VHDQR8A9JJ4F
587,2.0,left,left,1.0,2.1628,0.0,47.0,47.0,47.0,1.0,2874302418-65978.jpg,2238481198-19823.jpg,A3VHDQR8A9JJ4F
588,3.0,left,right,0.0,1.0843,0.0,48.0,48.0,48.0,1.0,2898635428-69104.jpg,2898625336-291572.jpg,A3VHDQR8A9JJ4F
589,3.0,right,left,0.0,1.3711,0.0,49.0,49.0,49.0,1.0,2238550049-105691.jpg,2898633421-291973.jpg,A3VHDQR8A9JJ4F
590,1.0,left,right,0.0,0.8809,0.0,50.0,50.0,50.0,1.0,2446759803-49249.jpg,2446760601-272099.jpg,A3VHDQR8A9JJ4F
591,3.0,right,right,1.0,1.9536,0.0,51.0,51.0,51.0,1.0,2427873848-47312.jpg,2981241414-145842.jpg,A3VHDQR8A9JJ4F
592,1.0,right,left,0.0,1.2507,0.0,52.0,52.0,52.0,1.0,2460547536-274179.jpg,2512875899-126682.jpg,A3VHDQR8A9JJ4F
593,3.0,right,left,0.0,0.9165,0.0,53.0,53.0,53.0,1.0,2898621427-366486.jpg,2898635427-367120.jpg,A3VHDQR8A9JJ4F
594,3.0,right,left,0.0,1.1756,0.0,54.0,54.0,54.0,1.0,2864911457-362260.jpg,2874303365-214262.jpg,A3VHDQR8A9JJ4F
595,1.0,left,left,1.0,0.8456,0.0,55.0,55.0,55.0,1.0,2874302418-65979.jpg,2413147898-43548.jpg,A3VHDQR8A9JJ4F
596,3.0,left,left,1.0,1.1252,0.0,56.0,56.0,56.0,1.0,2575120738-55529.jpg,2238531493-28260.jpg,A3VHDQR8A9JJ4F
597,3.0,right,right,1.0,0.8196,0.0,57.0,57.0,57.0,1.0,2864909447-362146.jpg,2460547467-349422.jpg,A3VHDQR8A9JJ4F
598,2.0,left,left,1.0,1.6244,0.0,58.0,58.0,58.0,1.0,2898617468-68274.jpg,2901943387-368037.jpg,A3VHDQR8A9JJ4F
599,1.0,right,right,1.0,1.3308,0.0,59.0,59.0,59.0,1.0,2883264367-365620.jpg,2238481928-19949.jpg,A3VHDQR8A9JJ4F
600,3.0,left,left,1.0,1.761,0.0,0.0,0.0,0.0,1.0,2874299429-139695.jpg,2446760917-347439.jpg,A98E8M4QLI9RS
601,2.0,left,right,0.0,0.921,0.0,1.0,1.0,1.0,1.0,2446758985-197609.jpg,2864909447-362144.jpg,A98E8M4QLI9RS
602,2.0,right,right,1.0,1.446,0.0,2.0,2.0,2.0,1.0,2901934408-69289.jpg,2898634397-367080.jpg,A98E8M4QLI9RS
603,2.0,right,left,0.0,1.511,0.0,3.0,3.0,3.0,1.0,2964210336-293945.jpg,2883256307-365057.jpg,A98E8M4QLI9RS
604,2.0,right,right,1.0,1.603,0.0,4.0,4.0,4.0,1.0,2575118671-277663.jpg,2898633421-291973.jpg,A98E8M4QLI9RS
605,3.0,right,left,0.0,1.071,0.0,5.0,5.0,5.0,1.0,2901941438-69835.jpg,2460547508-51571.jpg,A98E8M4QLI9RS
606,2.0,left,right,0.0,0.85,0.0,6.0,6.0,6.0,1.0,2883268471-290842.jpg,2883255450-215310.jpg,A98E8M4QLI9RS
607,1.0,left,left,1.0,1.515,0.0,7.0,7.0,7.0,1.0,2901948350-218459.jpg,2804906319-133082.jpg,A98E8M4QLI9RS
608,2.0,left,left,1.0,0.808,0.0,8.0,8.0,8.0,1.0,2460547467-349421.jpg,2452380166-273110.jpg,A98E8M4QLI9RS
609,1.0,right,left,0.0,1.603,0.0,9.0,9.0,9.0,1.0,2460547467-349423.jpg,2901939379-143479.jpg,A98E8M4QLI9RS
610,1.0,left,left,1.0,1.417,0.0,10.0,10.0,10.0,1.0,2898617468-68274.jpg,2864906345-212360.jpg,A98E8M4QLI9RS
611,2.0,left,left,1.0,2.365,0.0,11.0,11.0,11.0,1.0,2883268412-365898.jpg,2984615361-295510.jpg,A98E8M4QLI9RS
612,2.0,left,left,1.0,1.44,0.0,12.0,12.0,12.0,1.0,2898618444-142233.jpg,2238555262-330312.jpg,A98E8M4QLI9RS
613,1.0,left,left,1.0,1.576,0.0,13.0,13.0,13.0,1.0,2874303365-214262.jpg,2609793677-355397.jpg,A98E8M4QLI9RS
614,2.0,left,right,0.0,2.365,0.0,14.0,14.0,14.0,1.0,2874307433-66280.jpg,2981246400-220365.jpg,A98E8M4QLI9RS
615,1.0,left,left,1.0,1.744,0.0,15.0,15.0,15.0,1.0,2592379964-131054.jpg,2575963989-130576.jpg,A98E8M4QLI9RS
616,3.0,left,right,0.0,1.242,0.0,16.0,16.0,16.0,1.0,2238580740-186218.jpg,2964220333-71258.jpg,A98E8M4QLI9RS
617,1.0,left,right,0.0,1.599,0.0,17.0,17.0,17.0,1.0,2449442529-124446.jpg,2446759803-49251.jpg,A98E8M4QLI9RS
618,1.0,right,right,1.0,1.973,0.0,18.0,18.0,18.0,1.0,2860312398-62572.jpg,2901947423-70311.jpg,A98E8M4QLI9RS
619,3.0,left,left,1.0,1.454,0.0,19.0,19.0,19.0,1.0,2238428357-313623.jpg,2575121987-353817.jpg,A98E8M4QLI9RS
620,3.0,left,left,1.0,2.763,0.0,20.0,20.0,20.0,1.0,2898635428-69104.jpg,2898625336-291572.jpg,A98E8M4QLI9RS
621,2.0,right,left,0.0,1.072,0.0,21.0,21.0,21.0,1.0,2898618440-216547.jpg,2446759803-49249.jpg,A98E8M4QLI9RS
622,3.0,right,right,1.0,2.231,0.0,22.0,22.0,22.0,1.0,2427873763-47290.jpg,2981231403-71642.jpg,A98E8M4QLI9RS
623,3.0,left,right,0.0,1.248,0.0,23.0,23.0,23.0,1.0,2901941401-292798.jpg,2883273443-68193.jpg,A98E8M4QLI9RS
624,3.0,left,left,1.0,1.25,0.0,24.0,24.0,24.0,1.0,2964218374-144967.jpg,2981231446-294732.jpg,A98E8M4QLI9RS
625,1.0,left,right,0.0,1.525,0.0,25.0,25.0,25.0,1.0,2592380177-354629.jpg,2898633421-291974.jpg,A98E8M4QLI9RS
626,1.0,right,right,1.0,1.7,0.0,26.0,26.0,26.0,1.0,2856919327-359676.jpg,2981241414-145842.jpg,A98E8M4QLI9RS
627,1.0,left,right,0.0,3.881,0.0,27.0,27.0,27.0,1.0,2446759347-347016.jpg,2964224310-219528.jpg,A98E8M4QLI9RS
628,3.0,left,left,1.0,0.898,0.0,28.0,28.0,28.0,1.0,2901939379-143480.jpg,2901938432-367629.jpg,A98E8M4QLI9RS
629,2.0,right,right,1.0,3.027,0.0,29.0,29.0,29.0,1.0,2238573546-258454.jpg,2238480677-317399.jpg,A98E8M4QLI9RS
630,3.0,left,right,0.0,1.723,0.0,30.0,30.0,30.0,1.0,2238572663-35822.jpg,2864903351-286874.jpg,A98E8M4QLI9RS
631,1.0,left,right,0.0,1.257,0.0,31.0,31.0,31.0,1.0,2868475410-213219.jpg,2901946465-218350.jpg,A98E8M4QLI9RS
632,3.0,left,left,1.0,0.854,0.0,32.0,32.0,32.0,1.0,2986451363-73599.jpg,2238434559-90406.jpg,A98E8M4QLI9RS
633,1.0,left,left,1.0,1.063,0.0,33.0,33.0,33.0,1.0,2868474407-362883.jpg,2238516618-25604.jpg,A98E8M4QLI9RS
634,2.0,left,right,0.0,1.229,0.0,34.0,34.0,34.0,1.0,2864907432-362042.jpg,2901947423-70310.jpg,A98E8M4QLI9RS
635,2.0,left,left,1.0,1.208,0.0,35.0,35.0,35.0,1.0,2238425482-313537.jpg,2238436322-314047.jpg,A98E8M4QLI9RS
636,2.0,left,left,1.0,4.357,0.0,36.0,36.0,36.0,1.0,2898618390-216538.jpg,2901939327-367670.jpg,A98E8M4QLI9RS
637,3.0,left,left,1.0,1.397,0.0,37.0,37.0,37.0,1.0,2575120738-55529.jpg,2238531493-28260.jpg,A98E8M4QLI9RS
638,3.0,left,left,1.0,1.546,0.0,38.0,38.0,38.0,1.0,2901952513-70703.jpg,2238481198-19821.jpg,A98E8M4QLI9RS
639,3.0,left,left,1.0,1.439,0.0,39.0,39.0,39.0,1.0,2874302418-65979.jpg,2238578544-111698.jpg,A98E8M4QLI9RS
640,2.0,right,right,1.0,1.225,0.0,40.0,40.0,40.0,1.0,2874299429-139694.jpg,2864910426-287204.jpg,A98E8M4QLI9RS
641,1.0,right,right,1.0,1.563,0.0,41.0,41.0,41.0,1.0,2238544191-252422.jpg,2964216465-219242.jpg,A98E8M4QLI9RS
642,1.0,left,left,1.0,2.486,0.0,42.0,42.0,42.0,1.0,2512875899-126682.jpg,2460547536-274179.jpg,A98E8M4QLI9RS
643,3.0,right,right,1.0,1.294,0.0,43.0,43.0,43.0,1.0,2449442181-272436.jpg,2452380832-348593.jpg,A98E8M4QLI9RS
644,1.0,right,right,1.0,1.648,0.0,44.0,44.0,44.0,1.0,2549106624-127823.jpg,2238560245-182099.jpg,A98E8M4QLI9RS
645,3.0,left,right,0.0,1.198,0.0,45.0,45.0,45.0,1.0,2883254439-140941.jpg,2981231446-294730.jpg,A98E8M4QLI9RS
646,3.0,left,right,0.0,1.693,0.0,46.0,46.0,46.0,1.0,2458347385-199723.jpg,2458347252-348911.jpg,A98E8M4QLI9RS
647,2.0,right,right,1.0,1.399,0.0,47.0,47.0,47.0,1.0,2986397322-371109.jpg,2874301407-363895.jpg,A98E8M4QLI9RS
648,3.0,left,left,1.0,1.279,0.0,48.0,48.0,48.0,1.0,2460547467-349422.jpg,2864909447-362146.jpg,A98E8M4QLI9RS
649,3.0,right,left,0.0,1.119,0.0,49.0,49.0,49.0,1.0,2898632385-217137.jpg,2449442529-124445.jpg,A98E8M4QLI9RS
650,1.0,left,left,1.0,1.313,0.0,50.0,50.0,50.0,1.0,2898624426-291546.jpg,2964218432-369263.jpg,A98E8M4QLI9RS
651,1.0,left,right,0.0,1.432,0.0,51.0,51.0,51.0,1.0,2964213381-294060.jpg,2981244394-145974.jpg,A98E8M4QLI9RS
652,3.0,right,right,1.0,2.255,0.0,52.0,52.0,52.0,1.0,2898633321-291943.jpg,2874302418-65978.jpg,A98E8M4QLI9RS
653,1.0,right,left,0.0,1.13,0.0,53.0,53.0,53.0,1.0,2901946439-144040.jpg,2898635427-367120.jpg,A98E8M4QLI9RS
654,2.0,left,right,0.0,1.18,0.0,54.0,54.0,54.0,1.0,2592380177-354626.jpg,2864901386-286797.jpg,A98E8M4QLI9RS
655,1.0,right,right,1.0,1.916,0.0,55.0,55.0,55.0,1.0,2901938432-367627.jpg,2452381505-199546.jpg,A98E8M4QLI9RS
656,2.0,left,left,1.0,1.119,0.0,56.0,56.0,56.0,1.0,2238481928-19949.jpg,2864900357-361688.jpg,A98E8M4QLI9RS
657,1.0,right,left,0.0,1.782,0.0,57.0,57.0,57.0,1.0,2883268412-365899.jpg,2449441881-272368.jpg,A98E8M4QLI9RS
658,2.0,right,left,0.0,2.928,0.0,58.0,58.0,58.0,1.0,2901946436-293242.jpg,2238481198-19822.jpg,A98E8M4QLI9RS
659,2.0,right,left,0.0,1.449,0.0,59.0,59.0,59.0,1.0,2901941438-69836.jpg,2964223381-294447.jpg,A98E8M4QLI9RS
660,2.0,left,left,1.0,5.4715,0.0,0.0,0.0,0.0,1.0,2898618390-216538.jpg,2901939327-367670.jpg,AE33JO53WTHZQ
661,2.0,right,right,1.0,1.9697,0.0,1.0,1.0,1.0,1.0,2901943387-368037.jpg,2898617468-68274.jpg,AE33JO53WTHZQ
662,1.0,left,left,1.0,1.7451,0.0,2.0,2.0,2.0,1.0,2874302418-65979.jpg,2413147898-43548.jpg,AE33JO53WTHZQ
663,2.0,left,right,0.0,2.661,0.0,3.0,3.0,3.0,1.0,2458347385-199723.jpg,2427874554-121863.jpg,AE33JO53WTHZQ
664,3.0,left,left,1.0,1.9784,0.0,4.0,4.0,4.0,1.0,2238425482-313537.jpg,2898633480-217190.jpg,AE33JO53WTHZQ
665,2.0,right,left,0.0,2.2873,0.0,5.0,5.0,5.0,1.0,2874314526-289684.jpg,2238560245-182099.jpg,AE33JO53WTHZQ
666,3.0,right,right,1.0,2.9577,0.0,6.0,6.0,6.0,1.0,2864904453-63933.jpg,2883256307-365057.jpg,AE33JO53WTHZQ
667,1.0,right,right,1.0,2.9939,0.0,7.0,7.0,7.0,1.0,2237944827-301472.jpg,2898634397-367080.jpg,AE33JO53WTHZQ
668,1.0,left,left,1.0,2.0971,0.0,8.0,8.0,8.0,1.0,2446758985-197609.jpg,2981240424-145795.jpg,AE33JO53WTHZQ
669,2.0,left,left,1.0,3.1803,0.0,9.0,9.0,9.0,1.0,2964216465-219242.jpg,2864900319-137787.jpg,AE33JO53WTHZQ
670,3.0,left,left,1.0,2.1763,0.0,10.0,10.0,10.0,1.0,2460547508-51571.jpg,2901941438-69835.jpg,AE33JO53WTHZQ
671,2.0,right,left,0.0,2.8963,0.0,11.0,11.0,11.0,1.0,2898618440-216547.jpg,2446759803-49249.jpg,AE33JO53WTHZQ
672,1.0,left,left,1.0,3.2666,0.0,12.0,12.0,12.0,1.0,2460547467-349421.jpg,2898631394-142727.jpg,AE33JO53WTHZQ
673,1.0,left,right,0.0,2.8362,0.0,13.0,13.0,13.0,1.0,2864907432-362042.jpg,2864901420-212147.jpg,AE33JO53WTHZQ
674,1.0,right,right,1.0,2.6958,0.0,14.0,14.0,14.0,1.0,2860312398-62572.jpg,2901947423-70311.jpg,AE33JO53WTHZQ
675,3.0,right,left,0.0,1.7213,0.0,15.0,15.0,15.0,1.0,2868474407-362885.jpg,2868475410-213219.jpg,AE33JO53WTHZQ
676,1.0,right,right,1.0,2.0954,0.0,16.0,16.0,16.0,1.0,2986447306-296584.jpg,2874307433-66280.jpg,AE33JO53WTHZQ
677,3.0,left,left,1.0,1.7378,0.0,17.0,17.0,17.0,1.0,2449442529-124445.jpg,2898632385-217137.jpg,AE33JO53WTHZQ
678,3.0,left,right,0.0,1.8193,0.0,18.0,18.0,18.0,1.0,2898635428-69104.jpg,2898625336-291572.jpg,AE33JO53WTHZQ
679,1.0,right,right,1.0,2.4936,0.0,19.0,19.0,19.0,1.0,2238516618-25604.jpg,2868474407-362883.jpg,AE33JO53WTHZQ
680,3.0,right,left,0.0,3.038,0.0,20.0,20.0,20.0,1.0,2901939433-69672.jpg,2864910426-287204.jpg,AE33JO53WTHZQ
681,3.0,left,left,1.0,2.9352,0.0,21.0,21.0,21.0,1.0,2874301407-363895.jpg,2901947323-70275.jpg,AE33JO53WTHZQ
682,2.0,left,left,1.0,2.9522,0.0,22.0,22.0,22.0,1.0,2460547467-349422.jpg,2868487415-213924.jpg,AE33JO53WTHZQ
683,2.0,left,left,1.0,1.4643,0.0,23.0,23.0,23.0,1.0,2898635427-367120.jpg,2868479517-363220.jpg,AE33JO53WTHZQ
684,1.0,left,right,0.0,2.4773,0.0,24.0,24.0,24.0,1.0,2898618444-142233.jpg,2898631359-142721.jpg,AE33JO53WTHZQ
685,2.0,left,left,1.0,3.0806,0.0,25.0,25.0,25.0,1.0,2452381505-199546.jpg,2238567168-34916.jpg,AE33JO53WTHZQ
686,3.0,left,right,0.0,3.0471,0.0,26.0,26.0,26.0,1.0,2238481198-19822.jpg,2238480803-19737.jpg,AE33JO53WTHZQ
687,2.0,left,left,1.0,3.9237,0.0,27.0,27.0,27.0,1.0,2986451363-73599.jpg,2860302315-210704.jpg,AE33JO53WTHZQ
688,1.0,left,left,1.0,2.2251,0.0,28.0,28.0,28.0,1.0,2883268412-365898.jpg,2984626312-370849.jpg,AE33JO53WTHZQ
689,3.0,right,right,1.0,2.7077,0.0,29.0,29.0,29.0,1.0,2449442181-272436.jpg,2452380832-348593.jpg,AE33JO53WTHZQ
690,3.0,right,right,1.0,3.3425,0.0,30.0,30.0,30.0,1.0,2901947448-70314.jpg,2883268471-290842.jpg,AE33JO53WTHZQ
691,1.0,right,right,1.0,2.2146,0.0,31.0,31.0,31.0,1.0,2460547536-274179.jpg,2512875899-126682.jpg,AE33JO53WTHZQ
692,2.0,left,left,1.0,1.6565,0.0,32.0,32.0,32.0,1.0,2964213381-294060.jpg,2458348012-349114.jpg,AE33JO53WTHZQ
693,3.0,left,left,1.0,2.6159,0.0,33.0,33.0,33.0,1.0,2592379964-131054.jpg,2592380272-354673.jpg,AE33JO53WTHZQ
694,2.0,right,right,1.0,2.3004,0.0,34.0,34.0,34.0,1.0,2984615361-295509.jpg,2238428357-313623.jpg,AE33JO53WTHZQ
695,1.0,left,right,0.0,2.5201,0.0,35.0,35.0,35.0,1.0,2238580740-186218.jpg,2238550816-254000.jpg,AE33JO53WTHZQ
696,3.0,left,left,1.0,2.4717,0.0,36.0,36.0,36.0,1.0,2901952513-70703.jpg,2238481198-19821.jpg,AE33JO53WTHZQ
697,3.0,right,left,0.0,3.0406,0.0,37.0,37.0,37.0,1.0,2981246360-220352.jpg,2901948350-218459.jpg,AE33JO53WTHZQ
698,2.0,right,right,1.0,3.7707,0.0,38.0,38.0,38.0,1.0,2874301404-139813.jpg,2981241414-145842.jpg,AE33JO53WTHZQ
699,1.0,left,right,0.0,1.5502,0.0,39.0,39.0,39.0,1.0,2901941401-292798.jpg,2898618327-366317.jpg,AE33JO53WTHZQ
700,2.0,left,right,0.0,2.1655,0.0,40.0,40.0,40.0,1.0,2883254439-140941.jpg,2898632385-217136.jpg,AE33JO53WTHZQ
701,2.0,right,right,1.0,2.2725,0.0,41.0,41.0,41.0,1.0,2446758985-197610.jpg,2901939379-143479.jpg,AE33JO53WTHZQ
702,2.0,left,left,1.0,2.7312,0.0,42.0,42.0,42.0,1.0,2238481928-19949.jpg,2864900357-361688.jpg,AE33JO53WTHZQ
703,3.0,left,left,1.0,1.6341,0.0,43.0,43.0,43.0,1.0,2238480677-317399.jpg,2238480278-19661.jpg,AE33JO53WTHZQ
704,3.0,right,left,0.0,2.2126,0.0,44.0,44.0,44.0,1.0,2898628438-68785.jpg,2964223381-294447.jpg,AE33JO53WTHZQ
705,2.0,left,left,1.0,4.2588,0.0,45.0,45.0,45.0,1.0,2575120738-55529.jpg,2575120738-55528.jpg,AE33JO53WTHZQ
706,3.0,left,right,0.0,3.3362,0.0,46.0,46.0,46.0,1.0,2898633421-291973.jpg,2238550049-105691.jpg,AE33JO53WTHZQ
707,2.0,left,right,0.0,2.1121,0.0,47.0,47.0,47.0,1.0,2874299429-139695.jpg,2901942443-69923.jpg,AE33JO53WTHZQ
708,3.0,right,left,0.0,1.8828,0.0,48.0,48.0,48.0,1.0,2901938432-367629.jpg,2901939379-143480.jpg,AE33JO53WTHZQ
709,1.0,right,right,1.0,2.8122,0.0,49.0,49.0,49.0,1.0,2964224310-219528.jpg,2446759347-347016.jpg,AE33JO53WTHZQ
710,1.0,left,left,1.0,2.312,0.0,50.0,50.0,50.0,1.0,2238572663-35822.jpg,2986419333-73361.jpg,AE33JO53WTHZQ
711,1.0,right,right,1.0,1.8978,0.0,51.0,51.0,51.0,1.0,2446759803-49251.jpg,2449442529-124446.jpg,AE33JO53WTHZQ
712,2.0,right,right,1.0,2.1957,0.0,52.0,52.0,52.0,1.0,2883254439-140940.jpg,2964218374-144967.jpg,AE33JO53WTHZQ
713,3.0,left,left,1.0,1.7232,0.0,53.0,53.0,53.0,1.0,2874302418-65978.jpg,2898633321-291943.jpg,AE33JO53WTHZQ
714,1.0,right,left,0.0,4.6687,0.0,54.0,54.0,54.0,1.0,2274829821-263682.jpg,2981231403-71642.jpg,AE33JO53WTHZQ
715,3.0,left,left,1.0,2.4614,0.0,55.0,55.0,55.0,1.0,2592380177-354626.jpg,2238117096-228518.jpg,AE33JO53WTHZQ
716,1.0,right,right,1.0,2.0123,0.0,56.0,56.0,56.0,1.0,2964218432-369263.jpg,2898624426-291546.jpg,AE33JO53WTHZQ
717,1.0,right,right,1.0,1.7739,0.0,57.0,57.0,57.0,1.0,2883268412-365899.jpg,2449441881-272368.jpg,AE33JO53WTHZQ
718,1.0,left,left,1.0,1.8916,0.0,58.0,58.0,58.0,1.0,2592380177-354629.jpg,2898633421-291974.jpg,AE33JO53WTHZQ
719,2.0,right,right,1.0,3.5333,0.0,59.0,59.0,59.0,1.0,2238563377-332054.jpg,2874303365-214262.jpg,AE33JO53WTHZQ
720,2.0,left,left,1.0,5.2659,0.0,0.0,0.0,0.0,1.0,2238425482-313537.jpg,2238436322-314047.jpg,AK4WAT44YKU7J
721,3.0,right,right,1.0,2.4915,0.0,1.0,1.0,1.0,1.0,2898632385-217137.jpg,2449442529-124445.jpg,AK4WAT44YKU7J
722,3.0,left,left,1.0,2.0415,0.0,2.0,2.0,2.0,1.0,2874303365-214262.jpg,2864911457-362260.jpg,AK4WAT44YKU7J
723,2.0,left,left,1.0,2.2618,0.0,3.0,3.0,3.0,1.0,2874302418-65978.jpg,2238481198-19823.jpg,AK4WAT44YKU7J
724,2.0,right,right,1.0,2.2987,0.0,4.0,4.0,4.0,1.0,2981236443-71859.jpg,2898624426-291546.jpg,AK4WAT44YKU7J
725,1.0,left,left,1.0,2.308,0.0,5.0,5.0,5.0,1.0,2868475410-213219.jpg,2901946465-218350.jpg,AK4WAT44YKU7J
726,1.0,left,right,0.0,1.1738,0.0,6.0,6.0,6.0,1.0,2575120738-55529.jpg,2898632385-217138.jpg,AK4WAT44YKU7J
727,3.0,right,right,1.0,1.9911,0.0,7.0,7.0,7.0,1.0,2238550049-105691.jpg,2898633421-291973.jpg,AK4WAT44YKU7J
728,1.0,left,left,1.0,1.6278,0.0,8.0,8.0,8.0,1.0,2446758985-197609.jpg,2981240424-145795.jpg,AK4WAT44YKU7J
729,1.0,left,left,1.0,1.8741,0.0,9.0,9.0,9.0,1.0,2898635427-367120.jpg,2901946439-144040.jpg,AK4WAT44YKU7J
730,1.0,right,right,1.0,1.282,0.0,10.0,10.0,10.0,1.0,2460547291-274110.jpg,2460547508-51571.jpg,AK4WAT44YKU7J
731,3.0,left,left,1.0,1.3881,0.0,11.0,11.0,11.0,1.0,2964218374-144967.jpg,2981231446-294732.jpg,AK4WAT44YKU7J
732,2.0,left,left,1.0,2.0654,0.0,12.0,12.0,12.0,1.0,2238480677-317399.jpg,2238573546-258454.jpg,AK4WAT44YKU7J
733,3.0,left,left,1.0,3.4631,0.0,13.0,13.0,13.0,1.0,2964223381-294447.jpg,2898628438-68785.jpg,AK4WAT44YKU7J
734,3.0,right,left,0.0,2.9205,0.0,14.0,14.0,14.0,1.0,2981231422-369714.jpg,2874307433-66280.jpg,AK4WAT44YKU7J
735,1.0,left,left,1.0,4.3762,0.0,15.0,15.0,15.0,1.0,2898618444-142233.jpg,2898631359-142721.jpg,AK4WAT44YKU7J
736,2.0,right,right,1.0,3.3275,0.0,16.0,16.0,16.0,1.0,2417208001-267065.jpg,2901948350-218459.jpg,AK4WAT44YKU7J
737,1.0,left,right,0.0,2.8998,0.0,17.0,17.0,17.0,1.0,2901941401-292798.jpg,2898618327-366317.jpg,AK4WAT44YKU7J
738,2.0,right,right,1.0,2.4525,0.0,18.0,18.0,18.0,1.0,2427874554-121863.jpg,2458347385-199723.jpg,AK4WAT44YKU7J
739,1.0,left,right,0.0,2.1916,0.0,19.0,19.0,19.0,1.0,2898634397-367080.jpg,2237944827-301472.jpg,AK4WAT44YKU7J
740,3.0,right,right,1.0,1.7865,0.0,20.0,20.0,20.0,1.0,2449442181-272436.jpg,2452380832-348593.jpg,AK4WAT44YKU7J
741,1.0,right,right,1.0,3.4734,0.0,21.0,21.0,21.0,1.0,2964224310-219528.jpg,2446759347-347016.jpg,AK4WAT44YKU7J
742,3.0,left,left,1.0,2.5248,0.0,22.0,22.0,22.0,1.0,2898617468-68274.jpg,2964207374-144577.jpg,AK4WAT44YKU7J
743,1.0,left,left,1.0,2.6737,0.0,23.0,23.0,23.0,1.0,2864907432-362042.jpg,2864901420-212147.jpg,AK4WAT44YKU7J
744,3.0,left,left,1.0,4.8993,0.0,24.0,24.0,24.0,1.0,2883256307-365057.jpg,2864904453-63933.jpg,AK4WAT44YKU7J
745,3.0,right,left,0.0,4.0466,0.0,25.0,25.0,25.0,1.0,2238481198-19821.jpg,2901952513-70703.jpg,AK4WAT44YKU7J
746,1.0,left,left,1.0,2.5322,0.0,26.0,26.0,26.0,1.0,2901939379-143480.jpg,2901942428-69919.jpg,AK4WAT44YKU7J
747,1.0,left,left,1.0,1.8337,0.0,27.0,27.0,27.0,1.0,2238481198-19822.jpg,2862691449-137104.jpg,AK4WAT44YKU7J
748,2.0,left,left,1.0,1.5834,0.0,28.0,28.0,28.0,1.0,2460547467-349422.jpg,2868487415-213924.jpg,AK4WAT44YKU7J
749,2.0,right,left,0.0,2.2498,0.0,29.0,29.0,29.0,1.0,2981244403-72215.jpg,2981231403-71642.jpg,AK4WAT44YKU7J
750,3.0,right,right,1.0,2.2675,0.0,30.0,30.0,30.0,1.0,2238578544-111698.jpg,2874302418-65979.jpg,AK4WAT44YKU7J
751,1.0,right,right,1.0,2.5507,0.0,31.0,31.0,31.0,1.0,2549106624-127823.jpg,2238560245-182099.jpg,AK4WAT44YKU7J
752,2.0,left,left,1.0,1.772,0.0,32.0,32.0,32.0,1.0,2449442529-124446.jpg,2460547536-274181.jpg,AK4WAT44YKU7J
753,3.0,left,left,1.0,3.0331,0.0,33.0,33.0,33.0,1.0,2874301407-363895.jpg,2901947323-70275.jpg,AK4WAT44YKU7J
754,1.0,left,left,1.0,3.1195,0.0,34.0,34.0,34.0,1.0,2864910426-287204.jpg,2864902304-137862.jpg,AK4WAT44YKU7J
755,2.0,right,right,1.0,1.9161,0.0,35.0,35.0,35.0,1.0,2901942443-69923.jpg,2874299429-139695.jpg,AK4WAT44YKU7J
756,2.0,left,left,1.0,2.0523,0.0,36.0,36.0,36.0,1.0,2452381505-199546.jpg,2238567168-34916.jpg,AK4WAT44YKU7J
757,3.0,right,left,0.0,1.7501,0.0,37.0,37.0,37.0,1.0,2898619327-366362.jpg,2964216465-219242.jpg,AK4WAT44YKU7J
758,3.0,right,right,1.0,2.3993,0.0,38.0,38.0,38.0,1.0,2449441881-272367.jpg,2449441881-272368.jpg,AK4WAT44YKU7J
759,2.0,right,right,1.0,1.2001,0.0,39.0,39.0,39.0,1.0,2238479053-19457.jpg,2592379964-131054.jpg,AK4WAT44YKU7J
760,1.0,right,left,0.0,3.3173,0.0,40.0,40.0,40.0,1.0,2898633421-291974.jpg,2592380177-354629.jpg,AK4WAT44YKU7J
761,3.0,right,right,1.0,1.035,0.0,41.0,41.0,41.0,1.0,2575121987-353817.jpg,2238428357-313623.jpg,AK4WAT44YKU7J
762,2.0,left,left,1.0,2.4992,0.0,42.0,42.0,42.0,1.0,2238481928-19949.jpg,2864900357-361688.jpg,AK4WAT44YKU7J
763,3.0,left,left,1.0,2.9327,0.0,43.0,43.0,43.0,1.0,2460547467-349421.jpg,2981235446-294901.jpg,AK4WAT44YKU7J
764,3.0,left,right,0.0,1.9161,0.0,44.0,44.0,44.0,1.0,2238580740-186218.jpg,2964220333-71258.jpg,AK4WAT44YKU7J
765,1.0,right,right,1.0,2.7163,0.0,45.0,45.0,45.0,1.0,2986449336-296644.jpg,2898618390-216538.jpg,AK4WAT44YKU7J
766,3.0,left,left,1.0,2.4072,0.0,46.0,46.0,46.0,1.0,2901947423-70311.jpg,2238577590-185467.jpg,AK4WAT44YKU7J
767,2.0,left,left,1.0,1.6738,0.0,47.0,47.0,47.0,1.0,2981241414-145842.jpg,2874301404-139813.jpg,AK4WAT44YKU7J
768,2.0,left,left,1.0,1.7061,0.0,48.0,48.0,48.0,1.0,2986451363-73599.jpg,2860302315-210704.jpg,AK4WAT44YKU7J
769,3.0,left,left,1.0,2.2212,0.0,49.0,49.0,49.0,1.0,2964213381-294060.jpg,2964213381-294061.jpg,AK4WAT44YKU7J
770,3.0,right,right,1.0,4.0535,0.0,50.0,50.0,50.0,1.0,2986447332-371497.jpg,2512875899-126682.jpg,AK4WAT44YKU7J
771,2.0,right,left,0.0,1.4335,0.0,51.0,51.0,51.0,1.0,2238571930-184143.jpg,2238572663-35822.jpg,AK4WAT44YKU7J
772,2.0,right,right,1.0,2.8056,0.0,52.0,52.0,52.0,1.0,2984615361-295510.jpg,2883268412-365898.jpg,AK4WAT44YKU7J
773,2.0,right,right,1.0,2.6688,0.0,53.0,53.0,53.0,1.0,2901943411-292945.jpg,2898635428-69104.jpg,AK4WAT44YKU7J
774,1.0,left,left,1.0,2.5828,0.0,54.0,54.0,54.0,1.0,2592380177-354626.jpg,2986408339-146952.jpg,AK4WAT44YKU7J
775,2.0,right,left,0.0,1.7998,0.0,55.0,55.0,55.0,1.0,2898632385-217136.jpg,2883254439-140941.jpg,AK4WAT44YKU7J
776,1.0,right,right,1.0,2.7386,0.0,56.0,56.0,56.0,1.0,2238516618-25604.jpg,2868474407-362883.jpg,AK4WAT44YKU7J
777,1.0,right,left,0.0,2.4367,0.0,57.0,57.0,57.0,1.0,2446760601-272099.jpg,2446759803-49249.jpg,AK4WAT44YKU7J
778,1.0,right,left,0.0,1.3397,0.0,58.0,58.0,58.0,1.0,2883268471-290843.jpg,2883268471-290842.jpg,AK4WAT44YKU7J
779,2.0,right,right,1.0,2.0502,0.0,59.0,59.0,59.0,1.0,2446758985-197610.jpg,2901939379-143479.jpg,AK4WAT44YKU7J
780,1.0,right,right,1.0,3.803,0.0,0.0,0.0,0.0,1.0,2446760844-124088.jpg,2883254439-140941.jpg,AMEBLCWTZKLS2
781,3.0,left,left,1.0,2.569,0.0,1.0,1.0,1.0,1.0,2238580740-186218.jpg,2964220333-71258.jpg,AMEBLCWTZKLS2
782,2.0,left,left,1.0,1.912,0.0,2.0,2.0,2.0,1.0,2449442529-124445.jpg,2986408373-73286.jpg,AMEBLCWTZKLS2
783,2.0,right,right,1.0,2.193,0.0,3.0,3.0,3.0,1.0,2238481813-19930.jpg,2452380832-348593.jpg,AMEBLCWTZKLS2
784,2.0,right,left,0.0,3.262,0.0,4.0,4.0,4.0,1.0,2592380177-354628.jpg,2512875899-126682.jpg,AMEBLCWTZKLS2
785,1.0,right,right,1.0,1.527,0.0,5.0,5.0,5.0,1.0,2964224310-219528.jpg,2446759347-347016.jpg,AMEBLCWTZKLS2
786,1.0,right,right,1.0,1.329,0.0,6.0,6.0,6.0,1.0,2460547291-274110.jpg,2460547508-51571.jpg,AMEBLCWTZKLS2
787,2.0,left,left,1.0,1.682,0.0,7.0,7.0,7.0,1.0,2981241414-145842.jpg,2874301404-139813.jpg,AMEBLCWTZKLS2
788,2.0,right,left,0.0,1.302,0.0,8.0,8.0,8.0,1.0,2874314526-289684.jpg,2238560245-182099.jpg,AMEBLCWTZKLS2
789,1.0,left,right,0.0,1.437,0.0,9.0,9.0,9.0,1.0,2898617468-68274.jpg,2864906345-212360.jpg,AMEBLCWTZKLS2
790,3.0,left,right,0.0,2.082,0.0,10.0,10.0,10.0,1.0,2874307433-66280.jpg,2981231422-369714.jpg,AMEBLCWTZKLS2
791,3.0,right,right,1.0,2.487,0.0,11.0,11.0,11.0,1.0,2981235446-294901.jpg,2460547467-349421.jpg,AMEBLCWTZKLS2
792,3.0,right,left,0.0,2.033,0.0,12.0,12.0,12.0,1.0,2238480803-19737.jpg,2238481198-19822.jpg,AMEBLCWTZKLS2
793,3.0,left,left,1.0,1.872,0.0,13.0,13.0,13.0,1.0,2238480677-317399.jpg,2238480278-19661.jpg,AMEBLCWTZKLS2
794,2.0,right,left,0.0,3.314,0.0,14.0,14.0,14.0,1.0,2901947423-70310.jpg,2864907432-362042.jpg,AMEBLCWTZKLS2
795,3.0,right,right,1.0,1.331,0.0,15.0,15.0,15.0,1.0,2238117096-228518.jpg,2592380177-354626.jpg,AMEBLCWTZKLS2
796,3.0,left,right,0.0,2.03,0.0,16.0,16.0,16.0,1.0,2898635427-367120.jpg,2898621427-366486.jpg,AMEBLCWTZKLS2
797,2.0,left,left,1.0,1.838,0.0,17.0,17.0,17.0,1.0,2238425482-313537.jpg,2238436322-314047.jpg,AMEBLCWTZKLS2
798,2.0,right,right,1.0,3.123,0.0,18.0,18.0,18.0,1.0,2575120738-55528.jpg,2575120738-55529.jpg,AMEBLCWTZKLS2
799,3.0,left,right,0.0,3.648,0.0,19.0,19.0,19.0,1.0,2898633421-291973.jpg,2238550049-105691.jpg,AMEBLCWTZKLS2
800,1.0,left,left,1.0,2.401,0.0,20.0,20.0,20.0,1.0,2883256307-365057.jpg,2611628310-206388.jpg,AMEBLCWTZKLS2
801,2.0,right,right,1.0,3.935,0.0,21.0,21.0,21.0,1.0,2238563377-332054.jpg,2874303365-214262.jpg,AMEBLCWTZKLS2
802,2.0,left,left,1.0,5.165,0.0,22.0,22.0,22.0,1.0,2981231403-71642.jpg,2981244403-72215.jpg,AMEBLCWTZKLS2
803,2.0,right,right,1.0,2.018,0.0,23.0,23.0,23.0,1.0,2874299429-139694.jpg,2864910426-287204.jpg,AMEBLCWTZKLS2
804,3.0,left,left,1.0,2.644,0.0,24.0,24.0,24.0,1.0,2898618444-142233.jpg,2898618444-142232.jpg,AMEBLCWTZKLS2
805,3.0,right,left,0.0,1.581,0.0,25.0,25.0,25.0,1.0,2898625336-291572.jpg,2898635428-69104.jpg,AMEBLCWTZKLS2
806,3.0,left,right,0.0,1.453,0.0,26.0,26.0,26.0,1.0,2898618390-216538.jpg,2575120609-129862.jpg,AMEBLCWTZKLS2
807,2.0,left,right,0.0,5.99,0.0,27.0,27.0,27.0,1.0,2446759803-49249.jpg,2898618440-216547.jpg,AMEBLCWTZKLS2
808,1.0,right,right,1.0,1.422,0.0,28.0,28.0,28.0,1.0,2883264368-67631.jpg,2874301407-363895.jpg,AMEBLCWTZKLS2
809,1.0,left,left,1.0,1.269,0.0,29.0,29.0,29.0,1.0,2901939379-143480.jpg,2901942428-69919.jpg,AMEBLCWTZKLS2
810,3.0,left,left,1.0,2.26,0.0,30.0,30.0,30.0,1.0,2458347385-199723.jpg,2458347252-348911.jpg,AMEBLCWTZKLS2
811,1.0,left,left,1.0,3.692,0.0,31.0,31.0,31.0,1.0,2238481928-19949.jpg,2883264367-365620.jpg,AMEBLCWTZKLS2
812,3.0,left,left,1.0,2.667,0.0,32.0,32.0,32.0,1.0,2964218374-144967.jpg,2981231446-294732.jpg,AMEBLCWTZKLS2
813,1.0,right,right,1.0,1.582,0.0,33.0,33.0,33.0,1.0,2238544191-252422.jpg,2964216465-219242.jpg,AMEBLCWTZKLS2
814,3.0,right,left,0.0,1.647,0.0,34.0,34.0,34.0,1.0,2898632385-217139.jpg,2449442529-124446.jpg,AMEBLCWTZKLS2
815,1.0,left,right,0.0,3.042,0.0,35.0,35.0,35.0,1.0,2898624426-291546.jpg,2964218432-369263.jpg,AMEBLCWTZKLS2
816,2.0,right,left,0.0,1.72,0.0,36.0,36.0,36.0,1.0,2238571930-184143.jpg,2238572663-35822.jpg,AMEBLCWTZKLS2
817,1.0,left,right,0.0,5.203,0.0,37.0,37.0,37.0,1.0,2986451363-73599.jpg,2901939327-367669.jpg,AMEBLCWTZKLS2
818,3.0,left,right,0.0,6.806,0.0,38.0,38.0,38.0,1.0,2901952513-70703.jpg,2238481198-19821.jpg,AMEBLCWTZKLS2
819,2.0,right,left,0.0,1.432,0.0,39.0,39.0,39.0,1.0,2238480803-19739.jpg,2868475410-213219.jpg,AMEBLCWTZKLS2
820,1.0,right,right,1.0,2.615,0.0,40.0,40.0,40.0,1.0,2883268471-290843.jpg,2883268471-290842.jpg,AMEBLCWTZKLS2
821,2.0,right,left,0.0,1.496,0.0,41.0,41.0,41.0,1.0,2864909447-362144.jpg,2446758985-197609.jpg,AMEBLCWTZKLS2
822,3.0,right,left,0.0,2.233,0.0,42.0,42.0,42.0,1.0,2898628438-68785.jpg,2964223381-294447.jpg,AMEBLCWTZKLS2
823,1.0,right,right,1.0,1.928,0.0,43.0,43.0,43.0,1.0,2238516618-25604.jpg,2868474407-362883.jpg,AMEBLCWTZKLS2
824,1.0,right,right,1.0,1.758,0.0,44.0,44.0,44.0,1.0,2237944827-301472.jpg,2898634397-367080.jpg,AMEBLCWTZKLS2
825,1.0,left,left,1.0,1.417,0.0,45.0,45.0,45.0,1.0,2874302418-65978.jpg,2898626385-216899.jpg,AMEBLCWTZKLS2
826,1.0,right,left,0.0,2.049,0.0,46.0,46.0,46.0,1.0,2575963989-130576.jpg,2592379964-131054.jpg,AMEBLCWTZKLS2
827,3.0,right,left,0.0,1.47,0.0,47.0,47.0,47.0,1.0,2238436252-314037.jpg,2883268412-365898.jpg,AMEBLCWTZKLS2
828,3.0,right,right,1.0,2.123,0.0,48.0,48.0,48.0,1.0,2994401319-148290.jpg,2452381505-199546.jpg,AMEBLCWTZKLS2
829,3.0,right,right,1.0,1.805,0.0,49.0,49.0,49.0,1.0,2575121987-353817.jpg,2238428357-313623.jpg,AMEBLCWTZKLS2
830,2.0,left,left,1.0,1.671,0.0,50.0,50.0,50.0,1.0,2874302418-65979.jpg,2238480648-19714.jpg,AMEBLCWTZKLS2
831,1.0,right,right,1.0,1.979,0.0,51.0,51.0,51.0,1.0,2883268412-365899.jpg,2449441881-272368.jpg,AMEBLCWTZKLS2
832,2.0,right,left,0.0,1.77,0.0,52.0,52.0,52.0,1.0,2417208001-267065.jpg,2901948350-218459.jpg,AMEBLCWTZKLS2
833,2.0,right,left,0.0,1.304,0.0,53.0,53.0,53.0,1.0,2981243412-370222.jpg,2901941401-292798.jpg,AMEBLCWTZKLS2
834,2.0,right,right,1.0,1.329,0.0,54.0,54.0,54.0,1.0,2579432534-130704.jpg,2592380177-354629.jpg,AMEBLCWTZKLS2
835,3.0,right,left,0.0,1.359,0.0,55.0,55.0,55.0,1.0,2964213381-294061.jpg,2964213381-294060.jpg,AMEBLCWTZKLS2
836,1.0,left,left,1.0,1.284,0.0,56.0,56.0,56.0,1.0,2901939379-143479.jpg,2460547467-349423.jpg,AMEBLCWTZKLS2
837,2.0,right,right,1.0,1.737,0.0,57.0,57.0,57.0,1.0,2868487415-213924.jpg,2460547467-349422.jpg,AMEBLCWTZKLS2
838,1.0,right,left,0.0,1.332,0.0,58.0,58.0,58.0,1.0,2883266388-67750.jpg,2874299429-139695.jpg,AMEBLCWTZKLS2
839,1.0,right,right,1.0,1.899,0.0,59.0,59.0,59.0,1.0,2860312398-62572.jpg,2901947423-70311.jpg,AMEBLCWTZKLS2
840,1.0,left,right,0.0,2.8954,0.0,0.0,0.0,0.0,1.0,2238480677-317399.jpg,2238481630-168218.jpg,ATA61WNUAP91U
841,3.0,left,left,1.0,1.8464,0.0,1.0,1.0,1.0,1.0,2458347385-199723.jpg,2458347252-348911.jpg,ATA61WNUAP91U
842,3.0,right,right,1.0,1.851,0.0,2.0,2.0,2.0,1.0,2238480803-19737.jpg,2238481198-19822.jpg,ATA61WNUAP91U
843,3.0,right,right,1.0,1.627,0.0,3.0,3.0,3.0,1.0,2238117096-228518.jpg,2592380177-354626.jpg,ATA61WNUAP91U
844,2.0,left,left,1.0,1.92,0.0,4.0,4.0,4.0,1.0,2901952513-70703.jpg,2868469411-287540.jpg,ATA61WNUAP91U
845,2.0,left,left,1.0,1.4969,0.0,5.0,5.0,5.0,1.0,2901947423-70311.jpg,2238573447-333826.jpg,ATA61WNUAP91U
846,1.0,left,left,1.0,1.4957,0.0,6.0,6.0,6.0,1.0,2238428357-313623.jpg,2238499057-320266.jpg,ATA61WNUAP91U
847,3.0,right,left,0.0,2.8855,0.0,7.0,7.0,7.0,1.0,2981235446-294900.jpg,2898624426-291546.jpg,ATA61WNUAP91U
848,3.0,right,left,0.0,3.1462,0.0,8.0,8.0,8.0,1.0,2575120609-129862.jpg,2898618390-216538.jpg,ATA61WNUAP91U
849,1.0,left,left,1.0,1.371,0.0,9.0,9.0,9.0,1.0,2449441881-272368.jpg,2883268412-365899.jpg,ATA61WNUAP91U
850,3.0,left,right,0.0,2.0046,0.0,10.0,10.0,10.0,1.0,2901941401-292798.jpg,2883273443-68193.jpg,ATA61WNUAP91U
851,1.0,left,left,1.0,1.8653,0.0,11.0,11.0,11.0,1.0,2449442529-124445.jpg,2452380171-273112.jpg,ATA61WNUAP91U
852,1.0,left,right,0.0,3.5147,0.0,12.0,12.0,12.0,1.0,2898617468-68274.jpg,2864906345-212360.jpg,ATA61WNUAP91U
853,1.0,left,left,1.0,1.3726,0.0,13.0,13.0,13.0,1.0,2446759803-49249.jpg,2446760601-272099.jpg,ATA61WNUAP91U
854,3.0,left,left,1.0,1.7509,0.0,14.0,14.0,14.0,1.0,2460547508-51571.jpg,2901941438-69835.jpg,ATA61WNUAP91U
855,2.0,right,left,0.0,2.136,0.0,15.0,15.0,15.0,1.0,2901947423-70310.jpg,2864907432-362042.jpg,ATA61WNUAP91U
856,1.0,left,left,1.0,3.2505,0.0,16.0,16.0,16.0,1.0,2460547467-349421.jpg,2898631394-142727.jpg,ATA61WNUAP91U
857,1.0,right,right,1.0,1.987,0.0,17.0,17.0,17.0,1.0,2427874231-269884.jpg,2964223381-294447.jpg,ATA61WNUAP91U
858,2.0,left,right,0.0,2.8643,0.0,18.0,18.0,18.0,1.0,2238572663-35822.jpg,2238571930-184143.jpg,ATA61WNUAP91U
859,2.0,left,right,0.0,1.6243,0.0,19.0,19.0,19.0,1.0,2981231403-71642.jpg,2981244403-72215.jpg,ATA61WNUAP91U
860,2.0,left,left,1.0,1.2411,0.0,20.0,20.0,20.0,1.0,2964213381-294060.jpg,2458348012-349114.jpg,ATA61WNUAP91U
861,3.0,right,left,0.0,2.6363,0.0,21.0,21.0,21.0,1.0,2238578544-111698.jpg,2874302418-65979.jpg,ATA61WNUAP91U
862,2.0,left,left,1.0,2.357,0.0,22.0,22.0,22.0,1.0,2452380832-348593.jpg,2238481813-19930.jpg,ATA61WNUAP91U
863,3.0,left,right,0.0,1.9731,0.0,23.0,23.0,23.0,1.0,2981241414-145842.jpg,2427873848-47312.jpg,ATA61WNUAP91U
864,1.0,right,left,0.0,2.2587,0.0,24.0,24.0,24.0,1.0,2901942428-69919.jpg,2901939379-143480.jpg,ATA61WNUAP91U
865,1.0,right,right,1.0,5.1742,0.0,25.0,25.0,25.0,1.0,2901946465-218350.jpg,2868475410-213219.jpg,ATA61WNUAP91U
866,3.0,left,right,0.0,2.1055,0.0,26.0,26.0,26.0,1.0,2898633421-291973.jpg,2238550049-105691.jpg,ATA61WNUAP91U
867,2.0,left,left,1.0,2.9254,0.0,27.0,27.0,27.0,1.0,2449442529-124446.jpg,2460547536-274181.jpg,ATA61WNUAP91U
868,2.0,left,right,0.0,2.4407,0.0,28.0,28.0,28.0,1.0,2874301407-363895.jpg,2986397322-371109.jpg,ATA61WNUAP91U
869,1.0,left,left,1.0,9.2838,0.0,29.0,29.0,29.0,1.0,2874299429-139695.jpg,2883266388-67750.jpg,ATA61WNUAP91U
870,2.0,left,left,1.0,1.7248,0.0,30.0,30.0,30.0,1.0,2874303365-214262.jpg,2238563377-332054.jpg,ATA61WNUAP91U
871,1.0,left,left,1.0,2.0479,0.0,31.0,31.0,31.0,1.0,2883256307-365057.jpg,2611628310-206388.jpg,ATA61WNUAP91U
872,2.0,left,left,1.0,3.8502,0.0,32.0,32.0,32.0,1.0,2238481928-19949.jpg,2864900357-361688.jpg,ATA61WNUAP91U
873,1.0,left,left,1.0,2.0291,0.0,33.0,33.0,33.0,1.0,2901948350-218459.jpg,2804906319-133082.jpg,ATA61WNUAP91U
874,2.0,left,left,1.0,8.5149,0.0,34.0,34.0,34.0,1.0,2238560245-182099.jpg,2874314526-289684.jpg,ATA61WNUAP91U
875,3.0,right,right,1.0,1.7867,0.0,35.0,35.0,35.0,1.0,2864909447-362146.jpg,2460547467-349422.jpg,ATA61WNUAP91U
876,3.0,right,left,0.0,2.754,0.0,36.0,36.0,36.0,1.0,2898621427-366486.jpg,2898635427-367120.jpg,ATA61WNUAP91U
877,2.0,right,left,0.0,2.2552,0.0,37.0,37.0,37.0,1.0,2874299429-139694.jpg,2864910426-287204.jpg,ATA61WNUAP91U
878,3.0,right,left,0.0,1.6194,0.0,38.0,38.0,38.0,1.0,2898625336-291572.jpg,2898635428-69104.jpg,ATA61WNUAP91U
879,1.0,left,left,1.0,1.2638,0.0,39.0,39.0,39.0,1.0,2901939379-143479.jpg,2460547467-349423.jpg,ATA61WNUAP91U
880,3.0,left,left,1.0,2.5345,0.0,40.0,40.0,40.0,1.0,2868474407-362883.jpg,2901948383-70363.jpg,ATA61WNUAP91U
881,2.0,left,right,0.0,1.5056,0.0,41.0,41.0,41.0,1.0,2898634397-367080.jpg,2901934408-69289.jpg,ATA61WNUAP91U
882,3.0,right,right,1.0,6.6864,0.0,42.0,42.0,42.0,1.0,2964220333-71258.jpg,2238580740-186218.jpg,ATA61WNUAP91U
883,2.0,left,left,1.0,1.9968,0.0,43.0,43.0,43.0,1.0,2512875899-126682.jpg,2592380177-354628.jpg,ATA61WNUAP91U
884,3.0,right,left,0.0,5.0033,0.0,44.0,44.0,44.0,1.0,2898618444-142232.jpg,2898618444-142233.jpg,ATA61WNUAP91U
885,2.0,right,right,1.0,1.645,0.0,45.0,45.0,45.0,1.0,2883254439-140940.jpg,2964218374-144967.jpg,ATA61WNUAP91U
886,2.0,right,left,0.0,1.4939,0.0,46.0,46.0,46.0,1.0,2898632385-217136.jpg,2883254439-140941.jpg,ATA61WNUAP91U
887,3.0,right,left,0.0,2.1803,0.0,47.0,47.0,47.0,1.0,2898633480-217190.jpg,2238425482-313537.jpg,ATA61WNUAP91U
888,1.0,right,right,1.0,4.8913,0.0,48.0,48.0,48.0,1.0,2883268471-290843.jpg,2883268471-290842.jpg,ATA61WNUAP91U
889,1.0,left,left,1.0,1.7712,0.0,49.0,49.0,49.0,1.0,2986451363-73599.jpg,2901939327-367669.jpg,ATA61WNUAP91U
890,1.0,left,left,1.0,2.0227,0.0,50.0,50.0,50.0,1.0,2446758985-197609.jpg,2981240424-145795.jpg,ATA61WNUAP91U
891,2.0,right,right,1.0,1.6791,0.0,51.0,51.0,51.0,1.0,2238479053-19457.jpg,2592379964-131054.jpg,ATA61WNUAP91U
892,1.0,left,right,0.0,1.7477,0.0,52.0,52.0,52.0,1.0,2452381505-199546.jpg,2901938432-367627.jpg,ATA61WNUAP91U
893,3.0,right,right,1.0,1.8178,0.0,53.0,53.0,53.0,1.0,2238531493-28260.jpg,2575120738-55529.jpg,ATA61WNUAP91U
894,3.0,right,right,1.0,1.9012,0.0,54.0,54.0,54.0,1.0,2898619327-366362.jpg,2964216465-219242.jpg,ATA61WNUAP91U
895,1.0,left,left,1.0,1.6761,0.0,55.0,55.0,55.0,1.0,2874302418-65978.jpg,2898626385-216899.jpg,ATA61WNUAP91U
896,3.0,left,left,1.0,2.1733,0.0,56.0,56.0,56.0,1.0,2446759347-347016.jpg,2238569117-333045.jpg,ATA61WNUAP91U
897,2.0,right,right,1.0,1.7636,0.0,57.0,57.0,57.0,1.0,2984615361-295510.jpg,2883268412-365898.jpg,ATA61WNUAP91U
898,1.0,left,left,1.0,3.1826,0.0,58.0,58.0,58.0,1.0,2874307433-66280.jpg,2986447306-296584.jpg,ATA61WNUAP91U
899,2.0,left,left,1.0,2.0409,0.0,59.0,59.0,59.0,1.0,2592380177-354629.jpg,2579432534-130704.jpg,ATA61WNUAP91U
