,index,test_encoding_response.keys,test_encoding_response.corr,trials.thisTrialN,target_image,pair,layer,correct,test_encoding_response.rt,key_resp_end.keys,subject
0,20,,1.0,0.0,2592379964-131054.jpg,2592380272-354673.jpg,3.0,,,,A11EXIB1MVBZFJ
1,21,,1.0,1.0,2898635427-367120.jpg,2898621427-366486.jpg,3.0,,,,A11EXIB1MVBZFJ
2,22,,1.0,2.0,2458347385-199723.jpg,2458347252-348911.jpg,3.0,,,,A11EXIB1MVBZFJ
3,23,,1.0,3.0,2512875899-126682.jpg,2592380177-354628.jpg,2.0,,,,A11EXIB1MVBZFJ
4,24,,1.0,4.0,2238481928-19949.jpg,2883264367-365620.jpg,1.0,,,,A11EXIB1MVBZFJ
5,25,,1.0,5.0,2238572663-35822.jpg,2238571930-184143.jpg,2.0,,,,A11EXIB1MVBZFJ
6,26,,1.0,6.0,2449442529-124445.jpg,2986408373-73286.jpg,2.0,,,,A11EXIB1MVBZFJ
7,27,,1.0,7.0,2898617468-68274.jpg,2864906345-212360.jpg,1.0,,,,A11EXIB1MVBZFJ
8,28,,1.0,8.0,2981241414-145842.jpg,2856919327-359676.jpg,1.0,,,,A11EXIB1MVBZFJ
9,29,,1.0,9.0,2449441881-272368.jpg,2449441881-272367.jpg,3.0,,,,A11EXIB1MVBZFJ
10,30,,1.0,10.0,2238481198-19822.jpg,2862691449-137104.jpg,1.0,,,,A11EXIB1MVBZFJ
11,31,,1.0,11.0,2868475410-213219.jpg,2238480803-19739.jpg,2.0,,,,A11EXIB1MVBZFJ
12,32,left,1.0,12.0,left.jpg,,,left,0.917,,A11EXIB1MVBZFJ
13,33,,1.0,13.0,2898618390-216538.jpg,2575120609-129862.jpg,3.0,,,,A11EXIB1MVBZFJ
14,34,,1.0,14.0,2901939379-143479.jpg,2981240424-145794.jpg,3.0,,,,A11EXIB1MVBZFJ
15,35,,1.0,15.0,2883268412-365898.jpg,2984615361-295510.jpg,2.0,,,,A11EXIB1MVBZFJ
16,36,,1.0,16.0,2898634397-367080.jpg,2901934408-69289.jpg,2.0,,,,A11EXIB1MVBZFJ
17,37,,1.0,17.0,2874307433-66280.jpg,2981246400-220365.jpg,2.0,,,,A11EXIB1MVBZFJ
18,38,,1.0,18.0,2238425482-313537.jpg,2238471391-240918.jpg,1.0,,,,A11EXIB1MVBZFJ
19,39,,1.0,19.0,2964223381-294447.jpg,2901941438-69836.jpg,2.0,,,,A11EXIB1MVBZFJ
20,40,,1.0,20.0,2898635428-69104.jpg,2446759803-49250.jpg,1.0,,,,A11EXIB1MVBZFJ
21,41,right,1.0,21.0,right.jpg,,,right,1.089,,A11EXIB1MVBZFJ
22,42,,1.0,22.0,2901939379-143480.jpg,2901942428-69919.jpg,1.0,,,,A11EXIB1MVBZFJ
23,43,,1.0,23.0,2592380177-354626.jpg,2986408339-146952.jpg,1.0,,,,A11EXIB1MVBZFJ
24,44,,1.0,24.0,2883268471-290842.jpg,2883268471-290843.jpg,1.0,,,,A11EXIB1MVBZFJ
25,45,,1.0,25.0,2874302418-65978.jpg,2238481198-19823.jpg,2.0,,,,A11EXIB1MVBZFJ
26,46,,1.0,26.0,2238580740-186218.jpg,2238521193-26285.jpg,2.0,,,,A11EXIB1MVBZFJ
27,47,,1.0,27.0,2901947423-70311.jpg,2238573447-333826.jpg,2.0,,,,A11EXIB1MVBZFJ
28,48,,1.0,28.0,2238428357-313623.jpg,2238499057-320266.jpg,1.0,,,,A11EXIB1MVBZFJ
29,49,,1.0,29.0,2964213381-294060.jpg,2458348012-349114.jpg,2.0,,,,A11EXIB1MVBZFJ
30,50,,1.0,30.0,2898618444-142233.jpg,2898618444-142232.jpg,3.0,,,,A11EXIB1MVBZFJ
31,51,,1.0,31.0,2238560245-182099.jpg,2238480980-168129.jpg,3.0,,,,A11EXIB1MVBZFJ
32,52,left,1.0,32.0,left.jpg,,,left,0.979,,A11EXIB1MVBZFJ
33,53,,1.0,33.0,2864910426-287204.jpg,2864902304-137862.jpg,1.0,,,,A11EXIB1MVBZFJ
34,54,,1.0,34.0,2460547508-51571.jpg,2901941438-69835.jpg,3.0,,,,A11EXIB1MVBZFJ
35,55,,1.0,35.0,2874303365-214262.jpg,2864911457-362260.jpg,3.0,,,,A11EXIB1MVBZFJ
36,56,,1.0,36.0,2446759347-347016.jpg,2238569117-333045.jpg,3.0,,,,A11EXIB1MVBZFJ
37,57,left,1.0,37.0,left.jpg,,,left,1.087,,A11EXIB1MVBZFJ
38,58,,1.0,38.0,2592380177-354629.jpg,2512875587-350044.jpg,3.0,,,,A11EXIB1MVBZFJ
39,59,,1.0,39.0,2898624426-291546.jpg,2981235446-294900.jpg,3.0,,,,A11EXIB1MVBZFJ
40,60,,1.0,40.0,2986451363-73599.jpg,2901939327-367669.jpg,1.0,,,,A11EXIB1MVBZFJ
41,61,,1.0,41.0,2964218374-144967.jpg,2964218374-144968.jpg,1.0,,,,A11EXIB1MVBZFJ
42,62,,1.0,42.0,2874301407-363895.jpg,2986397322-371109.jpg,2.0,,,,A11EXIB1MVBZFJ
43,63,,1.0,43.0,2238480677-317399.jpg,2238573546-258454.jpg,2.0,,,,A11EXIB1MVBZFJ
44,64,,1.0,44.0,2874299429-139695.jpg,2901942443-69923.jpg,2.0,,,,A11EXIB1MVBZFJ
45,65,,1.0,45.0,2452380832-348593.jpg,2449442181-272436.jpg,3.0,,,,A11EXIB1MVBZFJ
46,66,,1.0,46.0,2575120738-55529.jpg,2575120738-55528.jpg,2.0,,,,A11EXIB1MVBZFJ
47,67,,1.0,47.0,2901948350-218459.jpg,2417208001-267065.jpg,2.0,,,,A11EXIB1MVBZFJ
48,68,,1.0,48.0,2864907432-362042.jpg,2864901420-212147.jpg,1.0,,,,A11EXIB1MVBZFJ
49,69,,1.0,49.0,2446759803-49249.jpg,2446760601-272099.jpg,1.0,,,,A11EXIB1MVBZFJ
50,70,,1.0,50.0,2901952513-70703.jpg,2238481198-19821.jpg,3.0,,,,A11EXIB1MVBZFJ
51,71,,1.0,51.0,2901941401-292798.jpg,2981243412-370222.jpg,2.0,,,,A11EXIB1MVBZFJ
52,72,,1.0,52.0,2981231403-71642.jpg,2274829821-263682.jpg,1.0,,,,A11EXIB1MVBZFJ
53,73,right,1.0,53.0,right.jpg,,,right,1.621,,A11EXIB1MVBZFJ
54,74,,1.0,54.0,2460547467-349422.jpg,2868487415-213924.jpg,2.0,,,,A11EXIB1MVBZFJ
55,75,,1.0,55.0,2446758985-197609.jpg,2981240424-145795.jpg,1.0,,,,A11EXIB1MVBZFJ
56,76,,1.0,56.0,2898633421-291973.jpg,2238550049-105691.jpg,3.0,,,,A11EXIB1MVBZFJ
57,77,,1.0,57.0,2874302418-65979.jpg,2238578544-111698.jpg,3.0,,,,A11EXIB1MVBZFJ
58,78,,1.0,58.0,2452381505-199546.jpg,2994401319-148290.jpg,3.0,,,,A11EXIB1MVBZFJ
59,79,,1.0,59.0,2868474407-362883.jpg,2238516618-25604.jpg,1.0,,,,A11EXIB1MVBZFJ
60,80,,1.0,60.0,2883256307-365057.jpg,2864904453-63933.jpg,3.0,,,,A11EXIB1MVBZFJ
61,81,,1.0,61.0,2460547467-349421.jpg,2452380166-273110.jpg,2.0,,,,A11EXIB1MVBZFJ
62,82,,1.0,62.0,2449442529-124446.jpg,2898632385-217139.jpg,3.0,,,,A11EXIB1MVBZFJ
63,83,,1.0,63.0,2883254439-140941.jpg,2446760844-124088.jpg,1.0,,,,A11EXIB1MVBZFJ
64,84,,1.0,64.0,2964216465-219242.jpg,2238544191-252422.jpg,1.0,,,,A11EXIB1MVBZFJ
65,20,,1.0,0.0,2898635428-69104.jpg,2898625336-291572.jpg,3.0,,,,A1F9KLZGHE9DTA
66,21,,1.0,1.0,2452380832-348593.jpg,2449442181-272436.jpg,3.0,,,,A1F9KLZGHE9DTA
67,22,,1.0,2.0,2446759803-49249.jpg,2446760601-272099.jpg,1.0,,,,A1F9KLZGHE9DTA
68,23,,1.0,3.0,2898617468-68274.jpg,2864906345-212360.jpg,1.0,,,,A1F9KLZGHE9DTA
69,24,,1.0,4.0,2986451363-73599.jpg,2901939327-367669.jpg,1.0,,,,A1F9KLZGHE9DTA
70,25,,1.0,5.0,2592380177-354626.jpg,2238117096-228518.jpg,3.0,,,,A1F9KLZGHE9DTA
71,26,,1.0,6.0,2238428357-313623.jpg,2984615361-295509.jpg,2.0,,,,A1F9KLZGHE9DTA
72,27,,1.0,7.0,2874307433-66280.jpg,2986447306-296584.jpg,1.0,,,,A1F9KLZGHE9DTA
73,28,,1.0,8.0,2864907432-362042.jpg,2864901420-212147.jpg,1.0,,,,A1F9KLZGHE9DTA
74,29,,1.0,9.0,2238572663-35822.jpg,2864903351-286874.jpg,3.0,,,,A1F9KLZGHE9DTA
75,30,,1.0,10.0,2449442529-124445.jpg,2986408373-73286.jpg,2.0,,,,A1F9KLZGHE9DTA
76,31,,1.0,11.0,2964213381-294060.jpg,2981244394-145974.jpg,1.0,,,,A1F9KLZGHE9DTA
77,32,,1.0,12.0,2898635427-367120.jpg,2868479517-363220.jpg,2.0,,,,A1F9KLZGHE9DTA
78,33,right,1.0,13.0,right.jpg,,,right,0.6338,,A1F9KLZGHE9DTA
79,34,,1.0,14.0,2901947423-70311.jpg,2238577590-185467.jpg,3.0,,,,A1F9KLZGHE9DTA
80,35,,1.0,15.0,2592379964-131054.jpg,2575963989-130576.jpg,1.0,,,,A1F9KLZGHE9DTA
81,36,left,1.0,16.0,left.jpg,,,left,0.6201,,A1F9KLZGHE9DTA
82,37,,1.0,17.0,2868474407-362883.jpg,2238516618-25604.jpg,1.0,,,,A1F9KLZGHE9DTA
83,38,,1.0,18.0,2458347385-199723.jpg,2238480434-93829.jpg,1.0,,,,A1F9KLZGHE9DTA
84,39,,1.0,19.0,2964223381-294447.jpg,2427874231-269884.jpg,1.0,,,,A1F9KLZGHE9DTA
85,40,,1.0,20.0,2449441881-272368.jpg,2883268412-365899.jpg,1.0,,,,A1F9KLZGHE9DTA
86,41,,1.0,21.0,2898618444-142233.jpg,2238555262-330312.jpg,2.0,,,,A1F9KLZGHE9DTA
87,42,,1.0,22.0,2883268471-290842.jpg,2883268471-290843.jpg,1.0,,,,A1F9KLZGHE9DTA
88,43,,1.0,23.0,2868475410-213219.jpg,2238480803-19739.jpg,2.0,,,,A1F9KLZGHE9DTA
89,44,,1.0,24.0,2452381505-199546.jpg,2994401319-148290.jpg,3.0,,,,A1F9KLZGHE9DTA
90,45,,1.0,25.0,2864910426-287204.jpg,2864902304-137862.jpg,1.0,,,,A1F9KLZGHE9DTA
91,46,,1.0,26.0,2874299429-139695.jpg,2901942443-69923.jpg,2.0,,,,A1F9KLZGHE9DTA
92,47,,1.0,27.0,2446759347-347016.jpg,2901951350-218702.jpg,2.0,,,,A1F9KLZGHE9DTA
93,48,,1.0,28.0,2981241414-145842.jpg,2427873848-47312.jpg,3.0,,,,A1F9KLZGHE9DTA
94,49,,1.0,29.0,2874302418-65979.jpg,2413147898-43548.jpg,1.0,,,,A1F9KLZGHE9DTA
95,50,,1.0,30.0,2238481198-19822.jpg,2901946436-293242.jpg,2.0,,,,A1F9KLZGHE9DTA
96,51,,1.0,31.0,2964216465-219242.jpg,2898619327-366362.jpg,3.0,,,,A1F9KLZGHE9DTA
97,52,right,1.0,32.0,right.jpg,,,right,0.6166,,A1F9KLZGHE9DTA
98,53,,1.0,33.0,2898634397-367080.jpg,2901934408-69289.jpg,2.0,,,,A1F9KLZGHE9DTA
99,54,,1.0,34.0,2460547467-349422.jpg,2864909447-362146.jpg,3.0,,,,A1F9KLZGHE9DTA
100,55,,1.0,35.0,2901941401-292798.jpg,2898618327-366317.jpg,1.0,,,,A1F9KLZGHE9DTA
101,56,,1.0,36.0,2898633421-291973.jpg,2238550049-105691.jpg,3.0,,,,A1F9KLZGHE9DTA
102,57,,1.0,37.0,2592380177-354629.jpg,2579432534-130704.jpg,2.0,,,,A1F9KLZGHE9DTA
103,58,,1.0,38.0,2901939379-143480.jpg,2981229442-369621.jpg,2.0,,,,A1F9KLZGHE9DTA
104,59,,1.0,39.0,2874303365-214262.jpg,2609793677-355397.jpg,1.0,,,,A1F9KLZGHE9DTA
105,60,,1.0,40.0,2512875899-126682.jpg,2986447332-371497.jpg,3.0,,,,A1F9KLZGHE9DTA
106,61,,1.0,41.0,2874301407-363895.jpg,2986397322-371109.jpg,2.0,,,,A1F9KLZGHE9DTA
107,62,,1.0,42.0,2460547467-349421.jpg,2981235446-294901.jpg,3.0,,,,A1F9KLZGHE9DTA
108,63,,1.0,43.0,2238560245-182099.jpg,2238480980-168129.jpg,3.0,,,,A1F9KLZGHE9DTA
109,64,right,1.0,44.0,right.jpg,,,right,0.5516,,A1F9KLZGHE9DTA
110,65,,1.0,45.0,2898624426-291546.jpg,2964218432-369263.jpg,1.0,,,,A1F9KLZGHE9DTA
111,66,,1.0,46.0,2449442529-124446.jpg,2898632385-217139.jpg,3.0,,,,A1F9KLZGHE9DTA
112,67,,1.0,47.0,2883256307-365057.jpg,2864904453-63933.jpg,3.0,,,,A1F9KLZGHE9DTA
113,68,,1.0,48.0,2901948350-218459.jpg,2804906319-133082.jpg,1.0,,,,A1F9KLZGHE9DTA
114,69,,1.0,49.0,2238480677-317399.jpg,2238480278-19661.jpg,3.0,,,,A1F9KLZGHE9DTA
115,70,,1.0,50.0,2901939379-143479.jpg,2446758985-197610.jpg,2.0,,,,A1F9KLZGHE9DTA
116,71,,1.0,51.0,2901952513-70703.jpg,2238481198-19821.jpg,3.0,,,,A1F9KLZGHE9DTA
117,72,left,1.0,52.0,left.jpg,,,left,0.5675,,A1F9KLZGHE9DTA
118,73,,1.0,53.0,2238425482-313537.jpg,2238436322-314047.jpg,2.0,,,,A1F9KLZGHE9DTA
119,74,,1.0,54.0,2981231403-71642.jpg,2427873763-47290.jpg,3.0,,,,A1F9KLZGHE9DTA
120,75,,1.0,55.0,2238481928-19949.jpg,2864900357-361688.jpg,2.0,,,,A1F9KLZGHE9DTA
121,76,,1.0,56.0,2238580740-186218.jpg,2238521193-26285.jpg,2.0,,,,A1F9KLZGHE9DTA
122,77,,1.0,57.0,2883254439-140941.jpg,2446760844-124088.jpg,1.0,,,,A1F9KLZGHE9DTA
123,78,,1.0,58.0,2883268412-365898.jpg,2984615361-295510.jpg,2.0,,,,A1F9KLZGHE9DTA
124,79,,1.0,59.0,2446758985-197609.jpg,2864909447-362144.jpg,2.0,,,,A1F9KLZGHE9DTA
125,80,,1.0,60.0,2460547508-51571.jpg,2901941438-69835.jpg,3.0,,,,A1F9KLZGHE9DTA
126,81,,1.0,61.0,2898618390-216538.jpg,2575120609-129862.jpg,3.0,,,,A1F9KLZGHE9DTA
127,82,,1.0,62.0,2874302418-65978.jpg,2238481198-19823.jpg,2.0,,,,A1F9KLZGHE9DTA
128,83,,1.0,63.0,2575120738-55529.jpg,2898632385-217138.jpg,1.0,,,,A1F9KLZGHE9DTA
129,84,,1.0,64.0,2964218374-144967.jpg,2883254439-140940.jpg,2.0,,,,A1F9KLZGHE9DTA
130,20,,1.0,0.0,2592380177-354626.jpg,2864901386-286797.jpg,2.0,,,,A1LCUPRZ0I8S3I
131,21,,1.0,1.0,2901941401-292798.jpg,2898618327-366317.jpg,1.0,,,,A1LCUPRZ0I8S3I
132,22,,1.0,2.0,2964223381-294447.jpg,2901941438-69836.jpg,2.0,,,,A1LCUPRZ0I8S3I
133,23,,1.0,3.0,2898633421-291973.jpg,2575118671-277663.jpg,2.0,,,,A1LCUPRZ0I8S3I
134,24,,1.0,4.0,2964218374-144967.jpg,2981231446-294732.jpg,3.0,,,,A1LCUPRZ0I8S3I
135,25,,1.0,5.0,2874307433-66280.jpg,2986447306-296584.jpg,1.0,,,,A1LCUPRZ0I8S3I
136,26,,1.0,6.0,2901947423-70311.jpg,2238573447-333826.jpg,2.0,,,,A1LCUPRZ0I8S3I
137,27,,1.0,7.0,2901952513-70703.jpg,2864907361-287062.jpg,1.0,,,,A1LCUPRZ0I8S3I
138,28,,1.0,8.0,2446759347-347016.jpg,2238569117-333045.jpg,3.0,,,,A1LCUPRZ0I8S3I
139,29,,1.0,9.0,2592380177-354629.jpg,2512875587-350044.jpg,3.0,,,,A1LCUPRZ0I8S3I
140,30,,1.0,10.0,2898618390-216538.jpg,2986449336-296644.jpg,1.0,,,,A1LCUPRZ0I8S3I
141,31,,1.0,11.0,2446759803-49249.jpg,2446760601-272099.jpg,1.0,,,,A1LCUPRZ0I8S3I
142,32,,1.0,12.0,2868474407-362883.jpg,2901948383-70363.jpg,3.0,,,,A1LCUPRZ0I8S3I
143,33,,1.0,13.0,2238572663-35822.jpg,2986419333-73361.jpg,1.0,,,,A1LCUPRZ0I8S3I
144,34,right,1.0,14.0,right.jpg,,,right,1.5681,,A1LCUPRZ0I8S3I
145,35,,1.0,15.0,2898617468-68274.jpg,2864906345-212360.jpg,1.0,,,,A1LCUPRZ0I8S3I
146,36,left,1.0,16.0,left.jpg,,,left,1.2937,,A1LCUPRZ0I8S3I
147,37,,1.0,17.0,2898635428-69104.jpg,2446759803-49250.jpg,1.0,,,,A1LCUPRZ0I8S3I
148,38,,1.0,18.0,2460547467-349422.jpg,2898618440-216545.jpg,1.0,,,,A1LCUPRZ0I8S3I
149,39,,1.0,19.0,2874303365-214262.jpg,2609793677-355397.jpg,1.0,,,,A1LCUPRZ0I8S3I
150,40,,1.0,20.0,2864910426-287204.jpg,2874299429-139694.jpg,2.0,,,,A1LCUPRZ0I8S3I
151,41,,1.0,21.0,2458347385-199723.jpg,2427874554-121863.jpg,2.0,,,,A1LCUPRZ0I8S3I
152,42,,1.0,22.0,2898635427-367120.jpg,2868479517-363220.jpg,2.0,,,,A1LCUPRZ0I8S3I
153,43,,1.0,23.0,2986451363-73599.jpg,2238434559-90406.jpg,3.0,,,,A1LCUPRZ0I8S3I
154,44,,1.0,24.0,2238580740-186218.jpg,2238521193-26285.jpg,2.0,,,,A1LCUPRZ0I8S3I
155,45,,1.0,25.0,2449441881-272368.jpg,2984615358-72439.jpg,2.0,,,,A1LCUPRZ0I8S3I
156,46,,1.0,26.0,2874302418-65979.jpg,2238578544-111698.jpg,3.0,,,,A1LCUPRZ0I8S3I
157,47,,1.0,27.0,2901948350-218459.jpg,2417208001-267065.jpg,2.0,,,,A1LCUPRZ0I8S3I
158,48,,1.0,28.0,2238560245-182099.jpg,2874314526-289684.jpg,2.0,,,,A1LCUPRZ0I8S3I
159,49,right,1.0,29.0,right.jpg,,,right,1.2942,,A1LCUPRZ0I8S3I
160,50,,1.0,30.0,2898618444-142233.jpg,2898618444-142232.jpg,3.0,,,,A1LCUPRZ0I8S3I
161,51,,1.0,31.0,2901939379-143479.jpg,2460547467-349423.jpg,1.0,,,,A1LCUPRZ0I8S3I
162,52,,1.0,32.0,2868475410-213219.jpg,2868474407-362885.jpg,3.0,,,,A1LCUPRZ0I8S3I
163,53,,1.0,33.0,2874299429-139695.jpg,2883266388-67750.jpg,1.0,,,,A1LCUPRZ0I8S3I
164,54,,1.0,34.0,2883256307-365057.jpg,2864904453-63933.jpg,3.0,,,,A1LCUPRZ0I8S3I
165,55,,1.0,35.0,2449442529-124445.jpg,2898632385-217137.jpg,3.0,,,,A1LCUPRZ0I8S3I
166,56,right,1.0,36.0,right.jpg,,,right,1.3601,,A1LCUPRZ0I8S3I
167,57,,1.0,37.0,2874302418-65978.jpg,2238481198-19823.jpg,2.0,,,,A1LCUPRZ0I8S3I
168,58,,1.0,38.0,2964213381-294060.jpg,2964213381-294061.jpg,3.0,,,,A1LCUPRZ0I8S3I
169,59,,1.0,39.0,2898634397-367080.jpg,2901934408-69289.jpg,2.0,,,,A1LCUPRZ0I8S3I
170,60,,1.0,40.0,2446758985-197609.jpg,2981240424-145795.jpg,1.0,,,,A1LCUPRZ0I8S3I
171,61,,1.0,41.0,2883268471-290842.jpg,2883255450-215310.jpg,2.0,,,,A1LCUPRZ0I8S3I
172,62,,1.0,42.0,2981241414-145842.jpg,2427873848-47312.jpg,3.0,,,,A1LCUPRZ0I8S3I
173,63,,1.0,43.0,2883254439-140941.jpg,2981231446-294730.jpg,3.0,,,,A1LCUPRZ0I8S3I
174,64,,1.0,44.0,2452380832-348593.jpg,2238328478-11678.jpg,1.0,,,,A1LCUPRZ0I8S3I
175,65,,1.0,45.0,2238480677-317399.jpg,2238481630-168218.jpg,1.0,,,,A1LCUPRZ0I8S3I
176,66,,1.0,46.0,2452381505-199546.jpg,2238567168-34916.jpg,2.0,,,,A1LCUPRZ0I8S3I
177,67,,1.0,47.0,2575120738-55529.jpg,2898632385-217138.jpg,1.0,,,,A1LCUPRZ0I8S3I
178,68,,1.0,48.0,2449442529-124446.jpg,2898632385-217139.jpg,3.0,,,,A1LCUPRZ0I8S3I
179,69,,1.0,49.0,2981231403-71642.jpg,2427873763-47290.jpg,3.0,,,,A1LCUPRZ0I8S3I
180,70,,1.0,50.0,2864907432-362042.jpg,2901947423-70310.jpg,2.0,,,,A1LCUPRZ0I8S3I
181,71,,1.0,51.0,2592379964-131054.jpg,2575963989-130576.jpg,1.0,,,,A1LCUPRZ0I8S3I
182,72,,1.0,52.0,2874301407-363895.jpg,2901947323-70275.jpg,3.0,,,,A1LCUPRZ0I8S3I
183,73,left,1.0,53.0,left.jpg,,,left,1.3815,,A1LCUPRZ0I8S3I
184,74,,1.0,54.0,2898624426-291546.jpg,2981236443-71859.jpg,2.0,,,,A1LCUPRZ0I8S3I
185,75,,1.0,55.0,2238425482-313537.jpg,2898633480-217190.jpg,3.0,,,,A1LCUPRZ0I8S3I
186,76,,1.0,56.0,2512875899-126682.jpg,2592380177-354628.jpg,2.0,,,,A1LCUPRZ0I8S3I
187,77,,1.0,57.0,2238481198-19822.jpg,2862691449-137104.jpg,1.0,,,,A1LCUPRZ0I8S3I
188,78,,1.0,58.0,2883268412-365898.jpg,2984626312-370849.jpg,1.0,,,,A1LCUPRZ0I8S3I
189,79,,1.0,59.0,2460547508-51571.jpg,2981232437-369759.jpg,2.0,,,,A1LCUPRZ0I8S3I
190,80,,1.0,60.0,2964216465-219242.jpg,2898619327-366362.jpg,3.0,,,,A1LCUPRZ0I8S3I
191,81,,1.0,61.0,2901939379-143480.jpg,2981229442-369621.jpg,2.0,,,,A1LCUPRZ0I8S3I
192,82,,1.0,62.0,2460547467-349421.jpg,2898631394-142727.jpg,1.0,,,,A1LCUPRZ0I8S3I
193,83,,1.0,63.0,2238481928-19949.jpg,2981241419-145844.jpg,3.0,,,,A1LCUPRZ0I8S3I
194,84,,1.0,64.0,2238428357-313623.jpg,2575121987-353817.jpg,3.0,,,,A1LCUPRZ0I8S3I
195,20,,1.0,0.0,2592380177-354626.jpg,2864901386-286797.jpg,2.0,,,,A1OOCYEFLAJD98
196,21,,1.0,1.0,2901941401-292798.jpg,2898618327-366317.jpg,1.0,,,,A1OOCYEFLAJD98
197,22,,1.0,2.0,2964223381-294447.jpg,2901941438-69836.jpg,2.0,,,,A1OOCYEFLAJD98
198,23,,1.0,3.0,2898633421-291973.jpg,2575118671-277663.jpg,2.0,,,,A1OOCYEFLAJD98
199,24,,1.0,4.0,2964218374-144967.jpg,2981231446-294732.jpg,3.0,,,,A1OOCYEFLAJD98
200,25,,1.0,5.0,2874307433-66280.jpg,2986447306-296584.jpg,1.0,,,,A1OOCYEFLAJD98
201,26,,1.0,6.0,2901947423-70311.jpg,2238573447-333826.jpg,2.0,,,,A1OOCYEFLAJD98
202,27,,1.0,7.0,2901952513-70703.jpg,2864907361-287062.jpg,1.0,,,,A1OOCYEFLAJD98
203,28,,1.0,8.0,2446759347-347016.jpg,2238569117-333045.jpg,3.0,,,,A1OOCYEFLAJD98
204,29,,1.0,9.0,2592380177-354629.jpg,2512875587-350044.jpg,3.0,,,,A1OOCYEFLAJD98
205,30,,1.0,10.0,2898618390-216538.jpg,2986449336-296644.jpg,1.0,,,,A1OOCYEFLAJD98
206,31,,1.0,11.0,2446759803-49249.jpg,2446760601-272099.jpg,1.0,,,,A1OOCYEFLAJD98
207,32,,1.0,12.0,2868474407-362883.jpg,2901948383-70363.jpg,3.0,,,,A1OOCYEFLAJD98
208,33,,1.0,13.0,2238572663-35822.jpg,2986419333-73361.jpg,1.0,,,,A1OOCYEFLAJD98
209,34,right,1.0,14.0,right.jpg,,,right,0.6158,,A1OOCYEFLAJD98
210,35,,1.0,15.0,2898617468-68274.jpg,2864906345-212360.jpg,1.0,,,,A1OOCYEFLAJD98
211,36,left,1.0,16.0,left.jpg,,,left,0.6867,,A1OOCYEFLAJD98
212,37,,1.0,17.0,2898635428-69104.jpg,2446759803-49250.jpg,1.0,,,,A1OOCYEFLAJD98
213,38,,1.0,18.0,2460547467-349422.jpg,2898618440-216545.jpg,1.0,,,,A1OOCYEFLAJD98
214,39,,1.0,19.0,2874303365-214262.jpg,2609793677-355397.jpg,1.0,,,,A1OOCYEFLAJD98
215,40,,1.0,20.0,2864910426-287204.jpg,2874299429-139694.jpg,2.0,,,,A1OOCYEFLAJD98
216,41,,1.0,21.0,2458347385-199723.jpg,2427874554-121863.jpg,2.0,,,,A1OOCYEFLAJD98
217,42,,1.0,22.0,2898635427-367120.jpg,2868479517-363220.jpg,2.0,,,,A1OOCYEFLAJD98
218,43,,1.0,23.0,2986451363-73599.jpg,2238434559-90406.jpg,3.0,,,,A1OOCYEFLAJD98
219,44,,1.0,24.0,2238580740-186218.jpg,2238521193-26285.jpg,2.0,,,,A1OOCYEFLAJD98
220,45,,1.0,25.0,2449441881-272368.jpg,2984615358-72439.jpg,2.0,,,,A1OOCYEFLAJD98
221,46,,1.0,26.0,2874302418-65979.jpg,2238578544-111698.jpg,3.0,,,,A1OOCYEFLAJD98
222,47,,1.0,27.0,2901948350-218459.jpg,2417208001-267065.jpg,2.0,,,,A1OOCYEFLAJD98
223,48,,1.0,28.0,2238560245-182099.jpg,2874314526-289684.jpg,2.0,,,,A1OOCYEFLAJD98
224,49,right,1.0,29.0,right.jpg,,,right,0.7828,,A1OOCYEFLAJD98
225,50,,1.0,30.0,2898618444-142233.jpg,2898618444-142232.jpg,3.0,,,,A1OOCYEFLAJD98
226,51,,1.0,31.0,2901939379-143479.jpg,2460547467-349423.jpg,1.0,,,,A1OOCYEFLAJD98
227,52,,1.0,32.0,2868475410-213219.jpg,2868474407-362885.jpg,3.0,,,,A1OOCYEFLAJD98
228,53,,1.0,33.0,2874299429-139695.jpg,2883266388-67750.jpg,1.0,,,,A1OOCYEFLAJD98
229,54,,1.0,34.0,2883256307-365057.jpg,2864904453-63933.jpg,3.0,,,,A1OOCYEFLAJD98
230,55,,1.0,35.0,2449442529-124445.jpg,2898632385-217137.jpg,3.0,,,,A1OOCYEFLAJD98
231,56,right,1.0,36.0,right.jpg,,,right,0.4853,,A1OOCYEFLAJD98
232,57,,1.0,37.0,2874302418-65978.jpg,2238481198-19823.jpg,2.0,,,,A1OOCYEFLAJD98
233,58,,1.0,38.0,2964213381-294060.jpg,2964213381-294061.jpg,3.0,,,,A1OOCYEFLAJD98
234,59,,1.0,39.0,2898634397-367080.jpg,2901934408-69289.jpg,2.0,,,,A1OOCYEFLAJD98
235,60,,1.0,40.0,2446758985-197609.jpg,2981240424-145795.jpg,1.0,,,,A1OOCYEFLAJD98
236,61,,1.0,41.0,2883268471-290842.jpg,2883255450-215310.jpg,2.0,,,,A1OOCYEFLAJD98
237,62,,1.0,42.0,2981241414-145842.jpg,2427873848-47312.jpg,3.0,,,,A1OOCYEFLAJD98
238,63,,1.0,43.0,2883254439-140941.jpg,2981231446-294730.jpg,3.0,,,,A1OOCYEFLAJD98
239,64,,1.0,44.0,2452380832-348593.jpg,2238328478-11678.jpg,1.0,,,,A1OOCYEFLAJD98
240,65,,1.0,45.0,2238480677-317399.jpg,2238481630-168218.jpg,1.0,,,,A1OOCYEFLAJD98
241,66,,1.0,46.0,2452381505-199546.jpg,2238567168-34916.jpg,2.0,,,,A1OOCYEFLAJD98
242,67,,1.0,47.0,2575120738-55529.jpg,2898632385-217138.jpg,1.0,,,,A1OOCYEFLAJD98
243,68,,1.0,48.0,2449442529-124446.jpg,2898632385-217139.jpg,3.0,,,,A1OOCYEFLAJD98
244,69,,1.0,49.0,2981231403-71642.jpg,2427873763-47290.jpg,3.0,,,,A1OOCYEFLAJD98
245,70,,1.0,50.0,2864907432-362042.jpg,2901947423-70310.jpg,2.0,,,,A1OOCYEFLAJD98
246,71,,1.0,51.0,2592379964-131054.jpg,2575963989-130576.jpg,1.0,,,,A1OOCYEFLAJD98
247,72,,1.0,52.0,2874301407-363895.jpg,2901947323-70275.jpg,3.0,,,,A1OOCYEFLAJD98
248,73,left,1.0,53.0,left.jpg,,,left,0.8075,,A1OOCYEFLAJD98
249,74,,1.0,54.0,2898624426-291546.jpg,2981236443-71859.jpg,2.0,,,,A1OOCYEFLAJD98
250,75,,1.0,55.0,2238425482-313537.jpg,2898633480-217190.jpg,3.0,,,,A1OOCYEFLAJD98
251,76,,1.0,56.0,2512875899-126682.jpg,2592380177-354628.jpg,2.0,,,,A1OOCYEFLAJD98
252,77,,1.0,57.0,2238481198-19822.jpg,2862691449-137104.jpg,1.0,,,,A1OOCYEFLAJD98
253,78,,1.0,58.0,2883268412-365898.jpg,2984626312-370849.jpg,1.0,,,,A1OOCYEFLAJD98
254,79,,1.0,59.0,2460547508-51571.jpg,2981232437-369759.jpg,2.0,,,,A1OOCYEFLAJD98
255,80,,1.0,60.0,2964216465-219242.jpg,2898619327-366362.jpg,3.0,,,,A1OOCYEFLAJD98
256,81,,1.0,61.0,2901939379-143480.jpg,2981229442-369621.jpg,2.0,,,,A1OOCYEFLAJD98
257,82,,1.0,62.0,2460547467-349421.jpg,2898631394-142727.jpg,1.0,,,,A1OOCYEFLAJD98
258,83,,1.0,63.0,2238481928-19949.jpg,2981241419-145844.jpg,3.0,,,,A1OOCYEFLAJD98
259,84,,1.0,64.0,2238428357-313623.jpg,2575121987-353817.jpg,3.0,,,,A1OOCYEFLAJD98
260,20,,1.0,0.0,2238580740-186218.jpg,2964220333-71258.jpg,3.0,,,,A1U0FDPQ953KXX
261,21,,1.0,1.0,2460547467-349421.jpg,2452380166-273110.jpg,2.0,,,,A1U0FDPQ953KXX
262,22,,1.0,2.0,2901948350-218459.jpg,2981246360-220352.jpg,3.0,,,,A1U0FDPQ953KXX
263,23,,1.0,3.0,2901941401-292798.jpg,2883273443-68193.jpg,3.0,,,,A1U0FDPQ953KXX
264,24,,1.0,4.0,2592380177-354629.jpg,2512875587-350044.jpg,3.0,,,,A1U0FDPQ953KXX
265,25,,1.0,5.0,2460547508-51571.jpg,2901941438-69835.jpg,3.0,,,,A1U0FDPQ953KXX
266,26,left,1.0,6.0,left.jpg,,,left,1.2299,,A1U0FDPQ953KXX
267,27,,1.0,7.0,2901939379-143479.jpg,2981240424-145794.jpg,3.0,,,,A1U0FDPQ953KXX
268,28,,1.0,8.0,2964218374-144967.jpg,2964218374-144968.jpg,1.0,,,,A1U0FDPQ953KXX
269,29,,1.0,9.0,2238560245-182099.jpg,2549106624-127823.jpg,1.0,,,,A1U0FDPQ953KXX
270,30,,1.0,10.0,2864907432-362042.jpg,2901947423-70310.jpg,2.0,,,,A1U0FDPQ953KXX
271,31,,1.0,11.0,2446759803-49249.jpg,2446760601-272099.jpg,1.0,,,,A1U0FDPQ953KXX
272,32,,1.0,12.0,2460547467-349422.jpg,2898618440-216545.jpg,1.0,,,,A1U0FDPQ953KXX
273,33,,1.0,13.0,2864910426-287204.jpg,2874299429-139694.jpg,2.0,,,,A1U0FDPQ953KXX
274,34,,1.0,14.0,2238425482-313537.jpg,2238471391-240918.jpg,1.0,,,,A1U0FDPQ953KXX
275,35,,1.0,15.0,2874302418-65978.jpg,2898626385-216899.jpg,1.0,,,,A1U0FDPQ953KXX
276,36,,1.0,16.0,2449441881-272368.jpg,2449441881-272367.jpg,3.0,,,,A1U0FDPQ953KXX
277,37,,1.0,17.0,2592380177-354626.jpg,2238117096-228518.jpg,3.0,,,,A1U0FDPQ953KXX
278,38,left,1.0,18.0,left.jpg,,,left,1.4802,,A1U0FDPQ953KXX
279,39,,1.0,19.0,2446759347-347016.jpg,2964224310-219528.jpg,1.0,,,,A1U0FDPQ953KXX
280,40,,1.0,20.0,2458347385-199723.jpg,2427874554-121863.jpg,2.0,,,,A1U0FDPQ953KXX
281,41,,1.0,21.0,2238572663-35822.jpg,2986419333-73361.jpg,1.0,,,,A1U0FDPQ953KXX
282,42,,1.0,22.0,2883254439-140941.jpg,2981231446-294730.jpg,3.0,,,,A1U0FDPQ953KXX
283,43,,1.0,23.0,2575120738-55529.jpg,2575120738-55528.jpg,2.0,,,,A1U0FDPQ953KXX
284,44,,1.0,24.0,2901952513-70703.jpg,2864907361-287062.jpg,1.0,,,,A1U0FDPQ953KXX
285,45,,1.0,25.0,2901947423-70311.jpg,2238577590-185467.jpg,3.0,,,,A1U0FDPQ953KXX
286,46,,1.0,26.0,2874303365-214262.jpg,2609793677-355397.jpg,1.0,,,,A1U0FDPQ953KXX
287,47,right,1.0,27.0,right.jpg,,,right,1.3766,,A1U0FDPQ953KXX
288,48,,1.0,28.0,2981231403-71642.jpg,2981244403-72215.jpg,2.0,,,,A1U0FDPQ953KXX
289,49,,1.0,29.0,2898633421-291973.jpg,2238550049-105691.jpg,3.0,,,,A1U0FDPQ953KXX
290,50,,1.0,30.0,2898635428-69104.jpg,2446759803-49250.jpg,1.0,,,,A1U0FDPQ953KXX
291,51,,1.0,31.0,2964223381-294447.jpg,2898628438-68785.jpg,3.0,,,,A1U0FDPQ953KXX
292,52,,1.0,32.0,2238428357-313623.jpg,2984615361-295509.jpg,2.0,,,,A1U0FDPQ953KXX
293,53,,1.0,33.0,2901939379-143480.jpg,2981229442-369621.jpg,2.0,,,,A1U0FDPQ953KXX
294,54,,1.0,34.0,2883268412-365898.jpg,2238436252-314037.jpg,3.0,,,,A1U0FDPQ953KXX
295,55,,1.0,35.0,2883268471-290842.jpg,2883255450-215310.jpg,2.0,,,,A1U0FDPQ953KXX
296,56,,1.0,36.0,2868474407-362883.jpg,2238516618-25604.jpg,1.0,,,,A1U0FDPQ953KXX
297,57,,1.0,37.0,2964213381-294060.jpg,2981244394-145974.jpg,1.0,,,,A1U0FDPQ953KXX
298,58,,1.0,38.0,2874301407-363895.jpg,2901947323-70275.jpg,3.0,,,,A1U0FDPQ953KXX
299,59,right,1.0,39.0,right.jpg,,,right,1.337,,A1U0FDPQ953KXX
300,60,,1.0,40.0,2238480677-317399.jpg,2238573546-258454.jpg,2.0,,,,A1U0FDPQ953KXX
301,61,,1.0,41.0,2898634397-367080.jpg,2964217461-294238.jpg,3.0,,,,A1U0FDPQ953KXX
302,62,,1.0,42.0,2898624426-291546.jpg,2981236443-71859.jpg,2.0,,,,A1U0FDPQ953KXX
303,63,,1.0,43.0,2512875899-126682.jpg,2460547536-274179.jpg,1.0,,,,A1U0FDPQ953KXX
304,64,,1.0,44.0,2868475410-213219.jpg,2238480803-19739.jpg,2.0,,,,A1U0FDPQ953KXX
305,65,,1.0,45.0,2898635427-367120.jpg,2898621427-366486.jpg,3.0,,,,A1U0FDPQ953KXX
306,66,left,1.0,46.0,left.jpg,,,left,1.1183,,A1U0FDPQ953KXX
307,67,,1.0,47.0,2449442529-124445.jpg,2898632385-217137.jpg,3.0,,,,A1U0FDPQ953KXX
308,68,,1.0,48.0,2898618444-142233.jpg,2898631359-142721.jpg,1.0,,,,A1U0FDPQ953KXX
309,69,,1.0,49.0,2449442529-124446.jpg,2460547536-274181.jpg,2.0,,,,A1U0FDPQ953KXX
310,70,,1.0,50.0,2446758985-197609.jpg,2864909447-362144.jpg,2.0,,,,A1U0FDPQ953KXX
311,71,,1.0,51.0,2964216465-219242.jpg,2864900319-137787.jpg,2.0,,,,A1U0FDPQ953KXX
312,72,,1.0,52.0,2874302418-65979.jpg,2413147898-43548.jpg,1.0,,,,A1U0FDPQ953KXX
313,73,,1.0,53.0,2986451363-73599.jpg,2860302315-210704.jpg,2.0,,,,A1U0FDPQ953KXX
314,74,,1.0,54.0,2874299429-139695.jpg,2883266388-67750.jpg,1.0,,,,A1U0FDPQ953KXX
315,75,,1.0,55.0,2898618390-216538.jpg,2901939327-367670.jpg,2.0,,,,A1U0FDPQ953KXX
316,76,,1.0,56.0,2981241414-145842.jpg,2856919327-359676.jpg,1.0,,,,A1U0FDPQ953KXX
317,77,,1.0,57.0,2874307433-66280.jpg,2981246400-220365.jpg,2.0,,,,A1U0FDPQ953KXX
318,78,,1.0,58.0,2452381505-199546.jpg,2238567168-34916.jpg,2.0,,,,A1U0FDPQ953KXX
319,79,,1.0,59.0,2592379964-131054.jpg,2592380272-354673.jpg,3.0,,,,A1U0FDPQ953KXX
320,80,,1.0,60.0,2238481928-19949.jpg,2864900357-361688.jpg,2.0,,,,A1U0FDPQ953KXX
321,81,,1.0,61.0,2883256307-365057.jpg,2864904453-63933.jpg,3.0,,,,A1U0FDPQ953KXX
322,82,,1.0,62.0,2898617468-68274.jpg,2864906345-212360.jpg,1.0,,,,A1U0FDPQ953KXX
323,83,,1.0,63.0,2452380832-348593.jpg,2449442181-272436.jpg,3.0,,,,A1U0FDPQ953KXX
324,84,,1.0,64.0,2238481198-19822.jpg,2862691449-137104.jpg,1.0,,,,A1U0FDPQ953KXX
325,20,,1.0,0.0,2238572663-35822.jpg,2238571930-184143.jpg,2.0,,,,A2ASRB2MTHDHPD
326,21,,1.0,1.0,2883254439-140941.jpg,2898632385-217136.jpg,2.0,,,,A2ASRB2MTHDHPD
327,22,,1.0,2.0,2446759347-347016.jpg,2238569117-333045.jpg,3.0,,,,A2ASRB2MTHDHPD
328,23,,1.0,3.0,2238481928-19949.jpg,2981241419-145844.jpg,3.0,,,,A2ASRB2MTHDHPD
329,24,,1.0,4.0,2898618390-216538.jpg,2986449336-296644.jpg,1.0,,,,A2ASRB2MTHDHPD
330,25,,1.0,5.0,2864907432-362042.jpg,2901947423-70310.jpg,2.0,,,,A2ASRB2MTHDHPD
331,26,,1.0,6.0,2964223381-294447.jpg,2427874231-269884.jpg,1.0,,,,A2ASRB2MTHDHPD
332,27,,1.0,7.0,2449442529-124446.jpg,2898632385-217139.jpg,3.0,,,,A2ASRB2MTHDHPD
333,28,,1.0,8.0,2981241414-145842.jpg,2427873848-47312.jpg,3.0,,,,A2ASRB2MTHDHPD
334,29,,1.0,9.0,2986451363-73599.jpg,2860302315-210704.jpg,2.0,,,,A2ASRB2MTHDHPD
335,30,right,1.0,10.0,right.jpg,,,right,2.4728,,A2ASRB2MTHDHPD
336,31,,1.0,11.0,2460547467-349422.jpg,2864909447-362146.jpg,3.0,,,,A2ASRB2MTHDHPD
337,32,,1.0,12.0,2901947423-70311.jpg,2860312398-62572.jpg,1.0,,,,A2ASRB2MTHDHPD
338,33,,1.0,13.0,2512875899-126682.jpg,2592380177-354628.jpg,2.0,,,,A2ASRB2MTHDHPD
339,34,,1.0,14.0,2864910426-287204.jpg,2874299429-139694.jpg,2.0,,,,A2ASRB2MTHDHPD
340,35,,1.0,15.0,2874299429-139695.jpg,2901942443-69923.jpg,2.0,,,,A2ASRB2MTHDHPD
341,36,,1.0,16.0,2449441881-272368.jpg,2883268412-365899.jpg,1.0,,,,A2ASRB2MTHDHPD
342,37,,1.0,17.0,2238560245-182099.jpg,2549106624-127823.jpg,1.0,,,,A2ASRB2MTHDHPD
343,38,,1.0,18.0,2458347385-199723.jpg,2427874554-121863.jpg,2.0,,,,A2ASRB2MTHDHPD
344,39,,1.0,19.0,2964218374-144967.jpg,2964218374-144968.jpg,1.0,,,,A2ASRB2MTHDHPD
345,40,,1.0,20.0,2898617468-68274.jpg,2864906345-212360.jpg,1.0,,,,A2ASRB2MTHDHPD
346,41,,1.0,21.0,2460547508-51571.jpg,2460547291-274110.jpg,1.0,,,,A2ASRB2MTHDHPD
347,42,,1.0,22.0,2592379964-131054.jpg,2575963989-130576.jpg,1.0,,,,A2ASRB2MTHDHPD
348,43,left,1.0,23.0,left.jpg,,,left,1.5381,,A2ASRB2MTHDHPD
349,44,,1.0,24.0,2238425482-313537.jpg,2238471391-240918.jpg,1.0,,,,A2ASRB2MTHDHPD
350,45,,1.0,25.0,2575120738-55529.jpg,2238531493-28260.jpg,3.0,,,,A2ASRB2MTHDHPD
351,46,,1.0,26.0,2898618444-142233.jpg,2898618444-142232.jpg,3.0,,,,A2ASRB2MTHDHPD
352,47,left,1.0,27.0,left.jpg,,,left,1.261,,A2ASRB2MTHDHPD
353,48,,1.0,28.0,2874303365-214262.jpg,2609793677-355397.jpg,1.0,,,,A2ASRB2MTHDHPD
354,49,,1.0,29.0,2883256307-365057.jpg,2864904453-63933.jpg,3.0,,,,A2ASRB2MTHDHPD
355,50,,1.0,30.0,2901948350-218459.jpg,2417208001-267065.jpg,2.0,,,,A2ASRB2MTHDHPD
356,51,,1.0,31.0,2592380177-354626.jpg,2864901386-286797.jpg,2.0,,,,A2ASRB2MTHDHPD
357,52,,1.0,32.0,2452380832-348593.jpg,2449442181-272436.jpg,3.0,,,,A2ASRB2MTHDHPD
358,53,,1.0,33.0,2446758985-197609.jpg,2864909447-362144.jpg,2.0,,,,A2ASRB2MTHDHPD
359,54,,1.0,34.0,2868475410-213219.jpg,2868474407-362885.jpg,3.0,,,,A2ASRB2MTHDHPD
360,55,,1.0,35.0,2238481198-19822.jpg,2238480803-19737.jpg,3.0,,,,A2ASRB2MTHDHPD
361,56,,1.0,36.0,2238580740-186218.jpg,2238521193-26285.jpg,2.0,,,,A2ASRB2MTHDHPD
362,57,right,1.0,37.0,right.jpg,,,right,1.5253,,A2ASRB2MTHDHPD
363,58,,1.0,38.0,2868474407-362883.jpg,2901948383-70363.jpg,3.0,,,,A2ASRB2MTHDHPD
364,59,,1.0,39.0,2592380177-354629.jpg,2579432534-130704.jpg,2.0,,,,A2ASRB2MTHDHPD
365,60,,1.0,40.0,2874307433-66280.jpg,2986447306-296584.jpg,1.0,,,,A2ASRB2MTHDHPD
366,61,,1.0,41.0,2238480677-317399.jpg,2238480278-19661.jpg,3.0,,,,A2ASRB2MTHDHPD
367,62,,1.0,42.0,2883268412-365898.jpg,2984615361-295510.jpg,2.0,,,,A2ASRB2MTHDHPD
368,63,,1.0,43.0,2449442529-124445.jpg,2452380171-273112.jpg,1.0,,,,A2ASRB2MTHDHPD
369,64,,1.0,44.0,2898633421-291973.jpg,2575118671-277663.jpg,2.0,,,,A2ASRB2MTHDHPD
370,65,,1.0,45.0,2898634397-367080.jpg,2964217461-294238.jpg,3.0,,,,A2ASRB2MTHDHPD
371,66,,1.0,46.0,2964213381-294060.jpg,2981244394-145974.jpg,1.0,,,,A2ASRB2MTHDHPD
372,67,,1.0,47.0,2901939379-143479.jpg,2460547467-349423.jpg,1.0,,,,A2ASRB2MTHDHPD
373,68,right,1.0,48.0,right.jpg,,,right,1.3593,,A2ASRB2MTHDHPD
374,69,,1.0,49.0,2874301407-363895.jpg,2986397322-371109.jpg,2.0,,,,A2ASRB2MTHDHPD
375,70,,1.0,50.0,2901939379-143480.jpg,2901942428-69919.jpg,1.0,,,,A2ASRB2MTHDHPD
376,71,,1.0,51.0,2460547467-349421.jpg,2898631394-142727.jpg,1.0,,,,A2ASRB2MTHDHPD
377,72,,1.0,52.0,2446759803-49249.jpg,2452380166-273109.jpg,3.0,,,,A2ASRB2MTHDHPD
378,73,,1.0,53.0,2901941401-292798.jpg,2883273443-68193.jpg,3.0,,,,A2ASRB2MTHDHPD
379,74,,1.0,54.0,2981231403-71642.jpg,2274829821-263682.jpg,1.0,,,,A2ASRB2MTHDHPD
380,75,,1.0,55.0,2452381505-199546.jpg,2238567168-34916.jpg,2.0,,,,A2ASRB2MTHDHPD
381,76,,1.0,56.0,2883268471-290842.jpg,2901947448-70314.jpg,3.0,,,,A2ASRB2MTHDHPD
382,77,,1.0,57.0,2874302418-65979.jpg,2238480648-19714.jpg,2.0,,,,A2ASRB2MTHDHPD
383,78,,1.0,58.0,2874302418-65978.jpg,2898626385-216899.jpg,1.0,,,,A2ASRB2MTHDHPD
384,79,,1.0,59.0,2898635428-69104.jpg,2901943411-292945.jpg,2.0,,,,A2ASRB2MTHDHPD
385,80,,1.0,60.0,2238428357-313623.jpg,2575121987-353817.jpg,3.0,,,,A2ASRB2MTHDHPD
386,81,,1.0,61.0,2898635427-367120.jpg,2868479517-363220.jpg,2.0,,,,A2ASRB2MTHDHPD
387,82,,1.0,62.0,2901952513-70703.jpg,2238481198-19821.jpg,3.0,,,,A2ASRB2MTHDHPD
388,83,,1.0,63.0,2898624426-291546.jpg,2964218432-369263.jpg,1.0,,,,A2ASRB2MTHDHPD
389,84,,1.0,64.0,2964216465-219242.jpg,2898619327-366362.jpg,3.0,,,,A2ASRB2MTHDHPD
390,20,,1.0,0.0,2874302418-65979.jpg,2238480648-19714.jpg,2.0,,,,A2M183CETUMR96
391,21,,1.0,1.0,2901941401-292798.jpg,2898618327-366317.jpg,1.0,,,,A2M183CETUMR96
392,22,,1.0,2.0,2898633421-291973.jpg,2575118671-277663.jpg,2.0,,,,A2M183CETUMR96
393,23,,1.0,3.0,2449442529-124446.jpg,2898632385-217139.jpg,3.0,,,,A2M183CETUMR96
394,24,,1.0,4.0,2864907432-362042.jpg,2989726338-74002.jpg,3.0,,,,A2M183CETUMR96
395,25,,1.0,5.0,2981241414-145842.jpg,2427873848-47312.jpg,3.0,,,,A2M183CETUMR96
396,26,,1.0,6.0,2883256307-365057.jpg,2611628310-206388.jpg,1.0,,,,A2M183CETUMR96
397,27,,1.0,7.0,2874299429-139695.jpg,2446760917-347439.jpg,3.0,,,,A2M183CETUMR96
398,28,left,1.0,8.0,left.jpg,,,left,0.4823,,A2M183CETUMR96
399,29,,1.0,9.0,2883254439-140941.jpg,2446760844-124088.jpg,1.0,,,,A2M183CETUMR96
400,30,,1.0,10.0,2449442529-124445.jpg,2898632385-217137.jpg,3.0,,,,A2M183CETUMR96
401,31,,1.0,11.0,2986451363-73599.jpg,2860302315-210704.jpg,2.0,,,,A2M183CETUMR96
402,32,,1.0,12.0,2901939379-143480.jpg,2981229442-369621.jpg,2.0,,,,A2M183CETUMR96
403,33,,1.0,13.0,2238480677-317399.jpg,2238573546-258454.jpg,2.0,,,,A2M183CETUMR96
404,34,,1.0,14.0,2874303365-214262.jpg,2609793677-355397.jpg,1.0,,,,A2M183CETUMR96
405,35,,1.0,15.0,2901947423-70311.jpg,2860312398-62572.jpg,1.0,,,,A2M183CETUMR96
406,36,,1.0,16.0,2901939379-143479.jpg,2981240424-145794.jpg,3.0,,,,A2M183CETUMR96
407,37,,1.0,17.0,2238481928-19949.jpg,2864900357-361688.jpg,2.0,,,,A2M183CETUMR96
408,38,,1.0,18.0,2868474407-362883.jpg,2981246400-220363.jpg,2.0,,,,A2M183CETUMR96
409,39,,1.0,19.0,2864910426-287204.jpg,2901939433-69672.jpg,3.0,,,,A2M183CETUMR96
410,40,,1.0,20.0,2898635428-69104.jpg,2446759803-49250.jpg,1.0,,,,A2M183CETUMR96
411,41,,1.0,21.0,2901952513-70703.jpg,2868469411-287540.jpg,2.0,,,,A2M183CETUMR96
412,42,right,1.0,22.0,right.jpg,,,right,0.5283,,A2M183CETUMR96
413,43,,1.0,23.0,2964213381-294060.jpg,2964213381-294061.jpg,3.0,,,,A2M183CETUMR96
414,44,,1.0,24.0,2874302418-65978.jpg,2898633321-291943.jpg,3.0,,,,A2M183CETUMR96
415,45,,1.0,25.0,2898617468-68274.jpg,2901943387-368037.jpg,2.0,,,,A2M183CETUMR96
416,46,,1.0,26.0,2460547467-349422.jpg,2898618440-216545.jpg,1.0,,,,A2M183CETUMR96
417,47,,1.0,27.0,2238560245-182099.jpg,2238480980-168129.jpg,3.0,,,,A2M183CETUMR96
418,48,right,1.0,28.0,right.jpg,,,right,0.43,,A2M183CETUMR96
419,49,,1.0,29.0,2964218374-144967.jpg,2981231446-294732.jpg,3.0,,,,A2M183CETUMR96
420,50,,1.0,30.0,2883268471-290842.jpg,2883268471-290843.jpg,1.0,,,,A2M183CETUMR96
421,51,,1.0,31.0,2898635427-367120.jpg,2901946439-144040.jpg,1.0,,,,A2M183CETUMR96
422,52,,1.0,32.0,2898624426-291546.jpg,2964218432-369263.jpg,1.0,,,,A2M183CETUMR96
423,53,,1.0,33.0,2460547508-51571.jpg,2981232437-369759.jpg,2.0,,,,A2M183CETUMR96
424,54,,1.0,34.0,2592379964-131054.jpg,2238479053-19457.jpg,2.0,,,,A2M183CETUMR96
425,55,,1.0,35.0,2575120738-55529.jpg,2575120738-55528.jpg,2.0,,,,A2M183CETUMR96
426,56,,1.0,36.0,2446759347-347016.jpg,2964224310-219528.jpg,1.0,,,,A2M183CETUMR96
427,57,,1.0,37.0,2446758985-197609.jpg,2864909447-362144.jpg,2.0,,,,A2M183CETUMR96
428,58,,1.0,38.0,2898634397-367080.jpg,2964217461-294238.jpg,3.0,,,,A2M183CETUMR96
429,59,,1.0,39.0,2238428357-313623.jpg,2238499057-320266.jpg,1.0,,,,A2M183CETUMR96
430,60,,1.0,40.0,2512875899-126682.jpg,2592380177-354628.jpg,2.0,,,,A2M183CETUMR96
431,61,,1.0,41.0,2874301407-363895.jpg,2901947323-70275.jpg,3.0,,,,A2M183CETUMR96
432,62,right,1.0,42.0,right.jpg,,,right,0.4856,,A2M183CETUMR96
433,63,,1.0,43.0,2964223381-294447.jpg,2901941438-69836.jpg,2.0,,,,A2M183CETUMR96
434,64,,1.0,44.0,2238572663-35822.jpg,2986419333-73361.jpg,1.0,,,,A2M183CETUMR96
435,65,,1.0,45.0,2898618390-216538.jpg,2575120609-129862.jpg,3.0,,,,A2M183CETUMR96
436,66,,1.0,46.0,2592380177-354629.jpg,2898633421-291974.jpg,1.0,,,,A2M183CETUMR96
437,67,,1.0,47.0,2449441881-272368.jpg,2984615358-72439.jpg,2.0,,,,A2M183CETUMR96
438,68,,1.0,48.0,2458347385-199723.jpg,2238480434-93829.jpg,1.0,,,,A2M183CETUMR96
439,69,,1.0,49.0,2898618444-142233.jpg,2898618444-142232.jpg,3.0,,,,A2M183CETUMR96
440,70,,1.0,50.0,2452381505-199546.jpg,2901938432-367627.jpg,1.0,,,,A2M183CETUMR96
441,71,,1.0,51.0,2452380832-348593.jpg,2238328478-11678.jpg,1.0,,,,A2M183CETUMR96
442,72,,1.0,52.0,2460547467-349421.jpg,2981235446-294901.jpg,3.0,,,,A2M183CETUMR96
443,73,right,1.0,53.0,right.jpg,,,right,0.4858,,A2M183CETUMR96
444,74,,1.0,54.0,2238425482-313537.jpg,2238471391-240918.jpg,1.0,,,,A2M183CETUMR96
445,75,,1.0,55.0,2592380177-354626.jpg,2986408339-146952.jpg,1.0,,,,A2M183CETUMR96
446,76,,1.0,56.0,2981231403-71642.jpg,2427873763-47290.jpg,3.0,,,,A2M183CETUMR96
447,77,,1.0,57.0,2964216465-219242.jpg,2864900319-137787.jpg,2.0,,,,A2M183CETUMR96
448,78,,1.0,58.0,2238481198-19822.jpg,2901946436-293242.jpg,2.0,,,,A2M183CETUMR96
449,79,,1.0,59.0,2901948350-218459.jpg,2981246360-220352.jpg,3.0,,,,A2M183CETUMR96
450,80,,1.0,60.0,2868475410-213219.jpg,2868474407-362885.jpg,3.0,,,,A2M183CETUMR96
451,81,,1.0,61.0,2874307433-66280.jpg,2981246400-220365.jpg,2.0,,,,A2M183CETUMR96
452,82,,1.0,62.0,2446759803-49249.jpg,2452380166-273109.jpg,3.0,,,,A2M183CETUMR96
453,83,,1.0,63.0,2238580740-186218.jpg,2238550816-254000.jpg,1.0,,,,A2M183CETUMR96
454,84,,1.0,64.0,2883268412-365898.jpg,2984615361-295510.jpg,2.0,,,,A2M183CETUMR96
455,20,,1.0,0.0,2874302418-65979.jpg,2238480648-19714.jpg,2.0,,,,A3JJXDML3XNSQP
456,21,,1.0,1.0,2901941401-292798.jpg,2898618327-366317.jpg,1.0,,,,A3JJXDML3XNSQP
457,22,,1.0,2.0,2898633421-291973.jpg,2575118671-277663.jpg,2.0,,,,A3JJXDML3XNSQP
458,23,,1.0,3.0,2449442529-124446.jpg,2898632385-217139.jpg,3.0,,,,A3JJXDML3XNSQP
459,24,,1.0,4.0,2864907432-362042.jpg,2989726338-74002.jpg,3.0,,,,A3JJXDML3XNSQP
460,25,,1.0,5.0,2981241414-145842.jpg,2427873848-47312.jpg,3.0,,,,A3JJXDML3XNSQP
461,26,,1.0,6.0,2883256307-365057.jpg,2611628310-206388.jpg,1.0,,,,A3JJXDML3XNSQP
462,27,,1.0,7.0,2874299429-139695.jpg,2446760917-347439.jpg,3.0,,,,A3JJXDML3XNSQP
463,28,left,1.0,8.0,left.jpg,,,left,1.367,,A3JJXDML3XNSQP
464,29,,1.0,9.0,2883254439-140941.jpg,2446760844-124088.jpg,1.0,,,,A3JJXDML3XNSQP
465,30,,1.0,10.0,2449442529-124445.jpg,2898632385-217137.jpg,3.0,,,,A3JJXDML3XNSQP
466,31,,1.0,11.0,2986451363-73599.jpg,2860302315-210704.jpg,2.0,,,,A3JJXDML3XNSQP
467,32,,1.0,12.0,2901939379-143480.jpg,2981229442-369621.jpg,2.0,,,,A3JJXDML3XNSQP
468,33,,1.0,13.0,2238480677-317399.jpg,2238573546-258454.jpg,2.0,,,,A3JJXDML3XNSQP
469,34,,1.0,14.0,2874303365-214262.jpg,2609793677-355397.jpg,1.0,,,,A3JJXDML3XNSQP
470,35,,1.0,15.0,2901947423-70311.jpg,2860312398-62572.jpg,1.0,,,,A3JJXDML3XNSQP
471,36,,1.0,16.0,2901939379-143479.jpg,2981240424-145794.jpg,3.0,,,,A3JJXDML3XNSQP
472,37,,1.0,17.0,2238481928-19949.jpg,2864900357-361688.jpg,2.0,,,,A3JJXDML3XNSQP
473,38,,1.0,18.0,2868474407-362883.jpg,2981246400-220363.jpg,2.0,,,,A3JJXDML3XNSQP
474,39,,1.0,19.0,2864910426-287204.jpg,2901939433-69672.jpg,3.0,,,,A3JJXDML3XNSQP
475,40,,1.0,20.0,2898635428-69104.jpg,2446759803-49250.jpg,1.0,,,,A3JJXDML3XNSQP
476,41,,1.0,21.0,2901952513-70703.jpg,2868469411-287540.jpg,2.0,,,,A3JJXDML3XNSQP
477,42,right,1.0,22.0,right.jpg,,,right,2.169,,A3JJXDML3XNSQP
478,43,,1.0,23.0,2964213381-294060.jpg,2964213381-294061.jpg,3.0,,,,A3JJXDML3XNSQP
479,44,,1.0,24.0,2874302418-65978.jpg,2898633321-291943.jpg,3.0,,,,A3JJXDML3XNSQP
480,45,,1.0,25.0,2898617468-68274.jpg,2901943387-368037.jpg,2.0,,,,A3JJXDML3XNSQP
481,46,,1.0,26.0,2460547467-349422.jpg,2898618440-216545.jpg,1.0,,,,A3JJXDML3XNSQP
482,47,,1.0,27.0,2238560245-182099.jpg,2238480980-168129.jpg,3.0,,,,A3JJXDML3XNSQP
483,48,right,1.0,28.0,right.jpg,,,right,1.231,,A3JJXDML3XNSQP
484,49,,1.0,29.0,2964218374-144967.jpg,2981231446-294732.jpg,3.0,,,,A3JJXDML3XNSQP
485,50,,1.0,30.0,2883268471-290842.jpg,2883268471-290843.jpg,1.0,,,,A3JJXDML3XNSQP
486,51,,1.0,31.0,2898635427-367120.jpg,2901946439-144040.jpg,1.0,,,,A3JJXDML3XNSQP
487,52,,1.0,32.0,2898624426-291546.jpg,2964218432-369263.jpg,1.0,,,,A3JJXDML3XNSQP
488,53,,1.0,33.0,2460547508-51571.jpg,2981232437-369759.jpg,2.0,,,,A3JJXDML3XNSQP
489,54,,1.0,34.0,2592379964-131054.jpg,2238479053-19457.jpg,2.0,,,,A3JJXDML3XNSQP
490,55,,1.0,35.0,2575120738-55529.jpg,2575120738-55528.jpg,2.0,,,,A3JJXDML3XNSQP
491,56,,1.0,36.0,2446759347-347016.jpg,2964224310-219528.jpg,1.0,,,,A3JJXDML3XNSQP
492,57,,1.0,37.0,2446758985-197609.jpg,2864909447-362144.jpg,2.0,,,,A3JJXDML3XNSQP
493,58,,1.0,38.0,2898634397-367080.jpg,2964217461-294238.jpg,3.0,,,,A3JJXDML3XNSQP
494,59,,1.0,39.0,2238428357-313623.jpg,2238499057-320266.jpg,1.0,,,,A3JJXDML3XNSQP
495,60,,1.0,40.0,2512875899-126682.jpg,2592380177-354628.jpg,2.0,,,,A3JJXDML3XNSQP
496,61,,1.0,41.0,2874301407-363895.jpg,2901947323-70275.jpg,3.0,,,,A3JJXDML3XNSQP
497,62,right,1.0,42.0,right.jpg,,,right,0.997,,A3JJXDML3XNSQP
498,63,,1.0,43.0,2964223381-294447.jpg,2901941438-69836.jpg,2.0,,,,A3JJXDML3XNSQP
499,64,,1.0,44.0,2238572663-35822.jpg,2986419333-73361.jpg,1.0,,,,A3JJXDML3XNSQP
500,65,,1.0,45.0,2898618390-216538.jpg,2575120609-129862.jpg,3.0,,,,A3JJXDML3XNSQP
501,66,,1.0,46.0,2592380177-354629.jpg,2898633421-291974.jpg,1.0,,,,A3JJXDML3XNSQP
502,67,,1.0,47.0,2449441881-272368.jpg,2984615358-72439.jpg,2.0,,,,A3JJXDML3XNSQP
503,68,,1.0,48.0,2458347385-199723.jpg,2238480434-93829.jpg,1.0,,,,A3JJXDML3XNSQP
504,69,,1.0,49.0,2898618444-142233.jpg,2898618444-142232.jpg,3.0,,,,A3JJXDML3XNSQP
505,70,,1.0,50.0,2452381505-199546.jpg,2901938432-367627.jpg,1.0,,,,A3JJXDML3XNSQP
506,71,,1.0,51.0,2452380832-348593.jpg,2238328478-11678.jpg,1.0,,,,A3JJXDML3XNSQP
507,72,,1.0,52.0,2460547467-349421.jpg,2981235446-294901.jpg,3.0,,,,A3JJXDML3XNSQP
508,73,right,1.0,53.0,right.jpg,,,right,1.092,,A3JJXDML3XNSQP
509,74,,1.0,54.0,2238425482-313537.jpg,2238471391-240918.jpg,1.0,,,,A3JJXDML3XNSQP
510,75,,1.0,55.0,2592380177-354626.jpg,2986408339-146952.jpg,1.0,,,,A3JJXDML3XNSQP
511,76,,1.0,56.0,2981231403-71642.jpg,2427873763-47290.jpg,3.0,,,,A3JJXDML3XNSQP
512,77,,1.0,57.0,2964216465-219242.jpg,2864900319-137787.jpg,2.0,,,,A3JJXDML3XNSQP
513,78,,1.0,58.0,2238481198-19822.jpg,2901946436-293242.jpg,2.0,,,,A3JJXDML3XNSQP
514,79,,1.0,59.0,2901948350-218459.jpg,2981246360-220352.jpg,3.0,,,,A3JJXDML3XNSQP
515,80,,1.0,60.0,2868475410-213219.jpg,2868474407-362885.jpg,3.0,,,,A3JJXDML3XNSQP
516,81,,1.0,61.0,2874307433-66280.jpg,2981246400-220365.jpg,2.0,,,,A3JJXDML3XNSQP
517,82,,1.0,62.0,2446759803-49249.jpg,2452380166-273109.jpg,3.0,,,,A3JJXDML3XNSQP
518,83,,1.0,63.0,2238580740-186218.jpg,2238550816-254000.jpg,1.0,,,,A3JJXDML3XNSQP
519,84,,1.0,64.0,2883268412-365898.jpg,2984615361-295510.jpg,2.0,,,,A3JJXDML3XNSQP
520,20,,1.0,0.0,2460547467-349421.jpg,2452380166-273110.jpg,2.0,,,,A3RDT5DH21PVAR
521,21,,1.0,1.0,2460547467-349422.jpg,2864909447-362146.jpg,3.0,,,,A3RDT5DH21PVAR
522,22,,1.0,2.0,2868475410-213219.jpg,2868474407-362885.jpg,3.0,,,,A3RDT5DH21PVAR
523,23,,1.0,3.0,2898635427-367120.jpg,2901946439-144040.jpg,1.0,,,,A3RDT5DH21PVAR
524,24,,1.0,4.0,2592380177-354629.jpg,2512875587-350044.jpg,3.0,,,,A3RDT5DH21PVAR
525,25,,1.0,5.0,2883268412-365898.jpg,2238436252-314037.jpg,3.0,,,,A3RDT5DH21PVAR
526,26,,1.0,6.0,2238481928-19949.jpg,2981241419-145844.jpg,3.0,,,,A3RDT5DH21PVAR
527,27,,1.0,7.0,2575120738-55529.jpg,2575120738-55528.jpg,2.0,,,,A3RDT5DH21PVAR
528,28,,1.0,8.0,2898618390-216538.jpg,2901939327-367670.jpg,2.0,,,,A3RDT5DH21PVAR
529,29,,1.0,9.0,2452381505-199546.jpg,2901938432-367627.jpg,1.0,,,,A3RDT5DH21PVAR
530,30,,1.0,10.0,2964218374-144967.jpg,2981231446-294732.jpg,3.0,,,,A3RDT5DH21PVAR
531,31,,1.0,11.0,2883254439-140941.jpg,2898632385-217136.jpg,2.0,,,,A3RDT5DH21PVAR
532,32,,1.0,12.0,2592379964-131054.jpg,2592380272-354673.jpg,3.0,,,,A3RDT5DH21PVAR
533,33,left,1.0,13.0,left.jpg,,,left,1.3514,,A3RDT5DH21PVAR
534,34,,1.0,14.0,2898634397-367080.jpg,2964217461-294238.jpg,3.0,,,,A3RDT5DH21PVAR
535,35,,1.0,15.0,2864907432-362042.jpg,2901947423-70310.jpg,2.0,,,,A3RDT5DH21PVAR
536,36,,1.0,16.0,2874299429-139695.jpg,2901942443-69923.jpg,2.0,,,,A3RDT5DH21PVAR
537,37,,1.0,17.0,2981241414-145842.jpg,2427873848-47312.jpg,3.0,,,,A3RDT5DH21PVAR
538,38,,1.0,18.0,2883268471-290842.jpg,2901947448-70314.jpg,3.0,,,,A3RDT5DH21PVAR
539,39,,1.0,19.0,2964213381-294060.jpg,2981244394-145974.jpg,1.0,,,,A3RDT5DH21PVAR
540,40,,1.0,20.0,2452380832-348593.jpg,2449442181-272436.jpg,3.0,,,,A3RDT5DH21PVAR
541,41,,1.0,21.0,2964216465-219242.jpg,2864900319-137787.jpg,2.0,,,,A3RDT5DH21PVAR
542,42,,1.0,22.0,2901941401-292798.jpg,2981243412-370222.jpg,2.0,,,,A3RDT5DH21PVAR
543,43,left,1.0,23.0,left.jpg,,,left,0.9234,,A3RDT5DH21PVAR
544,44,,1.0,24.0,2874301407-363895.jpg,2883264368-67631.jpg,1.0,,,,A3RDT5DH21PVAR
545,45,,1.0,25.0,2238560245-182099.jpg,2549106624-127823.jpg,1.0,,,,A3RDT5DH21PVAR
546,46,,1.0,26.0,2986451363-73599.jpg,2901939327-367669.jpg,1.0,,,,A3RDT5DH21PVAR
547,47,,1.0,27.0,2446759347-347016.jpg,2964224310-219528.jpg,1.0,,,,A3RDT5DH21PVAR
548,48,,1.0,28.0,2238428357-313623.jpg,2238499057-320266.jpg,1.0,,,,A3RDT5DH21PVAR
549,49,,1.0,29.0,2901947423-70311.jpg,2238577590-185467.jpg,3.0,,,,A3RDT5DH21PVAR
550,50,,1.0,30.0,2238481198-19822.jpg,2862691449-137104.jpg,1.0,,,,A3RDT5DH21PVAR
551,51,,1.0,31.0,2901939379-143480.jpg,2901938432-367629.jpg,3.0,,,,A3RDT5DH21PVAR
552,52,left,1.0,32.0,left.jpg,,,left,1.4316,,A3RDT5DH21PVAR
553,53,,1.0,33.0,2874302418-65978.jpg,2898633321-291943.jpg,3.0,,,,A3RDT5DH21PVAR
554,54,,1.0,34.0,2901948350-218459.jpg,2417208001-267065.jpg,2.0,,,,A3RDT5DH21PVAR
555,55,,1.0,35.0,2883256307-365057.jpg,2864904453-63933.jpg,3.0,,,,A3RDT5DH21PVAR
556,56,,1.0,36.0,2901952513-70703.jpg,2238481198-19821.jpg,3.0,,,,A3RDT5DH21PVAR
557,57,,1.0,37.0,2864910426-287204.jpg,2874299429-139694.jpg,2.0,,,,A3RDT5DH21PVAR
558,58,,1.0,38.0,2446758985-197609.jpg,2864909447-362144.jpg,2.0,,,,A3RDT5DH21PVAR
559,59,left,0.0,39.0,right.jpg,,,right,1.008,,A3RDT5DH21PVAR
560,60,,1.0,40.0,2446759803-49249.jpg,2446760601-272099.jpg,1.0,,,,A3RDT5DH21PVAR
561,61,,1.0,41.0,2238425482-313537.jpg,2238436322-314047.jpg,2.0,,,,A3RDT5DH21PVAR
562,62,,1.0,42.0,2901939379-143479.jpg,2460547467-349423.jpg,1.0,,,,A3RDT5DH21PVAR
563,63,,1.0,43.0,2898624426-291546.jpg,2981236443-71859.jpg,2.0,,,,A3RDT5DH21PVAR
564,64,,1.0,44.0,2238572663-35822.jpg,2986419333-73361.jpg,1.0,,,,A3RDT5DH21PVAR
565,65,,1.0,45.0,2874302418-65979.jpg,2238480648-19714.jpg,2.0,,,,A3RDT5DH21PVAR
566,66,,1.0,46.0,2449442529-124445.jpg,2452380171-273112.jpg,1.0,,,,A3RDT5DH21PVAR
567,67,,1.0,47.0,2449441881-272368.jpg,2984615358-72439.jpg,2.0,,,,A3RDT5DH21PVAR
568,68,right,1.0,48.0,right.jpg,,,right,1.0094,,A3RDT5DH21PVAR
569,69,,1.0,49.0,2512875899-126682.jpg,2986447332-371497.jpg,3.0,,,,A3RDT5DH21PVAR
570,70,,1.0,50.0,2449442529-124446.jpg,2446759803-49251.jpg,1.0,,,,A3RDT5DH21PVAR
571,71,,1.0,51.0,2874303365-214262.jpg,2238563377-332054.jpg,2.0,,,,A3RDT5DH21PVAR
572,72,,1.0,52.0,2460547508-51571.jpg,2981232437-369759.jpg,2.0,,,,A3RDT5DH21PVAR
573,73,,1.0,53.0,2898618444-142233.jpg,2238555262-330312.jpg,2.0,,,,A3RDT5DH21PVAR
574,74,,1.0,54.0,2868474407-362883.jpg,2901948383-70363.jpg,3.0,,,,A3RDT5DH21PVAR
575,75,,1.0,55.0,2898617468-68274.jpg,2864906345-212360.jpg,1.0,,,,A3RDT5DH21PVAR
576,76,,1.0,56.0,2238580740-186218.jpg,2238521193-26285.jpg,2.0,,,,A3RDT5DH21PVAR
577,77,,1.0,57.0,2592380177-354626.jpg,2986408339-146952.jpg,1.0,,,,A3RDT5DH21PVAR
578,78,,1.0,58.0,2981231403-71642.jpg,2274829821-263682.jpg,1.0,,,,A3RDT5DH21PVAR
579,79,,1.0,59.0,2898633421-291973.jpg,2575118671-277663.jpg,2.0,,,,A3RDT5DH21PVAR
580,80,,1.0,60.0,2964223381-294447.jpg,2898628438-68785.jpg,3.0,,,,A3RDT5DH21PVAR
581,81,,1.0,61.0,2458347385-199723.jpg,2238480434-93829.jpg,1.0,,,,A3RDT5DH21PVAR
582,82,,1.0,62.0,2238480677-317399.jpg,2238481630-168218.jpg,1.0,,,,A3RDT5DH21PVAR
583,83,,1.0,63.0,2898635428-69104.jpg,2898625336-291572.jpg,3.0,,,,A3RDT5DH21PVAR
584,84,,1.0,64.0,2874307433-66280.jpg,2986447306-296584.jpg,1.0,,,,A3RDT5DH21PVAR
585,20,,1.0,0.0,2898624426-291546.jpg,2964218432-369263.jpg,1.0,,,,A3VHDQR8A9JJ4F
586,21,,1.0,1.0,2238572663-35822.jpg,2986419333-73361.jpg,1.0,,,,A3VHDQR8A9JJ4F
587,22,,1.0,2.0,2874302418-65978.jpg,2238481198-19823.jpg,2.0,,,,A3VHDQR8A9JJ4F
588,23,,1.0,3.0,2898618390-216538.jpg,2575120609-129862.jpg,3.0,,,,A3VHDQR8A9JJ4F
589,24,,1.0,4.0,2238425482-313537.jpg,2238471391-240918.jpg,1.0,,,,A3VHDQR8A9JJ4F
590,25,,1.0,5.0,2592380177-354629.jpg,2579432534-130704.jpg,2.0,,,,A3VHDQR8A9JJ4F
591,26,,1.0,6.0,2238480677-317399.jpg,2238573546-258454.jpg,2.0,,,,A3VHDQR8A9JJ4F
592,27,,1.0,7.0,2868474407-362883.jpg,2981246400-220363.jpg,2.0,,,,A3VHDQR8A9JJ4F
593,28,,1.0,8.0,2460547508-51571.jpg,2981232437-369759.jpg,2.0,,,,A3VHDQR8A9JJ4F
594,29,,1.0,9.0,2986451363-73599.jpg,2901939327-367669.jpg,1.0,,,,A3VHDQR8A9JJ4F
595,30,left,1.0,10.0,left.jpg,,,left,0.7039,,A3VHDQR8A9JJ4F
596,31,,1.0,11.0,2874302418-65979.jpg,2413147898-43548.jpg,1.0,,,,A3VHDQR8A9JJ4F
597,32,,1.0,12.0,2458347385-199723.jpg,2238480434-93829.jpg,1.0,,,,A3VHDQR8A9JJ4F
598,33,,1.0,13.0,2446759803-49249.jpg,2446760601-272099.jpg,1.0,,,,A3VHDQR8A9JJ4F
599,34,,1.0,14.0,2592379964-131054.jpg,2575963989-130576.jpg,1.0,,,,A3VHDQR8A9JJ4F
600,35,,1.0,15.0,2864907432-362042.jpg,2989726338-74002.jpg,3.0,,,,A3VHDQR8A9JJ4F
601,36,,1.0,16.0,2460547467-349422.jpg,2864909447-362146.jpg,3.0,,,,A3VHDQR8A9JJ4F
602,37,left,1.0,17.0,left.jpg,,,left,0.5064,,A3VHDQR8A9JJ4F
603,38,,1.0,18.0,2512875899-126682.jpg,2460547536-274179.jpg,1.0,,,,A3VHDQR8A9JJ4F
604,39,,1.0,19.0,2238580740-186218.jpg,2238550816-254000.jpg,1.0,,,,A3VHDQR8A9JJ4F
605,40,,1.0,20.0,2449442529-124446.jpg,2898632385-217139.jpg,3.0,,,,A3VHDQR8A9JJ4F
606,41,,1.0,21.0,2898635427-367120.jpg,2898621427-366486.jpg,3.0,,,,A3VHDQR8A9JJ4F
607,42,,1.0,22.0,2460547467-349421.jpg,2452380166-273110.jpg,2.0,,,,A3VHDQR8A9JJ4F
608,43,,1.0,23.0,2868475410-213219.jpg,2238480803-19739.jpg,2.0,,,,A3VHDQR8A9JJ4F
609,44,,1.0,24.0,2901941401-292798.jpg,2883273443-68193.jpg,3.0,,,,A3VHDQR8A9JJ4F
610,45,,1.0,25.0,2883256307-365057.jpg,2964210336-293945.jpg,2.0,,,,A3VHDQR8A9JJ4F
611,46,,1.0,26.0,2449442529-124445.jpg,2986408373-73286.jpg,2.0,,,,A3VHDQR8A9JJ4F
612,47,,1.0,27.0,2874301407-363895.jpg,2986397322-371109.jpg,2.0,,,,A3VHDQR8A9JJ4F
613,48,,1.0,28.0,2238481198-19822.jpg,2862691449-137104.jpg,1.0,,,,A3VHDQR8A9JJ4F
614,49,,1.0,29.0,2592380177-354626.jpg,2238117096-228518.jpg,3.0,,,,A3VHDQR8A9JJ4F
615,50,,1.0,30.0,2898618444-142233.jpg,2238555262-330312.jpg,2.0,,,,A3VHDQR8A9JJ4F
616,51,right,1.0,31.0,right.jpg,,,right,0.7154,,A3VHDQR8A9JJ4F
617,52,,1.0,32.0,2238428357-313623.jpg,2575121987-353817.jpg,3.0,,,,A3VHDQR8A9JJ4F
618,53,,1.0,33.0,2452381505-199546.jpg,2994401319-148290.jpg,3.0,,,,A3VHDQR8A9JJ4F
619,54,,1.0,34.0,2898633421-291973.jpg,2238550049-105691.jpg,3.0,,,,A3VHDQR8A9JJ4F
620,55,,1.0,35.0,2874303365-214262.jpg,2864911457-362260.jpg,3.0,,,,A3VHDQR8A9JJ4F
621,56,,1.0,36.0,2864910426-287204.jpg,2874299429-139694.jpg,2.0,,,,A3VHDQR8A9JJ4F
622,57,,1.0,37.0,2964218374-144967.jpg,2964218374-144968.jpg,1.0,,,,A3VHDQR8A9JJ4F
623,58,,1.0,38.0,2964216465-219242.jpg,2864900319-137787.jpg,2.0,,,,A3VHDQR8A9JJ4F
624,59,left,1.0,39.0,left.jpg,,,left,0.5386,,A3VHDQR8A9JJ4F
625,60,,1.0,40.0,2981231403-71642.jpg,2274829821-263682.jpg,1.0,,,,A3VHDQR8A9JJ4F
626,61,,1.0,41.0,2901952513-70703.jpg,2864907361-287062.jpg,1.0,,,,A3VHDQR8A9JJ4F
627,62,,1.0,42.0,2981241414-145842.jpg,2427873848-47312.jpg,3.0,,,,A3VHDQR8A9JJ4F
628,63,,1.0,43.0,2883254439-140941.jpg,2898632385-217136.jpg,2.0,,,,A3VHDQR8A9JJ4F
629,64,,1.0,44.0,2449441881-272368.jpg,2449441881-272367.jpg,3.0,,,,A3VHDQR8A9JJ4F
630,65,,1.0,45.0,2238560245-182099.jpg,2238480980-168129.jpg,3.0,,,,A3VHDQR8A9JJ4F
631,66,,1.0,46.0,2898634397-367080.jpg,2964217461-294238.jpg,3.0,,,,A3VHDQR8A9JJ4F
632,67,,1.0,47.0,2452380832-348593.jpg,2238328478-11678.jpg,1.0,,,,A3VHDQR8A9JJ4F
633,68,,1.0,48.0,2874307433-66280.jpg,2981246400-220365.jpg,2.0,,,,A3VHDQR8A9JJ4F
634,69,,1.0,49.0,2883268471-290842.jpg,2901947448-70314.jpg,3.0,,,,A3VHDQR8A9JJ4F
635,70,,1.0,50.0,2901948350-218459.jpg,2804906319-133082.jpg,1.0,,,,A3VHDQR8A9JJ4F
636,71,,1.0,51.0,2575120738-55529.jpg,2238531493-28260.jpg,3.0,,,,A3VHDQR8A9JJ4F
637,72,,1.0,52.0,2238481928-19949.jpg,2883264367-365620.jpg,1.0,,,,A3VHDQR8A9JJ4F
638,73,right,1.0,53.0,right.jpg,,,right,0.6389,,A3VHDQR8A9JJ4F
639,74,,1.0,54.0,2901947423-70311.jpg,2238577590-185467.jpg,3.0,,,,A3VHDQR8A9JJ4F
640,75,,1.0,55.0,2446759347-347016.jpg,2901951350-218702.jpg,2.0,,,,A3VHDQR8A9JJ4F
641,76,,1.0,56.0,2964213381-294060.jpg,2458348012-349114.jpg,2.0,,,,A3VHDQR8A9JJ4F
642,77,,1.0,57.0,2901939379-143480.jpg,2981229442-369621.jpg,2.0,,,,A3VHDQR8A9JJ4F
643,78,,1.0,58.0,2901939379-143479.jpg,2981240424-145794.jpg,3.0,,,,A3VHDQR8A9JJ4F
644,79,,1.0,59.0,2446758985-197609.jpg,2981240424-145795.jpg,1.0,,,,A3VHDQR8A9JJ4F
645,80,,1.0,60.0,2964223381-294447.jpg,2427874231-269884.jpg,1.0,,,,A3VHDQR8A9JJ4F
646,81,,1.0,61.0,2883268412-365898.jpg,2984626312-370849.jpg,1.0,,,,A3VHDQR8A9JJ4F
647,82,,1.0,62.0,2898617468-68274.jpg,2901943387-368037.jpg,2.0,,,,A3VHDQR8A9JJ4F
648,83,,1.0,63.0,2874299429-139695.jpg,2901942443-69923.jpg,2.0,,,,A3VHDQR8A9JJ4F
649,84,,1.0,64.0,2898635428-69104.jpg,2898625336-291572.jpg,3.0,,,,A3VHDQR8A9JJ4F
650,20,,1.0,0.0,2864907432-362042.jpg,2901947423-70310.jpg,2.0,,,,A98E8M4QLI9RS
651,21,,1.0,1.0,2898617468-68274.jpg,2864906345-212360.jpg,1.0,,,,A98E8M4QLI9RS
652,22,,1.0,2.0,2238425482-313537.jpg,2238436322-314047.jpg,2.0,,,,A98E8M4QLI9RS
653,23,,1.0,3.0,2964218374-144967.jpg,2981231446-294732.jpg,3.0,,,,A98E8M4QLI9RS
654,24,,1.0,4.0,2864910426-287204.jpg,2874299429-139694.jpg,2.0,,,,A98E8M4QLI9RS
655,25,,1.0,5.0,2901939379-143480.jpg,2901938432-367629.jpg,3.0,,,,A98E8M4QLI9RS
656,26,right,1.0,6.0,right.jpg,,,right,0.626,,A98E8M4QLI9RS
657,27,,1.0,7.0,2964213381-294060.jpg,2981244394-145974.jpg,1.0,,,,A98E8M4QLI9RS
658,28,,1.0,8.0,2449442529-124445.jpg,2898632385-217137.jpg,3.0,,,,A98E8M4QLI9RS
659,29,,1.0,9.0,2883256307-365057.jpg,2964210336-293945.jpg,2.0,,,,A98E8M4QLI9RS
660,30,,1.0,10.0,2238480677-317399.jpg,2238573546-258454.jpg,2.0,,,,A98E8M4QLI9RS
661,31,,1.0,11.0,2238560245-182099.jpg,2549106624-127823.jpg,1.0,,,,A98E8M4QLI9RS
662,32,,1.0,12.0,2238572663-35822.jpg,2864903351-286874.jpg,3.0,,,,A98E8M4QLI9RS
663,33,,1.0,13.0,2901948350-218459.jpg,2804906319-133082.jpg,1.0,,,,A98E8M4QLI9RS
664,34,,1.0,14.0,2883268471-290842.jpg,2883255450-215310.jpg,2.0,,,,A98E8M4QLI9RS
665,35,,1.0,15.0,2901939379-143479.jpg,2460547467-349423.jpg,1.0,,,,A98E8M4QLI9RS
666,36,,1.0,16.0,2981241414-145842.jpg,2856919327-359676.jpg,1.0,,,,A98E8M4QLI9RS
667,37,,1.0,17.0,2964216465-219242.jpg,2238544191-252422.jpg,1.0,,,,A98E8M4QLI9RS
668,38,,1.0,18.0,2901947423-70311.jpg,2860312398-62572.jpg,1.0,,,,A98E8M4QLI9RS
669,39,,1.0,19.0,2898634397-367080.jpg,2901934408-69289.jpg,2.0,,,,A98E8M4QLI9RS
670,40,,1.0,20.0,2898624426-291546.jpg,2964218432-369263.jpg,1.0,,,,A98E8M4QLI9RS
671,41,right,1.0,21.0,right.jpg,,,right,0.501,,A98E8M4QLI9RS
672,42,,1.0,22.0,2874302418-65979.jpg,2238578544-111698.jpg,3.0,,,,A98E8M4QLI9RS
673,43,,1.0,23.0,2460547508-51571.jpg,2901941438-69835.jpg,3.0,,,,A98E8M4QLI9RS
674,44,,1.0,24.0,2883254439-140941.jpg,2981231446-294730.jpg,3.0,,,,A98E8M4QLI9RS
675,45,,1.0,25.0,2901941401-292798.jpg,2883273443-68193.jpg,3.0,,,,A98E8M4QLI9RS
676,46,,1.0,26.0,2446759347-347016.jpg,2964224310-219528.jpg,1.0,,,,A98E8M4QLI9RS
677,47,,1.0,27.0,2452380832-348593.jpg,2449442181-272436.jpg,3.0,,,,A98E8M4QLI9RS
678,48,,1.0,28.0,2898635428-69104.jpg,2898625336-291572.jpg,3.0,,,,A98E8M4QLI9RS
679,49,,1.0,29.0,2458347385-199723.jpg,2458347252-348911.jpg,3.0,,,,A98E8M4QLI9RS
680,50,,1.0,30.0,2592380177-354626.jpg,2864901386-286797.jpg,2.0,,,,A98E8M4QLI9RS
681,51,,1.0,31.0,2238428357-313623.jpg,2575121987-353817.jpg,3.0,,,,A98E8M4QLI9RS
682,52,left,1.0,32.0,left.jpg,,,left,0.583,,A98E8M4QLI9RS
683,53,,1.0,33.0,2592380177-354629.jpg,2898633421-291974.jpg,1.0,,,,A98E8M4QLI9RS
684,54,,1.0,34.0,2898635427-367120.jpg,2901946439-144040.jpg,1.0,,,,A98E8M4QLI9RS
685,55,,1.0,35.0,2901952513-70703.jpg,2238481198-19821.jpg,3.0,,,,A98E8M4QLI9RS
686,56,left,1.0,36.0,left.jpg,,,left,0.633,,A98E8M4QLI9RS
687,57,,1.0,37.0,2868475410-213219.jpg,2901946465-218350.jpg,1.0,,,,A98E8M4QLI9RS
688,58,,1.0,38.0,2898618444-142233.jpg,2238555262-330312.jpg,2.0,,,,A98E8M4QLI9RS
689,59,,1.0,39.0,2883268412-365898.jpg,2984615361-295510.jpg,2.0,,,,A98E8M4QLI9RS
690,60,,1.0,40.0,2446759803-49249.jpg,2898618440-216547.jpg,2.0,,,,A98E8M4QLI9RS
691,61,,1.0,41.0,2460547467-349422.jpg,2864909447-362146.jpg,3.0,,,,A98E8M4QLI9RS
692,62,,1.0,42.0,2460547467-349421.jpg,2452380166-273110.jpg,2.0,,,,A98E8M4QLI9RS
693,63,,1.0,43.0,2874302418-65978.jpg,2898633321-291943.jpg,3.0,,,,A98E8M4QLI9RS
694,64,,1.0,44.0,2981231403-71642.jpg,2427873763-47290.jpg,3.0,,,,A98E8M4QLI9RS
695,65,,1.0,45.0,2964223381-294447.jpg,2901941438-69836.jpg,2.0,,,,A98E8M4QLI9RS
696,66,,1.0,46.0,2874301407-363895.jpg,2986397322-371109.jpg,2.0,,,,A98E8M4QLI9RS
697,67,,1.0,47.0,2874303365-214262.jpg,2609793677-355397.jpg,1.0,,,,A98E8M4QLI9RS
698,68,,1.0,48.0,2452381505-199546.jpg,2901938432-367627.jpg,1.0,,,,A98E8M4QLI9RS
699,69,,1.0,49.0,2238580740-186218.jpg,2964220333-71258.jpg,3.0,,,,A98E8M4QLI9RS
700,70,,1.0,50.0,2449441881-272368.jpg,2883268412-365899.jpg,1.0,,,,A98E8M4QLI9RS
701,71,,1.0,51.0,2449442529-124446.jpg,2446759803-49251.jpg,1.0,,,,A98E8M4QLI9RS
702,72,right,1.0,52.0,right.jpg,,,right,0.618,,A98E8M4QLI9RS
703,73,,1.0,53.0,2874299429-139695.jpg,2446760917-347439.jpg,3.0,,,,A98E8M4QLI9RS
704,74,,1.0,54.0,2575120738-55529.jpg,2238531493-28260.jpg,3.0,,,,A98E8M4QLI9RS
705,75,,1.0,55.0,2512875899-126682.jpg,2460547536-274179.jpg,1.0,,,,A98E8M4QLI9RS
706,76,,1.0,56.0,2898633421-291973.jpg,2575118671-277663.jpg,2.0,,,,A98E8M4QLI9RS
707,77,,1.0,57.0,2898618390-216538.jpg,2901939327-367670.jpg,2.0,,,,A98E8M4QLI9RS
708,78,,1.0,58.0,2238481198-19822.jpg,2901946436-293242.jpg,2.0,,,,A98E8M4QLI9RS
709,79,,1.0,59.0,2592379964-131054.jpg,2575963989-130576.jpg,1.0,,,,A98E8M4QLI9RS
710,80,,1.0,60.0,2874307433-66280.jpg,2981246400-220365.jpg,2.0,,,,A98E8M4QLI9RS
711,81,,1.0,61.0,2238481928-19949.jpg,2864900357-361688.jpg,2.0,,,,A98E8M4QLI9RS
712,82,,1.0,62.0,2446758985-197609.jpg,2864909447-362144.jpg,2.0,,,,A98E8M4QLI9RS
713,83,,1.0,63.0,2986451363-73599.jpg,2238434559-90406.jpg,3.0,,,,A98E8M4QLI9RS
714,84,,1.0,64.0,2868474407-362883.jpg,2238516618-25604.jpg,1.0,,,,A98E8M4QLI9RS
715,20,,1.0,0.0,2238481928-19949.jpg,2864900357-361688.jpg,2.0,,,,AE33JO53WTHZQ
716,21,,1.0,1.0,2238572663-35822.jpg,2986419333-73361.jpg,1.0,,,,AE33JO53WTHZQ
717,22,,1.0,2.0,2460547508-51571.jpg,2901941438-69835.jpg,3.0,,,,AE33JO53WTHZQ
718,23,,1.0,3.0,2901948350-218459.jpg,2981246360-220352.jpg,3.0,,,,AE33JO53WTHZQ
719,24,,1.0,4.0,2981231403-71642.jpg,2274829821-263682.jpg,1.0,,,,AE33JO53WTHZQ
720,25,,1.0,5.0,2449442529-124446.jpg,2446759803-49251.jpg,1.0,,,,AE33JO53WTHZQ
721,26,,1.0,6.0,2883254439-140941.jpg,2898632385-217136.jpg,2.0,,,,AE33JO53WTHZQ
722,27,,1.0,7.0,2874303365-214262.jpg,2238563377-332054.jpg,2.0,,,,AE33JO53WTHZQ
723,28,,1.0,8.0,2901952513-70703.jpg,2238481198-19821.jpg,3.0,,,,AE33JO53WTHZQ
724,29,,1.0,9.0,2883268412-365898.jpg,2984626312-370849.jpg,1.0,,,,AE33JO53WTHZQ
725,30,,1.0,10.0,2964218374-144967.jpg,2883254439-140940.jpg,2.0,,,,AE33JO53WTHZQ
726,31,,1.0,11.0,2964216465-219242.jpg,2864900319-137787.jpg,2.0,,,,AE33JO53WTHZQ
727,32,,1.0,12.0,2874299429-139695.jpg,2901942443-69923.jpg,2.0,,,,AE33JO53WTHZQ
728,33,,1.0,13.0,2874307433-66280.jpg,2986447306-296584.jpg,1.0,,,,AE33JO53WTHZQ
729,34,,0.0,14.0,left.jpg,,,left,,,AE33JO53WTHZQ
730,35,,1.0,15.0,2238425482-313537.jpg,2898633480-217190.jpg,3.0,,,,AE33JO53WTHZQ
731,36,,1.0,16.0,2446759347-347016.jpg,2964224310-219528.jpg,1.0,,,,AE33JO53WTHZQ
732,37,,1.0,17.0,2964223381-294447.jpg,2898628438-68785.jpg,3.0,,,,AE33JO53WTHZQ
733,38,,1.0,18.0,2452381505-199546.jpg,2238567168-34916.jpg,2.0,,,,AE33JO53WTHZQ
734,39,,1.0,19.0,2964213381-294060.jpg,2458348012-349114.jpg,2.0,,,,AE33JO53WTHZQ
735,40,,1.0,20.0,2592380177-354626.jpg,2238117096-228518.jpg,3.0,,,,AE33JO53WTHZQ
736,41,,1.0,21.0,2238481198-19822.jpg,2238480803-19737.jpg,3.0,,,,AE33JO53WTHZQ
737,42,,1.0,22.0,2898624426-291546.jpg,2964218432-369263.jpg,1.0,,,,AE33JO53WTHZQ
738,43,,0.0,23.0,right.jpg,,,right,,,AE33JO53WTHZQ
739,44,,1.0,24.0,2986451363-73599.jpg,2860302315-210704.jpg,2.0,,,,AE33JO53WTHZQ
740,45,,1.0,25.0,2874301407-363895.jpg,2901947323-70275.jpg,3.0,,,,AE33JO53WTHZQ
741,46,,1.0,26.0,2901947423-70311.jpg,2860312398-62572.jpg,1.0,,,,AE33JO53WTHZQ
742,47,,1.0,27.0,2864907432-362042.jpg,2864901420-212147.jpg,1.0,,,,AE33JO53WTHZQ
743,48,,1.0,28.0,2238580740-186218.jpg,2238550816-254000.jpg,1.0,,,,AE33JO53WTHZQ
744,49,,1.0,29.0,2512875899-126682.jpg,2460547536-274179.jpg,1.0,,,,AE33JO53WTHZQ
745,50,,1.0,30.0,2460547467-349422.jpg,2868487415-213924.jpg,2.0,,,,AE33JO53WTHZQ
746,51,,1.0,31.0,2883268471-290842.jpg,2901947448-70314.jpg,3.0,,,,AE33JO53WTHZQ
747,52,,1.0,32.0,2452380832-348593.jpg,2449442181-272436.jpg,3.0,,,,AE33JO53WTHZQ
748,53,,1.0,33.0,2446759803-49249.jpg,2898618440-216547.jpg,2.0,,,,AE33JO53WTHZQ
749,54,right,1.0,34.0,right.jpg,,,right,1.1098,,AE33JO53WTHZQ
750,55,,1.0,35.0,2449441881-272368.jpg,2883268412-365899.jpg,1.0,,,,AE33JO53WTHZQ
751,56,,1.0,36.0,2575120738-55529.jpg,2575120738-55528.jpg,2.0,,,,AE33JO53WTHZQ
752,57,,1.0,37.0,2874302418-65979.jpg,2413147898-43548.jpg,1.0,,,,AE33JO53WTHZQ
753,58,,1.0,38.0,2460547467-349421.jpg,2898631394-142727.jpg,1.0,,,,AE33JO53WTHZQ
754,59,,1.0,39.0,2901939379-143479.jpg,2446758985-197610.jpg,2.0,,,,AE33JO53WTHZQ
755,60,,1.0,40.0,2874302418-65978.jpg,2898633321-291943.jpg,3.0,,,,AE33JO53WTHZQ
756,61,,1.0,41.0,2592379964-131054.jpg,2592380272-354673.jpg,3.0,,,,AE33JO53WTHZQ
757,62,right,1.0,42.0,right.jpg,,,right,1.1028,,AE33JO53WTHZQ
758,63,,1.0,43.0,2238480677-317399.jpg,2238480278-19661.jpg,3.0,,,,AE33JO53WTHZQ
759,64,,1.0,44.0,2446758985-197609.jpg,2981240424-145795.jpg,1.0,,,,AE33JO53WTHZQ
760,65,,1.0,45.0,2901939379-143480.jpg,2901938432-367629.jpg,3.0,,,,AE33JO53WTHZQ
761,66,,1.0,46.0,2898634397-367080.jpg,2237944827-301472.jpg,1.0,,,,AE33JO53WTHZQ
762,67,,1.0,47.0,2868475410-213219.jpg,2868474407-362885.jpg,3.0,,,,AE33JO53WTHZQ
763,68,,1.0,48.0,2238560245-182099.jpg,2874314526-289684.jpg,2.0,,,,AE33JO53WTHZQ
764,69,left,1.0,49.0,left.jpg,,,left,1.1,,AE33JO53WTHZQ
765,70,,1.0,50.0,2981241414-145842.jpg,2874301404-139813.jpg,2.0,,,,AE33JO53WTHZQ
766,71,,1.0,51.0,2592380177-354629.jpg,2898633421-291974.jpg,1.0,,,,AE33JO53WTHZQ
767,72,,1.0,52.0,2898635427-367120.jpg,2868479517-363220.jpg,2.0,,,,AE33JO53WTHZQ
768,73,,1.0,53.0,2898633421-291973.jpg,2238550049-105691.jpg,3.0,,,,AE33JO53WTHZQ
769,74,,1.0,54.0,2864910426-287204.jpg,2901939433-69672.jpg,3.0,,,,AE33JO53WTHZQ
770,75,,1.0,55.0,2458347385-199723.jpg,2427874554-121863.jpg,2.0,,,,AE33JO53WTHZQ
771,76,,1.0,56.0,2898617468-68274.jpg,2901943387-368037.jpg,2.0,,,,AE33JO53WTHZQ
772,77,,1.0,57.0,2883256307-365057.jpg,2864904453-63933.jpg,3.0,,,,AE33JO53WTHZQ
773,78,,1.0,58.0,2449442529-124445.jpg,2898632385-217137.jpg,3.0,,,,AE33JO53WTHZQ
774,79,,1.0,59.0,2898618390-216538.jpg,2901939327-367670.jpg,2.0,,,,AE33JO53WTHZQ
775,80,,1.0,60.0,2898618444-142233.jpg,2898631359-142721.jpg,1.0,,,,AE33JO53WTHZQ
776,81,,1.0,61.0,2238428357-313623.jpg,2984615361-295509.jpg,2.0,,,,AE33JO53WTHZQ
777,82,,1.0,62.0,2901941401-292798.jpg,2898618327-366317.jpg,1.0,,,,AE33JO53WTHZQ
778,83,,1.0,63.0,2868474407-362883.jpg,2238516618-25604.jpg,1.0,,,,AE33JO53WTHZQ
779,84,,1.0,64.0,2898635428-69104.jpg,2898625336-291572.jpg,3.0,,,,AE33JO53WTHZQ
780,20,,1.0,0.0,2592380177-354626.jpg,2986408339-146952.jpg,1.0,,,,AK4WAT44YKU7J
781,21,,1.0,1.0,2460547467-349422.jpg,2868487415-213924.jpg,2.0,,,,AK4WAT44YKU7J
782,22,,1.0,2.0,2446759347-347016.jpg,2964224310-219528.jpg,1.0,,,,AK4WAT44YKU7J
783,23,,1.0,3.0,2898618444-142233.jpg,2898631359-142721.jpg,1.0,,,,AK4WAT44YKU7J
784,24,,1.0,4.0,2864910426-287204.jpg,2864902304-137862.jpg,1.0,,,,AK4WAT44YKU7J
785,25,,1.0,5.0,2458347385-199723.jpg,2427874554-121863.jpg,2.0,,,,AK4WAT44YKU7J
786,26,,1.0,6.0,2898617468-68274.jpg,2964207374-144577.jpg,3.0,,,,AK4WAT44YKU7J
787,27,,1.0,7.0,2460547467-349421.jpg,2981235446-294901.jpg,3.0,,,,AK4WAT44YKU7J
788,28,,1.0,8.0,2901952513-70703.jpg,2238481198-19821.jpg,3.0,,,,AK4WAT44YKU7J
789,29,,1.0,9.0,2874303365-214262.jpg,2864911457-362260.jpg,3.0,,,,AK4WAT44YKU7J
790,30,,1.0,10.0,2898633421-291973.jpg,2238550049-105691.jpg,3.0,,,,AK4WAT44YKU7J
791,31,,1.0,11.0,2981231403-71642.jpg,2981244403-72215.jpg,2.0,,,,AK4WAT44YKU7J
792,32,,1.0,12.0,2238480677-317399.jpg,2238573546-258454.jpg,2.0,,,,AK4WAT44YKU7J
793,33,left,1.0,13.0,left.jpg,,,left,0.4837,,AK4WAT44YKU7J
794,34,,1.0,14.0,2874302418-65978.jpg,2238481198-19823.jpg,2.0,,,,AK4WAT44YKU7J
795,35,,1.0,15.0,2898634397-367080.jpg,2237944827-301472.jpg,1.0,,,,AK4WAT44YKU7J
796,36,,1.0,16.0,2874302418-65979.jpg,2238578544-111698.jpg,3.0,,,,AK4WAT44YKU7J
797,37,,1.0,17.0,2238572663-35822.jpg,2238571930-184143.jpg,2.0,,,,AK4WAT44YKU7J
798,38,left,1.0,18.0,left.jpg,,,left,0.4245,,AK4WAT44YKU7J
799,39,,1.0,19.0,2446758985-197609.jpg,2981240424-145795.jpg,1.0,,,,AK4WAT44YKU7J
800,40,,1.0,20.0,2512875899-126682.jpg,2986447332-371497.jpg,3.0,,,,AK4WAT44YKU7J
801,41,,1.0,21.0,2452381505-199546.jpg,2238567168-34916.jpg,2.0,,,,AK4WAT44YKU7J
802,42,,1.0,22.0,2868475410-213219.jpg,2901946465-218350.jpg,1.0,,,,AK4WAT44YKU7J
803,43,,1.0,23.0,2864907432-362042.jpg,2864901420-212147.jpg,1.0,,,,AK4WAT44YKU7J
804,44,,1.0,24.0,2883256307-365057.jpg,2864904453-63933.jpg,3.0,,,,AK4WAT44YKU7J
805,45,,1.0,25.0,2592380177-354629.jpg,2898633421-291974.jpg,1.0,,,,AK4WAT44YKU7J
806,46,left,1.0,26.0,left.jpg,,,left,0.5677,,AK4WAT44YKU7J
807,47,,1.0,27.0,2964223381-294447.jpg,2898628438-68785.jpg,3.0,,,,AK4WAT44YKU7J
808,48,,1.0,28.0,2898624426-291546.jpg,2981236443-71859.jpg,2.0,,,,AK4WAT44YKU7J
809,49,,1.0,29.0,2901939379-143480.jpg,2901942428-69919.jpg,1.0,,,,AK4WAT44YKU7J
810,50,,1.0,30.0,2460547508-51571.jpg,2460547291-274110.jpg,1.0,,,,AK4WAT44YKU7J
811,51,,1.0,31.0,2449442529-124446.jpg,2460547536-274181.jpg,2.0,,,,AK4WAT44YKU7J
812,52,,1.0,32.0,2874307433-66280.jpg,2981231422-369714.jpg,3.0,,,,AK4WAT44YKU7J
813,53,,1.0,33.0,2964218374-144967.jpg,2981231446-294732.jpg,3.0,,,,AK4WAT44YKU7J
814,54,,1.0,34.0,2238481198-19822.jpg,2862691449-137104.jpg,1.0,,,,AK4WAT44YKU7J
815,55,,1.0,35.0,2883268471-290842.jpg,2883268471-290843.jpg,1.0,,,,AK4WAT44YKU7J
816,56,,1.0,36.0,2592379964-131054.jpg,2238479053-19457.jpg,2.0,,,,AK4WAT44YKU7J
817,57,,1.0,37.0,2449442529-124445.jpg,2898632385-217137.jpg,3.0,,,,AK4WAT44YKU7J
818,58,,1.0,38.0,2898635427-367120.jpg,2901946439-144040.jpg,1.0,,,,AK4WAT44YKU7J
819,59,,1.0,39.0,2575120738-55529.jpg,2898632385-217138.jpg,1.0,,,,AK4WAT44YKU7J
820,60,right,1.0,40.0,right.jpg,,,right,0.5675,,AK4WAT44YKU7J
821,61,,1.0,41.0,2868474407-362883.jpg,2238516618-25604.jpg,1.0,,,,AK4WAT44YKU7J
822,62,,1.0,42.0,2964216465-219242.jpg,2898619327-366362.jpg,3.0,,,,AK4WAT44YKU7J
823,63,,1.0,43.0,2883268412-365898.jpg,2984615361-295510.jpg,2.0,,,,AK4WAT44YKU7J
824,64,,1.0,44.0,2898618390-216538.jpg,2986449336-296644.jpg,1.0,,,,AK4WAT44YKU7J
825,65,,1.0,45.0,2883254439-140941.jpg,2898632385-217136.jpg,2.0,,,,AK4WAT44YKU7J
826,66,,1.0,46.0,2446759803-49249.jpg,2446760601-272099.jpg,1.0,,,,AK4WAT44YKU7J
827,67,,1.0,47.0,2238580740-186218.jpg,2964220333-71258.jpg,3.0,,,,AK4WAT44YKU7J
828,68,,1.0,48.0,2901941401-292798.jpg,2898618327-366317.jpg,1.0,,,,AK4WAT44YKU7J
829,69,,1.0,49.0,2898635428-69104.jpg,2901943411-292945.jpg,2.0,,,,AK4WAT44YKU7J
830,70,right,1.0,50.0,right.jpg,,,right,0.5699,,AK4WAT44YKU7J
831,71,,1.0,51.0,2449441881-272368.jpg,2449441881-272367.jpg,3.0,,,,AK4WAT44YKU7J
832,72,,1.0,52.0,2986451363-73599.jpg,2860302315-210704.jpg,2.0,,,,AK4WAT44YKU7J
833,73,,1.0,53.0,2238560245-182099.jpg,2549106624-127823.jpg,1.0,,,,AK4WAT44YKU7J
834,74,,1.0,54.0,2452380832-348593.jpg,2449442181-272436.jpg,3.0,,,,AK4WAT44YKU7J
835,75,,1.0,55.0,2964213381-294060.jpg,2964213381-294061.jpg,3.0,,,,AK4WAT44YKU7J
836,76,,1.0,56.0,2238428357-313623.jpg,2575121987-353817.jpg,3.0,,,,AK4WAT44YKU7J
837,77,,1.0,57.0,2238481928-19949.jpg,2864900357-361688.jpg,2.0,,,,AK4WAT44YKU7J
838,78,,1.0,58.0,2874299429-139695.jpg,2901942443-69923.jpg,2.0,,,,AK4WAT44YKU7J
839,79,,1.0,59.0,2238425482-313537.jpg,2238436322-314047.jpg,2.0,,,,AK4WAT44YKU7J
840,80,,1.0,60.0,2874301407-363895.jpg,2901947323-70275.jpg,3.0,,,,AK4WAT44YKU7J
841,81,,1.0,61.0,2901948350-218459.jpg,2417208001-267065.jpg,2.0,,,,AK4WAT44YKU7J
842,82,,1.0,62.0,2981241414-145842.jpg,2874301404-139813.jpg,2.0,,,,AK4WAT44YKU7J
843,83,,1.0,63.0,2901939379-143479.jpg,2446758985-197610.jpg,2.0,,,,AK4WAT44YKU7J
844,84,,1.0,64.0,2901947423-70311.jpg,2238577590-185467.jpg,3.0,,,,AK4WAT44YKU7J
845,20,,1.0,0.0,2238572663-35822.jpg,2238571930-184143.jpg,2.0,,,,AMEBLCWTZKLS2
846,21,,1.0,1.0,2238481198-19822.jpg,2238480803-19737.jpg,3.0,,,,AMEBLCWTZKLS2
847,22,,1.0,2.0,2874302418-65978.jpg,2898626385-216899.jpg,1.0,,,,AMEBLCWTZKLS2
848,23,,1.0,3.0,2868474407-362883.jpg,2238516618-25604.jpg,1.0,,,,AMEBLCWTZKLS2
849,24,,1.0,4.0,2901947423-70311.jpg,2860312398-62572.jpg,1.0,,,,AMEBLCWTZKLS2
850,25,,1.0,5.0,2986451363-73599.jpg,2901939327-367669.jpg,1.0,,,,AMEBLCWTZKLS2
851,26,,1.0,6.0,2898635427-367120.jpg,2898621427-366486.jpg,3.0,,,,AMEBLCWTZKLS2
852,27,,1.0,7.0,2452381505-199546.jpg,2994401319-148290.jpg,3.0,,,,AMEBLCWTZKLS2
853,28,,1.0,8.0,2592379964-131054.jpg,2575963989-130576.jpg,1.0,,,,AMEBLCWTZKLS2
854,29,,1.0,9.0,2883254439-140941.jpg,2446760844-124088.jpg,1.0,,,,AMEBLCWTZKLS2
855,30,,1.0,10.0,2964223381-294447.jpg,2898628438-68785.jpg,3.0,,,,AMEBLCWTZKLS2
856,31,,1.0,11.0,2964216465-219242.jpg,2238544191-252422.jpg,1.0,,,,AMEBLCWTZKLS2
857,32,,1.0,12.0,2238481928-19949.jpg,2883264367-365620.jpg,1.0,,,,AMEBLCWTZKLS2
858,33,left,1.0,13.0,left.jpg,,,left,1.054,,AMEBLCWTZKLS2
859,34,,1.0,14.0,2874302418-65979.jpg,2238480648-19714.jpg,2.0,,,,AMEBLCWTZKLS2
860,35,,1.0,15.0,2901941401-292798.jpg,2981243412-370222.jpg,2.0,,,,AMEBLCWTZKLS2
861,36,,1.0,16.0,2874299429-139695.jpg,2883266388-67750.jpg,1.0,,,,AMEBLCWTZKLS2
862,37,left,1.0,17.0,left.jpg,,,left,0.946,,AMEBLCWTZKLS2
863,38,,1.0,18.0,2898634397-367080.jpg,2237944827-301472.jpg,1.0,,,,AMEBLCWTZKLS2
864,39,,1.0,19.0,2864910426-287204.jpg,2874299429-139694.jpg,2.0,,,,AMEBLCWTZKLS2
865,40,,1.0,20.0,2964213381-294060.jpg,2964213381-294061.jpg,3.0,,,,AMEBLCWTZKLS2
866,41,,1.0,21.0,2446758985-197609.jpg,2864909447-362144.jpg,2.0,,,,AMEBLCWTZKLS2
867,42,,1.0,22.0,2901952513-70703.jpg,2238481198-19821.jpg,3.0,,,,AMEBLCWTZKLS2
868,43,,1.0,23.0,2446759347-347016.jpg,2964224310-219528.jpg,1.0,,,,AMEBLCWTZKLS2
869,44,,1.0,24.0,2238428357-313623.jpg,2575121987-353817.jpg,3.0,,,,AMEBLCWTZKLS2
870,45,,1.0,25.0,2901939379-143479.jpg,2460547467-349423.jpg,1.0,,,,AMEBLCWTZKLS2
871,46,,1.0,26.0,2238480677-317399.jpg,2238480278-19661.jpg,3.0,,,,AMEBLCWTZKLS2
872,47,,1.0,27.0,2864907432-362042.jpg,2901947423-70310.jpg,2.0,,,,AMEBLCWTZKLS2
873,48,,1.0,28.0,2898618444-142233.jpg,2898618444-142232.jpg,3.0,,,,AMEBLCWTZKLS2
874,49,,1.0,29.0,2449442529-124446.jpg,2898632385-217139.jpg,3.0,,,,AMEBLCWTZKLS2
875,50,,1.0,30.0,2460547467-349422.jpg,2868487415-213924.jpg,2.0,,,,AMEBLCWTZKLS2
876,51,,1.0,31.0,2868475410-213219.jpg,2238480803-19739.jpg,2.0,,,,AMEBLCWTZKLS2
877,52,,1.0,32.0,2874307433-66280.jpg,2981231422-369714.jpg,3.0,,,,AMEBLCWTZKLS2
878,53,right,1.0,33.0,right.jpg,,,right,0.955,,AMEBLCWTZKLS2
879,54,,1.0,34.0,2981231403-71642.jpg,2981244403-72215.jpg,2.0,,,,AMEBLCWTZKLS2
880,55,,1.0,35.0,2238425482-313537.jpg,2238436322-314047.jpg,2.0,,,,AMEBLCWTZKLS2
881,56,,1.0,36.0,2449441881-272368.jpg,2883268412-365899.jpg,1.0,,,,AMEBLCWTZKLS2
882,57,,1.0,37.0,2874301407-363895.jpg,2883264368-67631.jpg,1.0,,,,AMEBLCWTZKLS2
883,58,,1.0,38.0,2592380177-354629.jpg,2579432534-130704.jpg,2.0,,,,AMEBLCWTZKLS2
884,59,,1.0,39.0,2874303365-214262.jpg,2238563377-332054.jpg,2.0,,,,AMEBLCWTZKLS2
885,60,,1.0,40.0,2901939379-143480.jpg,2901942428-69919.jpg,1.0,,,,AMEBLCWTZKLS2
886,61,,1.0,41.0,2898618390-216538.jpg,2575120609-129862.jpg,3.0,,,,AMEBLCWTZKLS2
887,62,,1.0,42.0,2898617468-68274.jpg,2864906345-212360.jpg,1.0,,,,AMEBLCWTZKLS2
888,63,left,1.0,43.0,left.jpg,,,left,1.412,,AMEBLCWTZKLS2
889,64,,1.0,44.0,2883268412-365898.jpg,2238436252-314037.jpg,3.0,,,,AMEBLCWTZKLS2
890,65,,1.0,45.0,2898624426-291546.jpg,2964218432-369263.jpg,1.0,,,,AMEBLCWTZKLS2
891,66,,1.0,46.0,2446759803-49249.jpg,2898618440-216547.jpg,2.0,,,,AMEBLCWTZKLS2
892,67,,1.0,47.0,2238560245-182099.jpg,2874314526-289684.jpg,2.0,,,,AMEBLCWTZKLS2
893,68,,1.0,48.0,2575120738-55529.jpg,2575120738-55528.jpg,2.0,,,,AMEBLCWTZKLS2
894,69,,1.0,49.0,2964218374-144967.jpg,2981231446-294732.jpg,3.0,,,,AMEBLCWTZKLS2
895,70,,1.0,50.0,2898635428-69104.jpg,2898625336-291572.jpg,3.0,,,,AMEBLCWTZKLS2
896,71,,1.0,51.0,2592380177-354626.jpg,2238117096-228518.jpg,3.0,,,,AMEBLCWTZKLS2
897,72,,1.0,52.0,2458347385-199723.jpg,2458347252-348911.jpg,3.0,,,,AMEBLCWTZKLS2
898,73,,1.0,53.0,2460547508-51571.jpg,2460547291-274110.jpg,1.0,,,,AMEBLCWTZKLS2
899,74,right,1.0,54.0,right.jpg,,,right,0.819,,AMEBLCWTZKLS2
900,75,,1.0,55.0,2449442529-124445.jpg,2986408373-73286.jpg,2.0,,,,AMEBLCWTZKLS2
901,76,,1.0,56.0,2883268471-290842.jpg,2883268471-290843.jpg,1.0,,,,AMEBLCWTZKLS2
902,77,,1.0,57.0,2898633421-291973.jpg,2238550049-105691.jpg,3.0,,,,AMEBLCWTZKLS2
903,78,,1.0,58.0,2238580740-186218.jpg,2964220333-71258.jpg,3.0,,,,AMEBLCWTZKLS2
904,79,,1.0,59.0,2883256307-365057.jpg,2611628310-206388.jpg,1.0,,,,AMEBLCWTZKLS2
905,80,,1.0,60.0,2512875899-126682.jpg,2592380177-354628.jpg,2.0,,,,AMEBLCWTZKLS2
906,81,,1.0,61.0,2460547467-349421.jpg,2981235446-294901.jpg,3.0,,,,AMEBLCWTZKLS2
907,82,,1.0,62.0,2901948350-218459.jpg,2417208001-267065.jpg,2.0,,,,AMEBLCWTZKLS2
908,83,,1.0,63.0,2981241414-145842.jpg,2874301404-139813.jpg,2.0,,,,AMEBLCWTZKLS2
909,84,,1.0,64.0,2452380832-348593.jpg,2238481813-19930.jpg,2.0,,,,AMEBLCWTZKLS2
910,20,,1.0,0.0,2874301407-363895.jpg,2986397322-371109.jpg,2.0,,,,ATA61WNUAP91U
911,21,,1.0,1.0,2898633421-291973.jpg,2238550049-105691.jpg,3.0,,,,ATA61WNUAP91U
912,22,,1.0,2.0,2981231403-71642.jpg,2981244403-72215.jpg,2.0,,,,ATA61WNUAP91U
913,23,,1.0,3.0,2901947423-70311.jpg,2238573447-333826.jpg,2.0,,,,ATA61WNUAP91U
914,24,,1.0,4.0,2575120738-55529.jpg,2238531493-28260.jpg,3.0,,,,ATA61WNUAP91U
915,25,,1.0,5.0,2964216465-219242.jpg,2898619327-366362.jpg,3.0,,,,ATA61WNUAP91U
916,26,right,1.0,6.0,right.jpg,,,right,1.1763,,ATA61WNUAP91U
917,27,,1.0,7.0,2868474407-362883.jpg,2901948383-70363.jpg,3.0,,,,ATA61WNUAP91U
918,28,,1.0,8.0,2964213381-294060.jpg,2458348012-349114.jpg,2.0,,,,ATA61WNUAP91U
919,29,,1.0,9.0,2592379964-131054.jpg,2238479053-19457.jpg,2.0,,,,ATA61WNUAP91U
920,30,,1.0,10.0,2452381505-199546.jpg,2901938432-367627.jpg,1.0,,,,ATA61WNUAP91U
921,31,,1.0,11.0,2898618444-142233.jpg,2898618444-142232.jpg,3.0,,,,ATA61WNUAP91U
922,32,,1.0,12.0,2874303365-214262.jpg,2238563377-332054.jpg,2.0,,,,ATA61WNUAP91U
923,33,,1.0,13.0,2452380832-348593.jpg,2238481813-19930.jpg,2.0,,,,ATA61WNUAP91U
924,34,,1.0,14.0,2883268471-290842.jpg,2883268471-290843.jpg,1.0,,,,ATA61WNUAP91U
925,35,,1.0,15.0,2874302418-65979.jpg,2238578544-111698.jpg,3.0,,,,ATA61WNUAP91U
926,36,,1.0,16.0,2864910426-287204.jpg,2874299429-139694.jpg,2.0,,,,ATA61WNUAP91U
927,37,,1.0,17.0,2238480677-317399.jpg,2238481630-168218.jpg,1.0,,,,ATA61WNUAP91U
928,38,left,1.0,18.0,left.jpg,,,left,1.31,,ATA61WNUAP91U
929,39,,1.0,19.0,2901952513-70703.jpg,2868469411-287540.jpg,2.0,,,,ATA61WNUAP91U
930,40,,1.0,20.0,2592380177-354626.jpg,2238117096-228518.jpg,3.0,,,,ATA61WNUAP91U
931,41,,1.0,21.0,2901939379-143479.jpg,2460547467-349423.jpg,1.0,,,,ATA61WNUAP91U
932,42,,1.0,22.0,2238572663-35822.jpg,2238571930-184143.jpg,2.0,,,,ATA61WNUAP91U
933,43,,1.0,23.0,2898634397-367080.jpg,2901934408-69289.jpg,2.0,,,,ATA61WNUAP91U
934,44,,1.0,24.0,2874299429-139695.jpg,2883266388-67750.jpg,1.0,,,,ATA61WNUAP91U
935,45,,1.0,25.0,2883256307-365057.jpg,2611628310-206388.jpg,1.0,,,,ATA61WNUAP91U
936,46,,1.0,26.0,2981241414-145842.jpg,2427873848-47312.jpg,3.0,,,,ATA61WNUAP91U
937,47,,1.0,27.0,2238580740-186218.jpg,2964220333-71258.jpg,3.0,,,,ATA61WNUAP91U
938,48,,1.0,28.0,2238425482-313537.jpg,2898633480-217190.jpg,3.0,,,,ATA61WNUAP91U
939,49,,1.0,29.0,2864907432-362042.jpg,2901947423-70310.jpg,2.0,,,,ATA61WNUAP91U
940,50,,1.0,30.0,2964223381-294447.jpg,2427874231-269884.jpg,1.0,,,,ATA61WNUAP91U
941,51,,1.0,31.0,2238481198-19822.jpg,2238480803-19737.jpg,3.0,,,,ATA61WNUAP91U
942,52,,1.0,32.0,2449442529-124445.jpg,2452380171-273112.jpg,1.0,,,,ATA61WNUAP91U
943,53,,1.0,33.0,2460547467-349421.jpg,2898631394-142727.jpg,1.0,,,,ATA61WNUAP91U
944,54,right,1.0,34.0,right.jpg,,,right,1.33,,ATA61WNUAP91U
945,55,,1.0,35.0,2460547467-349422.jpg,2864909447-362146.jpg,3.0,,,,ATA61WNUAP91U
946,56,,1.0,36.0,2901948350-218459.jpg,2804906319-133082.jpg,1.0,,,,ATA61WNUAP91U
947,57,,1.0,37.0,2446759803-49249.jpg,2446760601-272099.jpg,1.0,,,,ATA61WNUAP91U
948,58,,1.0,38.0,2874302418-65978.jpg,2898626385-216899.jpg,1.0,,,,ATA61WNUAP91U
949,59,,1.0,39.0,2446759347-347016.jpg,2238569117-333045.jpg,3.0,,,,ATA61WNUAP91U
950,60,,1.0,40.0,2446758985-197609.jpg,2981240424-145795.jpg,1.0,,,,ATA61WNUAP91U
951,61,,1.0,41.0,2874307433-66280.jpg,2986447306-296584.jpg,1.0,,,,ATA61WNUAP91U
952,62,,1.0,42.0,2592380177-354629.jpg,2579432534-130704.jpg,2.0,,,,ATA61WNUAP91U
953,63,,1.0,43.0,2883268412-365898.jpg,2984615361-295510.jpg,2.0,,,,ATA61WNUAP91U
954,64,left,1.0,44.0,left.jpg,,,left,1.2688,,ATA61WNUAP91U
955,65,,1.0,45.0,2868475410-213219.jpg,2901946465-218350.jpg,1.0,,,,ATA61WNUAP91U
956,66,,1.0,46.0,2901939379-143480.jpg,2901942428-69919.jpg,1.0,,,,ATA61WNUAP91U
957,67,,1.0,47.0,2901941401-292798.jpg,2883273443-68193.jpg,3.0,,,,ATA61WNUAP91U
958,68,,1.0,48.0,2238428357-313623.jpg,2238499057-320266.jpg,1.0,,,,ATA61WNUAP91U
959,69,,1.0,49.0,2449442529-124446.jpg,2460547536-274181.jpg,2.0,,,,ATA61WNUAP91U
960,70,left,1.0,50.0,left.jpg,,,left,1.2793,,ATA61WNUAP91U
961,71,,1.0,51.0,2238481928-19949.jpg,2864900357-361688.jpg,2.0,,,,ATA61WNUAP91U
962,72,,1.0,52.0,2898635427-367120.jpg,2898621427-366486.jpg,3.0,,,,ATA61WNUAP91U
963,73,,1.0,53.0,2883254439-140941.jpg,2898632385-217136.jpg,2.0,,,,ATA61WNUAP91U
964,74,,1.0,54.0,2898617468-68274.jpg,2864906345-212360.jpg,1.0,,,,ATA61WNUAP91U
965,75,,1.0,55.0,2458347385-199723.jpg,2458347252-348911.jpg,3.0,,,,ATA61WNUAP91U
966,76,,1.0,56.0,2238560245-182099.jpg,2874314526-289684.jpg,2.0,,,,ATA61WNUAP91U
967,77,,1.0,57.0,2964218374-144967.jpg,2883254439-140940.jpg,2.0,,,,ATA61WNUAP91U
968,78,,1.0,58.0,2898635428-69104.jpg,2898625336-291572.jpg,3.0,,,,ATA61WNUAP91U
969,79,,1.0,59.0,2898618390-216538.jpg,2575120609-129862.jpg,3.0,,,,ATA61WNUAP91U
970,80,,1.0,60.0,2449441881-272368.jpg,2883268412-365899.jpg,1.0,,,,ATA61WNUAP91U
971,81,,1.0,61.0,2512875899-126682.jpg,2592380177-354628.jpg,2.0,,,,ATA61WNUAP91U
972,82,,1.0,62.0,2898624426-291546.jpg,2981235446-294900.jpg,3.0,,,,ATA61WNUAP91U
973,83,,1.0,63.0,2460547508-51571.jpg,2901941438-69835.jpg,3.0,,,,ATA61WNUAP91U
974,84,,1.0,64.0,2986451363-73599.jpg,2901939327-367669.jpg,1.0,,,,ATA61WNUAP91U
