,index,test_encoding_response.keys,test_encoding_response.corr,trials.thisTrialN,target,correct,test_encoding_response.rt,key_resp_end.keys,subject
0,20,,1.0,0.0,highway_359.jpg,,,,A10HW8JXM17XLD
1,21,,1.0,1.0,golf_course_195.jpg,,,,A10HW8JXM17XLD
2,22,,1.0,2.0,mountain_57.jpg,,,,A10HW8JXM17XLD
3,23,,1.0,3.0,highway_245.jpg,,,,A10HW8JXM17XLD
4,24,,1.0,4.0,mountain_123.jpg,,,,A10HW8JXM17XLD
5,25,,1.0,5.0,badlands_70.jpg,,,,A10HW8JXM17XLD
6,26,right,1.0,6.0,right.jpg,right,1.1386,,A10HW8JXM17XLD
7,27,,1.0,7.0,highway_294.jpg,,,,A10HW8JXM17XLD
8,28,,1.0,8.0,bridge_146.jpg,,,,A10HW8JXM17XLD
9,29,,1.0,9.0,golf_course_87.jpg,,,,A10HW8JXM17XLD
10,30,,1.0,10.0,golf_course_331.jpg,,,,A10HW8JXM17XLD
11,31,,1.0,11.0,mountain_110.jpg,,,,A10HW8JXM17XLD
12,32,,1.0,12.0,mountain_293.jpg,,,,A10HW8JXM17XLD
13,33,,1.0,13.0,mountain_156.jpg,,,,A10HW8JXM17XLD
14,34,,1.0,14.0,highway_415.jpg,,,,A10HW8JXM17XLD
15,35,,1.0,15.0,bridge_191.jpg,,,,A10HW8JXM17XLD
16,36,,1.0,16.0,bridge_65.jpg,,,,A10HW8JXM17XLD
17,37,,1.0,17.0,highway_209.jpg,,,,A10HW8JXM17XLD
18,38,,1.0,18.0,bridge_256.jpg,,,,A10HW8JXM17XLD
19,39,,1.0,19.0,bridge_128.jpg,,,,A10HW8JXM17XLD
20,40,,1.0,20.0,bridge_108.jpg,,,,A10HW8JXM17XLD
21,41,,1.0,21.0,badlands_21.jpg,,,,A10HW8JXM17XLD
22,42,,1.0,22.0,badlands_24.jpg,,,,A10HW8JXM17XLD
23,43,right,1.0,23.0,right.jpg,right,1.1864,,A10HW8JXM17XLD
24,44,,1.0,24.0,highway_156.jpg,,,,A10HW8JXM17XLD
25,45,,1.0,25.0,golf_course_214.jpg,,,,A10HW8JXM17XLD
26,46,,1.0,26.0,highway_273.jpg,,,,A10HW8JXM17XLD
27,47,,1.0,27.0,badlands_52.jpg,,,,A10HW8JXM17XLD
28,48,,1.0,28.0,golf_course_309.jpg,,,,A10HW8JXM17XLD
29,49,,1.0,29.0,badlands_221.jpg,,,,A10HW8JXM17XLD
30,50,left,1.0,30.0,left.jpg,left,1.1223,,A10HW8JXM17XLD
31,51,,1.0,31.0,playground_219.jpg,,,,A10HW8JXM17XLD
32,52,,1.0,32.0,badlands_23.jpg,,,,A10HW8JXM17XLD
33,53,,1.0,33.0,badlands_222.jpg,,,,A10HW8JXM17XLD
34,54,,1.0,34.0,bridge_172.jpg,,,,A10HW8JXM17XLD
35,55,,1.0,35.0,golf_course_193.jpg,,,,A10HW8JXM17XLD
36,56,,1.0,36.0,badlands_113.jpg,,,,A10HW8JXM17XLD
37,57,,1.0,37.0,bridge_250.jpg,,,,A10HW8JXM17XLD
38,58,,1.0,38.0,playground_60.jpg,,,,A10HW8JXM17XLD
39,59,right,1.0,39.0,right.jpg,right,1.1526,,A10HW8JXM17XLD
40,60,,1.0,40.0,playground_240.jpg,,,,A10HW8JXM17XLD
41,61,,1.0,41.0,mountain_222.jpg,,,,A10HW8JXM17XLD
42,62,,1.0,42.0,mountain_154.jpg,,,,A10HW8JXM17XLD
43,63,,1.0,43.0,playground_131.jpg,,,,A10HW8JXM17XLD
44,64,,1.0,44.0,playground_76.jpg,,,,A10HW8JXM17XLD
45,65,,1.0,45.0,highway_177.jpg,,,,A10HW8JXM17XLD
46,66,,1.0,46.0,golf_course_217.jpg,,,,A10HW8JXM17XLD
47,67,,1.0,47.0,mountain_232.jpg,,,,A10HW8JXM17XLD
48,68,,1.0,48.0,mountain_230.jpg,,,,A10HW8JXM17XLD
49,69,,1.0,49.0,highway_394.jpg,,,,A10HW8JXM17XLD
50,70,,1.0,50.0,bridge_202.jpg,,,,A10HW8JXM17XLD
51,71,,1.0,51.0,badlands_137.jpg,,,,A10HW8JXM17XLD
52,72,,1.0,52.0,mountain_101.jpg,,,,A10HW8JXM17XLD
53,73,,1.0,53.0,playground_257.jpg,,,,A10HW8JXM17XLD
54,74,right,1.0,54.0,right.jpg,right,1.2804,,A10HW8JXM17XLD
55,75,,1.0,55.0,golf_course_15.jpg,,,,A10HW8JXM17XLD
56,76,,1.0,56.0,playground_117.jpg,,,,A10HW8JXM17XLD
57,77,,1.0,57.0,bridge_91.jpg,,,,A10HW8JXM17XLD
58,78,,1.0,58.0,badlands_184.jpg,,,,A10HW8JXM17XLD
59,79,,1.0,59.0,golf_course_78.jpg,,,,A10HW8JXM17XLD
60,80,,1.0,60.0,playground_10.jpg,,,,A10HW8JXM17XLD
61,81,,1.0,61.0,golf_course_188.jpg,,,,A10HW8JXM17XLD
62,82,,1.0,62.0,playground_144.jpg,,,,A10HW8JXM17XLD
63,83,,1.0,63.0,playground_145.jpg,,,,A10HW8JXM17XLD
64,84,,1.0,64.0,highway_93.jpg,,,,A10HW8JXM17XLD
65,20,,1.0,0.0,playground_60.jpg,,,,A19AYB3M3IIP51
66,21,,1.0,1.0,playground_240.jpg,,,,A19AYB3M3IIP51
67,22,,1.0,2.0,mountain_123.jpg,,,,A19AYB3M3IIP51
68,23,,1.0,3.0,highway_359.jpg,,,,A19AYB3M3IIP51
69,24,,1.0,4.0,bridge_256.jpg,,,,A19AYB3M3IIP51
70,25,,1.0,5.0,playground_257.jpg,,,,A19AYB3M3IIP51
71,26,,1.0,6.0,badlands_21.jpg,,,,A19AYB3M3IIP51
72,27,left,1.0,7.0,left.jpg,left,2.0988,,A19AYB3M3IIP51
73,28,,1.0,8.0,mountain_57.jpg,,,,A19AYB3M3IIP51
74,29,,1.0,9.0,highway_177.jpg,,,,A19AYB3M3IIP51
75,30,,1.0,10.0,golf_course_214.jpg,,,,A19AYB3M3IIP51
76,31,,1.0,11.0,highway_294.jpg,,,,A19AYB3M3IIP51
77,32,,1.0,12.0,badlands_221.jpg,,,,A19AYB3M3IIP51
78,33,,1.0,13.0,highway_209.jpg,,,,A19AYB3M3IIP51
79,34,,1.0,14.0,mountain_232.jpg,,,,A19AYB3M3IIP51
80,35,,1.0,15.0,bridge_250.jpg,,,,A19AYB3M3IIP51
81,36,left,1.0,16.0,left.jpg,left,1.8102,,A19AYB3M3IIP51
82,37,,1.0,17.0,mountain_156.jpg,,,,A19AYB3M3IIP51
83,38,,1.0,18.0,playground_131.jpg,,,,A19AYB3M3IIP51
84,39,,1.0,19.0,bridge_191.jpg,,,,A19AYB3M3IIP51
85,40,,1.0,20.0,playground_219.jpg,,,,A19AYB3M3IIP51
86,41,,1.0,21.0,golf_course_217.jpg,,,,A19AYB3M3IIP51
87,42,,1.0,22.0,bridge_108.jpg,,,,A19AYB3M3IIP51
88,43,,1.0,23.0,golf_course_309.jpg,,,,A19AYB3M3IIP51
89,44,,1.0,24.0,playground_144.jpg,,,,A19AYB3M3IIP51
90,45,,1.0,25.0,highway_273.jpg,,,,A19AYB3M3IIP51
91,46,,1.0,26.0,highway_156.jpg,,,,A19AYB3M3IIP51
92,47,,1.0,27.0,golf_course_193.jpg,,,,A19AYB3M3IIP51
93,48,,1.0,28.0,highway_394.jpg,,,,A19AYB3M3IIP51
94,49,,1.0,29.0,playground_76.jpg,,,,A19AYB3M3IIP51
95,50,,1.0,30.0,bridge_128.jpg,,,,A19AYB3M3IIP51
96,51,,1.0,31.0,golf_course_78.jpg,,,,A19AYB3M3IIP51
97,52,right,1.0,32.0,right.jpg,right,1.9907,,A19AYB3M3IIP51
98,53,,1.0,33.0,mountain_230.jpg,,,,A19AYB3M3IIP51
99,54,,1.0,34.0,mountain_110.jpg,,,,A19AYB3M3IIP51
100,55,,1.0,35.0,playground_10.jpg,,,,A19AYB3M3IIP51
101,56,left,1.0,36.0,left.jpg,left,2.5203,,A19AYB3M3IIP51
102,57,,1.0,37.0,badlands_70.jpg,,,,A19AYB3M3IIP51
103,58,,1.0,38.0,golf_course_331.jpg,,,,A19AYB3M3IIP51
104,59,,1.0,39.0,bridge_172.jpg,,,,A19AYB3M3IIP51
105,60,,1.0,40.0,badlands_113.jpg,,,,A19AYB3M3IIP51
106,61,,1.0,41.0,bridge_146.jpg,,,,A19AYB3M3IIP51
107,62,,1.0,42.0,badlands_222.jpg,,,,A19AYB3M3IIP51
108,63,,1.0,43.0,badlands_184.jpg,,,,A19AYB3M3IIP51
109,64,,1.0,44.0,mountain_222.jpg,,,,A19AYB3M3IIP51
110,65,,1.0,45.0,badlands_24.jpg,,,,A19AYB3M3IIP51
111,66,,1.0,46.0,bridge_202.jpg,,,,A19AYB3M3IIP51
112,67,,1.0,47.0,highway_415.jpg,,,,A19AYB3M3IIP51
113,68,,1.0,48.0,mountain_154.jpg,,,,A19AYB3M3IIP51
114,69,,1.0,49.0,playground_145.jpg,,,,A19AYB3M3IIP51
115,70,left,1.0,50.0,left.jpg,left,1.8779,,A19AYB3M3IIP51
116,71,,1.0,51.0,golf_course_188.jpg,,,,A19AYB3M3IIP51
117,72,,1.0,52.0,highway_93.jpg,,,,A19AYB3M3IIP51
118,73,,1.0,53.0,playground_117.jpg,,,,A19AYB3M3IIP51
119,74,,1.0,54.0,golf_course_87.jpg,,,,A19AYB3M3IIP51
120,75,,1.0,55.0,highway_245.jpg,,,,A19AYB3M3IIP51
121,76,,1.0,56.0,badlands_52.jpg,,,,A19AYB3M3IIP51
122,77,,1.0,57.0,bridge_91.jpg,,,,A19AYB3M3IIP51
123,78,,1.0,58.0,mountain_101.jpg,,,,A19AYB3M3IIP51
124,79,,1.0,59.0,golf_course_15.jpg,,,,A19AYB3M3IIP51
125,80,,1.0,60.0,bridge_65.jpg,,,,A19AYB3M3IIP51
126,81,,1.0,61.0,golf_course_195.jpg,,,,A19AYB3M3IIP51
127,82,,1.0,62.0,badlands_23.jpg,,,,A19AYB3M3IIP51
128,83,,1.0,63.0,mountain_293.jpg,,,,A19AYB3M3IIP51
129,84,,1.0,64.0,badlands_137.jpg,,,,A19AYB3M3IIP51
130,20,,1.0,0.0,bridge_256.jpg,,,,A19PB6VUP0RAC3
131,21,,1.0,1.0,playground_144.jpg,,,,A19PB6VUP0RAC3
132,22,,1.0,2.0,highway_209.jpg,,,,A19PB6VUP0RAC3
133,23,,1.0,3.0,mountain_123.jpg,,,,A19PB6VUP0RAC3
134,24,,1.0,4.0,playground_257.jpg,,,,A19PB6VUP0RAC3
135,25,,1.0,5.0,highway_273.jpg,,,,A19PB6VUP0RAC3
136,26,,1.0,6.0,highway_156.jpg,,,,A19PB6VUP0RAC3
137,27,,1.0,7.0,mountain_230.jpg,,,,A19PB6VUP0RAC3
138,28,,1.0,8.0,highway_93.jpg,,,,A19PB6VUP0RAC3
139,29,,1.0,9.0,playground_219.jpg,,,,A19PB6VUP0RAC3
140,30,,1.0,10.0,golf_course_87.jpg,,,,A19PB6VUP0RAC3
141,31,,1.0,11.0,bridge_91.jpg,,,,A19PB6VUP0RAC3
142,32,,1.0,12.0,highway_177.jpg,,,,A19PB6VUP0RAC3
143,33,,1.0,13.0,golf_course_188.jpg,,,,A19PB6VUP0RAC3
144,34,right,1.0,14.0,right.jpg,right,0.9896,,A19PB6VUP0RAC3
145,35,,1.0,15.0,playground_117.jpg,,,,A19PB6VUP0RAC3
146,36,right,1.0,16.0,right.jpg,right,1.0921,,A19PB6VUP0RAC3
147,37,,1.0,17.0,badlands_52.jpg,,,,A19PB6VUP0RAC3
148,38,,1.0,18.0,badlands_222.jpg,,,,A19PB6VUP0RAC3
149,39,,1.0,19.0,highway_359.jpg,,,,A19PB6VUP0RAC3
150,40,,1.0,20.0,golf_course_78.jpg,,,,A19PB6VUP0RAC3
151,41,,1.0,21.0,mountain_293.jpg,,,,A19PB6VUP0RAC3
152,42,,1.0,22.0,highway_294.jpg,,,,A19PB6VUP0RAC3
153,43,,1.0,23.0,mountain_156.jpg,,,,A19PB6VUP0RAC3
154,44,,1.0,24.0,highway_415.jpg,,,,A19PB6VUP0RAC3
155,45,,1.0,25.0,mountain_222.jpg,,,,A19PB6VUP0RAC3
156,46,,1.0,26.0,badlands_137.jpg,,,,A19PB6VUP0RAC3
157,47,,1.0,27.0,playground_240.jpg,,,,A19PB6VUP0RAC3
158,48,left,1.0,28.0,left.jpg,left,0.7851,,A19PB6VUP0RAC3
159,49,,1.0,29.0,mountain_154.jpg,,,,A19PB6VUP0RAC3
160,50,,1.0,30.0,bridge_146.jpg,,,,A19PB6VUP0RAC3
161,51,,1.0,31.0,playground_76.jpg,,,,A19PB6VUP0RAC3
162,52,,1.0,32.0,playground_60.jpg,,,,A19PB6VUP0RAC3
163,53,,1.0,33.0,golf_course_309.jpg,,,,A19PB6VUP0RAC3
164,54,,1.0,34.0,mountain_110.jpg,,,,A19PB6VUP0RAC3
165,55,,1.0,35.0,badlands_23.jpg,,,,A19PB6VUP0RAC3
166,56,,1.0,36.0,playground_10.jpg,,,,A19PB6VUP0RAC3
167,57,,1.0,37.0,highway_245.jpg,,,,A19PB6VUP0RAC3
168,58,right,1.0,38.0,right.jpg,right,0.9875,,A19PB6VUP0RAC3
169,59,,1.0,39.0,badlands_184.jpg,,,,A19PB6VUP0RAC3
170,60,,1.0,40.0,bridge_250.jpg,,,,A19PB6VUP0RAC3
171,61,,1.0,41.0,golf_course_217.jpg,,,,A19PB6VUP0RAC3
172,62,,1.0,42.0,bridge_108.jpg,,,,A19PB6VUP0RAC3
173,63,,1.0,43.0,badlands_21.jpg,,,,A19PB6VUP0RAC3
174,64,,1.0,44.0,bridge_65.jpg,,,,A19PB6VUP0RAC3
175,65,,1.0,45.0,bridge_202.jpg,,,,A19PB6VUP0RAC3
176,66,,1.0,46.0,golf_course_195.jpg,,,,A19PB6VUP0RAC3
177,67,,1.0,47.0,playground_145.jpg,,,,A19PB6VUP0RAC3
178,68,,1.0,48.0,golf_course_15.jpg,,,,A19PB6VUP0RAC3
179,69,,1.0,49.0,badlands_221.jpg,,,,A19PB6VUP0RAC3
180,70,right,1.0,50.0,right.jpg,right,1.1364,,A19PB6VUP0RAC3
181,71,,1.0,51.0,badlands_24.jpg,,,,A19PB6VUP0RAC3
182,72,,1.0,52.0,bridge_191.jpg,,,,A19PB6VUP0RAC3
183,73,,1.0,53.0,playground_131.jpg,,,,A19PB6VUP0RAC3
184,74,,1.0,54.0,bridge_128.jpg,,,,A19PB6VUP0RAC3
185,75,,1.0,55.0,mountain_232.jpg,,,,A19PB6VUP0RAC3
186,76,,1.0,56.0,golf_course_331.jpg,,,,A19PB6VUP0RAC3
187,77,,1.0,57.0,golf_course_193.jpg,,,,A19PB6VUP0RAC3
188,78,,1.0,58.0,bridge_172.jpg,,,,A19PB6VUP0RAC3
189,79,,1.0,59.0,badlands_70.jpg,,,,A19PB6VUP0RAC3
190,80,,1.0,60.0,badlands_113.jpg,,,,A19PB6VUP0RAC3
191,81,,1.0,61.0,mountain_57.jpg,,,,A19PB6VUP0RAC3
192,82,,1.0,62.0,mountain_101.jpg,,,,A19PB6VUP0RAC3
193,83,,1.0,63.0,highway_394.jpg,,,,A19PB6VUP0RAC3
194,84,,1.0,64.0,golf_course_214.jpg,,,,A19PB6VUP0RAC3
195,20,,1.0,0.0,playground_60.jpg,,,,A1ABRVTR49OA73
196,21,,1.0,1.0,mountain_230.jpg,,,,A1ABRVTR49OA73
197,22,,1.0,2.0,highway_245.jpg,,,,A1ABRVTR49OA73
198,23,,1.0,3.0,golf_course_309.jpg,,,,A1ABRVTR49OA73
199,24,,1.0,4.0,playground_240.jpg,,,,A1ABRVTR49OA73
200,25,,1.0,5.0,highway_359.jpg,,,,A1ABRVTR49OA73
201,26,,1.0,6.0,badlands_21.jpg,,,,A1ABRVTR49OA73
202,27,,1.0,7.0,highway_394.jpg,,,,A1ABRVTR49OA73
203,28,,1.0,8.0,highway_209.jpg,,,,A1ABRVTR49OA73
204,29,,1.0,9.0,badlands_23.jpg,,,,A1ABRVTR49OA73
205,30,,1.0,10.0,playground_219.jpg,,,,A1ABRVTR49OA73
206,31,,1.0,11.0,bridge_191.jpg,,,,A1ABRVTR49OA73
207,32,,1.0,12.0,badlands_137.jpg,,,,A1ABRVTR49OA73
208,33,,1.0,13.0,bridge_91.jpg,,,,A1ABRVTR49OA73
209,34,,0.0,14.0,right.jpg,right,,,A1ABRVTR49OA73
210,35,,1.0,15.0,highway_156.jpg,,,,A1ABRVTR49OA73
211,36,,1.0,16.0,badlands_70.jpg,,,,A1ABRVTR49OA73
212,37,,1.0,17.0,highway_93.jpg,,,,A1ABRVTR49OA73
213,38,,1.0,18.0,mountain_232.jpg,,,,A1ABRVTR49OA73
214,39,,1.0,19.0,bridge_256.jpg,,,,A1ABRVTR49OA73
215,40,right,1.0,20.0,right.jpg,right,0.9781,,A1ABRVTR49OA73
216,41,,1.0,21.0,badlands_24.jpg,,,,A1ABRVTR49OA73
217,42,,1.0,22.0,playground_257.jpg,,,,A1ABRVTR49OA73
218,43,,1.0,23.0,bridge_128.jpg,,,,A1ABRVTR49OA73
219,44,,1.0,24.0,highway_294.jpg,,,,A1ABRVTR49OA73
220,45,,1.0,25.0,bridge_108.jpg,,,,A1ABRVTR49OA73
221,46,,1.0,26.0,badlands_222.jpg,,,,A1ABRVTR49OA73
222,47,left,1.0,27.0,left.jpg,left,1.0127,,A1ABRVTR49OA73
223,48,,1.0,28.0,playground_145.jpg,,,,A1ABRVTR49OA73
224,49,,1.0,29.0,bridge_202.jpg,,,,A1ABRVTR49OA73
225,50,,1.0,30.0,golf_course_188.jpg,,,,A1ABRVTR49OA73
226,51,,1.0,31.0,mountain_101.jpg,,,,A1ABRVTR49OA73
227,52,,1.0,32.0,highway_177.jpg,,,,A1ABRVTR49OA73
228,53,,1.0,33.0,highway_415.jpg,,,,A1ABRVTR49OA73
229,54,,1.0,34.0,mountain_57.jpg,,,,A1ABRVTR49OA73
230,55,,1.0,35.0,mountain_154.jpg,,,,A1ABRVTR49OA73
231,56,,1.0,36.0,mountain_110.jpg,,,,A1ABRVTR49OA73
232,57,,1.0,37.0,mountain_293.jpg,,,,A1ABRVTR49OA73
233,58,left,1.0,38.0,left.jpg,left,0.9792,,A1ABRVTR49OA73
234,59,,1.0,39.0,golf_course_331.jpg,,,,A1ABRVTR49OA73
235,60,,1.0,40.0,golf_course_217.jpg,,,,A1ABRVTR49OA73
236,61,,1.0,41.0,mountain_222.jpg,,,,A1ABRVTR49OA73
237,62,,1.0,42.0,highway_273.jpg,,,,A1ABRVTR49OA73
238,63,,1.0,43.0,playground_144.jpg,,,,A1ABRVTR49OA73
239,64,,1.0,44.0,mountain_123.jpg,,,,A1ABRVTR49OA73
240,65,,1.0,45.0,badlands_52.jpg,,,,A1ABRVTR49OA73
241,66,,1.0,46.0,golf_course_193.jpg,,,,A1ABRVTR49OA73
242,67,,1.0,47.0,playground_76.jpg,,,,A1ABRVTR49OA73
243,68,,1.0,48.0,golf_course_214.jpg,,,,A1ABRVTR49OA73
244,69,,1.0,49.0,bridge_146.jpg,,,,A1ABRVTR49OA73
245,70,,1.0,50.0,playground_10.jpg,,,,A1ABRVTR49OA73
246,71,,1.0,51.0,playground_131.jpg,,,,A1ABRVTR49OA73
247,72,,1.0,52.0,bridge_172.jpg,,,,A1ABRVTR49OA73
248,73,left,1.0,53.0,left.jpg,left,1.0224,,A1ABRVTR49OA73
249,74,,1.0,54.0,playground_117.jpg,,,,A1ABRVTR49OA73
250,75,,1.0,55.0,golf_course_78.jpg,,,,A1ABRVTR49OA73
251,76,,1.0,56.0,badlands_184.jpg,,,,A1ABRVTR49OA73
252,77,,1.0,57.0,golf_course_195.jpg,,,,A1ABRVTR49OA73
253,78,,1.0,58.0,bridge_250.jpg,,,,A1ABRVTR49OA73
254,79,,1.0,59.0,golf_course_15.jpg,,,,A1ABRVTR49OA73
255,80,,1.0,60.0,badlands_221.jpg,,,,A1ABRVTR49OA73
256,81,,1.0,61.0,golf_course_87.jpg,,,,A1ABRVTR49OA73
257,82,,1.0,62.0,mountain_156.jpg,,,,A1ABRVTR49OA73
258,83,,1.0,63.0,bridge_65.jpg,,,,A1ABRVTR49OA73
259,84,,1.0,64.0,badlands_113.jpg,,,,A1ABRVTR49OA73
260,20,,1.0,0.0,bridge_172.jpg,,,,A1AMGHYG5PT0L2
261,21,,1.0,1.0,badlands_70.jpg,,,,A1AMGHYG5PT0L2
262,22,,1.0,2.0,playground_10.jpg,,,,A1AMGHYG5PT0L2
263,23,,1.0,3.0,highway_177.jpg,,,,A1AMGHYG5PT0L2
264,24,,1.0,4.0,badlands_21.jpg,,,,A1AMGHYG5PT0L2
265,25,,1.0,5.0,golf_course_188.jpg,,,,A1AMGHYG5PT0L2
266,26,,1.0,6.0,golf_course_15.jpg,,,,A1AMGHYG5PT0L2
267,27,,1.0,7.0,playground_219.jpg,,,,A1AMGHYG5PT0L2
268,28,,1.0,8.0,mountain_230.jpg,,,,A1AMGHYG5PT0L2
269,29,,1.0,9.0,badlands_113.jpg,,,,A1AMGHYG5PT0L2
270,30,,1.0,10.0,bridge_128.jpg,,,,A1AMGHYG5PT0L2
271,31,,1.0,11.0,mountain_232.jpg,,,,A1AMGHYG5PT0L2
272,32,,1.0,12.0,bridge_65.jpg,,,,A1AMGHYG5PT0L2
273,33,right,1.0,13.0,right.jpg,right,1.9663,,A1AMGHYG5PT0L2
274,34,,1.0,14.0,highway_209.jpg,,,,A1AMGHYG5PT0L2
275,35,,1.0,15.0,golf_course_193.jpg,,,,A1AMGHYG5PT0L2
276,36,,1.0,16.0,mountain_293.jpg,,,,A1AMGHYG5PT0L2
277,37,,1.0,17.0,mountain_57.jpg,,,,A1AMGHYG5PT0L2
278,38,,1.0,18.0,mountain_110.jpg,,,,A1AMGHYG5PT0L2
279,39,,1.0,19.0,mountain_154.jpg,,,,A1AMGHYG5PT0L2
280,40,,1.0,20.0,golf_course_78.jpg,,,,A1AMGHYG5PT0L2
281,41,left,1.0,21.0,left.jpg,left,0.5649,,A1AMGHYG5PT0L2
282,42,,1.0,22.0,badlands_52.jpg,,,,A1AMGHYG5PT0L2
283,43,,1.0,23.0,highway_359.jpg,,,,A1AMGHYG5PT0L2
284,44,,1.0,24.0,highway_156.jpg,,,,A1AMGHYG5PT0L2
285,45,,1.0,25.0,playground_131.jpg,,,,A1AMGHYG5PT0L2
286,46,,1.0,26.0,bridge_146.jpg,,,,A1AMGHYG5PT0L2
287,47,,1.0,27.0,badlands_184.jpg,,,,A1AMGHYG5PT0L2
288,48,left,1.0,28.0,left.jpg,left,0.6478,,A1AMGHYG5PT0L2
289,49,,1.0,29.0,mountain_222.jpg,,,,A1AMGHYG5PT0L2
290,50,,1.0,30.0,highway_294.jpg,,,,A1AMGHYG5PT0L2
291,51,,1.0,31.0,bridge_256.jpg,,,,A1AMGHYG5PT0L2
292,52,,1.0,32.0,bridge_191.jpg,,,,A1AMGHYG5PT0L2
293,53,,1.0,33.0,playground_76.jpg,,,,A1AMGHYG5PT0L2
294,54,,1.0,34.0,playground_240.jpg,,,,A1AMGHYG5PT0L2
295,55,,1.0,35.0,playground_60.jpg,,,,A1AMGHYG5PT0L2
296,56,right,1.0,36.0,right.jpg,right,2.9639,,A1AMGHYG5PT0L2
297,57,,1.0,37.0,playground_117.jpg,,,,A1AMGHYG5PT0L2
298,58,,1.0,38.0,mountain_101.jpg,,,,A1AMGHYG5PT0L2
299,59,,1.0,39.0,badlands_23.jpg,,,,A1AMGHYG5PT0L2
300,60,,1.0,40.0,bridge_202.jpg,,,,A1AMGHYG5PT0L2
301,61,,1.0,41.0,playground_144.jpg,,,,A1AMGHYG5PT0L2
302,62,,1.0,42.0,golf_course_87.jpg,,,,A1AMGHYG5PT0L2
303,63,,1.0,43.0,bridge_108.jpg,,,,A1AMGHYG5PT0L2
304,64,,1.0,44.0,bridge_91.jpg,,,,A1AMGHYG5PT0L2
305,65,,1.0,45.0,golf_course_214.jpg,,,,A1AMGHYG5PT0L2
306,66,,1.0,46.0,badlands_221.jpg,,,,A1AMGHYG5PT0L2
307,67,,1.0,47.0,badlands_24.jpg,,,,A1AMGHYG5PT0L2
308,68,,1.0,48.0,highway_93.jpg,,,,A1AMGHYG5PT0L2
309,69,,1.0,49.0,playground_257.jpg,,,,A1AMGHYG5PT0L2
310,70,,1.0,50.0,bridge_250.jpg,,,,A1AMGHYG5PT0L2
311,71,,1.0,51.0,golf_course_195.jpg,,,,A1AMGHYG5PT0L2
312,72,,1.0,52.0,mountain_156.jpg,,,,A1AMGHYG5PT0L2
313,73,,1.0,53.0,playground_145.jpg,,,,A1AMGHYG5PT0L2
314,74,,0.0,54.0,left.jpg,left,,,A1AMGHYG5PT0L2
315,75,,1.0,55.0,golf_course_331.jpg,,,,A1AMGHYG5PT0L2
316,76,,1.0,56.0,badlands_222.jpg,,,,A1AMGHYG5PT0L2
317,77,,1.0,57.0,badlands_137.jpg,,,,A1AMGHYG5PT0L2
318,78,,1.0,58.0,highway_245.jpg,,,,A1AMGHYG5PT0L2
319,79,,1.0,59.0,highway_415.jpg,,,,A1AMGHYG5PT0L2
320,80,,1.0,60.0,highway_394.jpg,,,,A1AMGHYG5PT0L2
321,81,,1.0,61.0,mountain_123.jpg,,,,A1AMGHYG5PT0L2
322,82,,1.0,62.0,golf_course_309.jpg,,,,A1AMGHYG5PT0L2
323,83,,1.0,63.0,highway_273.jpg,,,,A1AMGHYG5PT0L2
324,84,,1.0,64.0,golf_course_217.jpg,,,,A1AMGHYG5PT0L2
325,20,,1.0,0.0,golf_course_309.jpg,,,,A1BQLX0A4W8A8
326,21,,1.0,1.0,playground_144.jpg,,,,A1BQLX0A4W8A8
327,22,,1.0,2.0,bridge_256.jpg,,,,A1BQLX0A4W8A8
328,23,,1.0,3.0,badlands_52.jpg,,,,A1BQLX0A4W8A8
329,24,,1.0,4.0,mountain_57.jpg,,,,A1BQLX0A4W8A8
330,25,,1.0,5.0,badlands_113.jpg,,,,A1BQLX0A4W8A8
331,26,,1.0,6.0,highway_93.jpg,,,,A1BQLX0A4W8A8
332,27,,1.0,7.0,badlands_70.jpg,,,,A1BQLX0A4W8A8
333,28,,1.0,8.0,badlands_24.jpg,,,,A1BQLX0A4W8A8
334,29,,1.0,9.0,playground_257.jpg,,,,A1BQLX0A4W8A8
335,30,,1.0,10.0,highway_294.jpg,,,,A1BQLX0A4W8A8
336,31,,1.0,11.0,golf_course_87.jpg,,,,A1BQLX0A4W8A8
337,32,,1.0,12.0,playground_131.jpg,,,,A1BQLX0A4W8A8
338,33,right,1.0,13.0,right.jpg,right,0.9095,,A1BQLX0A4W8A8
339,34,,1.0,14.0,highway_273.jpg,,,,A1BQLX0A4W8A8
340,35,,1.0,15.0,highway_359.jpg,,,,A1BQLX0A4W8A8
341,36,,1.0,16.0,playground_240.jpg,,,,A1BQLX0A4W8A8
342,37,,1.0,17.0,bridge_128.jpg,,,,A1BQLX0A4W8A8
343,38,,1.0,18.0,golf_course_217.jpg,,,,A1BQLX0A4W8A8
344,39,,1.0,19.0,bridge_191.jpg,,,,A1BQLX0A4W8A8
345,40,left,1.0,20.0,left.jpg,left,0.8508,,A1BQLX0A4W8A8
346,41,,1.0,21.0,highway_156.jpg,,,,A1BQLX0A4W8A8
347,42,,1.0,22.0,bridge_146.jpg,,,,A1BQLX0A4W8A8
348,43,,1.0,23.0,playground_219.jpg,,,,A1BQLX0A4W8A8
349,44,,1.0,24.0,mountain_154.jpg,,,,A1BQLX0A4W8A8
350,45,,1.0,25.0,playground_60.jpg,,,,A1BQLX0A4W8A8
351,46,,1.0,26.0,golf_course_195.jpg,,,,A1BQLX0A4W8A8
352,47,,1.0,27.0,bridge_172.jpg,,,,A1BQLX0A4W8A8
353,48,,1.0,28.0,mountain_230.jpg,,,,A1BQLX0A4W8A8
354,49,,1.0,29.0,golf_course_193.jpg,,,,A1BQLX0A4W8A8
355,50,,1.0,30.0,bridge_91.jpg,,,,A1BQLX0A4W8A8
356,51,,1.0,31.0,badlands_137.jpg,,,,A1BQLX0A4W8A8
357,52,,1.0,32.0,highway_394.jpg,,,,A1BQLX0A4W8A8
358,53,,1.0,33.0,highway_209.jpg,,,,A1BQLX0A4W8A8
359,54,right,1.0,34.0,right.jpg,right,0.8827,,A1BQLX0A4W8A8
360,55,,1.0,35.0,bridge_108.jpg,,,,A1BQLX0A4W8A8
361,56,,1.0,36.0,mountain_293.jpg,,,,A1BQLX0A4W8A8
362,57,,1.0,37.0,badlands_21.jpg,,,,A1BQLX0A4W8A8
363,58,,1.0,38.0,playground_117.jpg,,,,A1BQLX0A4W8A8
364,59,,1.0,39.0,bridge_202.jpg,,,,A1BQLX0A4W8A8
365,60,,1.0,40.0,golf_course_15.jpg,,,,A1BQLX0A4W8A8
366,61,right,1.0,41.0,right.jpg,right,0.9603,,A1BQLX0A4W8A8
367,62,,1.0,42.0,badlands_23.jpg,,,,A1BQLX0A4W8A8
368,63,,1.0,43.0,golf_course_188.jpg,,,,A1BQLX0A4W8A8
369,64,,1.0,44.0,badlands_184.jpg,,,,A1BQLX0A4W8A8
370,65,,1.0,45.0,golf_course_331.jpg,,,,A1BQLX0A4W8A8
371,66,,1.0,46.0,mountain_222.jpg,,,,A1BQLX0A4W8A8
372,67,,1.0,47.0,highway_415.jpg,,,,A1BQLX0A4W8A8
373,68,,1.0,48.0,golf_course_214.jpg,,,,A1BQLX0A4W8A8
374,69,,1.0,49.0,mountain_110.jpg,,,,A1BQLX0A4W8A8
375,70,,1.0,50.0,bridge_65.jpg,,,,A1BQLX0A4W8A8
376,71,,1.0,51.0,mountain_232.jpg,,,,A1BQLX0A4W8A8
377,72,,1.0,52.0,mountain_101.jpg,,,,A1BQLX0A4W8A8
378,73,left,1.0,53.0,left.jpg,left,0.8636,,A1BQLX0A4W8A8
379,74,,1.0,54.0,bridge_250.jpg,,,,A1BQLX0A4W8A8
380,75,,1.0,55.0,badlands_221.jpg,,,,A1BQLX0A4W8A8
381,76,,1.0,56.0,playground_10.jpg,,,,A1BQLX0A4W8A8
382,77,,1.0,57.0,golf_course_78.jpg,,,,A1BQLX0A4W8A8
383,78,,1.0,58.0,playground_76.jpg,,,,A1BQLX0A4W8A8
384,79,,1.0,59.0,playground_145.jpg,,,,A1BQLX0A4W8A8
385,80,,1.0,60.0,highway_177.jpg,,,,A1BQLX0A4W8A8
386,81,,1.0,61.0,highway_245.jpg,,,,A1BQLX0A4W8A8
387,82,,1.0,62.0,mountain_123.jpg,,,,A1BQLX0A4W8A8
388,83,,1.0,63.0,badlands_222.jpg,,,,A1BQLX0A4W8A8
389,84,,1.0,64.0,mountain_156.jpg,,,,A1BQLX0A4W8A8
390,20,,1.0,0.0,bridge_91.jpg,,,,A1DIYFGQT1QDV2
391,21,,1.0,1.0,badlands_21.jpg,,,,A1DIYFGQT1QDV2
392,22,,1.0,2.0,highway_394.jpg,,,,A1DIYFGQT1QDV2
393,23,,1.0,3.0,golf_course_193.jpg,,,,A1DIYFGQT1QDV2
394,24,,1.0,4.0,golf_course_214.jpg,,,,A1DIYFGQT1QDV2
395,25,,1.0,5.0,playground_131.jpg,,,,A1DIYFGQT1QDV2
396,26,,1.0,6.0,highway_93.jpg,,,,A1DIYFGQT1QDV2
397,27,,1.0,7.0,bridge_191.jpg,,,,A1DIYFGQT1QDV2
398,28,,1.0,8.0,mountain_57.jpg,,,,A1DIYFGQT1QDV2
399,29,,1.0,9.0,badlands_113.jpg,,,,A1DIYFGQT1QDV2
400,30,left,1.0,10.0,left.jpg,left,0.7864,,A1DIYFGQT1QDV2
401,31,,1.0,11.0,badlands_184.jpg,,,,A1DIYFGQT1QDV2
402,32,,1.0,12.0,mountain_230.jpg,,,,A1DIYFGQT1QDV2
403,33,,1.0,13.0,bridge_256.jpg,,,,A1DIYFGQT1QDV2
404,34,,1.0,14.0,mountain_293.jpg,,,,A1DIYFGQT1QDV2
405,35,,1.0,15.0,playground_60.jpg,,,,A1DIYFGQT1QDV2
406,36,,1.0,16.0,playground_145.jpg,,,,A1DIYFGQT1QDV2
407,37,,1.0,17.0,playground_117.jpg,,,,A1DIYFGQT1QDV2
408,38,,1.0,18.0,highway_415.jpg,,,,A1DIYFGQT1QDV2
409,39,,1.0,19.0,golf_course_195.jpg,,,,A1DIYFGQT1QDV2
410,40,,1.0,20.0,badlands_70.jpg,,,,A1DIYFGQT1QDV2
411,41,,1.0,21.0,badlands_221.jpg,,,,A1DIYFGQT1QDV2
412,42,right,1.0,22.0,right.jpg,right,0.7525,,A1DIYFGQT1QDV2
413,43,,1.0,23.0,bridge_250.jpg,,,,A1DIYFGQT1QDV2
414,44,,1.0,24.0,mountain_222.jpg,,,,A1DIYFGQT1QDV2
415,45,,1.0,25.0,highway_273.jpg,,,,A1DIYFGQT1QDV2
416,46,,1.0,26.0,playground_76.jpg,,,,A1DIYFGQT1QDV2
417,47,,1.0,27.0,mountain_123.jpg,,,,A1DIYFGQT1QDV2
418,48,,1.0,28.0,golf_course_309.jpg,,,,A1DIYFGQT1QDV2
419,49,,1.0,29.0,mountain_232.jpg,,,,A1DIYFGQT1QDV2
420,50,left,1.0,30.0,left.jpg,left,0.7178,,A1DIYFGQT1QDV2
421,51,,1.0,31.0,highway_209.jpg,,,,A1DIYFGQT1QDV2
422,52,,1.0,32.0,bridge_202.jpg,,,,A1DIYFGQT1QDV2
423,53,,1.0,33.0,mountain_110.jpg,,,,A1DIYFGQT1QDV2
424,54,,1.0,34.0,bridge_108.jpg,,,,A1DIYFGQT1QDV2
425,55,,1.0,35.0,mountain_154.jpg,,,,A1DIYFGQT1QDV2
426,56,,1.0,36.0,bridge_128.jpg,,,,A1DIYFGQT1QDV2
427,57,,1.0,37.0,highway_177.jpg,,,,A1DIYFGQT1QDV2
428,58,,1.0,38.0,badlands_52.jpg,,,,A1DIYFGQT1QDV2
429,59,,1.0,39.0,golf_course_15.jpg,,,,A1DIYFGQT1QDV2
430,60,,1.0,40.0,playground_240.jpg,,,,A1DIYFGQT1QDV2
431,61,,1.0,41.0,highway_294.jpg,,,,A1DIYFGQT1QDV2
432,62,,1.0,42.0,mountain_101.jpg,,,,A1DIYFGQT1QDV2
433,63,,1.0,43.0,badlands_23.jpg,,,,A1DIYFGQT1QDV2
434,64,right,1.0,44.0,right.jpg,right,0.6838,,A1DIYFGQT1QDV2
435,65,,1.0,45.0,highway_245.jpg,,,,A1DIYFGQT1QDV2
436,66,,1.0,46.0,badlands_222.jpg,,,,A1DIYFGQT1QDV2
437,67,left,1.0,47.0,left.jpg,left,0.7721,,A1DIYFGQT1QDV2
438,68,,1.0,48.0,badlands_24.jpg,,,,A1DIYFGQT1QDV2
439,69,,1.0,49.0,mountain_156.jpg,,,,A1DIYFGQT1QDV2
440,70,,1.0,50.0,golf_course_217.jpg,,,,A1DIYFGQT1QDV2
441,71,,1.0,51.0,playground_219.jpg,,,,A1DIYFGQT1QDV2
442,72,,1.0,52.0,badlands_137.jpg,,,,A1DIYFGQT1QDV2
443,73,,1.0,53.0,playground_257.jpg,,,,A1DIYFGQT1QDV2
444,74,,1.0,54.0,bridge_172.jpg,,,,A1DIYFGQT1QDV2
445,75,,1.0,55.0,highway_156.jpg,,,,A1DIYFGQT1QDV2
446,76,,1.0,56.0,golf_course_78.jpg,,,,A1DIYFGQT1QDV2
447,77,,1.0,57.0,golf_course_188.jpg,,,,A1DIYFGQT1QDV2
448,78,,1.0,58.0,playground_10.jpg,,,,A1DIYFGQT1QDV2
449,79,,1.0,59.0,golf_course_87.jpg,,,,A1DIYFGQT1QDV2
450,80,,1.0,60.0,highway_359.jpg,,,,A1DIYFGQT1QDV2
451,81,,1.0,61.0,playground_144.jpg,,,,A1DIYFGQT1QDV2
452,82,,1.0,62.0,bridge_65.jpg,,,,A1DIYFGQT1QDV2
453,83,,1.0,63.0,bridge_146.jpg,,,,A1DIYFGQT1QDV2
454,84,,1.0,64.0,golf_course_331.jpg,,,,A1DIYFGQT1QDV2
455,20,,1.0,0.0,golf_course_309.jpg,,,,A1F3HF70PF8G97
456,21,,1.0,1.0,golf_course_214.jpg,,,,A1F3HF70PF8G97
457,22,,1.0,2.0,playground_257.jpg,,,,A1F3HF70PF8G97
458,23,,1.0,3.0,mountain_154.jpg,,,,A1F3HF70PF8G97
459,24,,1.0,4.0,playground_131.jpg,,,,A1F3HF70PF8G97
460,25,,1.0,5.0,playground_240.jpg,,,,A1F3HF70PF8G97
461,26,,1.0,6.0,badlands_52.jpg,,,,A1F3HF70PF8G97
462,27,,1.0,7.0,golf_course_217.jpg,,,,A1F3HF70PF8G97
463,28,right,1.0,8.0,right.jpg,right,1.4193,,A1F3HF70PF8G97
464,29,,1.0,9.0,mountain_123.jpg,,,,A1F3HF70PF8G97
465,30,,1.0,10.0,highway_415.jpg,,,,A1F3HF70PF8G97
466,31,,1.0,11.0,badlands_222.jpg,,,,A1F3HF70PF8G97
467,32,,1.0,12.0,golf_course_331.jpg,,,,A1F3HF70PF8G97
468,33,,1.0,13.0,badlands_21.jpg,,,,A1F3HF70PF8G97
469,34,,1.0,14.0,badlands_184.jpg,,,,A1F3HF70PF8G97
470,35,,1.0,15.0,bridge_172.jpg,,,,A1F3HF70PF8G97
471,36,,1.0,16.0,badlands_24.jpg,,,,A1F3HF70PF8G97
472,37,,1.0,17.0,bridge_91.jpg,,,,A1F3HF70PF8G97
473,38,,1.0,18.0,golf_course_78.jpg,,,,A1F3HF70PF8G97
474,39,,1.0,19.0,golf_course_188.jpg,,,,A1F3HF70PF8G97
475,40,right,1.0,20.0,right.jpg,right,1.428,,A1F3HF70PF8G97
476,41,,1.0,21.0,highway_294.jpg,,,,A1F3HF70PF8G97
477,42,,1.0,22.0,bridge_191.jpg,,,,A1F3HF70PF8G97
478,43,,1.0,23.0,highway_93.jpg,,,,A1F3HF70PF8G97
479,44,,1.0,24.0,bridge_108.jpg,,,,A1F3HF70PF8G97
480,45,,1.0,25.0,badlands_23.jpg,,,,A1F3HF70PF8G97
481,46,,1.0,26.0,mountain_101.jpg,,,,A1F3HF70PF8G97
482,47,,1.0,27.0,highway_156.jpg,,,,A1F3HF70PF8G97
483,48,,1.0,28.0,bridge_256.jpg,,,,A1F3HF70PF8G97
484,49,,1.0,29.0,highway_209.jpg,,,,A1F3HF70PF8G97
485,50,,1.0,30.0,highway_177.jpg,,,,A1F3HF70PF8G97
486,51,,1.0,31.0,mountain_232.jpg,,,,A1F3HF70PF8G97
487,52,left,1.0,32.0,left.jpg,left,1.437,,A1F3HF70PF8G97
488,53,,1.0,33.0,highway_394.jpg,,,,A1F3HF70PF8G97
489,54,,1.0,34.0,playground_219.jpg,,,,A1F3HF70PF8G97
490,55,,1.0,35.0,bridge_202.jpg,,,,A1F3HF70PF8G97
491,56,,1.0,36.0,playground_117.jpg,,,,A1F3HF70PF8G97
492,57,,1.0,37.0,playground_76.jpg,,,,A1F3HF70PF8G97
493,58,right,1.0,38.0,right.jpg,right,1.4607,,A1F3HF70PF8G97
494,59,,1.0,39.0,badlands_137.jpg,,,,A1F3HF70PF8G97
495,60,,1.0,40.0,mountain_222.jpg,,,,A1F3HF70PF8G97
496,61,,1.0,41.0,badlands_221.jpg,,,,A1F3HF70PF8G97
497,62,,1.0,42.0,mountain_110.jpg,,,,A1F3HF70PF8G97
498,63,,1.0,43.0,playground_10.jpg,,,,A1F3HF70PF8G97
499,64,,1.0,44.0,playground_144.jpg,,,,A1F3HF70PF8G97
500,65,,1.0,45.0,golf_course_87.jpg,,,,A1F3HF70PF8G97
501,66,,1.0,46.0,golf_course_195.jpg,,,,A1F3HF70PF8G97
502,67,,1.0,47.0,badlands_113.jpg,,,,A1F3HF70PF8G97
503,68,left,1.0,48.0,left.jpg,left,1.7056,,A1F3HF70PF8G97
504,69,,1.0,49.0,playground_145.jpg,,,,A1F3HF70PF8G97
505,70,,1.0,50.0,playground_60.jpg,,,,A1F3HF70PF8G97
506,71,,1.0,51.0,highway_359.jpg,,,,A1F3HF70PF8G97
507,72,,1.0,52.0,mountain_156.jpg,,,,A1F3HF70PF8G97
508,73,,1.0,53.0,golf_course_15.jpg,,,,A1F3HF70PF8G97
509,74,,1.0,54.0,golf_course_193.jpg,,,,A1F3HF70PF8G97
510,75,,1.0,55.0,bridge_128.jpg,,,,A1F3HF70PF8G97
511,76,,1.0,56.0,mountain_57.jpg,,,,A1F3HF70PF8G97
512,77,,1.0,57.0,highway_273.jpg,,,,A1F3HF70PF8G97
513,78,,1.0,58.0,bridge_146.jpg,,,,A1F3HF70PF8G97
514,79,,1.0,59.0,mountain_293.jpg,,,,A1F3HF70PF8G97
515,80,,1.0,60.0,bridge_250.jpg,,,,A1F3HF70PF8G97
516,81,,1.0,61.0,badlands_70.jpg,,,,A1F3HF70PF8G97
517,82,,1.0,62.0,highway_245.jpg,,,,A1F3HF70PF8G97
518,83,,1.0,63.0,bridge_65.jpg,,,,A1F3HF70PF8G97
519,84,,1.0,64.0,mountain_230.jpg,,,,A1F3HF70PF8G97
520,20,,1.0,0.0,playground_76.jpg,,,,A1PRUVH5Q0T9FS
521,21,,1.0,1.0,bridge_256.jpg,,,,A1PRUVH5Q0T9FS
522,22,,1.0,2.0,golf_course_309.jpg,,,,A1PRUVH5Q0T9FS
523,23,,1.0,3.0,bridge_146.jpg,,,,A1PRUVH5Q0T9FS
524,24,,1.0,4.0,golf_course_15.jpg,,,,A1PRUVH5Q0T9FS
525,25,,1.0,5.0,bridge_108.jpg,,,,A1PRUVH5Q0T9FS
526,26,,1.0,6.0,bridge_191.jpg,,,,A1PRUVH5Q0T9FS
527,27,,1.0,7.0,playground_240.jpg,,,,A1PRUVH5Q0T9FS
528,28,,1.0,8.0,highway_209.jpg,,,,A1PRUVH5Q0T9FS
529,29,,1.0,9.0,highway_294.jpg,,,,A1PRUVH5Q0T9FS
530,30,,1.0,10.0,playground_60.jpg,,,,A1PRUVH5Q0T9FS
531,31,,1.0,11.0,badlands_70.jpg,,,,A1PRUVH5Q0T9FS
532,32,,1.0,12.0,golf_course_188.jpg,,,,A1PRUVH5Q0T9FS
533,33,right,1.0,13.0,right.jpg,right,1.1713,,A1PRUVH5Q0T9FS
534,34,,1.0,14.0,playground_219.jpg,,,,A1PRUVH5Q0T9FS
535,35,,1.0,15.0,mountain_232.jpg,,,,A1PRUVH5Q0T9FS
536,36,,1.0,16.0,bridge_128.jpg,,,,A1PRUVH5Q0T9FS
537,37,,1.0,17.0,golf_course_78.jpg,,,,A1PRUVH5Q0T9FS
538,38,right,1.0,18.0,right.jpg,right,1.4555,,A1PRUVH5Q0T9FS
539,39,,1.0,19.0,highway_177.jpg,,,,A1PRUVH5Q0T9FS
540,40,,1.0,20.0,golf_course_87.jpg,,,,A1PRUVH5Q0T9FS
541,41,,1.0,21.0,golf_course_217.jpg,,,,A1PRUVH5Q0T9FS
542,42,,1.0,22.0,mountain_230.jpg,,,,A1PRUVH5Q0T9FS
543,43,,1.0,23.0,badlands_21.jpg,,,,A1PRUVH5Q0T9FS
544,44,,1.0,24.0,bridge_202.jpg,,,,A1PRUVH5Q0T9FS
545,45,,1.0,25.0,mountain_222.jpg,,,,A1PRUVH5Q0T9FS
546,46,left,1.0,26.0,left.jpg,left,1.1757,,A1PRUVH5Q0T9FS
547,47,,1.0,27.0,golf_course_195.jpg,,,,A1PRUVH5Q0T9FS
548,48,,1.0,28.0,badlands_23.jpg,,,,A1PRUVH5Q0T9FS
549,49,,1.0,29.0,mountain_101.jpg,,,,A1PRUVH5Q0T9FS
550,50,,1.0,30.0,golf_course_214.jpg,,,,A1PRUVH5Q0T9FS
551,51,,1.0,31.0,highway_93.jpg,,,,A1PRUVH5Q0T9FS
552,52,,1.0,32.0,mountain_293.jpg,,,,A1PRUVH5Q0T9FS
553,53,,1.0,33.0,badlands_222.jpg,,,,A1PRUVH5Q0T9FS
554,54,,1.0,34.0,bridge_172.jpg,,,,A1PRUVH5Q0T9FS
555,55,,1.0,35.0,playground_144.jpg,,,,A1PRUVH5Q0T9FS
556,56,left,1.0,36.0,left.jpg,left,1.452,,A1PRUVH5Q0T9FS
557,57,,1.0,37.0,badlands_113.jpg,,,,A1PRUVH5Q0T9FS
558,58,,1.0,38.0,mountain_154.jpg,,,,A1PRUVH5Q0T9FS
559,59,,1.0,39.0,bridge_65.jpg,,,,A1PRUVH5Q0T9FS
560,60,,1.0,40.0,bridge_91.jpg,,,,A1PRUVH5Q0T9FS
561,61,,1.0,41.0,playground_117.jpg,,,,A1PRUVH5Q0T9FS
562,62,,1.0,42.0,bridge_250.jpg,,,,A1PRUVH5Q0T9FS
563,63,,1.0,43.0,mountain_123.jpg,,,,A1PRUVH5Q0T9FS
564,64,,1.0,44.0,golf_course_193.jpg,,,,A1PRUVH5Q0T9FS
565,65,,1.0,45.0,highway_245.jpg,,,,A1PRUVH5Q0T9FS
566,66,,1.0,46.0,highway_415.jpg,,,,A1PRUVH5Q0T9FS
567,67,right,1.0,47.0,right.jpg,right,1.1809,,A1PRUVH5Q0T9FS
568,68,,1.0,48.0,highway_359.jpg,,,,A1PRUVH5Q0T9FS
569,69,,1.0,49.0,highway_273.jpg,,,,A1PRUVH5Q0T9FS
570,70,,1.0,50.0,playground_10.jpg,,,,A1PRUVH5Q0T9FS
571,71,,1.0,51.0,playground_145.jpg,,,,A1PRUVH5Q0T9FS
572,72,,1.0,52.0,mountain_57.jpg,,,,A1PRUVH5Q0T9FS
573,73,,1.0,53.0,badlands_24.jpg,,,,A1PRUVH5Q0T9FS
574,74,,1.0,54.0,playground_257.jpg,,,,A1PRUVH5Q0T9FS
575,75,,1.0,55.0,badlands_221.jpg,,,,A1PRUVH5Q0T9FS
576,76,,1.0,56.0,mountain_110.jpg,,,,A1PRUVH5Q0T9FS
577,77,,1.0,57.0,badlands_52.jpg,,,,A1PRUVH5Q0T9FS
578,78,,1.0,58.0,badlands_137.jpg,,,,A1PRUVH5Q0T9FS
579,79,,1.0,59.0,highway_394.jpg,,,,A1PRUVH5Q0T9FS
580,80,,1.0,60.0,mountain_156.jpg,,,,A1PRUVH5Q0T9FS
581,81,,1.0,61.0,playground_131.jpg,,,,A1PRUVH5Q0T9FS
582,82,,1.0,62.0,golf_course_331.jpg,,,,A1PRUVH5Q0T9FS
583,83,,1.0,63.0,badlands_184.jpg,,,,A1PRUVH5Q0T9FS
584,84,,1.0,64.0,highway_156.jpg,,,,A1PRUVH5Q0T9FS
585,20,,1.0,0.0,badlands_70.jpg,,,,A1Q3GKUJF8EWHG
586,21,,1.0,1.0,golf_course_78.jpg,,,,A1Q3GKUJF8EWHG
587,22,,1.0,2.0,bridge_91.jpg,,,,A1Q3GKUJF8EWHG
588,23,,1.0,3.0,badlands_21.jpg,,,,A1Q3GKUJF8EWHG
589,24,,1.0,4.0,playground_257.jpg,,,,A1Q3GKUJF8EWHG
590,25,,1.0,5.0,playground_60.jpg,,,,A1Q3GKUJF8EWHG
591,26,,1.0,6.0,mountain_293.jpg,,,,A1Q3GKUJF8EWHG
592,27,,1.0,7.0,badlands_137.jpg,,,,A1Q3GKUJF8EWHG
593,28,,1.0,8.0,mountain_123.jpg,,,,A1Q3GKUJF8EWHG
594,29,,1.0,9.0,bridge_256.jpg,,,,A1Q3GKUJF8EWHG
595,30,right,1.0,10.0,right.jpg,right,2.2576,,A1Q3GKUJF8EWHG
596,31,,1.0,11.0,mountain_232.jpg,,,,A1Q3GKUJF8EWHG
597,32,,1.0,12.0,golf_course_214.jpg,,,,A1Q3GKUJF8EWHG
598,33,,1.0,13.0,bridge_250.jpg,,,,A1Q3GKUJF8EWHG
599,34,,1.0,14.0,badlands_52.jpg,,,,A1Q3GKUJF8EWHG
600,35,,1.0,15.0,playground_145.jpg,,,,A1Q3GKUJF8EWHG
601,36,,1.0,16.0,mountain_156.jpg,,,,A1Q3GKUJF8EWHG
602,37,,1.0,17.0,playground_10.jpg,,,,A1Q3GKUJF8EWHG
603,38,left,1.0,18.0,left.jpg,left,1.7575,,A1Q3GKUJF8EWHG
604,39,,1.0,19.0,golf_course_15.jpg,,,,A1Q3GKUJF8EWHG
605,40,,1.0,20.0,badlands_113.jpg,,,,A1Q3GKUJF8EWHG
606,41,,1.0,21.0,highway_359.jpg,,,,A1Q3GKUJF8EWHG
607,42,,1.0,22.0,highway_177.jpg,,,,A1Q3GKUJF8EWHG
608,43,,1.0,23.0,highway_273.jpg,,,,A1Q3GKUJF8EWHG
609,44,,1.0,24.0,mountain_154.jpg,,,,A1Q3GKUJF8EWHG
610,45,,1.0,25.0,golf_course_193.jpg,,,,A1Q3GKUJF8EWHG
611,46,,1.0,26.0,bridge_146.jpg,,,,A1Q3GKUJF8EWHG
612,47,,1.0,27.0,mountain_230.jpg,,,,A1Q3GKUJF8EWHG
613,48,,1.0,28.0,badlands_184.jpg,,,,A1Q3GKUJF8EWHG
614,49,,1.0,29.0,golf_course_195.jpg,,,,A1Q3GKUJF8EWHG
615,50,,1.0,30.0,mountain_57.jpg,,,,A1Q3GKUJF8EWHG
616,51,,1.0,31.0,playground_219.jpg,,,,A1Q3GKUJF8EWHG
617,52,,1.0,32.0,playground_131.jpg,,,,A1Q3GKUJF8EWHG
618,53,,1.0,33.0,bridge_172.jpg,,,,A1Q3GKUJF8EWHG
619,54,left,1.0,34.0,left.jpg,left,2.1625,,A1Q3GKUJF8EWHG
620,55,,1.0,35.0,bridge_128.jpg,,,,A1Q3GKUJF8EWHG
621,56,,1.0,36.0,highway_156.jpg,,,,A1Q3GKUJF8EWHG
622,57,,1.0,37.0,badlands_23.jpg,,,,A1Q3GKUJF8EWHG
623,58,,1.0,38.0,playground_117.jpg,,,,A1Q3GKUJF8EWHG
624,59,left,1.0,39.0,left.jpg,left,2.6859,,A1Q3GKUJF8EWHG
625,60,,1.0,40.0,golf_course_87.jpg,,,,A1Q3GKUJF8EWHG
626,61,,1.0,41.0,golf_course_188.jpg,,,,A1Q3GKUJF8EWHG
627,62,,1.0,42.0,badlands_221.jpg,,,,A1Q3GKUJF8EWHG
628,63,,1.0,43.0,golf_course_331.jpg,,,,A1Q3GKUJF8EWHG
629,64,,1.0,44.0,highway_93.jpg,,,,A1Q3GKUJF8EWHG
630,65,,1.0,45.0,bridge_191.jpg,,,,A1Q3GKUJF8EWHG
631,66,,1.0,46.0,badlands_24.jpg,,,,A1Q3GKUJF8EWHG
632,67,,1.0,47.0,highway_245.jpg,,,,A1Q3GKUJF8EWHG
633,68,,1.0,48.0,highway_415.jpg,,,,A1Q3GKUJF8EWHG
634,69,,1.0,49.0,highway_394.jpg,,,,A1Q3GKUJF8EWHG
635,70,,1.0,50.0,playground_144.jpg,,,,A1Q3GKUJF8EWHG
636,71,,1.0,51.0,mountain_222.jpg,,,,A1Q3GKUJF8EWHG
637,72,right,1.0,52.0,right.jpg,right,2.1462,,A1Q3GKUJF8EWHG
638,73,,1.0,53.0,bridge_202.jpg,,,,A1Q3GKUJF8EWHG
639,74,,1.0,54.0,mountain_110.jpg,,,,A1Q3GKUJF8EWHG
640,75,,1.0,55.0,mountain_101.jpg,,,,A1Q3GKUJF8EWHG
641,76,,1.0,56.0,playground_240.jpg,,,,A1Q3GKUJF8EWHG
642,77,,1.0,57.0,badlands_222.jpg,,,,A1Q3GKUJF8EWHG
643,78,,1.0,58.0,highway_209.jpg,,,,A1Q3GKUJF8EWHG
644,79,,1.0,59.0,highway_294.jpg,,,,A1Q3GKUJF8EWHG
645,80,,1.0,60.0,golf_course_217.jpg,,,,A1Q3GKUJF8EWHG
646,81,,1.0,61.0,playground_76.jpg,,,,A1Q3GKUJF8EWHG
647,82,,1.0,62.0,bridge_108.jpg,,,,A1Q3GKUJF8EWHG
648,83,,1.0,63.0,bridge_65.jpg,,,,A1Q3GKUJF8EWHG
649,84,,1.0,64.0,golf_course_309.jpg,,,,A1Q3GKUJF8EWHG
650,20,,1.0,0.0,bridge_250.jpg,,,,A1YALKEEJHHWSO
651,21,,1.0,1.0,mountain_110.jpg,,,,A1YALKEEJHHWSO
652,22,,1.0,2.0,highway_359.jpg,,,,A1YALKEEJHHWSO
653,23,,1.0,3.0,bridge_146.jpg,,,,A1YALKEEJHHWSO
654,24,,1.0,4.0,playground_240.jpg,,,,A1YALKEEJHHWSO
655,25,,1.0,5.0,playground_257.jpg,,,,A1YALKEEJHHWSO
656,26,,1.0,6.0,playground_60.jpg,,,,A1YALKEEJHHWSO
657,27,,1.0,7.0,golf_course_193.jpg,,,,A1YALKEEJHHWSO
658,28,,1.0,8.0,mountain_232.jpg,,,,A1YALKEEJHHWSO
659,29,,1.0,9.0,badlands_21.jpg,,,,A1YALKEEJHHWSO
660,30,,1.0,10.0,golf_course_15.jpg,,,,A1YALKEEJHHWSO
661,31,,1.0,11.0,mountain_123.jpg,,,,A1YALKEEJHHWSO
662,32,,1.0,12.0,golf_course_87.jpg,,,,A1YALKEEJHHWSO
663,33,,1.0,13.0,bridge_256.jpg,,,,A1YALKEEJHHWSO
664,34,left,1.0,14.0,left.jpg,left,1.991200001,,A1YALKEEJHHWSO
665,35,,1.0,15.0,badlands_137.jpg,,,,A1YALKEEJHHWSO
666,36,,1.0,16.0,highway_177.jpg,,,,A1YALKEEJHHWSO
667,37,,1.0,17.0,badlands_113.jpg,,,,A1YALKEEJHHWSO
668,38,,1.0,18.0,bridge_128.jpg,,,,A1YALKEEJHHWSO
669,39,,1.0,19.0,golf_course_195.jpg,,,,A1YALKEEJHHWSO
670,40,,1.0,20.0,badlands_24.jpg,,,,A1YALKEEJHHWSO
671,41,,1.0,21.0,highway_273.jpg,,,,A1YALKEEJHHWSO
672,42,,1.0,22.0,playground_219.jpg,,,,A1YALKEEJHHWSO
673,43,,1.0,23.0,highway_415.jpg,,,,A1YALKEEJHHWSO
674,44,left,1.0,24.0,left.jpg,left,1.9927,,A1YALKEEJHHWSO
675,45,,1.0,25.0,golf_course_188.jpg,,,,A1YALKEEJHHWSO
676,46,,1.0,26.0,mountain_57.jpg,,,,A1YALKEEJHHWSO
677,47,,1.0,27.0,mountain_101.jpg,,,,A1YALKEEJHHWSO
678,48,,1.0,28.0,badlands_23.jpg,,,,A1YALKEEJHHWSO
679,49,,1.0,29.0,playground_145.jpg,,,,A1YALKEEJHHWSO
680,50,left,1.0,30.0,left.jpg,left,1.9937,,A1YALKEEJHHWSO
681,51,,1.0,31.0,bridge_91.jpg,,,,A1YALKEEJHHWSO
682,52,,1.0,32.0,highway_156.jpg,,,,A1YALKEEJHHWSO
683,53,,1.0,33.0,mountain_222.jpg,,,,A1YALKEEJHHWSO
684,54,,1.0,34.0,mountain_293.jpg,,,,A1YALKEEJHHWSO
685,55,,1.0,35.0,highway_209.jpg,,,,A1YALKEEJHHWSO
686,56,,1.0,36.0,bridge_65.jpg,,,,A1YALKEEJHHWSO
687,57,,1.0,37.0,highway_245.jpg,,,,A1YALKEEJHHWSO
688,58,,1.0,38.0,golf_course_214.jpg,,,,A1YALKEEJHHWSO
689,59,,1.0,39.0,playground_144.jpg,,,,A1YALKEEJHHWSO
690,60,,1.0,40.0,playground_76.jpg,,,,A1YALKEEJHHWSO
691,61,right,1.0,41.0,right.jpg,right,1.9948,,A1YALKEEJHHWSO
692,62,,1.0,42.0,bridge_191.jpg,,,,A1YALKEEJHHWSO
693,63,,1.0,43.0,badlands_70.jpg,,,,A1YALKEEJHHWSO
694,64,,1.0,44.0,highway_294.jpg,,,,A1YALKEEJHHWSO
695,65,,1.0,45.0,bridge_108.jpg,,,,A1YALKEEJHHWSO
696,66,,1.0,46.0,highway_93.jpg,,,,A1YALKEEJHHWSO
697,67,,1.0,47.0,golf_course_309.jpg,,,,A1YALKEEJHHWSO
698,68,,1.0,48.0,playground_131.jpg,,,,A1YALKEEJHHWSO
699,69,right,1.0,49.0,right.jpg,right,1.6535,,A1YALKEEJHHWSO
700,70,,1.0,50.0,mountain_156.jpg,,,,A1YALKEEJHHWSO
701,71,,1.0,51.0,badlands_222.jpg,,,,A1YALKEEJHHWSO
702,72,,1.0,52.0,bridge_172.jpg,,,,A1YALKEEJHHWSO
703,73,,1.0,53.0,mountain_230.jpg,,,,A1YALKEEJHHWSO
704,74,,1.0,54.0,golf_course_331.jpg,,,,A1YALKEEJHHWSO
705,75,,1.0,55.0,highway_394.jpg,,,,A1YALKEEJHHWSO
706,76,,1.0,56.0,mountain_154.jpg,,,,A1YALKEEJHHWSO
707,77,,1.0,57.0,playground_117.jpg,,,,A1YALKEEJHHWSO
708,78,,1.0,58.0,badlands_221.jpg,,,,A1YALKEEJHHWSO
709,79,,1.0,59.0,badlands_52.jpg,,,,A1YALKEEJHHWSO
710,80,,1.0,60.0,playground_10.jpg,,,,A1YALKEEJHHWSO
711,81,,1.0,61.0,badlands_184.jpg,,,,A1YALKEEJHHWSO
712,82,,1.0,62.0,bridge_202.jpg,,,,A1YALKEEJHHWSO
713,83,,1.0,63.0,golf_course_78.jpg,,,,A1YALKEEJHHWSO
714,84,,1.0,64.0,golf_course_217.jpg,,,,A1YALKEEJHHWSO
715,20,,1.0,0.0,bridge_256.jpg,,,,A1ZFUHVIPQOVGK
716,21,,1.0,1.0,highway_359.jpg,,,,A1ZFUHVIPQOVGK
717,22,,1.0,2.0,badlands_70.jpg,,,,A1ZFUHVIPQOVGK
718,23,,1.0,3.0,mountain_222.jpg,,,,A1ZFUHVIPQOVGK
719,24,,1.0,4.0,playground_76.jpg,,,,A1ZFUHVIPQOVGK
720,25,,1.0,5.0,bridge_250.jpg,,,,A1ZFUHVIPQOVGK
721,26,,1.0,6.0,mountain_232.jpg,,,,A1ZFUHVIPQOVGK
722,27,,1.0,7.0,badlands_21.jpg,,,,A1ZFUHVIPQOVGK
723,28,,1.0,8.0,golf_course_309.jpg,,,,A1ZFUHVIPQOVGK
724,29,,1.0,9.0,highway_415.jpg,,,,A1ZFUHVIPQOVGK
725,30,,1.0,10.0,mountain_154.jpg,,,,A1ZFUHVIPQOVGK
726,31,,1.0,11.0,bridge_128.jpg,,,,A1ZFUHVIPQOVGK
727,32,,1.0,12.0,highway_273.jpg,,,,A1ZFUHVIPQOVGK
728,33,,1.0,13.0,bridge_202.jpg,,,,A1ZFUHVIPQOVGK
729,34,right,1.0,14.0,right.jpg,right,1.4302,,A1ZFUHVIPQOVGK
730,35,,1.0,15.0,mountain_110.jpg,,,,A1ZFUHVIPQOVGK
731,36,,1.0,16.0,bridge_191.jpg,,,,A1ZFUHVIPQOVGK
732,37,,1.0,17.0,badlands_113.jpg,,,,A1ZFUHVIPQOVGK
733,38,left,1.0,18.0,left.jpg,left,1.4184,,A1ZFUHVIPQOVGK
734,39,,1.0,19.0,golf_course_195.jpg,,,,A1ZFUHVIPQOVGK
735,40,,1.0,20.0,playground_60.jpg,,,,A1ZFUHVIPQOVGK
736,41,,1.0,21.0,mountain_101.jpg,,,,A1ZFUHVIPQOVGK
737,42,,1.0,22.0,golf_course_217.jpg,,,,A1ZFUHVIPQOVGK
738,43,,1.0,23.0,golf_course_331.jpg,,,,A1ZFUHVIPQOVGK
739,44,,1.0,24.0,mountain_123.jpg,,,,A1ZFUHVIPQOVGK
740,45,,1.0,25.0,playground_145.jpg,,,,A1ZFUHVIPQOVGK
741,46,,1.0,26.0,highway_245.jpg,,,,A1ZFUHVIPQOVGK
742,47,,1.0,27.0,mountain_57.jpg,,,,A1ZFUHVIPQOVGK
743,48,,1.0,28.0,playground_131.jpg,,,,A1ZFUHVIPQOVGK
744,49,,1.0,29.0,highway_177.jpg,,,,A1ZFUHVIPQOVGK
745,50,right,1.0,30.0,right.jpg,right,1.401,,A1ZFUHVIPQOVGK
746,51,,1.0,31.0,badlands_23.jpg,,,,A1ZFUHVIPQOVGK
747,52,,1.0,32.0,highway_294.jpg,,,,A1ZFUHVIPQOVGK
748,53,,1.0,33.0,highway_156.jpg,,,,A1ZFUHVIPQOVGK
749,54,,1.0,34.0,highway_394.jpg,,,,A1ZFUHVIPQOVGK
750,55,,1.0,35.0,bridge_91.jpg,,,,A1ZFUHVIPQOVGK
751,56,left,1.0,36.0,left.jpg,left,1.517,,A1ZFUHVIPQOVGK
752,57,,1.0,37.0,bridge_172.jpg,,,,A1ZFUHVIPQOVGK
753,58,,1.0,38.0,golf_course_78.jpg,,,,A1ZFUHVIPQOVGK
754,59,,1.0,39.0,mountain_293.jpg,,,,A1ZFUHVIPQOVGK
755,60,,1.0,40.0,playground_144.jpg,,,,A1ZFUHVIPQOVGK
756,61,,1.0,41.0,bridge_65.jpg,,,,A1ZFUHVIPQOVGK
757,62,,1.0,42.0,badlands_52.jpg,,,,A1ZFUHVIPQOVGK
758,63,,1.0,43.0,highway_209.jpg,,,,A1ZFUHVIPQOVGK
759,64,,1.0,44.0,golf_course_188.jpg,,,,A1ZFUHVIPQOVGK
760,65,,1.0,45.0,golf_course_214.jpg,,,,A1ZFUHVIPQOVGK
761,66,,1.0,46.0,bridge_108.jpg,,,,A1ZFUHVIPQOVGK
762,67,,1.0,47.0,mountain_230.jpg,,,,A1ZFUHVIPQOVGK
763,68,,1.0,48.0,playground_219.jpg,,,,A1ZFUHVIPQOVGK
764,69,,1.0,49.0,bridge_146.jpg,,,,A1ZFUHVIPQOVGK
765,70,,1.0,50.0,badlands_137.jpg,,,,A1ZFUHVIPQOVGK
766,71,,1.0,51.0,playground_257.jpg,,,,A1ZFUHVIPQOVGK
767,72,,1.0,52.0,mountain_156.jpg,,,,A1ZFUHVIPQOVGK
768,73,,1.0,53.0,golf_course_15.jpg,,,,A1ZFUHVIPQOVGK
769,74,right,1.0,54.0,right.jpg,right,1.8852,,A1ZFUHVIPQOVGK
770,75,,1.0,55.0,badlands_184.jpg,,,,A1ZFUHVIPQOVGK
771,76,,1.0,56.0,badlands_24.jpg,,,,A1ZFUHVIPQOVGK
772,77,,1.0,57.0,badlands_221.jpg,,,,A1ZFUHVIPQOVGK
773,78,,1.0,58.0,highway_93.jpg,,,,A1ZFUHVIPQOVGK
774,79,,1.0,59.0,playground_117.jpg,,,,A1ZFUHVIPQOVGK
775,80,,1.0,60.0,playground_10.jpg,,,,A1ZFUHVIPQOVGK
776,81,,1.0,61.0,badlands_222.jpg,,,,A1ZFUHVIPQOVGK
777,82,,1.0,62.0,golf_course_87.jpg,,,,A1ZFUHVIPQOVGK
778,83,,1.0,63.0,playground_240.jpg,,,,A1ZFUHVIPQOVGK
779,84,,1.0,64.0,golf_course_193.jpg,,,,A1ZFUHVIPQOVGK
780,20,,1.0,0.0,highway_245.jpg,,,,A2AN972XU7OY8W
781,21,,1.0,1.0,badlands_222.jpg,,,,A2AN972XU7OY8W
782,22,,1.0,2.0,highway_209.jpg,,,,A2AN972XU7OY8W
783,23,,1.0,3.0,badlands_23.jpg,,,,A2AN972XU7OY8W
784,24,,1.0,4.0,badlands_70.jpg,,,,A2AN972XU7OY8W
785,25,,1.0,5.0,bridge_65.jpg,,,,A2AN972XU7OY8W
786,26,,1.0,6.0,golf_course_214.jpg,,,,A2AN972XU7OY8W
787,27,,1.0,7.0,mountain_232.jpg,,,,A2AN972XU7OY8W
788,28,,1.0,8.0,playground_144.jpg,,,,A2AN972XU7OY8W
789,29,,1.0,9.0,golf_course_309.jpg,,,,A2AN972XU7OY8W
790,30,,1.0,10.0,mountain_57.jpg,,,,A2AN972XU7OY8W
791,31,,1.0,11.0,mountain_101.jpg,,,,A2AN972XU7OY8W
792,32,,1.0,12.0,highway_294.jpg,,,,A2AN972XU7OY8W
793,33,left,1.0,13.0,left.jpg,left,1.0506,,A2AN972XU7OY8W
794,34,,1.0,14.0,golf_course_331.jpg,,,,A2AN972XU7OY8W
795,35,,1.0,15.0,bridge_202.jpg,,,,A2AN972XU7OY8W
796,36,,1.0,16.0,golf_course_188.jpg,,,,A2AN972XU7OY8W
797,37,,1.0,17.0,bridge_108.jpg,,,,A2AN972XU7OY8W
798,38,,1.0,18.0,golf_course_217.jpg,,,,A2AN972XU7OY8W
799,39,,1.0,19.0,playground_10.jpg,,,,A2AN972XU7OY8W
800,40,,1.0,20.0,mountain_154.jpg,,,,A2AN972XU7OY8W
801,41,,1.0,21.0,highway_156.jpg,,,,A2AN972XU7OY8W
802,42,,1.0,22.0,mountain_110.jpg,,,,A2AN972XU7OY8W
803,43,left,1.0,23.0,left.jpg,left,0.982,,A2AN972XU7OY8W
804,44,,1.0,24.0,badlands_113.jpg,,,,A2AN972XU7OY8W
805,45,,1.0,25.0,badlands_221.jpg,,,,A2AN972XU7OY8W
806,46,,1.0,26.0,mountain_156.jpg,,,,A2AN972XU7OY8W
807,47,,1.0,27.0,mountain_123.jpg,,,,A2AN972XU7OY8W
808,48,,1.0,28.0,bridge_91.jpg,,,,A2AN972XU7OY8W
809,49,,1.0,29.0,bridge_191.jpg,,,,A2AN972XU7OY8W
810,50,,1.0,30.0,mountain_222.jpg,,,,A2AN972XU7OY8W
811,51,,1.0,31.0,badlands_52.jpg,,,,A2AN972XU7OY8W
812,52,left,1.0,32.0,left.jpg,left,1.3417,,A2AN972XU7OY8W
813,53,,1.0,33.0,golf_course_195.jpg,,,,A2AN972XU7OY8W
814,54,,1.0,34.0,highway_415.jpg,,,,A2AN972XU7OY8W
815,55,,1.0,35.0,playground_145.jpg,,,,A2AN972XU7OY8W
816,56,right,1.0,36.0,right.jpg,right,0.9742,,A2AN972XU7OY8W
817,57,,1.0,37.0,badlands_137.jpg,,,,A2AN972XU7OY8W
818,58,,1.0,38.0,bridge_250.jpg,,,,A2AN972XU7OY8W
819,59,,1.0,39.0,mountain_230.jpg,,,,A2AN972XU7OY8W
820,60,,1.0,40.0,playground_76.jpg,,,,A2AN972XU7OY8W
821,61,,1.0,41.0,bridge_146.jpg,,,,A2AN972XU7OY8W
822,62,,1.0,42.0,golf_course_193.jpg,,,,A2AN972XU7OY8W
823,63,,1.0,43.0,badlands_184.jpg,,,,A2AN972XU7OY8W
824,64,,1.0,44.0,bridge_256.jpg,,,,A2AN972XU7OY8W
825,65,,1.0,45.0,highway_359.jpg,,,,A2AN972XU7OY8W
826,66,,1.0,46.0,highway_273.jpg,,,,A2AN972XU7OY8W
827,67,,1.0,47.0,playground_240.jpg,,,,A2AN972XU7OY8W
828,68,,1.0,48.0,playground_219.jpg,,,,A2AN972XU7OY8W
829,69,right,1.0,49.0,right.jpg,right,1.1267,,A2AN972XU7OY8W
830,70,,1.0,50.0,highway_394.jpg,,,,A2AN972XU7OY8W
831,71,,1.0,51.0,badlands_24.jpg,,,,A2AN972XU7OY8W
832,72,,1.0,52.0,mountain_293.jpg,,,,A2AN972XU7OY8W
833,73,,1.0,53.0,badlands_21.jpg,,,,A2AN972XU7OY8W
834,74,,1.0,54.0,golf_course_87.jpg,,,,A2AN972XU7OY8W
835,75,,1.0,55.0,highway_177.jpg,,,,A2AN972XU7OY8W
836,76,,1.0,56.0,playground_257.jpg,,,,A2AN972XU7OY8W
837,77,,1.0,57.0,playground_60.jpg,,,,A2AN972XU7OY8W
838,78,,1.0,58.0,highway_93.jpg,,,,A2AN972XU7OY8W
839,79,,1.0,59.0,playground_131.jpg,,,,A2AN972XU7OY8W
840,80,,1.0,60.0,playground_117.jpg,,,,A2AN972XU7OY8W
841,81,,1.0,61.0,bridge_172.jpg,,,,A2AN972XU7OY8W
842,82,,1.0,62.0,golf_course_15.jpg,,,,A2AN972XU7OY8W
843,83,,1.0,63.0,golf_course_78.jpg,,,,A2AN972XU7OY8W
844,84,,1.0,64.0,bridge_128.jpg,,,,A2AN972XU7OY8W
845,20,,1.0,0.0,badlands_221.jpg,,,,A2B0J7HGR6T34W
846,21,,1.0,1.0,bridge_250.jpg,,,,A2B0J7HGR6T34W
847,22,,1.0,2.0,highway_245.jpg,,,,A2B0J7HGR6T34W
848,23,,1.0,3.0,playground_144.jpg,,,,A2B0J7HGR6T34W
849,24,,1.0,4.0,bridge_91.jpg,,,,A2B0J7HGR6T34W
850,25,,1.0,5.0,golf_course_309.jpg,,,,A2B0J7HGR6T34W
851,26,,1.0,6.0,golf_course_193.jpg,,,,A2B0J7HGR6T34W
852,27,,1.0,7.0,highway_93.jpg,,,,A2B0J7HGR6T34W
853,28,,1.0,8.0,highway_294.jpg,,,,A2B0J7HGR6T34W
854,29,,1.0,9.0,golf_course_15.jpg,,,,A2B0J7HGR6T34W
855,30,,1.0,10.0,playground_131.jpg,,,,A2B0J7HGR6T34W
856,31,,1.0,11.0,badlands_24.jpg,,,,A2B0J7HGR6T34W
857,32,,1.0,12.0,playground_60.jpg,,,,A2B0J7HGR6T34W
858,33,left,1.0,13.0,left.jpg,left,1.2591,,A2B0J7HGR6T34W
859,34,,1.0,14.0,badlands_222.jpg,,,,A2B0J7HGR6T34W
860,35,,1.0,15.0,golf_course_217.jpg,,,,A2B0J7HGR6T34W
861,36,,1.0,16.0,bridge_191.jpg,,,,A2B0J7HGR6T34W
862,37,,1.0,17.0,bridge_202.jpg,,,,A2B0J7HGR6T34W
863,38,,1.0,18.0,highway_273.jpg,,,,A2B0J7HGR6T34W
864,39,,1.0,19.0,golf_course_214.jpg,,,,A2B0J7HGR6T34W
865,40,,1.0,20.0,badlands_113.jpg,,,,A2B0J7HGR6T34W
866,41,left,1.0,21.0,left.jpg,left,1.4591,,A2B0J7HGR6T34W
867,42,,1.0,22.0,mountain_110.jpg,,,,A2B0J7HGR6T34W
868,43,,1.0,23.0,mountain_154.jpg,,,,A2B0J7HGR6T34W
869,44,,1.0,24.0,bridge_108.jpg,,,,A2B0J7HGR6T34W
870,45,,1.0,25.0,badlands_70.jpg,,,,A2B0J7HGR6T34W
871,46,,1.0,26.0,playground_219.jpg,,,,A2B0J7HGR6T34W
872,47,,1.0,27.0,highway_209.jpg,,,,A2B0J7HGR6T34W
873,48,,1.0,28.0,mountain_156.jpg,,,,A2B0J7HGR6T34W
874,49,,1.0,29.0,highway_415.jpg,,,,A2B0J7HGR6T34W
875,50,,1.0,30.0,golf_course_188.jpg,,,,A2B0J7HGR6T34W
876,51,,1.0,31.0,mountain_222.jpg,,,,A2B0J7HGR6T34W
877,52,,1.0,32.0,bridge_146.jpg,,,,A2B0J7HGR6T34W
878,53,,1.0,33.0,highway_156.jpg,,,,A2B0J7HGR6T34W
879,54,left,1.0,34.0,left.jpg,left,1.5031,,A2B0J7HGR6T34W
880,55,,1.0,35.0,playground_240.jpg,,,,A2B0J7HGR6T34W
881,56,,1.0,36.0,playground_145.jpg,,,,A2B0J7HGR6T34W
882,57,,1.0,37.0,highway_359.jpg,,,,A2B0J7HGR6T34W
883,58,right,1.0,38.0,right.jpg,right,1.4399,,A2B0J7HGR6T34W
884,59,,1.0,39.0,bridge_256.jpg,,,,A2B0J7HGR6T34W
885,60,,1.0,40.0,badlands_23.jpg,,,,A2B0J7HGR6T34W
886,61,,1.0,41.0,mountain_123.jpg,,,,A2B0J7HGR6T34W
887,62,,1.0,42.0,badlands_21.jpg,,,,A2B0J7HGR6T34W
888,63,,1.0,43.0,badlands_52.jpg,,,,A2B0J7HGR6T34W
889,64,,1.0,44.0,mountain_293.jpg,,,,A2B0J7HGR6T34W
890,65,,1.0,45.0,highway_177.jpg,,,,A2B0J7HGR6T34W
891,66,,1.0,46.0,bridge_172.jpg,,,,A2B0J7HGR6T34W
892,67,,1.0,47.0,golf_course_78.jpg,,,,A2B0J7HGR6T34W
893,68,left,1.0,48.0,left.jpg,left,1.2613,,A2B0J7HGR6T34W
894,69,,1.0,49.0,golf_course_87.jpg,,,,A2B0J7HGR6T34W
895,70,,1.0,50.0,golf_course_331.jpg,,,,A2B0J7HGR6T34W
896,71,,1.0,51.0,mountain_101.jpg,,,,A2B0J7HGR6T34W
897,72,,1.0,52.0,bridge_65.jpg,,,,A2B0J7HGR6T34W
898,73,,1.0,53.0,playground_117.jpg,,,,A2B0J7HGR6T34W
899,74,,1.0,54.0,bridge_128.jpg,,,,A2B0J7HGR6T34W
900,75,,1.0,55.0,playground_257.jpg,,,,A2B0J7HGR6T34W
901,76,,1.0,56.0,badlands_137.jpg,,,,A2B0J7HGR6T34W
902,77,,1.0,57.0,playground_76.jpg,,,,A2B0J7HGR6T34W
903,78,,1.0,58.0,playground_10.jpg,,,,A2B0J7HGR6T34W
904,79,,1.0,59.0,mountain_232.jpg,,,,A2B0J7HGR6T34W
905,80,,1.0,60.0,highway_394.jpg,,,,A2B0J7HGR6T34W
906,81,,1.0,61.0,golf_course_195.jpg,,,,A2B0J7HGR6T34W
907,82,,1.0,62.0,mountain_57.jpg,,,,A2B0J7HGR6T34W
908,83,,1.0,63.0,mountain_230.jpg,,,,A2B0J7HGR6T34W
909,84,,1.0,64.0,badlands_184.jpg,,,,A2B0J7HGR6T34W
910,20,,1.0,0.0,badlands_221.jpg,,,,A2F48NO7AD9VKK
911,21,,1.0,1.0,badlands_52.jpg,,,,A2F48NO7AD9VKK
912,22,,1.0,2.0,bridge_128.jpg,,,,A2F48NO7AD9VKK
913,23,,1.0,3.0,golf_course_331.jpg,,,,A2F48NO7AD9VKK
914,24,,1.0,4.0,mountain_57.jpg,,,,A2F48NO7AD9VKK
915,25,,1.0,5.0,playground_240.jpg,,,,A2F48NO7AD9VKK
916,26,,1.0,6.0,mountain_156.jpg,,,,A2F48NO7AD9VKK
917,27,right,1.0,7.0,right.jpg,right,0.6228,,A2F48NO7AD9VKK
918,28,,1.0,8.0,mountain_232.jpg,,,,A2F48NO7AD9VKK
919,29,,1.0,9.0,playground_144.jpg,,,,A2F48NO7AD9VKK
920,30,,1.0,10.0,highway_394.jpg,,,,A2F48NO7AD9VKK
921,31,,1.0,11.0,highway_177.jpg,,,,A2F48NO7AD9VKK
922,32,,1.0,12.0,playground_76.jpg,,,,A2F48NO7AD9VKK
923,33,,1.0,13.0,playground_145.jpg,,,,A2F48NO7AD9VKK
924,34,,1.0,14.0,bridge_202.jpg,,,,A2F48NO7AD9VKK
925,35,,1.0,15.0,highway_245.jpg,,,,A2F48NO7AD9VKK
926,36,,1.0,16.0,playground_10.jpg,,,,A2F48NO7AD9VKK
927,37,left,1.0,17.0,left.jpg,left,0.4102,,A2F48NO7AD9VKK
928,38,,1.0,18.0,highway_93.jpg,,,,A2F48NO7AD9VKK
929,39,,1.0,19.0,playground_117.jpg,,,,A2F48NO7AD9VKK
930,40,,1.0,20.0,golf_course_87.jpg,,,,A2F48NO7AD9VKK
931,41,,1.0,21.0,bridge_108.jpg,,,,A2F48NO7AD9VKK
932,42,,1.0,22.0,bridge_191.jpg,,,,A2F48NO7AD9VKK
933,43,,1.0,23.0,golf_course_195.jpg,,,,A2F48NO7AD9VKK
934,44,,1.0,24.0,golf_course_188.jpg,,,,A2F48NO7AD9VKK
935,45,,1.0,25.0,badlands_70.jpg,,,,A2F48NO7AD9VKK
936,46,,1.0,26.0,highway_294.jpg,,,,A2F48NO7AD9VKK
937,47,,1.0,27.0,bridge_65.jpg,,,,A2F48NO7AD9VKK
938,48,,1.0,28.0,badlands_137.jpg,,,,A2F48NO7AD9VKK
939,49,,1.0,29.0,playground_257.jpg,,,,A2F48NO7AD9VKK
940,50,left,1.0,30.0,left.jpg,left,0.5493,,A2F48NO7AD9VKK
941,51,,1.0,31.0,mountain_110.jpg,,,,A2F48NO7AD9VKK
942,52,,1.0,32.0,golf_course_217.jpg,,,,A2F48NO7AD9VKK
943,53,,1.0,33.0,bridge_250.jpg,,,,A2F48NO7AD9VKK
944,54,,1.0,34.0,highway_273.jpg,,,,A2F48NO7AD9VKK
945,55,,1.0,35.0,badlands_184.jpg,,,,A2F48NO7AD9VKK
946,56,,1.0,36.0,mountain_222.jpg,,,,A2F48NO7AD9VKK
947,57,,1.0,37.0,bridge_91.jpg,,,,A2F48NO7AD9VKK
948,58,,1.0,38.0,badlands_21.jpg,,,,A2F48NO7AD9VKK
949,59,,1.0,39.0,highway_415.jpg,,,,A2F48NO7AD9VKK
950,60,,1.0,40.0,highway_359.jpg,,,,A2F48NO7AD9VKK
951,61,,1.0,41.0,golf_course_15.jpg,,,,A2F48NO7AD9VKK
952,62,,1.0,42.0,golf_course_193.jpg,,,,A2F48NO7AD9VKK
953,63,left,1.0,43.0,left.jpg,left,0.5491,,A2F48NO7AD9VKK
954,64,,1.0,44.0,highway_209.jpg,,,,A2F48NO7AD9VKK
955,65,,1.0,45.0,golf_course_78.jpg,,,,A2F48NO7AD9VKK
956,66,,1.0,46.0,badlands_222.jpg,,,,A2F48NO7AD9VKK
957,67,,1.0,47.0,mountain_101.jpg,,,,A2F48NO7AD9VKK
958,68,,1.0,48.0,bridge_146.jpg,,,,A2F48NO7AD9VKK
959,69,,1.0,49.0,bridge_256.jpg,,,,A2F48NO7AD9VKK
960,70,,1.0,50.0,mountain_154.jpg,,,,A2F48NO7AD9VKK
961,71,,1.0,51.0,badlands_23.jpg,,,,A2F48NO7AD9VKK
962,72,right,1.0,52.0,right.jpg,right,0.5846,,A2F48NO7AD9VKK
963,73,,1.0,53.0,playground_60.jpg,,,,A2F48NO7AD9VKK
964,74,,1.0,54.0,badlands_24.jpg,,,,A2F48NO7AD9VKK
965,75,,1.0,55.0,badlands_113.jpg,,,,A2F48NO7AD9VKK
966,76,,1.0,56.0,mountain_293.jpg,,,,A2F48NO7AD9VKK
967,77,,1.0,57.0,golf_course_214.jpg,,,,A2F48NO7AD9VKK
968,78,,1.0,58.0,playground_131.jpg,,,,A2F48NO7AD9VKK
969,79,,1.0,59.0,mountain_123.jpg,,,,A2F48NO7AD9VKK
970,80,,1.0,60.0,golf_course_309.jpg,,,,A2F48NO7AD9VKK
971,81,,1.0,61.0,highway_156.jpg,,,,A2F48NO7AD9VKK
972,82,,1.0,62.0,playground_219.jpg,,,,A2F48NO7AD9VKK
973,83,,1.0,63.0,bridge_172.jpg,,,,A2F48NO7AD9VKK
974,84,,1.0,64.0,mountain_230.jpg,,,,A2F48NO7AD9VKK
975,20,,1.0,0.0,golf_course_193.jpg,,,,A2FREFX5AGACUZ
976,21,,1.0,1.0,highway_177.jpg,,,,A2FREFX5AGACUZ
977,22,,1.0,2.0,golf_course_188.jpg,,,,A2FREFX5AGACUZ
978,23,,1.0,3.0,bridge_202.jpg,,,,A2FREFX5AGACUZ
979,24,,1.0,4.0,playground_60.jpg,,,,A2FREFX5AGACUZ
980,25,,1.0,5.0,golf_course_78.jpg,,,,A2FREFX5AGACUZ
981,26,,1.0,6.0,badlands_52.jpg,,,,A2FREFX5AGACUZ
982,27,,1.0,7.0,golf_course_309.jpg,,,,A2FREFX5AGACUZ
983,28,,1.0,8.0,mountain_110.jpg,,,,A2FREFX5AGACUZ
984,29,,1.0,9.0,mountain_101.jpg,,,,A2FREFX5AGACUZ
985,30,,1.0,10.0,highway_93.jpg,,,,A2FREFX5AGACUZ
986,31,,1.0,11.0,highway_415.jpg,,,,A2FREFX5AGACUZ
987,32,,1.0,12.0,badlands_113.jpg,,,,A2FREFX5AGACUZ
988,33,,1.0,13.0,playground_131.jpg,,,,A2FREFX5AGACUZ
989,34,left,1.0,14.0,left.jpg,left,1.0643,,A2FREFX5AGACUZ
990,35,,1.0,15.0,mountain_154.jpg,,,,A2FREFX5AGACUZ
991,36,,1.0,16.0,playground_117.jpg,,,,A2FREFX5AGACUZ
992,37,,1.0,17.0,playground_219.jpg,,,,A2FREFX5AGACUZ
993,38,right,1.0,18.0,right.jpg,right,1.1222,,A2FREFX5AGACUZ
994,39,,1.0,19.0,badlands_222.jpg,,,,A2FREFX5AGACUZ
995,40,,1.0,20.0,highway_245.jpg,,,,A2FREFX5AGACUZ
996,41,,1.0,21.0,golf_course_15.jpg,,,,A2FREFX5AGACUZ
997,42,,1.0,22.0,mountain_293.jpg,,,,A2FREFX5AGACUZ
998,43,,1.0,23.0,highway_394.jpg,,,,A2FREFX5AGACUZ
999,44,,1.0,24.0,bridge_65.jpg,,,,A2FREFX5AGACUZ
1000,45,,1.0,25.0,golf_course_217.jpg,,,,A2FREFX5AGACUZ
1001,46,,1.0,26.0,golf_course_214.jpg,,,,A2FREFX5AGACUZ
1002,47,,1.0,27.0,mountain_222.jpg,,,,A2FREFX5AGACUZ
1003,48,,1.0,28.0,highway_209.jpg,,,,A2FREFX5AGACUZ
1004,49,,1.0,29.0,highway_156.jpg,,,,A2FREFX5AGACUZ
1005,50,,1.0,30.0,bridge_256.jpg,,,,A2FREFX5AGACUZ
1006,51,left,1.0,31.0,left.jpg,left,1.0681,,A2FREFX5AGACUZ
1007,52,,1.0,32.0,badlands_184.jpg,,,,A2FREFX5AGACUZ
1008,53,,1.0,33.0,mountain_232.jpg,,,,A2FREFX5AGACUZ
1009,54,,1.0,34.0,bridge_250.jpg,,,,A2FREFX5AGACUZ
1010,55,,1.0,35.0,badlands_221.jpg,,,,A2FREFX5AGACUZ
1011,56,,1.0,36.0,mountain_123.jpg,,,,A2FREFX5AGACUZ
1012,57,,1.0,37.0,mountain_57.jpg,,,,A2FREFX5AGACUZ
1013,58,,1.0,38.0,badlands_70.jpg,,,,A2FREFX5AGACUZ
1014,59,,1.0,39.0,playground_10.jpg,,,,A2FREFX5AGACUZ
1015,60,,1.0,40.0,playground_144.jpg,,,,A2FREFX5AGACUZ
1016,61,,1.0,41.0,bridge_108.jpg,,,,A2FREFX5AGACUZ
1017,62,,1.0,42.0,badlands_23.jpg,,,,A2FREFX5AGACUZ
1018,63,right,1.0,43.0,right.jpg,right,1.1044,,A2FREFX5AGACUZ
1019,64,,1.0,44.0,highway_294.jpg,,,,A2FREFX5AGACUZ
1020,65,,1.0,45.0,highway_273.jpg,,,,A2FREFX5AGACUZ
1021,66,,1.0,46.0,playground_257.jpg,,,,A2FREFX5AGACUZ
1022,67,,1.0,47.0,badlands_21.jpg,,,,A2FREFX5AGACUZ
1023,68,,1.0,48.0,bridge_91.jpg,,,,A2FREFX5AGACUZ
1024,69,,1.0,49.0,mountain_230.jpg,,,,A2FREFX5AGACUZ
1025,70,,1.0,50.0,playground_145.jpg,,,,A2FREFX5AGACUZ
1026,71,,1.0,51.0,golf_course_195.jpg,,,,A2FREFX5AGACUZ
1027,72,,1.0,52.0,bridge_128.jpg,,,,A2FREFX5AGACUZ
1028,73,right,1.0,53.0,right.jpg,right,1.0676,,A2FREFX5AGACUZ
1029,74,,1.0,54.0,highway_359.jpg,,,,A2FREFX5AGACUZ
1030,75,,1.0,55.0,bridge_146.jpg,,,,A2FREFX5AGACUZ
1031,76,,1.0,56.0,playground_76.jpg,,,,A2FREFX5AGACUZ
1032,77,,1.0,57.0,golf_course_331.jpg,,,,A2FREFX5AGACUZ
1033,78,,1.0,58.0,badlands_24.jpg,,,,A2FREFX5AGACUZ
1034,79,,1.0,59.0,golf_course_87.jpg,,,,A2FREFX5AGACUZ
1035,80,,1.0,60.0,bridge_172.jpg,,,,A2FREFX5AGACUZ
1036,81,,1.0,61.0,playground_240.jpg,,,,A2FREFX5AGACUZ
1037,82,,1.0,62.0,mountain_156.jpg,,,,A2FREFX5AGACUZ
1038,83,,1.0,63.0,badlands_137.jpg,,,,A2FREFX5AGACUZ
1039,84,,1.0,64.0,bridge_191.jpg,,,,A2FREFX5AGACUZ
1040,20,,1.0,0.0,highway_359.jpg,,,,A2J9NFY45NKR2N
1041,21,,1.0,1.0,badlands_222.jpg,,,,A2J9NFY45NKR2N
1042,22,,1.0,2.0,playground_76.jpg,,,,A2J9NFY45NKR2N
1043,23,,1.0,3.0,mountain_57.jpg,,,,A2J9NFY45NKR2N
1044,24,,1.0,4.0,mountain_154.jpg,,,,A2J9NFY45NKR2N
1045,25,,1.0,5.0,playground_144.jpg,,,,A2J9NFY45NKR2N
1046,26,,1.0,6.0,mountain_156.jpg,,,,A2J9NFY45NKR2N
1047,27,,1.0,7.0,badlands_137.jpg,,,,A2J9NFY45NKR2N
1048,28,,1.0,8.0,playground_240.jpg,,,,A2J9NFY45NKR2N
1049,29,,1.0,9.0,bridge_108.jpg,,,,A2J9NFY45NKR2N
1050,30,,1.0,10.0,golf_course_193.jpg,,,,A2J9NFY45NKR2N
1051,31,,1.0,11.0,highway_273.jpg,,,,A2J9NFY45NKR2N
1052,32,,1.0,12.0,bridge_191.jpg,,,,A2J9NFY45NKR2N
1053,33,right,1.0,13.0,right.jpg,right,1.3372,,A2J9NFY45NKR2N
1054,34,,1.0,14.0,golf_course_217.jpg,,,,A2J9NFY45NKR2N
1055,35,,1.0,15.0,badlands_221.jpg,,,,A2J9NFY45NKR2N
1056,36,,1.0,16.0,golf_course_195.jpg,,,,A2J9NFY45NKR2N
1057,37,left,1.0,17.0,left.jpg,left,0.7758,,A2J9NFY45NKR2N
1058,38,,1.0,18.0,badlands_24.jpg,,,,A2J9NFY45NKR2N
1059,39,,1.0,19.0,badlands_23.jpg,,,,A2J9NFY45NKR2N
1060,40,,1.0,20.0,highway_245.jpg,,,,A2J9NFY45NKR2N
1061,41,,1.0,21.0,golf_course_331.jpg,,,,A2J9NFY45NKR2N
1062,42,,1.0,22.0,mountain_123.jpg,,,,A2J9NFY45NKR2N
1063,43,,1.0,23.0,golf_course_214.jpg,,,,A2J9NFY45NKR2N
1064,44,,1.0,24.0,mountain_293.jpg,,,,A2J9NFY45NKR2N
1065,45,,1.0,25.0,playground_131.jpg,,,,A2J9NFY45NKR2N
1066,46,right,1.0,26.0,right.jpg,right,0.6912,,A2J9NFY45NKR2N
1067,47,,1.0,27.0,playground_60.jpg,,,,A2J9NFY45NKR2N
1068,48,,1.0,28.0,highway_177.jpg,,,,A2J9NFY45NKR2N
1069,49,,1.0,29.0,badlands_21.jpg,,,,A2J9NFY45NKR2N
1070,50,,1.0,30.0,badlands_52.jpg,,,,A2J9NFY45NKR2N
1071,51,,1.0,31.0,mountain_101.jpg,,,,A2J9NFY45NKR2N
1072,52,,1.0,32.0,highway_294.jpg,,,,A2J9NFY45NKR2N
1073,53,,1.0,33.0,golf_course_78.jpg,,,,A2J9NFY45NKR2N
1074,54,,1.0,34.0,mountain_222.jpg,,,,A2J9NFY45NKR2N
1075,55,,1.0,35.0,playground_117.jpg,,,,A2J9NFY45NKR2N
1076,56,,1.0,36.0,highway_415.jpg,,,,A2J9NFY45NKR2N
1077,57,,1.0,37.0,playground_219.jpg,,,,A2J9NFY45NKR2N
1078,58,,1.0,38.0,golf_course_15.jpg,,,,A2J9NFY45NKR2N
1079,59,right,1.0,39.0,right.jpg,right,0.7203,,A2J9NFY45NKR2N
1080,60,,1.0,40.0,playground_10.jpg,,,,A2J9NFY45NKR2N
1081,61,,1.0,41.0,bridge_250.jpg,,,,A2J9NFY45NKR2N
1082,62,,1.0,42.0,mountain_232.jpg,,,,A2J9NFY45NKR2N
1083,63,,1.0,43.0,golf_course_188.jpg,,,,A2J9NFY45NKR2N
1084,64,,1.0,44.0,playground_145.jpg,,,,A2J9NFY45NKR2N
1085,65,,1.0,45.0,playground_257.jpg,,,,A2J9NFY45NKR2N
1086,66,,1.0,46.0,bridge_146.jpg,,,,A2J9NFY45NKR2N
1087,67,,1.0,47.0,mountain_230.jpg,,,,A2J9NFY45NKR2N
1088,68,,1.0,48.0,mountain_110.jpg,,,,A2J9NFY45NKR2N
1089,69,,1.0,49.0,bridge_65.jpg,,,,A2J9NFY45NKR2N
1090,70,,1.0,50.0,golf_course_309.jpg,,,,A2J9NFY45NKR2N
1091,71,left,1.0,51.0,left.jpg,left,0.986,,A2J9NFY45NKR2N
1092,72,,1.0,52.0,badlands_70.jpg,,,,A2J9NFY45NKR2N
1093,73,,1.0,53.0,highway_394.jpg,,,,A2J9NFY45NKR2N
1094,74,,1.0,54.0,highway_156.jpg,,,,A2J9NFY45NKR2N
1095,75,,1.0,55.0,badlands_184.jpg,,,,A2J9NFY45NKR2N
1096,76,,1.0,56.0,bridge_202.jpg,,,,A2J9NFY45NKR2N
1097,77,,1.0,57.0,highway_209.jpg,,,,A2J9NFY45NKR2N
1098,78,,1.0,58.0,bridge_128.jpg,,,,A2J9NFY45NKR2N
1099,79,,1.0,59.0,bridge_256.jpg,,,,A2J9NFY45NKR2N
1100,80,,1.0,60.0,highway_93.jpg,,,,A2J9NFY45NKR2N
1101,81,,1.0,61.0,golf_course_87.jpg,,,,A2J9NFY45NKR2N
1102,82,,1.0,62.0,bridge_91.jpg,,,,A2J9NFY45NKR2N
1103,83,,1.0,63.0,badlands_113.jpg,,,,A2J9NFY45NKR2N
1104,84,,1.0,64.0,bridge_172.jpg,,,,A2J9NFY45NKR2N
1105,20,,1.0,0.0,highway_93.jpg,,,,A2M9R3LBVLI5ZN
1106,21,,1.0,1.0,bridge_65.jpg,,,,A2M9R3LBVLI5ZN
1107,22,,1.0,2.0,golf_course_309.jpg,,,,A2M9R3LBVLI5ZN
1108,23,,1.0,3.0,golf_course_87.jpg,,,,A2M9R3LBVLI5ZN
1109,24,,1.0,4.0,highway_156.jpg,,,,A2M9R3LBVLI5ZN
1110,25,,1.0,5.0,bridge_146.jpg,,,,A2M9R3LBVLI5ZN
1111,26,,1.0,6.0,highway_177.jpg,,,,A2M9R3LBVLI5ZN
1112,27,,1.0,7.0,golf_course_15.jpg,,,,A2M9R3LBVLI5ZN
1113,28,,1.0,8.0,bridge_172.jpg,,,,A2M9R3LBVLI5ZN
1114,29,,1.0,9.0,bridge_191.jpg,,,,A2M9R3LBVLI5ZN
1115,30,,1.0,10.0,playground_76.jpg,,,,A2M9R3LBVLI5ZN
1116,31,,1.0,11.0,highway_245.jpg,,,,A2M9R3LBVLI5ZN
1117,32,,1.0,12.0,playground_131.jpg,,,,A2M9R3LBVLI5ZN
1118,33,,1.0,13.0,playground_60.jpg,,,,A2M9R3LBVLI5ZN
1119,34,left,1.0,14.0,left.jpg,left,1.4141,,A2M9R3LBVLI5ZN
1120,35,,1.0,15.0,mountain_123.jpg,,,,A2M9R3LBVLI5ZN
1121,36,,1.0,16.0,golf_course_217.jpg,,,,A2M9R3LBVLI5ZN
1122,37,,1.0,17.0,badlands_70.jpg,,,,A2M9R3LBVLI5ZN
1123,38,,1.0,18.0,highway_273.jpg,,,,A2M9R3LBVLI5ZN
1124,39,,1.0,19.0,badlands_21.jpg,,,,A2M9R3LBVLI5ZN
1125,40,,1.0,20.0,highway_394.jpg,,,,A2M9R3LBVLI5ZN
1126,41,,1.0,21.0,bridge_108.jpg,,,,A2M9R3LBVLI5ZN
1127,42,left,1.0,22.0,left.jpg,left,1.5695,,A2M9R3LBVLI5ZN
1128,43,,1.0,23.0,highway_294.jpg,,,,A2M9R3LBVLI5ZN
1129,44,,1.0,24.0,playground_117.jpg,,,,A2M9R3LBVLI5ZN
1130,45,,1.0,25.0,playground_10.jpg,,,,A2M9R3LBVLI5ZN
1131,46,,1.0,26.0,golf_course_195.jpg,,,,A2M9R3LBVLI5ZN
1132,47,,1.0,27.0,badlands_24.jpg,,,,A2M9R3LBVLI5ZN
1133,48,,1.0,28.0,playground_257.jpg,,,,A2M9R3LBVLI5ZN
1134,49,,1.0,29.0,badlands_23.jpg,,,,A2M9R3LBVLI5ZN
1135,50,,1.0,30.0,highway_209.jpg,,,,A2M9R3LBVLI5ZN
1136,51,,1.0,31.0,playground_144.jpg,,,,A2M9R3LBVLI5ZN
1137,52,,0.0,32.0,right.jpg,right,,,A2M9R3LBVLI5ZN
1138,53,,1.0,33.0,golf_course_214.jpg,,,,A2M9R3LBVLI5ZN
1139,54,,1.0,34.0,mountain_110.jpg,,,,A2M9R3LBVLI5ZN
1140,55,,1.0,35.0,mountain_230.jpg,,,,A2M9R3LBVLI5ZN
1141,56,,1.0,36.0,mountain_101.jpg,,,,A2M9R3LBVLI5ZN
1142,57,,1.0,37.0,mountain_232.jpg,,,,A2M9R3LBVLI5ZN
1143,58,right,1.0,38.0,right.jpg,right,1.3083,,A2M9R3LBVLI5ZN
1144,59,,1.0,39.0,badlands_184.jpg,,,,A2M9R3LBVLI5ZN
1145,60,,1.0,40.0,mountain_222.jpg,,,,A2M9R3LBVLI5ZN
1146,61,,1.0,41.0,badlands_221.jpg,,,,A2M9R3LBVLI5ZN
1147,62,,1.0,42.0,mountain_293.jpg,,,,A2M9R3LBVLI5ZN
1148,63,,1.0,43.0,golf_course_331.jpg,,,,A2M9R3LBVLI5ZN
1149,64,,1.0,44.0,bridge_202.jpg,,,,A2M9R3LBVLI5ZN
1150,65,,1.0,45.0,highway_359.jpg,,,,A2M9R3LBVLI5ZN
1151,66,,1.0,46.0,mountain_156.jpg,,,,A2M9R3LBVLI5ZN
1152,67,,1.0,47.0,mountain_57.jpg,,,,A2M9R3LBVLI5ZN
1153,68,left,1.0,48.0,left.jpg,left,1.293,,A2M9R3LBVLI5ZN
1154,69,,1.0,49.0,highway_415.jpg,,,,A2M9R3LBVLI5ZN
1155,70,,1.0,50.0,bridge_91.jpg,,,,A2M9R3LBVLI5ZN
1156,71,,1.0,51.0,playground_145.jpg,,,,A2M9R3LBVLI5ZN
1157,72,,1.0,52.0,golf_course_193.jpg,,,,A2M9R3LBVLI5ZN
1158,73,,1.0,53.0,golf_course_78.jpg,,,,A2M9R3LBVLI5ZN
1159,74,,1.0,54.0,golf_course_188.jpg,,,,A2M9R3LBVLI5ZN
1160,75,,1.0,55.0,mountain_154.jpg,,,,A2M9R3LBVLI5ZN
1161,76,,1.0,56.0,badlands_113.jpg,,,,A2M9R3LBVLI5ZN
1162,77,,1.0,57.0,playground_219.jpg,,,,A2M9R3LBVLI5ZN
1163,78,,1.0,58.0,badlands_137.jpg,,,,A2M9R3LBVLI5ZN
1164,79,,1.0,59.0,bridge_250.jpg,,,,A2M9R3LBVLI5ZN
1165,80,,1.0,60.0,badlands_52.jpg,,,,A2M9R3LBVLI5ZN
1166,81,,1.0,61.0,badlands_222.jpg,,,,A2M9R3LBVLI5ZN
1167,82,,1.0,62.0,bridge_256.jpg,,,,A2M9R3LBVLI5ZN
1168,83,,1.0,63.0,playground_240.jpg,,,,A2M9R3LBVLI5ZN
1169,84,,1.0,64.0,bridge_128.jpg,,,,A2M9R3LBVLI5ZN
1170,20,,1.0,0.0,golf_course_188.jpg,,,,A2NC28XJKAFJV
1171,21,,1.0,1.0,golf_course_193.jpg,,,,A2NC28XJKAFJV
1172,22,,1.0,2.0,playground_145.jpg,,,,A2NC28XJKAFJV
1173,23,,1.0,3.0,highway_156.jpg,,,,A2NC28XJKAFJV
1174,24,,1.0,4.0,bridge_108.jpg,,,,A2NC28XJKAFJV
1175,25,,1.0,5.0,mountain_154.jpg,,,,A2NC28XJKAFJV
1176,26,,1.0,6.0,badlands_137.jpg,,,,A2NC28XJKAFJV
1177,27,,1.0,7.0,bridge_65.jpg,,,,A2NC28XJKAFJV
1178,28,left,1.0,8.0,left.jpg,left,1.6026,,A2NC28XJKAFJV
1179,29,,1.0,9.0,mountain_57.jpg,,,,A2NC28XJKAFJV
1180,30,,1.0,10.0,bridge_250.jpg,,,,A2NC28XJKAFJV
1181,31,,1.0,11.0,golf_course_15.jpg,,,,A2NC28XJKAFJV
1182,32,,1.0,12.0,mountain_110.jpg,,,,A2NC28XJKAFJV
1183,33,,1.0,13.0,highway_359.jpg,,,,A2NC28XJKAFJV
1184,34,,1.0,14.0,highway_93.jpg,,,,A2NC28XJKAFJV
1185,35,,1.0,15.0,bridge_128.jpg,,,,A2NC28XJKAFJV
1186,36,,1.0,16.0,bridge_191.jpg,,,,A2NC28XJKAFJV
1187,37,right,1.0,17.0,right.jpg,right,1.6779,,A2NC28XJKAFJV
1188,38,,1.0,18.0,mountain_232.jpg,,,,A2NC28XJKAFJV
1189,39,,1.0,19.0,highway_209.jpg,,,,A2NC28XJKAFJV
1190,40,,1.0,20.0,badlands_52.jpg,,,,A2NC28XJKAFJV
1191,41,,1.0,21.0,badlands_21.jpg,,,,A2NC28XJKAFJV
1192,42,,1.0,22.0,playground_131.jpg,,,,A2NC28XJKAFJV
1193,43,,1.0,23.0,badlands_113.jpg,,,,A2NC28XJKAFJV
1194,44,,1.0,24.0,mountain_222.jpg,,,,A2NC28XJKAFJV
1195,45,,1.0,25.0,bridge_91.jpg,,,,A2NC28XJKAFJV
1196,46,,1.0,26.0,playground_257.jpg,,,,A2NC28XJKAFJV
1197,47,,1.0,27.0,playground_144.jpg,,,,A2NC28XJKAFJV
1198,48,,1.0,28.0,highway_245.jpg,,,,A2NC28XJKAFJV
1199,49,,1.0,29.0,badlands_221.jpg,,,,A2NC28XJKAFJV
1200,50,right,1.0,30.0,right.jpg,right,1.6805,,A2NC28XJKAFJV
1201,51,,1.0,31.0,playground_10.jpg,,,,A2NC28XJKAFJV
1202,52,,1.0,32.0,badlands_70.jpg,,,,A2NC28XJKAFJV
1203,53,,1.0,33.0,golf_course_309.jpg,,,,A2NC28XJKAFJV
1204,54,,1.0,34.0,golf_course_87.jpg,,,,A2NC28XJKAFJV
1205,55,,1.0,35.0,golf_course_195.jpg,,,,A2NC28XJKAFJV
1206,56,,1.0,36.0,highway_415.jpg,,,,A2NC28XJKAFJV
1207,57,,1.0,37.0,badlands_23.jpg,,,,A2NC28XJKAFJV
1208,58,,1.0,38.0,highway_394.jpg,,,,A2NC28XJKAFJV
1209,59,,1.0,39.0,playground_219.jpg,,,,A2NC28XJKAFJV
1210,60,,1.0,40.0,golf_course_217.jpg,,,,A2NC28XJKAFJV
1211,61,,1.0,41.0,badlands_222.jpg,,,,A2NC28XJKAFJV
1212,62,,1.0,42.0,highway_294.jpg,,,,A2NC28XJKAFJV
1213,63,left,1.0,43.0,left.jpg,left,1.7789,,A2NC28XJKAFJV
1214,64,,1.0,44.0,golf_course_78.jpg,,,,A2NC28XJKAFJV
1215,65,,1.0,45.0,bridge_146.jpg,,,,A2NC28XJKAFJV
1216,66,,1.0,46.0,mountain_293.jpg,,,,A2NC28XJKAFJV
1217,67,,1.0,47.0,playground_117.jpg,,,,A2NC28XJKAFJV
1218,68,,1.0,48.0,highway_273.jpg,,,,A2NC28XJKAFJV
1219,69,,1.0,49.0,badlands_184.jpg,,,,A2NC28XJKAFJV
1220,70,,1.0,50.0,mountain_230.jpg,,,,A2NC28XJKAFJV
1221,71,left,1.0,51.0,left.jpg,left,1.784,,A2NC28XJKAFJV
1222,72,,1.0,52.0,highway_177.jpg,,,,A2NC28XJKAFJV
1223,73,,1.0,53.0,badlands_24.jpg,,,,A2NC28XJKAFJV
1224,74,,1.0,54.0,bridge_202.jpg,,,,A2NC28XJKAFJV
1225,75,,1.0,55.0,bridge_256.jpg,,,,A2NC28XJKAFJV
1226,76,,1.0,56.0,playground_60.jpg,,,,A2NC28XJKAFJV
1227,77,,1.0,57.0,golf_course_331.jpg,,,,A2NC28XJKAFJV
1228,78,,1.0,58.0,golf_course_214.jpg,,,,A2NC28XJKAFJV
1229,79,,1.0,59.0,playground_240.jpg,,,,A2NC28XJKAFJV
1230,80,,1.0,60.0,mountain_156.jpg,,,,A2NC28XJKAFJV
1231,81,,1.0,61.0,mountain_123.jpg,,,,A2NC28XJKAFJV
1232,82,,1.0,62.0,playground_76.jpg,,,,A2NC28XJKAFJV
1233,83,,1.0,63.0,bridge_172.jpg,,,,A2NC28XJKAFJV
1234,84,,1.0,64.0,mountain_101.jpg,,,,A2NC28XJKAFJV
1235,20,,1.0,0.0,bridge_65.jpg,,,,A39KMTFHRJJASK
1236,21,,1.0,1.0,mountain_110.jpg,,,,A39KMTFHRJJASK
1237,22,,1.0,2.0,badlands_184.jpg,,,,A39KMTFHRJJASK
1238,23,,1.0,3.0,bridge_202.jpg,,,,A39KMTFHRJJASK
1239,24,,1.0,4.0,mountain_57.jpg,,,,A39KMTFHRJJASK
1240,25,,1.0,5.0,highway_394.jpg,,,,A39KMTFHRJJASK
1241,26,,1.0,6.0,bridge_108.jpg,,,,A39KMTFHRJJASK
1242,27,,1.0,7.0,highway_415.jpg,,,,A39KMTFHRJJASK
1243,28,,1.0,8.0,badlands_221.jpg,,,,A39KMTFHRJJASK
1244,29,,1.0,9.0,mountain_154.jpg,,,,A39KMTFHRJJASK
1245,30,,1.0,10.0,bridge_191.jpg,,,,A39KMTFHRJJASK
1246,31,right,1.0,11.0,right.jpg,right,1.3056,,A39KMTFHRJJASK
1247,32,,1.0,12.0,highway_177.jpg,,,,A39KMTFHRJJASK
1248,33,,1.0,13.0,golf_course_78.jpg,,,,A39KMTFHRJJASK
1249,34,,1.0,14.0,playground_60.jpg,,,,A39KMTFHRJJASK
1250,35,,1.0,15.0,mountain_123.jpg,,,,A39KMTFHRJJASK
1251,36,,1.0,16.0,playground_219.jpg,,,,A39KMTFHRJJASK
1252,37,,1.0,17.0,highway_273.jpg,,,,A39KMTFHRJJASK
1253,38,,1.0,18.0,mountain_156.jpg,,,,A39KMTFHRJJASK
1254,39,left,1.0,19.0,left.jpg,left,1.1501,,A39KMTFHRJJASK
1255,40,,1.0,20.0,highway_156.jpg,,,,A39KMTFHRJJASK
1256,41,,1.0,21.0,bridge_172.jpg,,,,A39KMTFHRJJASK
1257,42,,1.0,22.0,bridge_256.jpg,,,,A39KMTFHRJJASK
1258,43,,1.0,23.0,golf_course_15.jpg,,,,A39KMTFHRJJASK
1259,44,,1.0,24.0,golf_course_195.jpg,,,,A39KMTFHRJJASK
1260,45,,1.0,25.0,highway_245.jpg,,,,A39KMTFHRJJASK
1261,46,,1.0,26.0,golf_course_309.jpg,,,,A39KMTFHRJJASK
1262,47,,1.0,27.0,badlands_137.jpg,,,,A39KMTFHRJJASK
1263,48,,1.0,28.0,badlands_113.jpg,,,,A39KMTFHRJJASK
1264,49,,1.0,29.0,bridge_91.jpg,,,,A39KMTFHRJJASK
1265,50,left,1.0,30.0,left.jpg,left,1.2089,,A39KMTFHRJJASK
1266,51,,1.0,31.0,badlands_21.jpg,,,,A39KMTFHRJJASK
1267,52,,1.0,32.0,playground_144.jpg,,,,A39KMTFHRJJASK
1268,53,,1.0,33.0,highway_93.jpg,,,,A39KMTFHRJJASK
1269,54,,1.0,34.0,mountain_293.jpg,,,,A39KMTFHRJJASK
1270,55,,1.0,35.0,playground_76.jpg,,,,A39KMTFHRJJASK
1271,56,,1.0,36.0,golf_course_331.jpg,,,,A39KMTFHRJJASK
1272,57,,1.0,37.0,bridge_146.jpg,,,,A39KMTFHRJJASK
1273,58,right,1.0,38.0,right.jpg,right,1.2064,,A39KMTFHRJJASK
1274,59,,1.0,39.0,mountain_101.jpg,,,,A39KMTFHRJJASK
1275,60,,1.0,40.0,playground_117.jpg,,,,A39KMTFHRJJASK
1276,61,,1.0,41.0,golf_course_87.jpg,,,,A39KMTFHRJJASK
1277,62,,1.0,42.0,golf_course_193.jpg,,,,A39KMTFHRJJASK
1278,63,,1.0,43.0,badlands_222.jpg,,,,A39KMTFHRJJASK
1279,64,,1.0,44.0,highway_359.jpg,,,,A39KMTFHRJJASK
1280,65,,1.0,45.0,badlands_52.jpg,,,,A39KMTFHRJJASK
1281,66,,1.0,46.0,playground_131.jpg,,,,A39KMTFHRJJASK
1282,67,right,1.0,47.0,right.jpg,right,1.193,,A39KMTFHRJJASK
1283,68,,1.0,48.0,mountain_232.jpg,,,,A39KMTFHRJJASK
1284,69,,1.0,49.0,highway_209.jpg,,,,A39KMTFHRJJASK
1285,70,,1.0,50.0,playground_10.jpg,,,,A39KMTFHRJJASK
1286,71,,1.0,51.0,badlands_24.jpg,,,,A39KMTFHRJJASK
1287,72,,1.0,52.0,bridge_250.jpg,,,,A39KMTFHRJJASK
1288,73,,1.0,53.0,playground_240.jpg,,,,A39KMTFHRJJASK
1289,74,,1.0,54.0,golf_course_217.jpg,,,,A39KMTFHRJJASK
1290,75,,1.0,55.0,playground_257.jpg,,,,A39KMTFHRJJASK
1291,76,,1.0,56.0,bridge_128.jpg,,,,A39KMTFHRJJASK
1292,77,,1.0,57.0,badlands_23.jpg,,,,A39KMTFHRJJASK
1293,78,,1.0,58.0,highway_294.jpg,,,,A39KMTFHRJJASK
1294,79,,1.0,59.0,mountain_230.jpg,,,,A39KMTFHRJJASK
1295,80,,1.0,60.0,golf_course_214.jpg,,,,A39KMTFHRJJASK
1296,81,,1.0,61.0,badlands_70.jpg,,,,A39KMTFHRJJASK
1297,82,,1.0,62.0,golf_course_188.jpg,,,,A39KMTFHRJJASK
1298,83,,1.0,63.0,mountain_222.jpg,,,,A39KMTFHRJJASK
1299,84,,1.0,64.0,playground_145.jpg,,,,A39KMTFHRJJASK
1300,20,,1.0,0.0,mountain_232.jpg,,,,A3BD6HXLYH3CGH
1301,21,,1.0,1.0,bridge_91.jpg,,,,A3BD6HXLYH3CGH
1302,22,,1.0,2.0,highway_294.jpg,,,,A3BD6HXLYH3CGH
1303,23,,1.0,3.0,highway_93.jpg,,,,A3BD6HXLYH3CGH
1304,24,,1.0,4.0,badlands_222.jpg,,,,A3BD6HXLYH3CGH
1305,25,,1.0,5.0,playground_240.jpg,,,,A3BD6HXLYH3CGH
1306,26,,1.0,6.0,playground_144.jpg,,,,A3BD6HXLYH3CGH
1307,27,,1.0,7.0,playground_60.jpg,,,,A3BD6HXLYH3CGH
1308,28,,1.0,8.0,playground_10.jpg,,,,A3BD6HXLYH3CGH
1309,29,left,1.0,9.0,left.jpg,left,1.7639,,A3BD6HXLYH3CGH
1310,30,,1.0,10.0,golf_course_217.jpg,,,,A3BD6HXLYH3CGH
1311,31,,1.0,11.0,mountain_123.jpg,,,,A3BD6HXLYH3CGH
1312,32,,1.0,12.0,highway_415.jpg,,,,A3BD6HXLYH3CGH
1313,33,,1.0,13.0,playground_131.jpg,,,,A3BD6HXLYH3CGH
1314,34,,1.0,14.0,playground_145.jpg,,,,A3BD6HXLYH3CGH
1315,35,,1.0,15.0,golf_course_78.jpg,,,,A3BD6HXLYH3CGH
1316,36,,1.0,16.0,playground_257.jpg,,,,A3BD6HXLYH3CGH
1317,37,,1.0,17.0,bridge_202.jpg,,,,A3BD6HXLYH3CGH
1318,38,,1.0,18.0,highway_359.jpg,,,,A3BD6HXLYH3CGH
1319,39,left,1.0,19.0,left.jpg,left,1.7552,,A3BD6HXLYH3CGH
1320,40,,1.0,20.0,badlands_24.jpg,,,,A3BD6HXLYH3CGH
1321,41,,1.0,21.0,golf_course_193.jpg,,,,A3BD6HXLYH3CGH
1322,42,,1.0,22.0,highway_209.jpg,,,,A3BD6HXLYH3CGH
1323,43,,1.0,23.0,golf_course_15.jpg,,,,A3BD6HXLYH3CGH
1324,44,,1.0,24.0,bridge_256.jpg,,,,A3BD6HXLYH3CGH
1325,45,,1.0,25.0,badlands_113.jpg,,,,A3BD6HXLYH3CGH
1326,46,,1.0,26.0,playground_219.jpg,,,,A3BD6HXLYH3CGH
1327,47,left,1.0,27.0,left.jpg,left,1.0258,,A3BD6HXLYH3CGH
1328,48,,1.0,28.0,playground_76.jpg,,,,A3BD6HXLYH3CGH
1329,49,,1.0,29.0,badlands_70.jpg,,,,A3BD6HXLYH3CGH
1330,50,,1.0,30.0,mountain_154.jpg,,,,A3BD6HXLYH3CGH
1331,51,,1.0,31.0,badlands_52.jpg,,,,A3BD6HXLYH3CGH
1332,52,,1.0,32.0,highway_245.jpg,,,,A3BD6HXLYH3CGH
1333,53,,1.0,33.0,golf_course_214.jpg,,,,A3BD6HXLYH3CGH
1334,54,,1.0,34.0,golf_course_309.jpg,,,,A3BD6HXLYH3CGH
1335,55,,1.0,35.0,mountain_222.jpg,,,,A3BD6HXLYH3CGH
1336,56,,1.0,36.0,mountain_110.jpg,,,,A3BD6HXLYH3CGH
1337,57,,1.0,37.0,badlands_23.jpg,,,,A3BD6HXLYH3CGH
1338,58,,1.0,38.0,playground_117.jpg,,,,A3BD6HXLYH3CGH
1339,59,,1.0,39.0,badlands_221.jpg,,,,A3BD6HXLYH3CGH
1340,60,,1.0,40.0,golf_course_195.jpg,,,,A3BD6HXLYH3CGH
1341,61,,1.0,41.0,mountain_293.jpg,,,,A3BD6HXLYH3CGH
1342,62,,1.0,42.0,bridge_250.jpg,,,,A3BD6HXLYH3CGH
1343,63,left,0.0,43.0,right.jpg,right,1.0551,,A3BD6HXLYH3CGH
1344,64,,1.0,44.0,mountain_156.jpg,,,,A3BD6HXLYH3CGH
1345,65,,1.0,45.0,bridge_191.jpg,,,,A3BD6HXLYH3CGH
1346,66,,1.0,46.0,badlands_184.jpg,,,,A3BD6HXLYH3CGH
1347,67,right,0.0,47.0,left.jpg,left,1.0251,,A3BD6HXLYH3CGH
1348,68,,1.0,48.0,highway_394.jpg,,,,A3BD6HXLYH3CGH
1349,69,,1.0,49.0,golf_course_87.jpg,,,,A3BD6HXLYH3CGH
1350,70,,1.0,50.0,mountain_230.jpg,,,,A3BD6HXLYH3CGH
1351,71,,1.0,51.0,bridge_172.jpg,,,,A3BD6HXLYH3CGH
1352,72,,1.0,52.0,highway_177.jpg,,,,A3BD6HXLYH3CGH
1353,73,,1.0,53.0,badlands_21.jpg,,,,A3BD6HXLYH3CGH
1354,74,,1.0,54.0,mountain_101.jpg,,,,A3BD6HXLYH3CGH
1355,75,,1.0,55.0,bridge_128.jpg,,,,A3BD6HXLYH3CGH
1356,76,,1.0,56.0,highway_273.jpg,,,,A3BD6HXLYH3CGH
1357,77,,1.0,57.0,golf_course_188.jpg,,,,A3BD6HXLYH3CGH
1358,78,,1.0,58.0,bridge_65.jpg,,,,A3BD6HXLYH3CGH
1359,79,,1.0,59.0,golf_course_331.jpg,,,,A3BD6HXLYH3CGH
1360,80,,1.0,60.0,mountain_57.jpg,,,,A3BD6HXLYH3CGH
1361,81,,1.0,61.0,bridge_108.jpg,,,,A3BD6HXLYH3CGH
1362,82,,1.0,62.0,badlands_137.jpg,,,,A3BD6HXLYH3CGH
1363,83,,1.0,63.0,bridge_146.jpg,,,,A3BD6HXLYH3CGH
1364,84,,1.0,64.0,highway_156.jpg,,,,A3BD6HXLYH3CGH
1365,20,,1.0,0.0,bridge_128.jpg,,,,A3EWBTHYFI4I6Q
1366,21,,1.0,1.0,badlands_221.jpg,,,,A3EWBTHYFI4I6Q
1367,22,,1.0,2.0,playground_60.jpg,,,,A3EWBTHYFI4I6Q
1368,23,,1.0,3.0,badlands_70.jpg,,,,A3EWBTHYFI4I6Q
1369,24,,1.0,4.0,bridge_172.jpg,,,,A3EWBTHYFI4I6Q
1370,25,,1.0,5.0,bridge_256.jpg,,,,A3EWBTHYFI4I6Q
1371,26,,1.0,6.0,playground_144.jpg,,,,A3EWBTHYFI4I6Q
1372,27,,1.0,7.0,badlands_137.jpg,,,,A3EWBTHYFI4I6Q
1373,28,left,1.0,8.0,left.jpg,left,1.0359,,A3EWBTHYFI4I6Q
1374,29,,1.0,9.0,golf_course_78.jpg,,,,A3EWBTHYFI4I6Q
1375,30,,1.0,10.0,playground_240.jpg,,,,A3EWBTHYFI4I6Q
1376,31,,1.0,11.0,highway_273.jpg,,,,A3EWBTHYFI4I6Q
1377,32,,1.0,12.0,mountain_222.jpg,,,,A3EWBTHYFI4I6Q
1378,33,,1.0,13.0,highway_209.jpg,,,,A3EWBTHYFI4I6Q
1379,34,,1.0,14.0,golf_course_188.jpg,,,,A3EWBTHYFI4I6Q
1380,35,,1.0,15.0,highway_245.jpg,,,,A3EWBTHYFI4I6Q
1381,36,left,1.0,16.0,left.jpg,left,0.9631,,A3EWBTHYFI4I6Q
1382,37,,1.0,17.0,mountain_110.jpg,,,,A3EWBTHYFI4I6Q
1383,38,,1.0,18.0,bridge_146.jpg,,,,A3EWBTHYFI4I6Q
1384,39,,1.0,19.0,mountain_230.jpg,,,,A3EWBTHYFI4I6Q
1385,40,,1.0,20.0,bridge_250.jpg,,,,A3EWBTHYFI4I6Q
1386,41,,1.0,21.0,badlands_113.jpg,,,,A3EWBTHYFI4I6Q
1387,42,,1.0,22.0,golf_course_309.jpg,,,,A3EWBTHYFI4I6Q
1388,43,,1.0,23.0,playground_131.jpg,,,,A3EWBTHYFI4I6Q
1389,44,,1.0,24.0,playground_145.jpg,,,,A3EWBTHYFI4I6Q
1390,45,,1.0,25.0,mountain_156.jpg,,,,A3EWBTHYFI4I6Q
1391,46,,1.0,26.0,highway_93.jpg,,,,A3EWBTHYFI4I6Q
1392,47,,1.0,27.0,bridge_202.jpg,,,,A3EWBTHYFI4I6Q
1393,48,left,1.0,28.0,left.jpg,left,1.131,,A3EWBTHYFI4I6Q
1394,49,,1.0,29.0,highway_394.jpg,,,,A3EWBTHYFI4I6Q
1395,50,,1.0,30.0,highway_415.jpg,,,,A3EWBTHYFI4I6Q
1396,51,,1.0,31.0,mountain_101.jpg,,,,A3EWBTHYFI4I6Q
1397,52,,1.0,32.0,mountain_232.jpg,,,,A3EWBTHYFI4I6Q
1398,53,,1.0,33.0,badlands_184.jpg,,,,A3EWBTHYFI4I6Q
1399,54,,1.0,34.0,highway_156.jpg,,,,A3EWBTHYFI4I6Q
1400,55,,1.0,35.0,bridge_108.jpg,,,,A3EWBTHYFI4I6Q
1401,56,,1.0,36.0,mountain_57.jpg,,,,A3EWBTHYFI4I6Q
1402,57,,1.0,37.0,playground_219.jpg,,,,A3EWBTHYFI4I6Q
1403,58,,1.0,38.0,golf_course_15.jpg,,,,A3EWBTHYFI4I6Q
1404,59,,1.0,39.0,badlands_24.jpg,,,,A3EWBTHYFI4I6Q
1405,60,,1.0,40.0,highway_177.jpg,,,,A3EWBTHYFI4I6Q
1406,61,,1.0,41.0,badlands_23.jpg,,,,A3EWBTHYFI4I6Q
1407,62,right,1.0,42.0,right.jpg,right,1.2173,,A3EWBTHYFI4I6Q
1408,63,,1.0,43.0,mountain_154.jpg,,,,A3EWBTHYFI4I6Q
1409,64,,1.0,44.0,mountain_123.jpg,,,,A3EWBTHYFI4I6Q
1410,65,,1.0,45.0,playground_257.jpg,,,,A3EWBTHYFI4I6Q
1411,66,,1.0,46.0,golf_course_331.jpg,,,,A3EWBTHYFI4I6Q
1412,67,,1.0,47.0,playground_76.jpg,,,,A3EWBTHYFI4I6Q
1413,68,,1.0,48.0,badlands_52.jpg,,,,A3EWBTHYFI4I6Q
1414,69,,1.0,49.0,badlands_21.jpg,,,,A3EWBTHYFI4I6Q
1415,70,,1.0,50.0,highway_294.jpg,,,,A3EWBTHYFI4I6Q
1416,71,,1.0,51.0,badlands_222.jpg,,,,A3EWBTHYFI4I6Q
1417,72,,1.0,52.0,golf_course_217.jpg,,,,A3EWBTHYFI4I6Q
1418,73,,1.0,53.0,golf_course_193.jpg,,,,A3EWBTHYFI4I6Q
1419,74,right,1.0,54.0,right.jpg,right,1.0255,,A3EWBTHYFI4I6Q
1420,75,,1.0,55.0,highway_359.jpg,,,,A3EWBTHYFI4I6Q
1421,76,,1.0,56.0,golf_course_87.jpg,,,,A3EWBTHYFI4I6Q
1422,77,,1.0,57.0,bridge_65.jpg,,,,A3EWBTHYFI4I6Q
1423,78,,1.0,58.0,golf_course_195.jpg,,,,A3EWBTHYFI4I6Q
1424,79,,1.0,59.0,playground_117.jpg,,,,A3EWBTHYFI4I6Q
1425,80,,1.0,60.0,playground_10.jpg,,,,A3EWBTHYFI4I6Q
1426,81,,1.0,61.0,golf_course_214.jpg,,,,A3EWBTHYFI4I6Q
1427,82,,1.0,62.0,bridge_91.jpg,,,,A3EWBTHYFI4I6Q
1428,83,,1.0,63.0,bridge_191.jpg,,,,A3EWBTHYFI4I6Q
1429,84,,1.0,64.0,mountain_293.jpg,,,,A3EWBTHYFI4I6Q
1430,20,,1.0,0.0,mountain_232.jpg,,,,AKDW1CODLYVYG
1431,21,,1.0,1.0,highway_177.jpg,,,,AKDW1CODLYVYG
1432,22,,1.0,2.0,mountain_123.jpg,,,,AKDW1CODLYVYG
1433,23,,1.0,3.0,bridge_108.jpg,,,,AKDW1CODLYVYG
1434,24,,1.0,4.0,mountain_154.jpg,,,,AKDW1CODLYVYG
1435,25,,1.0,5.0,golf_course_195.jpg,,,,AKDW1CODLYVYG
1436,26,,1.0,6.0,badlands_23.jpg,,,,AKDW1CODLYVYG
1437,27,,1.0,7.0,golf_course_217.jpg,,,,AKDW1CODLYVYG
1438,28,,1.0,8.0,badlands_184.jpg,,,,AKDW1CODLYVYG
1439,29,,1.0,9.0,highway_294.jpg,,,,AKDW1CODLYVYG
1440,30,,1.0,10.0,highway_273.jpg,,,,AKDW1CODLYVYG
1441,31,,1.0,11.0,bridge_128.jpg,,,,AKDW1CODLYVYG
1442,32,right,1.0,12.0,right.jpg,right,1.4752,,AKDW1CODLYVYG
1443,33,,1.0,13.0,highway_156.jpg,,,,AKDW1CODLYVYG
1444,34,,1.0,14.0,playground_76.jpg,,,,AKDW1CODLYVYG
1445,35,,1.0,15.0,bridge_65.jpg,,,,AKDW1CODLYVYG
1446,36,,1.0,16.0,badlands_70.jpg,,,,AKDW1CODLYVYG
1447,37,,1.0,17.0,golf_course_309.jpg,,,,AKDW1CODLYVYG
1448,38,,1.0,18.0,playground_144.jpg,,,,AKDW1CODLYVYG
1449,39,,1.0,19.0,bridge_250.jpg,,,,AKDW1CODLYVYG
1450,40,,1.0,20.0,mountain_222.jpg,,,,AKDW1CODLYVYG
1451,41,left,1.0,21.0,left.jpg,left,1.1308,,AKDW1CODLYVYG
1452,42,,1.0,22.0,golf_course_78.jpg,,,,AKDW1CODLYVYG
1453,43,,1.0,23.0,golf_course_188.jpg,,,,AKDW1CODLYVYG
1454,44,,1.0,24.0,mountain_293.jpg,,,,AKDW1CODLYVYG
1455,45,,1.0,25.0,badlands_52.jpg,,,,AKDW1CODLYVYG
1456,46,,1.0,26.0,bridge_202.jpg,,,,AKDW1CODLYVYG
1457,47,,1.0,27.0,golf_course_193.jpg,,,,AKDW1CODLYVYG
1458,48,left,1.0,28.0,left.jpg,left,0.9212,,AKDW1CODLYVYG
1459,49,,1.0,29.0,badlands_24.jpg,,,,AKDW1CODLYVYG
1460,50,,1.0,30.0,highway_245.jpg,,,,AKDW1CODLYVYG
1461,51,,1.0,31.0,highway_209.jpg,,,,AKDW1CODLYVYG
1462,52,,1.0,32.0,mountain_57.jpg,,,,AKDW1CODLYVYG
1463,53,,1.0,33.0,badlands_113.jpg,,,,AKDW1CODLYVYG
1464,54,,1.0,34.0,highway_93.jpg,,,,AKDW1CODLYVYG
1465,55,,1.0,35.0,bridge_172.jpg,,,,AKDW1CODLYVYG
1466,56,,1.0,36.0,golf_course_331.jpg,,,,AKDW1CODLYVYG
1467,57,,1.0,37.0,badlands_21.jpg,,,,AKDW1CODLYVYG
1468,58,,1.0,38.0,mountain_110.jpg,,,,AKDW1CODLYVYG
1469,59,,1.0,39.0,playground_219.jpg,,,,AKDW1CODLYVYG
1470,60,,1.0,40.0,bridge_146.jpg,,,,AKDW1CODLYVYG
1471,61,,1.0,41.0,highway_415.jpg,,,,AKDW1CODLYVYG
1472,62,,1.0,42.0,mountain_156.jpg,,,,AKDW1CODLYVYG
1473,63,left,1.0,43.0,left.jpg,left,1.0906,,AKDW1CODLYVYG
1474,64,,1.0,44.0,mountain_101.jpg,,,,AKDW1CODLYVYG
1475,65,,1.0,45.0,playground_240.jpg,,,,AKDW1CODLYVYG
1476,66,,1.0,46.0,bridge_91.jpg,,,,AKDW1CODLYVYG
1477,67,right,1.0,47.0,right.jpg,right,1.6997,,AKDW1CODLYVYG
1478,68,,1.0,48.0,bridge_256.jpg,,,,AKDW1CODLYVYG
1479,69,,1.0,49.0,mountain_230.jpg,,,,AKDW1CODLYVYG
1480,70,,1.0,50.0,highway_394.jpg,,,,AKDW1CODLYVYG
1481,71,,1.0,51.0,playground_131.jpg,,,,AKDW1CODLYVYG
1482,72,,1.0,52.0,playground_10.jpg,,,,AKDW1CODLYVYG
1483,73,,1.0,53.0,golf_course_15.jpg,,,,AKDW1CODLYVYG
1484,74,,1.0,54.0,highway_359.jpg,,,,AKDW1CODLYVYG
1485,75,,1.0,55.0,bridge_191.jpg,,,,AKDW1CODLYVYG
1486,76,,1.0,56.0,badlands_137.jpg,,,,AKDW1CODLYVYG
1487,77,,1.0,57.0,playground_145.jpg,,,,AKDW1CODLYVYG
1488,78,,1.0,58.0,playground_117.jpg,,,,AKDW1CODLYVYG
1489,79,,1.0,59.0,golf_course_214.jpg,,,,AKDW1CODLYVYG
1490,80,,1.0,60.0,playground_257.jpg,,,,AKDW1CODLYVYG
1491,81,,1.0,61.0,badlands_222.jpg,,,,AKDW1CODLYVYG
1492,82,,1.0,62.0,badlands_221.jpg,,,,AKDW1CODLYVYG
1493,83,,1.0,63.0,golf_course_87.jpg,,,,AKDW1CODLYVYG
1494,84,,1.0,64.0,playground_60.jpg,,,,AKDW1CODLYVYG
1495,20,,1.0,0.0,highway_394.jpg,,,,ANDJL5986AUAF
1496,21,,1.0,1.0,playground_257.jpg,,,,ANDJL5986AUAF
1497,22,,1.0,2.0,playground_219.jpg,,,,ANDJL5986AUAF
1498,23,,1.0,3.0,mountain_110.jpg,,,,ANDJL5986AUAF
1499,24,,1.0,4.0,playground_117.jpg,,,,ANDJL5986AUAF
1500,25,,1.0,5.0,mountain_293.jpg,,,,ANDJL5986AUAF
1501,26,,1.0,6.0,golf_course_15.jpg,,,,ANDJL5986AUAF
1502,27,left,1.0,7.0,left.jpg,left,1.4147,,ANDJL5986AUAF
1503,28,,1.0,8.0,golf_course_193.jpg,,,,ANDJL5986AUAF
1504,29,,1.0,9.0,badlands_70.jpg,,,,ANDJL5986AUAF
1505,30,,1.0,10.0,playground_144.jpg,,,,ANDJL5986AUAF
1506,31,,1.0,11.0,badlands_24.jpg,,,,ANDJL5986AUAF
1507,32,,1.0,12.0,mountain_222.jpg,,,,ANDJL5986AUAF
1508,33,,1.0,13.0,playground_60.jpg,,,,ANDJL5986AUAF
1509,34,,1.0,14.0,golf_course_195.jpg,,,,ANDJL5986AUAF
1510,35,,1.0,15.0,mountain_154.jpg,,,,ANDJL5986AUAF
1511,36,right,1.0,16.0,right.jpg,right,1.4215,,ANDJL5986AUAF
1512,37,,1.0,17.0,mountain_57.jpg,,,,ANDJL5986AUAF
1513,38,,1.0,18.0,badlands_222.jpg,,,,ANDJL5986AUAF
1514,39,,1.0,19.0,badlands_184.jpg,,,,ANDJL5986AUAF
1515,40,,1.0,20.0,highway_209.jpg,,,,ANDJL5986AUAF
1516,41,,1.0,21.0,badlands_23.jpg,,,,ANDJL5986AUAF
1517,42,,1.0,22.0,bridge_256.jpg,,,,ANDJL5986AUAF
1518,43,,1.0,23.0,highway_415.jpg,,,,ANDJL5986AUAF
1519,44,,1.0,24.0,playground_10.jpg,,,,ANDJL5986AUAF
1520,45,,1.0,25.0,bridge_191.jpg,,,,ANDJL5986AUAF
1521,46,,1.0,26.0,mountain_101.jpg,,,,ANDJL5986AUAF
1522,47,,1.0,27.0,highway_273.jpg,,,,ANDJL5986AUAF
1523,48,,1.0,28.0,bridge_172.jpg,,,,ANDJL5986AUAF
1524,49,,1.0,29.0,highway_245.jpg,,,,ANDJL5986AUAF
1525,50,left,1.0,30.0,left.jpg,left,2.3847,,ANDJL5986AUAF
1526,51,,1.0,31.0,highway_294.jpg,,,,ANDJL5986AUAF
1527,52,,1.0,32.0,golf_course_78.jpg,,,,ANDJL5986AUAF
1528,53,,1.0,33.0,mountain_156.jpg,,,,ANDJL5986AUAF
1529,54,,1.0,34.0,highway_156.jpg,,,,ANDJL5986AUAF
1530,55,,1.0,35.0,golf_course_309.jpg,,,,ANDJL5986AUAF
1531,56,,1.0,36.0,golf_course_87.jpg,,,,ANDJL5986AUAF
1532,57,right,1.0,37.0,right.jpg,right,1.6744,,ANDJL5986AUAF
1533,58,,1.0,38.0,bridge_65.jpg,,,,ANDJL5986AUAF
1534,59,,1.0,39.0,golf_course_214.jpg,,,,ANDJL5986AUAF
1535,60,,1.0,40.0,highway_359.jpg,,,,ANDJL5986AUAF
1536,61,,1.0,41.0,mountain_232.jpg,,,,ANDJL5986AUAF
1537,62,,1.0,42.0,bridge_146.jpg,,,,ANDJL5986AUAF
1538,63,,1.0,43.0,mountain_230.jpg,,,,ANDJL5986AUAF
1539,64,,1.0,44.0,bridge_108.jpg,,,,ANDJL5986AUAF
1540,65,,1.0,45.0,highway_177.jpg,,,,ANDJL5986AUAF
1541,66,,1.0,46.0,playground_76.jpg,,,,ANDJL5986AUAF
1542,67,,1.0,47.0,badlands_21.jpg,,,,ANDJL5986AUAF
1543,68,,1.0,48.0,playground_145.jpg,,,,ANDJL5986AUAF
1544,69,,1.0,49.0,bridge_91.jpg,,,,ANDJL5986AUAF
1545,70,,1.0,50.0,badlands_113.jpg,,,,ANDJL5986AUAF
1546,71,left,1.0,51.0,left.jpg,left,1.4803,,ANDJL5986AUAF
1547,72,,1.0,52.0,badlands_137.jpg,,,,ANDJL5986AUAF
1548,73,,1.0,53.0,golf_course_331.jpg,,,,ANDJL5986AUAF
1549,74,,1.0,54.0,bridge_250.jpg,,,,ANDJL5986AUAF
1550,75,,1.0,55.0,badlands_52.jpg,,,,ANDJL5986AUAF
1551,76,,1.0,56.0,bridge_202.jpg,,,,ANDJL5986AUAF
1552,77,,1.0,57.0,badlands_221.jpg,,,,ANDJL5986AUAF
1553,78,,1.0,58.0,playground_240.jpg,,,,ANDJL5986AUAF
1554,79,,1.0,59.0,bridge_128.jpg,,,,ANDJL5986AUAF
1555,80,,1.0,60.0,playground_131.jpg,,,,ANDJL5986AUAF
1556,81,,1.0,61.0,mountain_123.jpg,,,,ANDJL5986AUAF
1557,82,,1.0,62.0,golf_course_188.jpg,,,,ANDJL5986AUAF
1558,83,,1.0,63.0,highway_93.jpg,,,,ANDJL5986AUAF
1559,84,,1.0,64.0,golf_course_217.jpg,,,,ANDJL5986AUAF
1560,20,,1.0,0.0,highway_93.jpg,,,,AR6H3B01WJ1FQ
1561,21,,1.0,1.0,mountain_101.jpg,,,,AR6H3B01WJ1FQ
1562,22,,1.0,2.0,playground_76.jpg,,,,AR6H3B01WJ1FQ
1563,23,,1.0,3.0,badlands_113.jpg,,,,AR6H3B01WJ1FQ
1564,24,,1.0,4.0,playground_117.jpg,,,,AR6H3B01WJ1FQ
1565,25,,1.0,5.0,golf_course_188.jpg,,,,AR6H3B01WJ1FQ
1566,26,right,1.0,6.0,right.jpg,right,1.839,,AR6H3B01WJ1FQ
1567,27,,1.0,7.0,highway_294.jpg,,,,AR6H3B01WJ1FQ
1568,28,,1.0,8.0,bridge_191.jpg,,,,AR6H3B01WJ1FQ
1569,29,,1.0,9.0,playground_219.jpg,,,,AR6H3B01WJ1FQ
1570,30,,1.0,10.0,golf_course_214.jpg,,,,AR6H3B01WJ1FQ
1571,31,,1.0,11.0,mountain_154.jpg,,,,AR6H3B01WJ1FQ
1572,32,,1.0,12.0,highway_394.jpg,,,,AR6H3B01WJ1FQ
1573,33,,1.0,13.0,golf_course_193.jpg,,,,AR6H3B01WJ1FQ
1574,34,,1.0,14.0,mountain_57.jpg,,,,AR6H3B01WJ1FQ
1575,35,,1.0,15.0,golf_course_15.jpg,,,,AR6H3B01WJ1FQ
1576,36,,1.0,16.0,bridge_108.jpg,,,,AR6H3B01WJ1FQ
1577,37,,1.0,17.0,golf_course_309.jpg,,,,AR6H3B01WJ1FQ
1578,38,,1.0,18.0,bridge_128.jpg,,,,AR6H3B01WJ1FQ
1579,39,,1.0,19.0,mountain_232.jpg,,,,AR6H3B01WJ1FQ
1580,40,,1.0,20.0,playground_144.jpg,,,,AR6H3B01WJ1FQ
1581,41,,1.0,21.0,bridge_146.jpg,,,,AR6H3B01WJ1FQ
1582,42,right,1.0,22.0,right.jpg,right,1.8048,,AR6H3B01WJ1FQ
1583,43,,1.0,23.0,bridge_91.jpg,,,,AR6H3B01WJ1FQ
1584,44,,1.0,24.0,mountain_222.jpg,,,,AR6H3B01WJ1FQ
1585,45,,1.0,25.0,golf_course_195.jpg,,,,AR6H3B01WJ1FQ
1586,46,,1.0,26.0,badlands_137.jpg,,,,AR6H3B01WJ1FQ
1587,47,,1.0,27.0,highway_415.jpg,,,,AR6H3B01WJ1FQ
1588,48,,1.0,28.0,mountain_110.jpg,,,,AR6H3B01WJ1FQ
1589,49,,1.0,29.0,bridge_256.jpg,,,,AR6H3B01WJ1FQ
1590,50,,1.0,30.0,golf_course_78.jpg,,,,AR6H3B01WJ1FQ
1591,51,left,1.0,31.0,left.jpg,left,1.6666,,AR6H3B01WJ1FQ
1592,52,,1.0,32.0,badlands_24.jpg,,,,AR6H3B01WJ1FQ
1593,53,,1.0,33.0,badlands_23.jpg,,,,AR6H3B01WJ1FQ
1594,54,,1.0,34.0,playground_131.jpg,,,,AR6H3B01WJ1FQ
1595,55,,1.0,35.0,badlands_21.jpg,,,,AR6H3B01WJ1FQ
1596,56,left,1.0,36.0,left.jpg,left,1.5929,,AR6H3B01WJ1FQ
1597,57,,1.0,37.0,playground_240.jpg,,,,AR6H3B01WJ1FQ
1598,58,,1.0,38.0,highway_177.jpg,,,,AR6H3B01WJ1FQ
1599,59,,1.0,39.0,golf_course_331.jpg,,,,AR6H3B01WJ1FQ
1600,60,,1.0,40.0,playground_145.jpg,,,,AR6H3B01WJ1FQ
1601,61,,1.0,41.0,playground_257.jpg,,,,AR6H3B01WJ1FQ
1602,62,,1.0,42.0,mountain_230.jpg,,,,AR6H3B01WJ1FQ
1603,63,,1.0,43.0,highway_156.jpg,,,,AR6H3B01WJ1FQ
1604,64,,1.0,44.0,highway_245.jpg,,,,AR6H3B01WJ1FQ
1605,65,,1.0,45.0,golf_course_217.jpg,,,,AR6H3B01WJ1FQ
1606,66,left,1.0,46.0,left.jpg,left,1.5932,,AR6H3B01WJ1FQ
1607,67,,1.0,47.0,mountain_123.jpg,,,,AR6H3B01WJ1FQ
1608,68,,1.0,48.0,badlands_52.jpg,,,,AR6H3B01WJ1FQ
1609,69,,1.0,49.0,mountain_156.jpg,,,,AR6H3B01WJ1FQ
1610,70,,1.0,50.0,bridge_65.jpg,,,,AR6H3B01WJ1FQ
1611,71,,1.0,51.0,golf_course_87.jpg,,,,AR6H3B01WJ1FQ
1612,72,,1.0,52.0,bridge_202.jpg,,,,AR6H3B01WJ1FQ
1613,73,,1.0,53.0,bridge_250.jpg,,,,AR6H3B01WJ1FQ
1614,74,,1.0,54.0,playground_10.jpg,,,,AR6H3B01WJ1FQ
1615,75,,1.0,55.0,playground_60.jpg,,,,AR6H3B01WJ1FQ
1616,76,,1.0,56.0,badlands_222.jpg,,,,AR6H3B01WJ1FQ
1617,77,,1.0,57.0,badlands_70.jpg,,,,AR6H3B01WJ1FQ
1618,78,,1.0,58.0,highway_359.jpg,,,,AR6H3B01WJ1FQ
1619,79,,1.0,59.0,highway_209.jpg,,,,AR6H3B01WJ1FQ
1620,80,,1.0,60.0,bridge_172.jpg,,,,AR6H3B01WJ1FQ
1621,81,,1.0,61.0,mountain_293.jpg,,,,AR6H3B01WJ1FQ
1622,82,,1.0,62.0,highway_273.jpg,,,,AR6H3B01WJ1FQ
1623,83,,1.0,63.0,badlands_184.jpg,,,,AR6H3B01WJ1FQ
1624,84,,1.0,64.0,badlands_221.jpg,,,,AR6H3B01WJ1FQ
