,layer,correct,test_test_response.keys,test_test_response.corr,test_test_response.rt,trials_2.thisRepN,trials_2.thisTrialN,trials_2.thisN,trials_2.thisIndex,trials_2.ran,image1,image2,bar_2.response,subject
0,0.0,right,left,0.0,12.2089,0.0,0.0,0.0,0.0,1.0,playground_137.jpg,playground_144.jpg,7.0,A1ZFUHVIPQOVGK
1,1.0,right,left,0.0,6.7158,0.0,1.0,1.0,1.0,1.0,bridge_60.jpg,bridge_65.jpg,7.0,A1ZFUHVIPQOVGK
2,0.0,right,right,1.0,5.6792,0.0,2.0,2.0,2.0,1.0,mountain_193.jpg,mountain_57.jpg,7.0,A1ZFUHVIPQOVGK
3,1.0,right,left,0.0,4.68,0.0,3.0,3.0,3.0,1.0,golf_course_209.jpg,golf_course_309.jpg,6.0,A1ZFUHVIPQOVGK
4,0.0,right,right,1.0,1.9149,0.0,4.0,4.0,4.0,1.0,mountain_72.jpg,mountain_293.jpg,6.0,A1ZFUHVIPQOVGK
5,1.0,left,left,1.0,2.0032,0.0,5.0,5.0,5.0,1.0,badlands_21.jpg,badlands_98.jpg,6.0,A1ZFUHVIPQOVGK
6,1.0,right,right,1.0,1.6063,0.0,6.0,6.0,6.0,1.0,golf_course_123.jpg,golf_course_193.jpg,7.0,A1ZFUHVIPQOVGK
7,1.0,right,left,0.0,1.6705,0.0,7.0,7.0,7.0,1.0,bridge_244.jpg,bridge_128.jpg,6.0,A1ZFUHVIPQOVGK
8,0.0,right,right,1.0,1.28,0.0,8.0,8.0,8.0,1.0,golf_course_134.jpg,golf_course_78.jpg,7.0,A1ZFUHVIPQOVGK
9,1.0,left,left,1.0,3.4766,0.0,9.0,9.0,9.0,1.0,highway_359.jpg,highway_379.jpg,6.0,A1ZFUHVIPQOVGK
10,0.0,left,right,0.0,1.5169,0.0,10.0,10.0,10.0,1.0,highway_245.jpg,highway_134.jpg,7.0,A1ZFUHVIPQOVGK
11,0.0,right,left,0.0,1.8586,0.0,11.0,11.0,11.0,1.0,badlands_3.jpg,badlands_24.jpg,7.0,A1ZFUHVIPQOVGK
12,0.0,right,right,1.0,1.015,0.0,12.0,12.0,12.0,1.0,playground_122.jpg,playground_10.jpg,7.0,A1ZFUHVIPQOVGK
13,0.0,right,right,1.0,1.8616,0.0,13.0,13.0,13.0,1.0,playground_43.jpg,playground_131.jpg,6.0,A1ZFUHVIPQOVGK
14,1.0,left,right,0.0,1.671,0.0,14.0,14.0,14.0,1.0,highway_156.jpg,highway_293.jpg,8.0,A1ZFUHVIPQOVGK
15,1.0,right,left,0.0,1.5136,0.0,15.0,15.0,15.0,1.0,mountain_95.jpg,mountain_154.jpg,7.0,A1ZFUHVIPQOVGK
16,1.0,left,left,1.0,1.9278,0.0,16.0,16.0,16.0,1.0,playground_257.jpg,playground_215.jpg,7.0,A1ZFUHVIPQOVGK
17,0.0,right,right,1.0,1.2073,0.0,17.0,17.0,17.0,1.0,golf_course_35.jpg,golf_course_217.jpg,7.0,A1ZFUHVIPQOVGK
18,1.0,right,left,0.0,1.97,0.0,18.0,18.0,18.0,1.0,mountain_223.jpg,mountain_110.jpg,7.0,A1ZFUHVIPQOVGK
19,1.0,right,right,1.0,0.7657,0.0,19.0,19.0,19.0,1.0,golf_course_2.jpg,golf_course_195.jpg,7.0,A1ZFUHVIPQOVGK
20,1.0,right,left,0.0,0.8851,0.0,20.0,20.0,20.0,1.0,playground_205.jpg,playground_219.jpg,7.0,A1ZFUHVIPQOVGK
21,0.0,left,right,0.0,1.2627,0.0,21.0,21.0,21.0,1.0,golf_course_15.jpg,golf_course_113.jpg,7.0,A1ZFUHVIPQOVGK
22,0.0,left,left,1.0,1.0397,0.0,22.0,22.0,22.0,1.0,golf_course_188.jpg,golf_course_157.jpg,7.0,A1ZFUHVIPQOVGK
23,0.0,left,right,0.0,1.3809,0.0,23.0,23.0,23.0,1.0,badlands_23.jpg,badlands_114.jpg,7.0,A1ZFUHVIPQOVGK
24,1.0,right,left,0.0,1.0916,0.0,24.0,24.0,24.0,1.0,playground_40.jpg,playground_240.jpg,6.0,A1ZFUHVIPQOVGK
25,1.0,right,right,1.0,1.452,0.0,25.0,25.0,25.0,1.0,highway_122.jpg,highway_209.jpg,7.0,A1ZFUHVIPQOVGK
26,0.0,right,left,0.0,1.0836,0.0,26.0,26.0,26.0,1.0,bridge_27.jpg,bridge_146.jpg,7.0,A1ZFUHVIPQOVGK
27,0.0,left,right,0.0,1.4469,0.0,27.0,27.0,27.0,1.0,bridge_91.jpg,bridge_253.jpg,7.0,A1ZFUHVIPQOVGK
28,1.0,left,left,1.0,1.0073,0.0,28.0,28.0,28.0,1.0,highway_177.jpg,highway_278.jpg,6.0,A1ZFUHVIPQOVGK
29,1.0,left,right,0.0,1.085,0.0,29.0,29.0,29.0,1.0,badlands_184.jpg,badlands_103.jpg,8.0,A1ZFUHVIPQOVGK
30,1.0,left,left,1.0,0.9288,0.0,30.0,30.0,30.0,1.0,bridge_191.jpg,bridge_75.jpg,6.0,A1ZFUHVIPQOVGK
31,1.0,left,right,0.0,0.9144,0.0,31.0,31.0,31.0,1.0,golf_course_331.jpg,golf_course_26.jpg,7.0,A1ZFUHVIPQOVGK
32,0.0,right,left,0.0,1.1198,0.0,32.0,32.0,32.0,1.0,mountain_171.jpg,mountain_101.jpg,5.0,A1ZFUHVIPQOVGK
33,1.0,right,right,1.0,0.798,0.0,33.0,33.0,33.0,1.0,mountain_97.jpg,mountain_230.jpg,7.0,A1ZFUHVIPQOVGK
34,0.0,right,left,0.0,1.3621,0.0,34.0,34.0,34.0,1.0,bridge_116.jpg,bridge_108.jpg,6.0,A1ZFUHVIPQOVGK
35,0.0,left,right,0.0,2.6613,0.0,35.0,35.0,35.0,1.0,golf_course_87.jpg,golf_course_130.jpg,7.0,A1ZFUHVIPQOVGK
36,1.0,right,left,0.0,1.2538,0.0,36.0,36.0,36.0,1.0,badlands_119.jpg,badlands_70.jpg,6.0,A1ZFUHVIPQOVGK
37,0.0,left,right,0.0,1.0342,0.0,37.0,37.0,37.0,1.0,highway_273.jpg,highway_384.jpg,7.0,A1ZFUHVIPQOVGK
38,1.0,right,left,0.0,0.8843,0.0,38.0,38.0,38.0,1.0,golf_course_317.jpg,golf_course_214.jpg,6.0,A1ZFUHVIPQOVGK
39,1.0,left,right,0.0,1.2111,0.0,39.0,39.0,39.0,1.0,mountain_156.jpg,mountain_295.jpg,7.0,A1ZFUHVIPQOVGK
40,0.0,left,left,1.0,1.2349,0.0,40.0,40.0,40.0,1.0,mountain_123.jpg,mountain_94.jpg,6.0,A1ZFUHVIPQOVGK
41,0.0,right,right,1.0,1.1555,0.0,41.0,41.0,41.0,1.0,highway_204.jpg,highway_394.jpg,7.0,A1ZFUHVIPQOVGK
42,1.0,right,left,0.0,0.8635,0.0,42.0,42.0,42.0,1.0,bridge_211.jpg,bridge_256.jpg,6.0,A1ZFUHVIPQOVGK
43,0.0,right,right,1.0,1.175,0.0,43.0,43.0,43.0,1.0,playground_167.jpg,playground_117.jpg,7.0,A1ZFUHVIPQOVGK
44,0.0,left,left,1.0,1.0231,0.0,44.0,44.0,44.0,1.0,bridge_202.jpg,bridge_31.jpg,6.0,A1ZFUHVIPQOVGK
45,1.0,right,right,1.0,1.0131,0.0,45.0,45.0,45.0,1.0,mountain_54.jpg,mountain_232.jpg,7.0,A1ZFUHVIPQOVGK
46,0.0,left,left,1.0,0.8689,0.0,46.0,46.0,46.0,1.0,highway_415.jpg,highway_60.jpg,6.0,A1ZFUHVIPQOVGK
47,1.0,right,right,1.0,0.9628,0.0,47.0,47.0,47.0,1.0,badlands_139.jpg,badlands_137.jpg,7.0,A1ZFUHVIPQOVGK
48,1.0,left,left,1.0,1.0512,0.0,48.0,48.0,48.0,1.0,playground_76.jpg,playground_72.jpg,6.0,A1ZFUHVIPQOVGK
49,1.0,left,right,0.0,1.1618,0.0,49.0,49.0,49.0,1.0,badlands_221.jpg,badlands_207.jpg,7.0,A1ZFUHVIPQOVGK
50,1.0,left,left,1.0,1.0217,0.0,50.0,50.0,50.0,1.0,playground_60.jpg,playground_244.jpg,7.0,A1ZFUHVIPQOVGK
51,0.0,right,left,0.0,2.005,0.0,51.0,51.0,51.0,1.0,playground_229.jpg,playground_145.jpg,6.0,A1ZFUHVIPQOVGK
52,0.0,left,right,0.0,1.2775,0.0,52.0,52.0,52.0,1.0,mountain_222.jpg,mountain_244.jpg,7.0,A1ZFUHVIPQOVGK
53,0.0,left,left,1.0,0.9415,0.0,53.0,53.0,53.0,1.0,highway_294.jpg,highway_203.jpg,6.0,A1ZFUHVIPQOVGK
54,0.0,right,right,1.0,1.5063,0.0,54.0,54.0,54.0,1.0,badlands_225.jpg,badlands_113.jpg,8.0,A1ZFUHVIPQOVGK
55,0.0,right,left,0.0,1.1634,0.0,55.0,55.0,55.0,1.0,bridge_17.jpg,bridge_172.jpg,6.0,A1ZFUHVIPQOVGK
56,0.0,right,right,1.0,1.1789,0.0,56.0,56.0,56.0,1.0,badlands_34.jpg,badlands_222.jpg,7.0,A1ZFUHVIPQOVGK
57,0.0,left,left,1.0,0.6818,0.0,57.0,57.0,57.0,1.0,badlands_52.jpg,badlands_94.jpg,7.0,A1ZFUHVIPQOVGK
58,1.0,right,right,1.0,0.866,0.0,58.0,58.0,58.0,1.0,highway_369.jpg,highway_93.jpg,7.0,A1ZFUHVIPQOVGK
59,1.0,left,left,1.0,1.0244,0.0,59.0,59.0,59.0,1.0,bridge_250.jpg,bridge_205.jpg,6.0,A1ZFUHVIPQOVGK
60,0.0,left,left,1.0,2.6358,0.0,0.0,0.0,0.0,1.0,playground_76.jpg,playground_22.jpg,7.0,A1AMGHYG5PT0L2
61,1.0,right,right,1.0,1.505,0.0,1.0,1.0,1.0,1.0,badlands_98.jpg,badlands_21.jpg,7.0,A1AMGHYG5PT0L2
62,0.0,left,left,1.0,1.7537,0.0,2.0,2.0,2.0,1.0,playground_257.jpg,playground_214.jpg,3.0,A1AMGHYG5PT0L2
63,0.0,left,right,0.0,1.5382,0.0,3.0,3.0,3.0,1.0,playground_219.jpg,playground_21.jpg,5.0,A1AMGHYG5PT0L2
64,1.0,left,right,0.0,2.1202,0.0,4.0,4.0,4.0,1.0,bridge_108.jpg,bridge_148.jpg,4.0,A1AMGHYG5PT0L2
65,1.0,right,left,0.0,2.2654,0.0,5.0,5.0,5.0,1.0,playground_244.jpg,playground_60.jpg,6.0,A1AMGHYG5PT0L2
66,0.0,right,right,1.0,1.2447,0.0,6.0,6.0,6.0,1.0,bridge_181.jpg,bridge_65.jpg,5.0,A1AMGHYG5PT0L2
67,0.0,right,left,0.0,1.7292,0.0,7.0,7.0,7.0,1.0,badlands_34.jpg,badlands_222.jpg,6.0,A1AMGHYG5PT0L2
68,0.0,right,right,1.0,2.2654,0.0,8.0,8.0,8.0,1.0,golf_course_130.jpg,golf_course_87.jpg,4.0,A1AMGHYG5PT0L2
69,0.0,left,left,1.0,2595.7143,0.0,9.0,9.0,9.0,1.0,playground_144.jpg,playground_137.jpg,2.0,A1AMGHYG5PT0L2
70,0.0,right,right,1.0,1.4375,0.0,10.0,10.0,10.0,1.0,bridge_61.jpg,bridge_128.jpg,1.0,A1AMGHYG5PT0L2
71,1.0,right,right,1.0,1.6508,0.0,11.0,11.0,11.0,1.0,bridge_163.jpg,bridge_172.jpg,4.0,A1AMGHYG5PT0L2
72,0.0,right,right,1.0,1.7218,0.0,12.0,12.0,12.0,1.0,badlands_94.jpg,badlands_52.jpg,4.0,A1AMGHYG5PT0L2
73,0.0,right,left,0.0,1.1397,0.0,13.0,13.0,13.0,1.0,bridge_134.jpg,bridge_250.jpg,3.0,A1AMGHYG5PT0L2
74,0.0,left,left,1.0,1.0723,0.0,14.0,14.0,14.0,1.0,golf_course_214.jpg,golf_course_312.jpg,2.0,A1AMGHYG5PT0L2
75,0.0,right,right,1.0,1.5884,0.0,15.0,15.0,15.0,1.0,mountain_157.jpg,mountain_110.jpg,5.0,A1AMGHYG5PT0L2
76,1.0,right,left,0.0,2.4875,0.0,16.0,16.0,16.0,1.0,playground_164.jpg,playground_131.jpg,4.0,A1AMGHYG5PT0L2
77,1.0,right,right,1.0,1.5732,0.0,17.0,17.0,17.0,1.0,bridge_121.jpg,bridge_146.jpg,3.0,A1AMGHYG5PT0L2
78,1.0,left,left,1.0,1.3407,0.0,18.0,18.0,18.0,1.0,golf_course_193.jpg,golf_course_123.jpg,3.0,A1AMGHYG5PT0L2
79,1.0,right,left,0.0,2.6289,0.0,19.0,19.0,19.0,1.0,highway_174.jpg,highway_415.jpg,6.0,A1AMGHYG5PT0L2
80,0.0,left,left,1.0,1.9623,0.0,20.0,20.0,20.0,1.0,mountain_222.jpg,mountain_244.jpg,5.0,A1AMGHYG5PT0L2
81,1.0,left,right,0.0,1.1529,0.0,21.0,21.0,21.0,1.0,mountain_293.jpg,mountain_47.jpg,3.0,A1AMGHYG5PT0L2
82,1.0,right,right,1.0,4.9112,0.0,22.0,22.0,22.0,1.0,mountain_97.jpg,mountain_230.jpg,5.0,A1AMGHYG5PT0L2
83,1.0,right,right,1.0,1.4558,0.0,23.0,23.0,23.0,1.0,highway_379.jpg,highway_359.jpg,6.0,A1AMGHYG5PT0L2
84,1.0,left,left,1.0,28.6319,0.0,24.0,24.0,24.0,1.0,highway_273.jpg,highway_171.jpg,4.0,A1AMGHYG5PT0L2
85,1.0,left,right,0.0,1.2199,0.0,25.0,25.0,25.0,1.0,badlands_24.jpg,badlands_53.jpg,5.0,A1AMGHYG5PT0L2
86,0.0,right,left,0.0,1.5259,0.0,26.0,26.0,26.0,1.0,mountain_193.jpg,mountain_57.jpg,6.0,A1AMGHYG5PT0L2
87,1.0,left,left,1.0,1.2572,0.0,27.0,27.0,27.0,1.0,badlands_23.jpg,badlands_101.jpg,4.0,A1AMGHYG5PT0L2
88,1.0,left,left,1.0,1.005,0.0,28.0,28.0,28.0,1.0,golf_course_15.jpg,golf_course_97.jpg,4.0,A1AMGHYG5PT0L2
89,0.0,left,right,0.0,0.9389,0.0,29.0,29.0,29.0,1.0,badlands_221.jpg,badlands_115.jpg,5.0,A1AMGHYG5PT0L2
90,0.0,right,right,1.0,0.9716,0.0,30.0,30.0,30.0,1.0,badlands_102.jpg,badlands_70.jpg,4.0,A1AMGHYG5PT0L2
91,0.0,right,left,0.0,1.3373,0.0,31.0,31.0,31.0,1.0,highway_203.jpg,highway_294.jpg,7.0,A1AMGHYG5PT0L2
92,0.0,right,right,1.0,0.9613,0.0,32.0,32.0,32.0,1.0,highway_85.jpg,highway_93.jpg,4.0,A1AMGHYG5PT0L2
93,0.0,left,left,1.0,1.3884,0.0,33.0,33.0,33.0,1.0,bridge_202.jpg,bridge_31.jpg,3.0,A1AMGHYG5PT0L2
94,1.0,right,left,0.0,0.9286,0.0,34.0,34.0,34.0,1.0,highway_206.jpg,highway_245.jpg,2.0,A1AMGHYG5PT0L2
95,0.0,right,left,0.0,1.0793,0.0,35.0,35.0,35.0,1.0,highway_87.jpg,highway_177.jpg,2.0,A1AMGHYG5PT0L2
96,1.0,right,right,1.0,2.4094,0.0,36.0,36.0,36.0,1.0,golf_course_26.jpg,golf_course_331.jpg,3.0,A1AMGHYG5PT0L2
97,0.0,right,left,0.0,0.8718,0.0,37.0,37.0,37.0,1.0,golf_course_25.jpg,golf_course_195.jpg,4.0,A1AMGHYG5PT0L2
98,1.0,right,right,1.0,1.2717,0.0,38.0,38.0,38.0,1.0,badlands_139.jpg,badlands_137.jpg,4.0,A1AMGHYG5PT0L2
99,0.0,right,left,0.0,2.2913,0.0,39.0,39.0,39.0,1.0,highway_160.jpg,highway_156.jpg,3.0,A1AMGHYG5PT0L2
100,1.0,left,right,0.0,1.0402,0.0,40.0,40.0,40.0,1.0,playground_117.jpg,playground_127.jpg,3.0,A1AMGHYG5PT0L2
101,0.0,right,right,1.0,0.9269,0.0,41.0,41.0,41.0,1.0,mountain_3.jpg,mountain_232.jpg,3.0,A1AMGHYG5PT0L2
102,0.0,right,right,1.0,0.4938,0.0,42.0,42.0,42.0,1.0,playground_229.jpg,playground_145.jpg,3.0,A1AMGHYG5PT0L2
103,0.0,left,left,1.0,0.8929,0.0,43.0,43.0,43.0,1.0,highway_394.jpg,highway_204.jpg,3.0,A1AMGHYG5PT0L2
104,1.0,left,right,0.0,1.9885,0.0,44.0,44.0,44.0,1.0,bridge_191.jpg,bridge_75.jpg,5.0,A1AMGHYG5PT0L2
105,1.0,left,right,0.0,1.3759,0.0,45.0,45.0,45.0,1.0,mountain_156.jpg,mountain_295.jpg,4.0,A1AMGHYG5PT0L2
106,1.0,right,right,1.0,0.9627,0.0,46.0,46.0,46.0,1.0,golf_course_160.jpg,golf_course_188.jpg,5.0,A1AMGHYG5PT0L2
107,1.0,right,left,0.0,2.043,0.0,47.0,47.0,47.0,1.0,golf_course_209.jpg,golf_course_309.jpg,4.0,A1AMGHYG5PT0L2
108,1.0,left,left,1.0,1.2243,0.0,48.0,48.0,48.0,1.0,highway_209.jpg,highway_122.jpg,5.0,A1AMGHYG5PT0L2
109,1.0,left,left,1.0,1.0178,0.0,49.0,49.0,49.0,1.0,mountain_154.jpg,mountain_95.jpg,5.0,A1AMGHYG5PT0L2
110,0.0,right,right,1.0,1.6781,0.0,50.0,50.0,50.0,1.0,badlands_225.jpg,badlands_113.jpg,4.0,A1AMGHYG5PT0L2
111,1.0,right,left,0.0,0.9812,0.0,51.0,51.0,51.0,1.0,mountain_221.jpg,mountain_101.jpg,5.0,A1AMGHYG5PT0L2
112,0.0,left,right,0.0,1.2423,0.0,52.0,52.0,52.0,1.0,mountain_123.jpg,mountain_94.jpg,4.0,A1AMGHYG5PT0L2
113,0.0,right,right,1.0,0.9932,0.0,53.0,53.0,53.0,1.0,golf_course_35.jpg,golf_course_217.jpg,5.0,A1AMGHYG5PT0L2
114,1.0,right,left,0.0,1.0157,0.0,54.0,54.0,54.0,1.0,playground_40.jpg,playground_240.jpg,5.0,A1AMGHYG5PT0L2
115,1.0,left,left,1.0,1.1654,0.0,55.0,55.0,55.0,1.0,bridge_91.jpg,bridge_82.jpg,3.0,A1AMGHYG5PT0L2
116,0.0,left,right,0.0,1.2619,0.0,56.0,56.0,56.0,1.0,golf_course_78.jpg,golf_course_134.jpg,5.0,A1AMGHYG5PT0L2
117,0.0,left,left,1.0,1.2281,0.0,57.0,57.0,57.0,1.0,bridge_256.jpg,bridge_54.jpg,4.0,A1AMGHYG5PT0L2
118,1.0,left,left,1.0,1.1943,0.0,58.0,58.0,58.0,1.0,playground_10.jpg,playground_12.jpg,4.0,A1AMGHYG5PT0L2
119,1.0,left,left,1.0,0.7587,0.0,59.0,59.0,59.0,1.0,badlands_184.jpg,badlands_103.jpg,4.0,A1AMGHYG5PT0L2
120,1.0,right,right,1.0,64.8554,0.0,0.0,0.0,0.0,1.0,playground_72.jpg,playground_76.jpg,7.0,A1YALKEEJHHWSO
121,1.0,right,right,1.0,6.325900001,0.0,1.0,1.0,1.0,1.0,highway_406.jpg,highway_394.jpg,8.0,A1YALKEEJHHWSO
122,0.0,right,right,1.0,2.9768,0.0,2.0,2.0,2.0,1.0,bridge_54.jpg,bridge_256.jpg,7.0,A1YALKEEJHHWSO
123,0.0,left,right,0.0,3.3962,0.0,3.0,3.0,3.0,1.0,playground_240.jpg,playground_2.jpg,7.0,A1YALKEEJHHWSO
124,0.0,left,left,1.0,3.1835,0.0,4.0,4.0,4.0,1.0,playground_10.jpg,playground_122.jpg,7.0,A1YALKEEJHHWSO
125,0.0,left,left,1.0,1.918,0.0,5.0,5.0,5.0,1.0,golf_course_193.jpg,golf_course_235.jpg,7.0,A1YALKEEJHHWSO
126,1.0,left,left,1.0,2.615,0.0,6.0,6.0,6.0,1.0,highway_359.jpg,highway_379.jpg,8.0,A1YALKEEJHHWSO
127,1.0,left,right,0.0,3.618400001,0.0,7.0,7.0,7.0,1.0,mountain_293.jpg,mountain_47.jpg,8.0,A1YALKEEJHHWSO
128,1.0,right,right,1.0,1.9624,0.0,8.0,8.0,8.0,1.0,mountain_138.jpg,mountain_57.jpg,6.0,A1YALKEEJHHWSO
129,1.0,left,left,1.0,3.4809,0.0,9.0,9.0,9.0,1.0,playground_219.jpg,playground_205.jpg,7.0,A1YALKEEJHHWSO
130,0.0,left,right,0.0,2.7303,0.0,10.0,10.0,10.0,1.0,golf_course_214.jpg,golf_course_312.jpg,8.0,A1YALKEEJHHWSO
131,1.0,left,left,1.0,2.651599999,0.0,11.0,11.0,11.0,1.0,playground_117.jpg,playground_127.jpg,6.0,A1YALKEEJHHWSO
132,0.0,right,right,1.0,2.9136,0.0,12.0,12.0,12.0,1.0,mountain_157.jpg,mountain_110.jpg,7.0,A1YALKEEJHHWSO
133,1.0,left,right,0.0,1.4843,0.0,13.0,13.0,13.0,1.0,badlands_52.jpg,badlands_63.jpg,7.0,A1YALKEEJHHWSO
134,1.0,right,right,1.0,1.792400001,0.0,14.0,14.0,14.0,1.0,highway_278.jpg,highway_177.jpg,7.0,A1YALKEEJHHWSO
135,0.0,right,left,0.0,4.0507,0.0,15.0,15.0,15.0,1.0,highway_160.jpg,highway_156.jpg,7.0,A1YALKEEJHHWSO
136,0.0,left,right,0.0,5.2087,0.0,16.0,16.0,16.0,1.0,golf_course_309.jpg,golf_course_16.jpg,8.0,A1YALKEEJHHWSO
137,0.0,left,right,0.0,4.686900001,0.0,17.0,17.0,17.0,1.0,badlands_184.jpg,badlands_228.jpg,7.0,A1YALKEEJHHWSO
138,0.0,left,left,1.0,4.899,0.0,18.0,18.0,18.0,1.0,highway_273.jpg,highway_384.jpg,7.0,A1YALKEEJHHWSO
139,1.0,left,right,0.0,2.2948,0.0,19.0,19.0,19.0,1.0,bridge_108.jpg,bridge_148.jpg,8.0,A1YALKEEJHHWSO
140,0.0,left,right,0.0,1.1768,0.0,20.0,20.0,20.0,1.0,badlands_24.jpg,badlands_3.jpg,7.0,A1YALKEEJHHWSO
141,1.0,left,right,0.0,2.0512,0.0,21.0,21.0,21.0,1.0,badlands_70.jpg,badlands_119.jpg,6.0,A1YALKEEJHHWSO
142,0.0,left,right,0.0,0.9195,0.0,22.0,22.0,22.0,1.0,golf_course_331.jpg,golf_course_114.jpg,8.0,A1YALKEEJHHWSO
143,0.0,right,right,1.0,1.7422,0.0,23.0,23.0,23.0,1.0,highway_134.jpg,highway_245.jpg,7.0,A1YALKEEJHHWSO
144,1.0,left,left,1.0,3.4728,0.0,24.0,24.0,24.0,1.0,playground_60.jpg,playground_244.jpg,8.0,A1YALKEEJHHWSO
145,1.0,right,right,1.0,1.7465,0.0,25.0,25.0,25.0,1.0,mountain_95.jpg,mountain_154.jpg,6.0,A1YALKEEJHHWSO
146,0.0,right,left,0.0,2.3906,0.0,26.0,26.0,26.0,1.0,playground_214.jpg,playground_257.jpg,8.0,A1YALKEEJHHWSO
147,0.0,left,left,1.0,1.616200001,0.0,27.0,27.0,27.0,1.0,playground_144.jpg,playground_137.jpg,8.0,A1YALKEEJHHWSO
148,1.0,left,right,0.0,4.821099999,0.0,28.0,28.0,28.0,1.0,bridge_91.jpg,bridge_82.jpg,7.0,A1YALKEEJHHWSO
149,0.0,left,right,0.0,2.696,0.0,29.0,29.0,29.0,1.0,mountain_230.jpg,mountain_184.jpg,8.0,A1YALKEEJHHWSO
150,1.0,right,right,1.0,2.0923,0.0,30.0,30.0,30.0,1.0,badlands_139.jpg,badlands_137.jpg,7.0,A1YALKEEJHHWSO
151,0.0,left,right,0.0,2.049599999,0.0,31.0,31.0,31.0,1.0,badlands_222.jpg,badlands_34.jpg,6.0,A1YALKEEJHHWSO
152,1.0,left,left,1.0,2.3879,0.0,32.0,32.0,32.0,1.0,playground_131.jpg,playground_164.jpg,8.0,A1YALKEEJHHWSO
153,0.0,left,left,1.0,1.6559,0.0,33.0,33.0,33.0,1.0,bridge_65.jpg,bridge_181.jpg,7.0,A1YALKEEJHHWSO
154,1.0,left,left,1.0,1.6568,0.0,34.0,34.0,34.0,1.0,badlands_113.jpg,badlands_203.jpg,6.0,A1YALKEEJHHWSO
155,1.0,right,left,0.0,3.121099999,0.0,35.0,35.0,35.0,1.0,highway_369.jpg,highway_93.jpg,8.0,A1YALKEEJHHWSO
156,1.0,left,left,1.0,1.526599999,0.0,36.0,36.0,36.0,1.0,golf_course_188.jpg,golf_course_160.jpg,7.0,A1YALKEEJHHWSO
157,1.0,left,right,0.0,3.693099999,0.0,37.0,37.0,37.0,1.0,badlands_221.jpg,badlands_207.jpg,6.0,A1YALKEEJHHWSO
158,0.0,right,right,1.0,4.3359,0.0,38.0,38.0,38.0,1.0,bridge_31.jpg,bridge_202.jpg,7.0,A1YALKEEJHHWSO
159,1.0,right,left,0.0,1.213099999,0.0,39.0,39.0,39.0,1.0,bridge_205.jpg,bridge_250.jpg,6.0,A1YALKEEJHHWSO
160,0.0,right,right,1.0,1.5281,0.0,40.0,40.0,40.0,1.0,highway_314.jpg,highway_209.jpg,7.0,A1YALKEEJHHWSO
161,1.0,right,left,0.0,1.171400001,0.0,41.0,41.0,41.0,1.0,mountain_295.jpg,mountain_156.jpg,6.0,A1YALKEEJHHWSO
162,0.0,right,right,1.0,1.608099999,0.0,42.0,42.0,42.0,1.0,bridge_61.jpg,bridge_128.jpg,7.0,A1YALKEEJHHWSO
163,0.0,right,right,1.0,1.615400001,0.0,43.0,43.0,43.0,1.0,highway_60.jpg,highway_415.jpg,8.0,A1YALKEEJHHWSO
164,0.0,left,left,1.0,1.4372,0.0,44.0,44.0,44.0,1.0,badlands_23.jpg,badlands_114.jpg,7.0,A1YALKEEJHHWSO
165,1.0,right,right,1.0,1.573,0.0,45.0,45.0,45.0,1.0,golf_course_97.jpg,golf_course_15.jpg,8.0,A1YALKEEJHHWSO
166,1.0,right,right,1.0,1.3572,0.0,46.0,46.0,46.0,1.0,bridge_75.jpg,bridge_191.jpg,7.0,A1YALKEEJHHWSO
167,0.0,left,right,0.0,2.5255,0.0,47.0,47.0,47.0,1.0,mountain_101.jpg,mountain_171.jpg,6.0,A1YALKEEJHHWSO
168,0.0,right,right,1.0,2.378799999,0.0,48.0,48.0,48.0,1.0,mountain_3.jpg,mountain_232.jpg,7.0,A1YALKEEJHHWSO
169,1.0,right,left,0.0,1.481,0.0,49.0,49.0,49.0,1.0,mountain_189.jpg,mountain_123.jpg,6.0,A1YALKEEJHHWSO
170,0.0,right,right,1.0,2.2168,0.0,50.0,50.0,50.0,1.0,bridge_17.jpg,bridge_172.jpg,7.0,A1YALKEEJHHWSO
171,1.0,right,left,0.0,2.1783,0.0,51.0,51.0,51.0,1.0,golf_course_262.jpg,golf_course_217.jpg,8.0,A1YALKEEJHHWSO
172,0.0,left,right,0.0,1.315599999,0.0,52.0,52.0,52.0,1.0,mountain_222.jpg,mountain_244.jpg,7.0,A1YALKEEJHHWSO
173,1.0,right,left,0.0,2.3947,0.0,53.0,53.0,53.0,1.0,highway_368.jpg,highway_294.jpg,7.0,A1YALKEEJHHWSO
174,1.0,right,left,0.0,2.0868,0.0,54.0,54.0,54.0,1.0,golf_course_101.jpg,golf_course_78.jpg,8.0,A1YALKEEJHHWSO
175,0.0,left,right,0.0,2.22,0.0,55.0,55.0,55.0,1.0,playground_145.jpg,playground_229.jpg,7.0,A1YALKEEJHHWSO
176,1.0,right,right,1.0,1.2667,0.0,56.0,56.0,56.0,1.0,golf_course_161.jpg,golf_course_87.jpg,7.0,A1YALKEEJHHWSO
177,0.0,left,left,1.0,1.1791,0.0,57.0,57.0,57.0,1.0,badlands_21.jpg,badlands_1.jpg,6.0,A1YALKEEJHHWSO
178,1.0,right,right,1.0,1.397,0.0,58.0,58.0,58.0,1.0,bridge_121.jpg,bridge_146.jpg,7.0,A1YALKEEJHHWSO
179,0.0,left,right,0.0,1.3096,0.0,59.0,59.0,59.0,1.0,golf_course_195.jpg,golf_course_25.jpg,7.0,A1YALKEEJHHWSO
180,1.0,right,right,1.0,5.6303,0.0,0.0,0.0,0.0,1.0,bridge_244.jpg,bridge_128.jpg,6.0,A2AN972XU7OY8W
181,1.0,right,right,1.0,4.1399,0.0,1.0,1.0,1.0,1.0,golf_course_160.jpg,golf_course_188.jpg,7.0,A2AN972XU7OY8W
182,0.0,right,right,1.0,2.5249,0.0,2.0,2.0,2.0,1.0,bridge_184.jpg,bridge_191.jpg,6.0,A2AN972XU7OY8W
183,0.0,right,left,0.0,1.7792,0.0,3.0,3.0,3.0,1.0,mountain_171.jpg,mountain_101.jpg,6.0,A2AN972XU7OY8W
184,0.0,right,left,0.0,2.534,0.0,4.0,4.0,4.0,1.0,highway_203.jpg,highway_294.jpg,5.0,A2AN972XU7OY8W
185,0.0,right,right,1.0,1.8958,0.0,5.0,5.0,5.0,1.0,playground_2.jpg,playground_240.jpg,6.0,A2AN972XU7OY8W
186,1.0,left,left,1.0,1.734,0.0,6.0,6.0,6.0,1.0,highway_273.jpg,highway_171.jpg,5.0,A2AN972XU7OY8W
187,0.0,right,left,0.0,1.7852,0.0,7.0,7.0,7.0,1.0,golf_course_35.jpg,golf_course_217.jpg,5.0,A2AN972XU7OY8W
188,0.0,left,left,1.0,1.4284,0.0,8.0,8.0,8.0,1.0,highway_415.jpg,highway_60.jpg,6.0,A2AN972XU7OY8W
189,1.0,left,left,1.0,1.5372,0.0,9.0,9.0,9.0,1.0,bridge_91.jpg,bridge_82.jpg,7.0,A2AN972XU7OY8W
190,1.0,left,right,0.0,4.0803,0.0,10.0,10.0,10.0,1.0,badlands_184.jpg,badlands_103.jpg,6.0,A2AN972XU7OY8W
191,1.0,right,right,1.0,1.8956,0.0,11.0,11.0,11.0,1.0,golf_course_209.jpg,golf_course_309.jpg,6.0,A2AN972XU7OY8W
192,0.0,left,left,1.0,2.5405,0.0,12.0,12.0,12.0,1.0,golf_course_87.jpg,golf_course_130.jpg,4.0,A2AN972XU7OY8W
193,0.0,right,left,0.0,1.557,0.0,13.0,13.0,13.0,1.0,playground_214.jpg,playground_257.jpg,6.0,A2AN972XU7OY8W
194,1.0,right,right,1.0,1.3996,0.0,14.0,14.0,14.0,1.0,playground_164.jpg,playground_131.jpg,6.0,A2AN972XU7OY8W
195,0.0,right,right,1.0,1.5754,0.0,15.0,15.0,15.0,1.0,bridge_17.jpg,bridge_172.jpg,7.0,A2AN972XU7OY8W
196,1.0,right,left,0.0,1.5172,0.0,16.0,16.0,16.0,1.0,bridge_205.jpg,bridge_250.jpg,5.0,A2AN972XU7OY8W
197,1.0,right,left,0.0,1.4695,0.0,17.0,17.0,17.0,1.0,mountain_295.jpg,mountain_156.jpg,5.0,A2AN972XU7OY8W
198,1.0,right,right,1.0,1.9311,0.0,18.0,18.0,18.0,1.0,bridge_38.jpg,bridge_202.jpg,7.0,A2AN972XU7OY8W
199,1.0,left,left,1.0,1.7429,0.0,19.0,19.0,19.0,1.0,playground_144.jpg,playground_65.jpg,5.0,A2AN972XU7OY8W
200,1.0,left,left,1.0,1.3319,0.0,20.0,20.0,20.0,1.0,highway_209.jpg,highway_122.jpg,5.0,A2AN972XU7OY8W
201,0.0,left,left,1.0,1.8231,0.0,21.0,21.0,21.0,1.0,mountain_232.jpg,mountain_3.jpg,6.0,A2AN972XU7OY8W
202,1.0,right,right,1.0,1.6729,0.0,22.0,22.0,22.0,1.0,badlands_207.jpg,badlands_221.jpg,5.0,A2AN972XU7OY8W
203,1.0,right,right,1.0,1.1702,0.0,23.0,23.0,23.0,1.0,mountain_47.jpg,mountain_293.jpg,5.0,A2AN972XU7OY8W
204,1.0,right,right,1.0,1.9112,0.0,24.0,24.0,24.0,1.0,mountain_97.jpg,mountain_230.jpg,6.0,A2AN972XU7OY8W
205,0.0,left,left,1.0,3.184,0.0,25.0,25.0,25.0,1.0,bridge_108.jpg,bridge_116.jpg,4.0,A2AN972XU7OY8W
206,0.0,right,right,1.0,1.6096,0.0,26.0,26.0,26.0,1.0,mountain_131.jpg,mountain_154.jpg,5.0,A2AN972XU7OY8W
207,1.0,left,right,0.0,1.4382,0.0,27.0,27.0,27.0,1.0,mountain_57.jpg,mountain_138.jpg,6.0,A2AN972XU7OY8W
208,1.0,right,left,0.0,1.5822,0.0,28.0,28.0,28.0,1.0,playground_244.jpg,playground_60.jpg,6.0,A2AN972XU7OY8W
209,0.0,left,left,1.0,1.5535,0.0,29.0,29.0,29.0,1.0,mountain_123.jpg,mountain_94.jpg,5.0,A2AN972XU7OY8W
210,1.0,left,left,1.0,1.8269,0.0,30.0,30.0,30.0,1.0,mountain_222.jpg,mountain_93.jpg,7.0,A2AN972XU7OY8W
211,1.0,left,left,1.0,1.4287,0.0,31.0,31.0,31.0,1.0,golf_course_193.jpg,golf_course_123.jpg,5.0,A2AN972XU7OY8W
212,1.0,right,right,1.0,1.6384,0.0,32.0,32.0,32.0,1.0,bridge_60.jpg,bridge_65.jpg,7.0,A2AN972XU7OY8W
213,1.0,left,right,0.0,1.8449,0.0,33.0,33.0,33.0,1.0,highway_394.jpg,highway_406.jpg,6.0,A2AN972XU7OY8W
214,1.0,left,left,1.0,2.237,0.0,34.0,34.0,34.0,1.0,playground_145.jpg,playground_242.jpg,5.0,A2AN972XU7OY8W
215,1.0,left,left,1.0,1.2213,0.0,35.0,35.0,35.0,1.0,badlands_24.jpg,badlands_53.jpg,5.0,A2AN972XU7OY8W
216,0.0,left,left,1.0,2.0365,0.0,36.0,36.0,36.0,1.0,playground_10.jpg,playground_122.jpg,4.0,A2AN972XU7OY8W
217,1.0,right,right,1.0,1.3774,0.0,37.0,37.0,37.0,1.0,badlands_98.jpg,badlands_21.jpg,5.0,A2AN972XU7OY8W
218,0.0,right,right,1.0,1.0844,0.0,38.0,38.0,38.0,1.0,golf_course_25.jpg,golf_course_195.jpg,5.0,A2AN972XU7OY8W
219,0.0,left,right,0.0,1.2857,0.0,39.0,39.0,39.0,1.0,badlands_23.jpg,badlands_114.jpg,6.0,A2AN972XU7OY8W
220,0.0,left,right,0.0,1.802,0.0,40.0,40.0,40.0,1.0,bridge_256.jpg,bridge_54.jpg,4.0,A2AN972XU7OY8W
221,0.0,left,right,0.0,1.2816,0.0,41.0,41.0,41.0,1.0,mountain_110.jpg,mountain_157.jpg,6.0,A2AN972XU7OY8W
222,0.0,left,right,0.0,1.1069,0.0,42.0,42.0,42.0,1.0,badlands_222.jpg,badlands_34.jpg,6.0,A2AN972XU7OY8W
223,1.0,right,left,0.0,1.4444,0.0,43.0,43.0,43.0,1.0,golf_course_101.jpg,golf_course_78.jpg,6.0,A2AN972XU7OY8W
224,0.0,left,right,0.0,1.81,0.0,44.0,44.0,44.0,1.0,golf_course_15.jpg,golf_course_113.jpg,6.0,A2AN972XU7OY8W
225,0.0,right,right,1.0,1.7784,0.0,45.0,45.0,45.0,1.0,playground_167.jpg,playground_117.jpg,5.0,A2AN972XU7OY8W
226,1.0,right,right,1.0,1.6124,0.0,46.0,46.0,46.0,1.0,playground_205.jpg,playground_219.jpg,7.0,A2AN972XU7OY8W
227,0.0,right,right,1.0,1.3846,0.0,47.0,47.0,47.0,1.0,highway_389.jpg,highway_359.jpg,5.0,A2AN972XU7OY8W
228,0.0,left,left,1.0,1.4276,0.0,48.0,48.0,48.0,1.0,badlands_52.jpg,badlands_94.jpg,5.0,A2AN972XU7OY8W
229,0.0,right,right,1.0,1.7109,0.0,49.0,49.0,49.0,1.0,highway_134.jpg,highway_245.jpg,7.0,A2AN972XU7OY8W
230,0.0,left,left,1.0,1.7497,0.0,50.0,50.0,50.0,1.0,playground_76.jpg,playground_22.jpg,7.0,A2AN972XU7OY8W
231,1.0,right,right,1.0,1.8641,0.0,51.0,51.0,51.0,1.0,golf_course_317.jpg,golf_course_214.jpg,7.0,A2AN972XU7OY8W
232,1.0,left,left,1.0,1.8823,0.0,52.0,52.0,52.0,1.0,highway_156.jpg,highway_293.jpg,5.0,A2AN972XU7OY8W
233,1.0,right,left,0.0,1.3785,0.0,53.0,53.0,53.0,1.0,highway_278.jpg,highway_177.jpg,6.0,A2AN972XU7OY8W
234,0.0,left,right,0.0,0.9668,0.0,54.0,54.0,54.0,1.0,badlands_113.jpg,badlands_225.jpg,6.0,A2AN972XU7OY8W
235,0.0,left,right,0.0,18.6669,0.0,55.0,55.0,55.0,1.0,golf_course_331.jpg,golf_course_114.jpg,6.0,A2AN972XU7OY8W
236,0.0,left,right,0.0,1.5595,0.0,56.0,56.0,56.0,1.0,badlands_137.jpg,badlands_194.jpg,6.0,A2AN972XU7OY8W
237,0.0,right,right,1.0,1.4514,0.0,57.0,57.0,57.0,1.0,highway_85.jpg,highway_93.jpg,5.0,A2AN972XU7OY8W
238,0.0,left,right,0.0,1.27,0.0,58.0,58.0,58.0,1.0,bridge_146.jpg,bridge_27.jpg,5.0,A2AN972XU7OY8W
239,1.0,left,right,0.0,1.3041,0.0,59.0,59.0,59.0,1.0,badlands_70.jpg,badlands_119.jpg,5.0,A2AN972XU7OY8W
240,1.0,right,right,1.0,4.812,0.0,0.0,0.0,0.0,1.0,bridge_82.jpg,bridge_91.jpg,1.0,A1F3HF70PF8G97
241,1.0,left,left,1.0,4.8333,0.0,1.0,1.0,1.0,1.0,highway_273.jpg,highway_171.jpg,1.0,A1F3HF70PF8G97
242,0.0,right,right,1.0,3.2259,0.0,2.0,2.0,2.0,1.0,mountain_131.jpg,mountain_154.jpg,1.0,A1F3HF70PF8G97
243,1.0,right,right,1.0,17.1635,0.0,3.0,3.0,3.0,1.0,playground_40.jpg,playground_240.jpg,1.0,A1F3HF70PF8G97
244,1.0,right,right,1.0,4.9941,0.0,4.0,4.0,4.0,1.0,highway_122.jpg,highway_209.jpg,1.0,A1F3HF70PF8G97
245,0.0,right,right,1.0,2.1975,0.0,5.0,5.0,5.0,1.0,bridge_31.jpg,bridge_202.jpg,1.0,A1F3HF70PF8G97
246,0.0,right,right,1.0,3.4367,0.0,6.0,6.0,6.0,1.0,golf_course_114.jpg,golf_course_331.jpg,1.0,A1F3HF70PF8G97
247,0.0,left,left,1.0,3.1139,0.0,7.0,7.0,7.0,1.0,mountain_293.jpg,mountain_72.jpg,1.0,A1F3HF70PF8G97
248,0.0,left,left,1.0,2.199,0.0,8.0,8.0,8.0,1.0,golf_course_193.jpg,golf_course_235.jpg,1.0,A1F3HF70PF8G97
249,1.0,right,left,0.0,4.0691,0.0,9.0,9.0,9.0,1.0,mountain_223.jpg,mountain_110.jpg,1.0,A1F3HF70PF8G97
250,1.0,left,left,1.0,2.1816,0.0,10.0,10.0,10.0,1.0,bridge_191.jpg,bridge_75.jpg,1.0,A1F3HF70PF8G97
251,0.0,left,right,0.0,3.1615,0.0,11.0,11.0,11.0,1.0,playground_10.jpg,playground_122.jpg,1.0,A1F3HF70PF8G97
252,1.0,left,left,1.0,4.0644,0.0,12.0,12.0,12.0,1.0,golf_course_78.jpg,golf_course_101.jpg,1.0,A1F3HF70PF8G97
253,0.0,right,left,0.0,12.828,0.0,13.0,13.0,13.0,1.0,playground_229.jpg,playground_145.jpg,1.0,A1F3HF70PF8G97
254,0.0,right,left,0.0,3.7582,0.0,14.0,14.0,14.0,1.0,mountain_244.jpg,mountain_222.jpg,1.0,A1F3HF70PF8G97
255,0.0,left,left,1.0,2.534,0.0,15.0,15.0,15.0,1.0,bridge_65.jpg,bridge_181.jpg,1.0,A1F3HF70PF8G97
256,0.0,left,left,1.0,2.2123,0.0,16.0,16.0,16.0,1.0,mountain_232.jpg,mountain_3.jpg,1.0,A1F3HF70PF8G97
257,0.0,left,left,1.0,1.8917,0.0,17.0,17.0,17.0,1.0,highway_93.jpg,highway_85.jpg,1.0,A1F3HF70PF8G97
258,1.0,right,right,1.0,2.8457,0.0,18.0,18.0,18.0,1.0,highway_278.jpg,highway_177.jpg,1.0,A1F3HF70PF8G97
259,0.0,left,left,1.0,3.4527,0.0,19.0,19.0,19.0,1.0,mountain_123.jpg,mountain_94.jpg,1.0,A1F3HF70PF8G97
260,1.0,right,left,0.0,5.6824,0.0,20.0,20.0,20.0,1.0,mountain_221.jpg,mountain_101.jpg,1.0,A1F3HF70PF8G97
261,1.0,left,left,1.0,6.6014,0.0,21.0,21.0,21.0,1.0,highway_415.jpg,highway_174.jpg,1.0,A1F3HF70PF8G97
262,1.0,right,right,1.0,2.5608,0.0,22.0,22.0,22.0,1.0,bridge_163.jpg,bridge_172.jpg,1.0,A1F3HF70PF8G97
263,1.0,right,right,1.0,2.5276,0.0,23.0,23.0,23.0,1.0,golf_course_161.jpg,golf_course_87.jpg,1.0,A1F3HF70PF8G97
264,0.0,right,right,1.0,3.4954,0.0,24.0,24.0,24.0,1.0,badlands_225.jpg,badlands_113.jpg,1.0,A1F3HF70PF8G97
265,1.0,left,right,0.0,2.5129,0.0,25.0,25.0,25.0,1.0,bridge_256.jpg,bridge_211.jpg,1.0,A1F3HF70PF8G97
266,0.0,right,left,0.0,3.1899,0.0,26.0,26.0,26.0,1.0,badlands_34.jpg,badlands_222.jpg,1.0,A1F3HF70PF8G97
267,1.0,left,left,1.0,12.7764,0.0,27.0,27.0,27.0,1.0,golf_course_15.jpg,golf_course_97.jpg,1.0,A1F3HF70PF8G97
268,0.0,right,right,1.0,3.4116,0.0,28.0,28.0,28.0,1.0,highway_389.jpg,highway_359.jpg,1.0,A1F3HF70PF8G97
269,0.0,left,left,1.0,5.8551,0.0,29.0,29.0,29.0,1.0,golf_course_195.jpg,golf_course_25.jpg,1.0,A1F3HF70PF8G97
270,0.0,left,left,1.0,9.0434,0.0,30.0,30.0,30.0,1.0,playground_76.jpg,playground_22.jpg,1.0,A1F3HF70PF8G97
271,1.0,right,right,1.0,6.2321,0.0,31.0,31.0,31.0,1.0,badlands_207.jpg,badlands_221.jpg,1.0,A1F3HF70PF8G97
272,1.0,right,right,1.0,4.6817,0.0,32.0,32.0,32.0,1.0,badlands_103.jpg,badlands_184.jpg,1.0,A1F3HF70PF8G97
273,1.0,right,right,1.0,7.4728,0.0,33.0,33.0,33.0,1.0,playground_127.jpg,playground_117.jpg,1.0,A1F3HF70PF8G97
274,1.0,right,right,1.0,5.008,0.0,34.0,34.0,34.0,1.0,badlands_119.jpg,badlands_70.jpg,1.0,A1F3HF70PF8G97
275,1.0,right,left,0.0,5.882,0.0,35.0,35.0,35.0,1.0,bridge_244.jpg,bridge_128.jpg,1.0,A1F3HF70PF8G97
276,1.0,right,left,0.0,3.4161,0.0,36.0,36.0,36.0,1.0,playground_244.jpg,playground_60.jpg,1.0,A1F3HF70PF8G97
277,0.0,left,right,0.0,2.5031,0.0,37.0,37.0,37.0,1.0,bridge_250.jpg,bridge_134.jpg,1.0,A1F3HF70PF8G97
278,1.0,left,left,1.0,7.8793,0.0,38.0,38.0,38.0,1.0,badlands_52.jpg,badlands_63.jpg,1.0,A1F3HF70PF8G97
279,0.0,left,right,0.0,2.4966,0.0,39.0,39.0,39.0,1.0,badlands_24.jpg,badlands_3.jpg,1.0,A1F3HF70PF8G97
280,0.0,left,right,0.0,2.4878,0.0,40.0,40.0,40.0,1.0,bridge_146.jpg,bridge_27.jpg,1.0,A1F3HF70PF8G97
281,1.0,right,right,1.0,1.8999,0.0,41.0,41.0,41.0,1.0,golf_course_209.jpg,golf_course_309.jpg,1.0,A1F3HF70PF8G97
282,1.0,right,right,1.0,4.4462,0.0,42.0,42.0,42.0,1.0,playground_65.jpg,playground_144.jpg,1.0,A1F3HF70PF8G97
283,1.0,right,right,1.0,2.8247,0.0,43.0,43.0,43.0,1.0,golf_course_317.jpg,golf_course_214.jpg,1.0,A1F3HF70PF8G97
284,0.0,left,left,1.0,3.1643,0.0,44.0,44.0,44.0,1.0,golf_course_188.jpg,golf_course_157.jpg,1.0,A1F3HF70PF8G97
285,0.0,right,left,0.0,2.5465,0.0,45.0,45.0,45.0,1.0,bridge_116.jpg,bridge_108.jpg,1.0,A1F3HF70PF8G97
286,1.0,right,right,1.0,4.0678,0.0,46.0,46.0,46.0,1.0,badlands_139.jpg,badlands_137.jpg,1.0,A1F3HF70PF8G97
287,0.0,right,right,1.0,2.5431,0.0,47.0,47.0,47.0,1.0,highway_204.jpg,highway_394.jpg,1.0,A1F3HF70PF8G97
288,0.0,left,left,1.0,4.3822,0.0,48.0,48.0,48.0,1.0,badlands_21.jpg,badlands_1.jpg,1.0,A1F3HF70PF8G97
289,0.0,left,left,1.0,7.8372,0.0,49.0,49.0,49.0,1.0,highway_245.jpg,highway_134.jpg,1.0,A1F3HF70PF8G97
290,0.0,right,left,0.0,7.1805,0.0,50.0,50.0,50.0,1.0,highway_160.jpg,highway_156.jpg,1.0,A1F3HF70PF8G97
291,1.0,left,left,1.0,3.1462,0.0,51.0,51.0,51.0,1.0,mountain_156.jpg,mountain_295.jpg,1.0,A1F3HF70PF8G97
292,0.0,left,left,1.0,2.5018,0.0,52.0,52.0,52.0,1.0,golf_course_217.jpg,golf_course_35.jpg,1.0,A1F3HF70PF8G97
293,1.0,left,left,1.0,2.2082,0.0,53.0,53.0,53.0,1.0,playground_131.jpg,playground_164.jpg,1.0,A1F3HF70PF8G97
294,1.0,left,left,1.0,2.8467,0.0,54.0,54.0,54.0,1.0,mountain_57.jpg,mountain_138.jpg,1.0,A1F3HF70PF8G97
295,0.0,right,left,0.0,4.3751,0.0,55.0,55.0,55.0,1.0,playground_214.jpg,playground_257.jpg,1.0,A1F3HF70PF8G97
296,0.0,right,right,1.0,5.6938,0.0,56.0,56.0,56.0,1.0,badlands_114.jpg,badlands_23.jpg,1.0,A1F3HF70PF8G97
297,0.0,right,left,0.0,4.0619,0.0,57.0,57.0,57.0,1.0,playground_21.jpg,playground_219.jpg,1.0,A1F3HF70PF8G97
298,1.0,left,left,1.0,3.189,0.0,58.0,58.0,58.0,1.0,highway_294.jpg,highway_368.jpg,1.0,A1F3HF70PF8G97
299,1.0,right,left,0.0,3.7994,0.0,59.0,59.0,59.0,1.0,mountain_97.jpg,mountain_230.jpg,1.0,A1F3HF70PF8G97
300,1.0,left,left,1.0,2.4547,0.0,0.0,0.0,0.0,1.0,playground_131.jpg,playground_164.jpg,6.0,A2FREFX5AGACUZ
301,1.0,left,right,0.0,2.1885,0.0,1.0,1.0,1.0,1.0,badlands_24.jpg,badlands_53.jpg,5.0,A2FREFX5AGACUZ
302,0.0,left,left,1.0,4.7562,0.0,2.0,2.0,2.0,1.0,mountain_110.jpg,mountain_157.jpg,5.0,A2FREFX5AGACUZ
303,1.0,left,right,0.0,1.332,0.0,3.0,3.0,3.0,1.0,badlands_222.jpg,badlands_62.jpg,6.0,A2FREFX5AGACUZ
304,0.0,left,right,0.0,1.6287,0.0,4.0,4.0,4.0,1.0,mountain_293.jpg,mountain_72.jpg,7.0,A2FREFX5AGACUZ
305,0.0,right,right,1.0,4.8714,0.0,5.0,5.0,5.0,1.0,highway_85.jpg,highway_93.jpg,7.0,A2FREFX5AGACUZ
306,0.0,right,right,1.0,1.7901,0.0,6.0,6.0,6.0,1.0,badlands_228.jpg,badlands_184.jpg,6.0,A2FREFX5AGACUZ
307,0.0,left,left,1.0,1.472,0.0,7.0,7.0,7.0,1.0,playground_144.jpg,playground_137.jpg,6.0,A2FREFX5AGACUZ
308,1.0,left,left,1.0,3.7411,0.0,8.0,8.0,8.0,1.0,bridge_91.jpg,bridge_82.jpg,6.0,A2FREFX5AGACUZ
309,0.0,right,left,0.0,1.5568,0.0,9.0,9.0,9.0,1.0,badlands_102.jpg,badlands_70.jpg,6.0,A2FREFX5AGACUZ
310,0.0,right,left,0.0,1.7334,0.0,10.0,10.0,10.0,1.0,playground_229.jpg,playground_145.jpg,8.0,A2FREFX5AGACUZ
311,1.0,right,right,1.0,1.5519,0.0,11.0,11.0,11.0,1.0,playground_127.jpg,playground_117.jpg,5.0,A2FREFX5AGACUZ
312,0.0,left,left,1.0,2.4852,0.0,12.0,12.0,12.0,1.0,bridge_256.jpg,bridge_54.jpg,5.0,A2FREFX5AGACUZ
313,1.0,left,left,1.0,1.5649,0.0,13.0,13.0,13.0,1.0,badlands_21.jpg,badlands_98.jpg,6.0,A2FREFX5AGACUZ
314,0.0,right,right,1.0,1.2499,0.0,14.0,14.0,14.0,1.0,badlands_94.jpg,badlands_52.jpg,6.0,A2FREFX5AGACUZ
315,0.0,left,left,1.0,1.3258,0.0,15.0,15.0,15.0,1.0,golf_course_193.jpg,golf_course_235.jpg,5.0,A2FREFX5AGACUZ
316,0.0,right,right,1.0,1.2041,0.0,16.0,16.0,16.0,1.0,badlands_225.jpg,badlands_113.jpg,6.0,A2FREFX5AGACUZ
317,1.0,right,left,0.0,1.8024,0.0,17.0,17.0,17.0,1.0,playground_244.jpg,playground_60.jpg,5.0,A2FREFX5AGACUZ
318,1.0,left,right,0.0,1.8452,0.0,18.0,18.0,18.0,1.0,playground_76.jpg,playground_72.jpg,5.0,A2FREFX5AGACUZ
319,1.0,left,left,1.0,7.7722,0.0,19.0,19.0,19.0,1.0,highway_273.jpg,highway_171.jpg,5.0,A2FREFX5AGACUZ
320,0.0,right,right,1.0,2.3697,0.0,20.0,20.0,20.0,1.0,highway_204.jpg,highway_394.jpg,7.0,A2FREFX5AGACUZ
321,0.0,right,right,1.0,1.3004,0.0,21.0,21.0,21.0,1.0,highway_389.jpg,highway_359.jpg,6.0,A2FREFX5AGACUZ
322,0.0,left,right,0.0,1.9,0.0,22.0,22.0,22.0,1.0,badlands_23.jpg,badlands_114.jpg,5.0,A2FREFX5AGACUZ
323,0.0,left,right,0.0,1.6474,0.0,23.0,23.0,23.0,1.0,bridge_65.jpg,bridge_181.jpg,5.0,A2FREFX5AGACUZ
324,0.0,left,left,1.0,1.2569,0.0,24.0,24.0,24.0,1.0,highway_209.jpg,highway_314.jpg,6.0,A2FREFX5AGACUZ
325,0.0,right,right,1.0,2.5751,0.0,25.0,25.0,25.0,1.0,mountain_193.jpg,mountain_57.jpg,5.0,A2FREFX5AGACUZ
326,0.0,right,right,1.0,1.6306,0.0,26.0,26.0,26.0,1.0,golf_course_113.jpg,golf_course_15.jpg,6.0,A2FREFX5AGACUZ
327,0.0,left,left,1.0,1.7601,0.0,27.0,27.0,27.0,1.0,golf_course_87.jpg,golf_course_130.jpg,4.0,A2FREFX5AGACUZ
328,1.0,right,right,1.0,2.1097,0.0,28.0,28.0,28.0,1.0,bridge_148.jpg,bridge_108.jpg,5.0,A2FREFX5AGACUZ
329,0.0,left,right,0.0,1.9738,0.0,29.0,29.0,29.0,1.0,bridge_191.jpg,bridge_184.jpg,5.0,A2FREFX5AGACUZ
330,1.0,left,right,0.0,1.805,0.0,30.0,30.0,30.0,1.0,mountain_101.jpg,mountain_221.jpg,5.0,A2FREFX5AGACUZ
331,0.0,right,right,1.0,1.2723,0.0,31.0,31.0,31.0,1.0,playground_2.jpg,playground_240.jpg,6.0,A2FREFX5AGACUZ
332,1.0,left,right,0.0,1.2518,0.0,32.0,32.0,32.0,1.0,playground_10.jpg,playground_12.jpg,7.0,A2FREFX5AGACUZ
333,1.0,left,left,1.0,1.8345,0.0,33.0,33.0,33.0,1.0,golf_course_217.jpg,golf_course_262.jpg,5.0,A2FREFX5AGACUZ
334,1.0,right,right,1.0,1.3275,0.0,34.0,34.0,34.0,1.0,golf_course_101.jpg,golf_course_78.jpg,6.0,A2FREFX5AGACUZ
335,1.0,right,right,1.0,1.2879,0.0,35.0,35.0,35.0,1.0,badlands_139.jpg,badlands_137.jpg,6.0,A2FREFX5AGACUZ
336,1.0,left,left,1.0,1.9376,0.0,36.0,36.0,36.0,1.0,bridge_202.jpg,bridge_38.jpg,5.0,A2FREFX5AGACUZ
337,1.0,right,left,0.0,3.0204,0.0,37.0,37.0,37.0,1.0,mountain_54.jpg,mountain_232.jpg,5.0,A2FREFX5AGACUZ
338,1.0,right,right,1.0,1.6636,0.0,38.0,38.0,38.0,1.0,bridge_163.jpg,bridge_172.jpg,5.0,A2FREFX5AGACUZ
339,0.0,left,right,0.0,1.6809,0.0,39.0,39.0,39.0,1.0,bridge_146.jpg,bridge_27.jpg,5.0,A2FREFX5AGACUZ
340,1.0,left,right,0.0,3.5349,0.0,40.0,40.0,40.0,1.0,highway_415.jpg,highway_174.jpg,6.0,A2FREFX5AGACUZ
341,0.0,left,right,0.0,2.3443,0.0,41.0,41.0,41.0,1.0,golf_course_309.jpg,golf_course_16.jpg,5.0,A2FREFX5AGACUZ
342,1.0,left,left,1.0,3.0249,0.0,42.0,42.0,42.0,1.0,golf_course_331.jpg,golf_course_26.jpg,5.0,A2FREFX5AGACUZ
343,1.0,right,right,1.0,8.0705,0.0,43.0,43.0,43.0,1.0,mountain_95.jpg,mountain_154.jpg,5.0,A2FREFX5AGACUZ
344,0.0,left,right,0.0,1.3274,0.0,44.0,44.0,44.0,1.0,golf_course_188.jpg,golf_course_157.jpg,6.0,A2FREFX5AGACUZ
345,1.0,left,right,0.0,1.7231,0.0,45.0,45.0,45.0,1.0,highway_245.jpg,highway_206.jpg,6.0,A2FREFX5AGACUZ
346,1.0,right,left,0.0,4.6119,0.0,46.0,46.0,46.0,1.0,highway_278.jpg,highway_177.jpg,5.0,A2FREFX5AGACUZ
347,1.0,right,left,0.0,4.7139,0.0,47.0,47.0,47.0,1.0,highway_293.jpg,highway_156.jpg,4.0,A2FREFX5AGACUZ
348,0.0,left,left,1.0,1.4935,0.0,48.0,48.0,48.0,1.0,mountain_123.jpg,mountain_94.jpg,6.0,A2FREFX5AGACUZ
349,1.0,left,left,1.0,3.7684,0.0,49.0,49.0,49.0,1.0,badlands_221.jpg,badlands_207.jpg,5.0,A2FREFX5AGACUZ
350,0.0,left,right,0.0,2.1966,0.0,50.0,50.0,50.0,1.0,playground_257.jpg,playground_214.jpg,6.0,A2FREFX5AGACUZ
351,1.0,right,right,1.0,3.0148,0.0,51.0,51.0,51.0,1.0,mountain_93.jpg,mountain_222.jpg,5.0,A2FREFX5AGACUZ
352,0.0,left,right,0.0,1.7895,0.0,52.0,52.0,52.0,1.0,mountain_230.jpg,mountain_184.jpg,4.0,A2FREFX5AGACUZ
353,1.0,right,right,1.0,2.1023,0.0,53.0,53.0,53.0,1.0,golf_course_317.jpg,golf_course_214.jpg,6.0,A2FREFX5AGACUZ
354,0.0,right,right,1.0,1.3359,0.0,54.0,54.0,54.0,1.0,playground_21.jpg,playground_219.jpg,5.0,A2FREFX5AGACUZ
355,1.0,right,right,1.0,1.184,0.0,55.0,55.0,55.0,1.0,mountain_295.jpg,mountain_156.jpg,5.0,A2FREFX5AGACUZ
356,0.0,right,right,1.0,1.3311,0.0,56.0,56.0,56.0,1.0,highway_203.jpg,highway_294.jpg,5.0,A2FREFX5AGACUZ
357,1.0,left,left,1.0,1.1073,0.0,57.0,57.0,57.0,1.0,golf_course_195.jpg,golf_course_2.jpg,5.0,A2FREFX5AGACUZ
358,1.0,left,right,0.0,1.2498,0.0,58.0,58.0,58.0,1.0,bridge_250.jpg,bridge_205.jpg,6.0,A2FREFX5AGACUZ
359,0.0,right,left,0.0,1.1688,0.0,59.0,59.0,59.0,1.0,bridge_61.jpg,bridge_128.jpg,5.0,A2FREFX5AGACUZ
360,0.0,left,left,1.0,2.7601,0.0,0.0,0.0,0.0,1.0,playground_60.jpg,playground_268.jpg,3.0,A1DIYFGQT1QDV2
361,0.0,left,left,1.0,5.1068,0.0,1.0,1.0,1.0,1.0,golf_course_214.jpg,golf_course_312.jpg,3.0,A1DIYFGQT1QDV2
362,1.0,left,left,1.0,3.7834,0.0,2.0,2.0,2.0,1.0,highway_177.jpg,highway_278.jpg,4.0,A1DIYFGQT1QDV2
363,1.0,right,right,1.0,5.8188,0.0,3.0,3.0,3.0,1.0,mountain_189.jpg,mountain_123.jpg,3.0,A1DIYFGQT1QDV2
364,0.0,right,right,1.0,5.5524,0.0,4.0,4.0,4.0,1.0,bridge_134.jpg,bridge_250.jpg,2.0,A1DIYFGQT1QDV2
365,0.0,right,right,1.0,7.1026,0.0,5.0,5.0,5.0,1.0,mountain_157.jpg,mountain_110.jpg,2.0,A1DIYFGQT1QDV2
366,1.0,right,right,1.0,2.7086,0.0,6.0,6.0,6.0,1.0,golf_course_209.jpg,golf_course_309.jpg,1.0,A1DIYFGQT1QDV2
367,0.0,left,left,1.0,7.1369,0.0,7.0,7.0,7.0,1.0,playground_219.jpg,playground_21.jpg,3.0,A1DIYFGQT1QDV2
368,1.0,right,right,1.0,4.2385,0.0,8.0,8.0,8.0,1.0,highway_368.jpg,highway_294.jpg,3.0,A1DIYFGQT1QDV2
369,1.0,right,right,1.0,2.6243,0.0,9.0,9.0,9.0,1.0,bridge_148.jpg,bridge_108.jpg,2.0,A1DIYFGQT1QDV2
370,0.0,left,right,0.0,4.8988,0.0,10.0,10.0,10.0,1.0,playground_144.jpg,playground_137.jpg,1.0,A1DIYFGQT1QDV2
371,0.0,left,left,1.0,5.06,0.0,11.0,11.0,11.0,1.0,playground_117.jpg,playground_167.jpg,3.0,A1DIYFGQT1QDV2
372,0.0,left,left,1.0,5.1807,0.0,12.0,12.0,12.0,1.0,mountain_156.jpg,mountain_128.jpg,2.0,A1DIYFGQT1QDV2
373,0.0,right,right,1.0,6.8767,0.0,13.0,13.0,13.0,1.0,highway_384.jpg,highway_273.jpg,1.0,A1DIYFGQT1QDV2
374,0.0,left,left,1.0,6.7661,0.0,14.0,14.0,14.0,1.0,mountain_101.jpg,mountain_171.jpg,1.0,A1DIYFGQT1QDV2
375,1.0,right,left,0.0,4.8948,0.0,15.0,15.0,15.0,1.0,playground_12.jpg,playground_10.jpg,4.0,A1DIYFGQT1QDV2
376,0.0,left,left,1.0,4.1457,0.0,16.0,16.0,16.0,1.0,highway_209.jpg,highway_314.jpg,1.0,A1DIYFGQT1QDV2
377,0.0,right,right,1.0,3.9642,0.0,17.0,17.0,17.0,1.0,badlands_1.jpg,badlands_21.jpg,1.0,A1DIYFGQT1QDV2
378,0.0,right,right,1.0,6.3999,0.0,18.0,18.0,18.0,1.0,badlands_3.jpg,badlands_24.jpg,1.0,A1DIYFGQT1QDV2
379,1.0,left,left,1.0,5.8703,0.0,19.0,19.0,19.0,1.0,bridge_65.jpg,bridge_60.jpg,1.0,A1DIYFGQT1QDV2
380,1.0,left,left,1.0,6.5933,0.0,20.0,20.0,20.0,1.0,bridge_146.jpg,bridge_121.jpg,1.0,A1DIYFGQT1QDV2
381,1.0,left,left,1.0,3.997,0.0,21.0,21.0,21.0,1.0,golf_course_15.jpg,golf_course_97.jpg,6.0,A1DIYFGQT1QDV2
382,0.0,right,right,1.0,3.4211,0.0,22.0,22.0,22.0,1.0,bridge_61.jpg,bridge_128.jpg,1.0,A1DIYFGQT1QDV2
383,1.0,right,right,1.0,3.0213,0.0,23.0,23.0,23.0,1.0,mountain_138.jpg,mountain_57.jpg,4.0,A1DIYFGQT1QDV2
384,1.0,left,right,0.0,8.856,0.0,24.0,24.0,24.0,1.0,bridge_172.jpg,bridge_163.jpg,1.0,A1DIYFGQT1QDV2
385,1.0,left,left,1.0,4.381,0.0,25.0,25.0,25.0,1.0,playground_131.jpg,playground_164.jpg,4.0,A1DIYFGQT1QDV2
386,1.0,right,right,1.0,2.8144,0.0,26.0,26.0,26.0,1.0,golf_course_2.jpg,golf_course_195.jpg,5.0,A1DIYFGQT1QDV2
387,1.0,right,right,1.0,4.6585,0.0,27.0,27.0,27.0,1.0,badlands_63.jpg,badlands_52.jpg,4.0,A1DIYFGQT1QDV2
388,1.0,right,right,1.0,2.2453,0.0,28.0,28.0,28.0,1.0,golf_course_262.jpg,golf_course_217.jpg,3.0,A1DIYFGQT1QDV2
389,1.0,left,left,1.0,2.2554,0.0,29.0,29.0,29.0,1.0,badlands_137.jpg,badlands_139.jpg,3.0,A1DIYFGQT1QDV2
390,0.0,right,right,1.0,4.8194,0.0,30.0,30.0,30.0,1.0,mountain_72.jpg,mountain_293.jpg,5.0,A1DIYFGQT1QDV2
391,0.0,left,right,0.0,4.817,0.0,31.0,31.0,31.0,1.0,bridge_191.jpg,bridge_184.jpg,1.0,A1DIYFGQT1QDV2
392,0.0,right,right,1.0,4.5906,0.0,32.0,32.0,32.0,1.0,mountain_3.jpg,mountain_232.jpg,1.0,A1DIYFGQT1QDV2
393,0.0,left,left,1.0,5.6814,0.0,33.0,33.0,33.0,1.0,badlands_222.jpg,badlands_34.jpg,1.0,A1DIYFGQT1QDV2
394,1.0,right,right,1.0,4.1445,0.0,34.0,34.0,34.0,1.0,mountain_93.jpg,mountain_222.jpg,1.0,A1DIYFGQT1QDV2
395,1.0,left,right,0.0,3.9868,0.0,35.0,35.0,35.0,1.0,bridge_202.jpg,bridge_38.jpg,3.0,A1DIYFGQT1QDV2
396,0.0,left,right,0.0,4.8418,0.0,36.0,36.0,36.0,1.0,golf_course_188.jpg,golf_course_157.jpg,1.0,A1DIYFGQT1QDV2
397,0.0,right,right,1.0,7.8106,0.0,37.0,37.0,37.0,1.0,highway_60.jpg,highway_415.jpg,1.0,A1DIYFGQT1QDV2
398,1.0,right,right,1.0,3.5112,0.0,38.0,38.0,38.0,1.0,badlands_203.jpg,badlands_113.jpg,4.0,A1DIYFGQT1QDV2
399,1.0,right,right,1.0,3.5546,0.0,39.0,39.0,39.0,1.0,highway_369.jpg,highway_93.jpg,5.0,A1DIYFGQT1QDV2
400,1.0,right,right,1.0,2.9503,0.0,40.0,40.0,40.0,1.0,badlands_207.jpg,badlands_221.jpg,1.0,A1DIYFGQT1QDV2
401,1.0,right,right,1.0,7.8518,0.0,41.0,41.0,41.0,1.0,playground_242.jpg,playground_145.jpg,4.0,A1DIYFGQT1QDV2
402,1.0,right,right,1.0,3.1014,0.0,42.0,42.0,42.0,1.0,mountain_97.jpg,mountain_230.jpg,2.0,A1DIYFGQT1QDV2
403,1.0,right,right,1.0,5.1567,0.0,43.0,43.0,43.0,1.0,mountain_95.jpg,mountain_154.jpg,1.0,A1DIYFGQT1QDV2
404,0.0,left,right,0.0,10.8899,0.0,44.0,44.0,44.0,1.0,highway_156.jpg,highway_160.jpg,1.0,A1DIYFGQT1QDV2
405,0.0,right,left,0.0,4.4196,0.0,45.0,45.0,45.0,1.0,playground_214.jpg,playground_257.jpg,1.0,A1DIYFGQT1QDV2
406,0.0,right,left,0.0,6.007,0.0,46.0,46.0,46.0,1.0,golf_course_134.jpg,golf_course_78.jpg,6.0,A1DIYFGQT1QDV2
407,0.0,left,left,1.0,3.6378,0.0,47.0,47.0,47.0,1.0,golf_course_87.jpg,golf_course_130.jpg,3.0,A1DIYFGQT1QDV2
408,0.0,right,right,1.0,2.4394,0.0,48.0,48.0,48.0,1.0,bridge_54.jpg,bridge_256.jpg,1.0,A1DIYFGQT1QDV2
409,0.0,left,left,1.0,3.7807,0.0,49.0,49.0,49.0,1.0,highway_245.jpg,highway_134.jpg,1.0,A1DIYFGQT1QDV2
410,0.0,left,left,1.0,3.1992,0.0,50.0,50.0,50.0,1.0,badlands_70.jpg,badlands_102.jpg,1.0,A1DIYFGQT1QDV2
411,1.0,right,right,1.0,3.2963,0.0,51.0,51.0,51.0,1.0,golf_course_123.jpg,golf_course_193.jpg,1.0,A1DIYFGQT1QDV2
412,1.0,right,left,0.0,10.8433,0.0,52.0,52.0,52.0,1.0,highway_379.jpg,highway_359.jpg,3.0,A1DIYFGQT1QDV2
413,1.0,left,left,1.0,2.6594,0.0,53.0,53.0,53.0,1.0,playground_76.jpg,playground_72.jpg,2.0,A1DIYFGQT1QDV2
414,0.0,right,right,1.0,2.2729,0.0,54.0,54.0,54.0,1.0,golf_course_114.jpg,golf_course_331.jpg,1.0,A1DIYFGQT1QDV2
415,0.0,left,left,1.0,4.0029,0.0,55.0,55.0,55.0,1.0,bridge_91.jpg,bridge_253.jpg,1.0,A1DIYFGQT1QDV2
416,1.0,right,right,1.0,2.3641,0.0,56.0,56.0,56.0,1.0,highway_406.jpg,highway_394.jpg,5.0,A1DIYFGQT1QDV2
417,0.0,left,right,0.0,3.1401,0.0,57.0,57.0,57.0,1.0,badlands_184.jpg,badlands_228.jpg,3.0,A1DIYFGQT1QDV2
418,1.0,right,right,1.0,2.7294,0.0,58.0,58.0,58.0,1.0,badlands_101.jpg,badlands_23.jpg,3.0,A1DIYFGQT1QDV2
419,1.0,left,right,0.0,2.3377,0.0,59.0,59.0,59.0,1.0,playground_240.jpg,playground_40.jpg,2.0,A1DIYFGQT1QDV2
420,0.0,right,left,0.0,18.627,0.0,0.0,0.0,0.0,1.0,playground_229.jpg,playground_145.jpg,3.0,A2M9R3LBVLI5ZN
421,0.0,right,right,1.0,4.776,0.0,1.0,1.0,1.0,1.0,bridge_184.jpg,bridge_191.jpg,1.0,A2M9R3LBVLI5ZN
422,0.0,left,left,1.0,5.7543,0.0,2.0,2.0,2.0,1.0,playground_117.jpg,playground_167.jpg,4.0,A2M9R3LBVLI5ZN
423,1.0,left,left,1.0,7.9083,0.0,3.0,3.0,3.0,1.0,bridge_250.jpg,bridge_205.jpg,3.0,A2M9R3LBVLI5ZN
424,0.0,right,left,0.0,5.4312,0.0,4.0,4.0,4.0,1.0,playground_214.jpg,playground_257.jpg,3.0,A2M9R3LBVLI5ZN
425,1.0,right,right,1.0,4.0013,0.0,5.0,5.0,5.0,1.0,mountain_97.jpg,mountain_230.jpg,5.0,A2M9R3LBVLI5ZN
426,1.0,left,left,1.0,9.055,0.0,6.0,6.0,6.0,1.0,playground_144.jpg,playground_65.jpg,4.0,A2M9R3LBVLI5ZN
427,1.0,right,right,1.0,12.6901,0.0,7.0,7.0,7.0,1.0,golf_course_97.jpg,golf_course_15.jpg,6.0,A2M9R3LBVLI5ZN
428,0.0,left,left,1.0,5.8428,0.0,8.0,8.0,8.0,1.0,golf_course_331.jpg,golf_course_114.jpg,3.0,A2M9R3LBVLI5ZN
429,1.0,right,left,0.0,8.3329,0.0,9.0,9.0,9.0,1.0,playground_244.jpg,playground_60.jpg,4.0,A2M9R3LBVLI5ZN
430,0.0,left,right,0.0,9.0588,0.0,10.0,10.0,10.0,1.0,playground_76.jpg,playground_22.jpg,6.0,A2M9R3LBVLI5ZN
431,0.0,left,left,1.0,4.4404,0.0,11.0,11.0,11.0,1.0,mountain_232.jpg,mountain_3.jpg,6.0,A2M9R3LBVLI5ZN
432,0.0,right,right,1.0,5.2524,0.0,12.0,12.0,12.0,1.0,highway_85.jpg,highway_93.jpg,4.0,A2M9R3LBVLI5ZN
433,0.0,left,left,1.0,19.9658,0.0,13.0,13.0,13.0,1.0,golf_course_78.jpg,golf_course_134.jpg,5.0,A2M9R3LBVLI5ZN
434,1.0,right,right,1.0,3.8383,0.0,14.0,14.0,14.0,1.0,highway_406.jpg,highway_394.jpg,6.0,A2M9R3LBVLI5ZN
435,0.0,left,left,1.0,4.1884,0.0,15.0,15.0,15.0,1.0,mountain_156.jpg,mountain_128.jpg,5.0,A2M9R3LBVLI5ZN
436,1.0,right,right,1.0,8.1842,0.0,16.0,16.0,16.0,1.0,golf_course_209.jpg,golf_course_309.jpg,4.0,A2M9R3LBVLI5ZN
437,1.0,left,left,1.0,3.8377,0.0,17.0,17.0,17.0,1.0,golf_course_214.jpg,golf_course_317.jpg,7.0,A2M9R3LBVLI5ZN
438,1.0,right,right,1.0,13.8038,0.0,18.0,18.0,18.0,1.0,playground_12.jpg,playground_10.jpg,7.0,A2M9R3LBVLI5ZN
439,1.0,right,left,0.0,3.713,0.0,19.0,19.0,19.0,1.0,highway_122.jpg,highway_209.jpg,6.0,A2M9R3LBVLI5ZN
440,1.0,right,left,0.0,9.7432,0.0,20.0,20.0,20.0,1.0,mountain_47.jpg,mountain_293.jpg,6.0,A2M9R3LBVLI5ZN
441,0.0,right,right,1.0,3.5833,0.0,21.0,21.0,21.0,1.0,highway_87.jpg,highway_177.jpg,4.0,A2M9R3LBVLI5ZN
442,1.0,right,right,1.0,3.8715,0.0,22.0,22.0,22.0,1.0,playground_164.jpg,playground_131.jpg,6.0,A2M9R3LBVLI5ZN
443,1.0,right,right,1.0,6.8857,0.0,23.0,23.0,23.0,1.0,highway_379.jpg,highway_359.jpg,6.0,A2M9R3LBVLI5ZN
444,1.0,right,left,0.0,5.6355,0.0,24.0,24.0,24.0,1.0,mountain_189.jpg,mountain_123.jpg,6.0,A2M9R3LBVLI5ZN
445,0.0,left,left,1.0,6.9351,0.0,25.0,25.0,25.0,1.0,golf_course_87.jpg,golf_course_130.jpg,5.0,A2M9R3LBVLI5ZN
446,1.0,left,right,0.0,7.0628,0.0,26.0,26.0,26.0,1.0,bridge_146.jpg,bridge_121.jpg,3.0,A2M9R3LBVLI5ZN
447,0.0,left,left,1.0,6.6166,0.0,27.0,27.0,27.0,1.0,bridge_108.jpg,bridge_116.jpg,3.0,A2M9R3LBVLI5ZN
448,0.0,right,right,1.0,14.5413,0.0,28.0,28.0,28.0,1.0,bridge_253.jpg,bridge_91.jpg,1.0,A2M9R3LBVLI5ZN
449,1.0,right,right,1.0,6.7405,0.0,29.0,29.0,29.0,1.0,bridge_211.jpg,bridge_256.jpg,6.0,A2M9R3LBVLI5ZN
450,0.0,right,left,0.0,3.405,0.0,30.0,30.0,30.0,1.0,highway_160.jpg,highway_156.jpg,2.0,A2M9R3LBVLI5ZN
451,0.0,right,right,1.0,9.1662,0.0,31.0,31.0,31.0,1.0,mountain_131.jpg,mountain_154.jpg,4.0,A2M9R3LBVLI5ZN
452,0.0,left,right,0.0,4.2238,0.0,32.0,32.0,32.0,1.0,golf_course_195.jpg,golf_course_25.jpg,3.0,A2M9R3LBVLI5ZN
453,0.0,right,left,0.0,9.3666,0.0,33.0,33.0,33.0,1.0,badlands_225.jpg,badlands_113.jpg,2.0,A2M9R3LBVLI5ZN
454,0.0,left,left,1.0,15.2313,0.0,34.0,34.0,34.0,1.0,bridge_202.jpg,bridge_31.jpg,4.0,A2M9R3LBVLI5ZN
455,0.0,left,left,1.0,4.6064,0.0,35.0,35.0,35.0,1.0,golf_course_188.jpg,golf_course_157.jpg,4.0,A2M9R3LBVLI5ZN
456,1.0,left,left,1.0,8.0102,0.0,36.0,36.0,36.0,1.0,badlands_184.jpg,badlands_103.jpg,5.0,A2M9R3LBVLI5ZN
457,1.0,right,right,1.0,6.639,0.0,37.0,37.0,37.0,1.0,mountain_93.jpg,mountain_222.jpg,5.0,A2M9R3LBVLI5ZN
458,1.0,right,right,1.0,4.5446,0.0,38.0,38.0,38.0,1.0,mountain_223.jpg,mountain_110.jpg,4.0,A2M9R3LBVLI5ZN
459,0.0,right,right,1.0,6.1093,0.0,39.0,39.0,39.0,1.0,playground_2.jpg,playground_240.jpg,3.0,A2M9R3LBVLI5ZN
460,0.0,right,left,0.0,9.5678,0.0,40.0,40.0,40.0,1.0,badlands_34.jpg,badlands_222.jpg,5.0,A2M9R3LBVLI5ZN
461,1.0,left,right,0.0,5.2663,0.0,41.0,41.0,41.0,1.0,badlands_70.jpg,badlands_119.jpg,8.0,A2M9R3LBVLI5ZN
462,1.0,right,right,1.0,4.6567,0.0,42.0,42.0,42.0,1.0,highway_368.jpg,highway_294.jpg,5.0,A2M9R3LBVLI5ZN
463,0.0,left,right,0.0,9.003,0.0,43.0,43.0,43.0,1.0,mountain_101.jpg,mountain_171.jpg,5.0,A2M9R3LBVLI5ZN
464,0.0,right,right,1.0,4.3696,0.0,44.0,44.0,44.0,1.0,highway_384.jpg,highway_273.jpg,4.0,A2M9R3LBVLI5ZN
465,1.0,left,left,1.0,4.9838,0.0,45.0,45.0,45.0,1.0,badlands_23.jpg,badlands_101.jpg,2.0,A2M9R3LBVLI5ZN
466,0.0,left,left,1.0,3.8275,0.0,46.0,46.0,46.0,1.0,badlands_21.jpg,badlands_1.jpg,3.0,A2M9R3LBVLI5ZN
467,0.0,right,left,0.0,6.676,0.0,47.0,47.0,47.0,1.0,highway_134.jpg,highway_245.jpg,3.0,A2M9R3LBVLI5ZN
468,1.0,left,right,0.0,15.6342,0.0,48.0,48.0,48.0,1.0,playground_219.jpg,playground_205.jpg,7.0,A2M9R3LBVLI5ZN
469,0.0,left,left,1.0,5.0819,0.0,49.0,49.0,49.0,1.0,badlands_221.jpg,badlands_115.jpg,4.0,A2M9R3LBVLI5ZN
470,1.0,right,left,0.0,7.257,0.0,50.0,50.0,50.0,1.0,highway_174.jpg,highway_415.jpg,6.0,A2M9R3LBVLI5ZN
471,1.0,left,left,1.0,5.1194,0.0,51.0,51.0,51.0,1.0,bridge_172.jpg,bridge_163.jpg,6.0,A2M9R3LBVLI5ZN
472,1.0,right,right,1.0,5.2221,0.0,52.0,52.0,52.0,1.0,bridge_244.jpg,bridge_128.jpg,5.0,A2M9R3LBVLI5ZN
473,0.0,right,right,1.0,4.9795,0.0,53.0,53.0,53.0,1.0,bridge_181.jpg,bridge_65.jpg,4.0,A2M9R3LBVLI5ZN
474,1.0,right,left,0.0,4.8522,0.0,54.0,54.0,54.0,1.0,badlands_139.jpg,badlands_137.jpg,4.0,A2M9R3LBVLI5ZN
475,1.0,left,right,0.0,6.9893,0.0,55.0,55.0,55.0,1.0,badlands_24.jpg,badlands_53.jpg,5.0,A2M9R3LBVLI5ZN
476,1.0,right,right,1.0,5.4525,0.0,56.0,56.0,56.0,1.0,golf_course_123.jpg,golf_course_193.jpg,5.0,A2M9R3LBVLI5ZN
477,0.0,right,right,1.0,10.5684,0.0,57.0,57.0,57.0,1.0,badlands_94.jpg,badlands_52.jpg,3.0,A2M9R3LBVLI5ZN
478,1.0,right,right,1.0,7.5347,0.0,58.0,58.0,58.0,1.0,golf_course_262.jpg,golf_course_217.jpg,2.0,A2M9R3LBVLI5ZN
479,0.0,left,left,1.0,4.4914,0.0,59.0,59.0,59.0,1.0,mountain_57.jpg,mountain_193.jpg,3.0,A2M9R3LBVLI5ZN
480,0.0,right,left,0.0,7.169,0.0,0.0,0.0,0.0,1.0,golf_course_25.jpg,golf_course_195.jpg,7.0,A2NC28XJKAFJV
481,0.0,left,left,1.0,2.1848,0.0,1.0,1.0,1.0,1.0,mountain_222.jpg,mountain_244.jpg,7.0,A2NC28XJKAFJV
482,1.0,right,right,1.0,1.811,0.0,2.0,2.0,2.0,1.0,golf_course_209.jpg,golf_course_309.jpg,7.0,A2NC28XJKAFJV
483,0.0,right,right,1.0,2.7357,0.0,3.0,3.0,3.0,1.0,playground_22.jpg,playground_76.jpg,6.0,A2NC28XJKAFJV
484,1.0,left,left,1.0,1.7338,0.0,4.0,4.0,4.0,1.0,badlands_70.jpg,badlands_119.jpg,7.0,A2NC28XJKAFJV
485,0.0,left,right,0.0,2.2173,0.0,5.0,5.0,5.0,1.0,playground_257.jpg,playground_214.jpg,7.0,A2NC28XJKAFJV
486,0.0,left,left,1.0,2.5804,0.0,6.0,6.0,6.0,1.0,badlands_184.jpg,badlands_228.jpg,7.0,A2NC28XJKAFJV
487,0.0,right,right,1.0,1.8697,0.0,7.0,7.0,7.0,1.0,golf_course_130.jpg,golf_course_87.jpg,7.0,A2NC28XJKAFJV
488,1.0,right,right,1.0,1.9875,0.0,8.0,8.0,8.0,1.0,playground_40.jpg,playground_240.jpg,6.0,A2NC28XJKAFJV
489,0.0,right,right,1.0,2.3137,0.0,9.0,9.0,9.0,1.0,badlands_94.jpg,badlands_52.jpg,6.0,A2NC28XJKAFJV
490,1.0,left,right,0.0,1.7574,0.0,10.0,10.0,10.0,1.0,badlands_24.jpg,badlands_53.jpg,7.0,A2NC28XJKAFJV
491,0.0,left,left,1.0,1.9447,0.0,11.0,11.0,11.0,1.0,badlands_113.jpg,badlands_225.jpg,7.0,A2NC28XJKAFJV
492,0.0,right,right,1.0,1.8545,0.0,12.0,12.0,12.0,1.0,highway_389.jpg,highway_359.jpg,7.0,A2NC28XJKAFJV
493,0.0,right,right,1.0,1.8931,0.0,13.0,13.0,13.0,1.0,mountain_72.jpg,mountain_293.jpg,7.0,A2NC28XJKAFJV
494,1.0,left,right,0.0,1.714,0.0,14.0,14.0,14.0,1.0,bridge_256.jpg,bridge_211.jpg,7.0,A2NC28XJKAFJV
495,1.0,right,right,1.0,1.6309,0.0,15.0,15.0,15.0,1.0,bridge_75.jpg,bridge_191.jpg,7.0,A2NC28XJKAFJV
496,0.0,right,left,0.0,1.9866,0.0,16.0,16.0,16.0,1.0,bridge_253.jpg,bridge_91.jpg,7.0,A2NC28XJKAFJV
497,1.0,right,right,1.0,2.2978,0.0,17.0,17.0,17.0,1.0,mountain_221.jpg,mountain_101.jpg,7.0,A2NC28XJKAFJV
498,0.0,left,left,1.0,2.6981,0.0,18.0,18.0,18.0,1.0,playground_60.jpg,playground_268.jpg,7.0,A2NC28XJKAFJV
499,0.0,right,right,1.0,1.5194,0.0,19.0,19.0,19.0,1.0,badlands_114.jpg,badlands_23.jpg,7.0,A2NC28XJKAFJV
500,1.0,left,right,0.0,1.4975,0.0,20.0,20.0,20.0,1.0,bridge_146.jpg,bridge_121.jpg,7.0,A2NC28XJKAFJV
501,1.0,left,left,1.0,1167.4253,0.0,21.0,21.0,21.0,1.0,golf_course_193.jpg,golf_course_123.jpg,7.0,A2NC28XJKAFJV
502,1.0,left,left,1.0,3.8694,0.0,22.0,22.0,22.0,1.0,golf_course_188.jpg,golf_course_160.jpg,7.0,A2NC28XJKAFJV
503,1.0,left,right,0.0,2.0256,0.0,23.0,23.0,23.0,1.0,highway_415.jpg,highway_174.jpg,7.0,A2NC28XJKAFJV
504,0.0,right,right,1.0,2.4972,0.0,24.0,24.0,24.0,1.0,golf_course_312.jpg,golf_course_214.jpg,6.0,A2NC28XJKAFJV
505,0.0,left,left,1.0,1.8549,0.0,25.0,25.0,25.0,1.0,mountain_154.jpg,mountain_131.jpg,7.0,A2NC28XJKAFJV
506,1.0,right,right,1.0,1.7358,0.0,26.0,26.0,26.0,1.0,highway_368.jpg,highway_294.jpg,7.0,A2NC28XJKAFJV
507,0.0,right,left,0.0,2.3835,0.0,27.0,27.0,27.0,1.0,highway_160.jpg,highway_156.jpg,7.0,A2NC28XJKAFJV
508,0.0,right,right,1.0,1.6424,0.0,28.0,28.0,28.0,1.0,badlands_34.jpg,badlands_222.jpg,7.0,A2NC28XJKAFJV
509,1.0,left,left,1.0,1.8978,0.0,29.0,29.0,29.0,1.0,mountain_230.jpg,mountain_97.jpg,6.0,A2NC28XJKAFJV
510,1.0,left,right,0.0,1.8292,0.0,30.0,30.0,30.0,1.0,bridge_128.jpg,bridge_244.jpg,7.0,A2NC28XJKAFJV
511,1.0,right,left,0.0,1.9866,0.0,31.0,31.0,31.0,1.0,mountain_138.jpg,mountain_57.jpg,7.0,A2NC28XJKAFJV
512,1.0,right,right,1.0,2.1103,0.0,32.0,32.0,32.0,1.0,playground_127.jpg,playground_117.jpg,7.0,A2NC28XJKAFJV
513,1.0,right,left,0.0,1.9863,0.0,33.0,33.0,33.0,1.0,mountain_189.jpg,mountain_123.jpg,7.0,A2NC28XJKAFJV
514,1.0,left,left,1.0,2.6864,0.0,34.0,34.0,34.0,1.0,badlands_21.jpg,badlands_98.jpg,7.0,A2NC28XJKAFJV
515,1.0,right,right,1.0,1.6649,0.0,35.0,35.0,35.0,1.0,bridge_205.jpg,bridge_250.jpg,7.0,A2NC28XJKAFJV
516,0.0,right,right,1.0,1.8204,0.0,36.0,36.0,36.0,1.0,mountain_157.jpg,mountain_110.jpg,7.0,A2NC28XJKAFJV
517,1.0,left,left,1.0,1.9128,0.0,37.0,37.0,37.0,1.0,golf_course_15.jpg,golf_course_97.jpg,7.0,A2NC28XJKAFJV
518,1.0,right,left,0.0,2.1411,0.0,38.0,38.0,38.0,1.0,highway_206.jpg,highway_245.jpg,7.0,A2NC28XJKAFJV
519,0.0,right,right,1.0,1.6122,0.0,39.0,39.0,39.0,1.0,bridge_17.jpg,bridge_172.jpg,7.0,A2NC28XJKAFJV
520,0.0,left,right,0.0,1.5082,0.0,40.0,40.0,40.0,1.0,mountain_232.jpg,mountain_3.jpg,7.0,A2NC28XJKAFJV
521,0.0,right,right,1.0,1.8875,0.0,41.0,41.0,41.0,1.0,golf_course_114.jpg,golf_course_331.jpg,7.0,A2NC28XJKAFJV
522,1.0,right,left,0.0,1.9924,0.0,42.0,42.0,42.0,1.0,badlands_207.jpg,badlands_221.jpg,7.0,A2NC28XJKAFJV
523,0.0,left,left,1.0,1.9719,0.0,43.0,43.0,43.0,1.0,highway_177.jpg,highway_87.jpg,7.0,A2NC28XJKAFJV
524,0.0,right,right,1.0,1.9888,0.0,44.0,44.0,44.0,1.0,playground_122.jpg,playground_10.jpg,7.0,A2NC28XJKAFJV
525,0.0,right,left,0.0,2.1853,0.0,45.0,45.0,45.0,1.0,bridge_31.jpg,bridge_202.jpg,8.0,A2NC28XJKAFJV
526,0.0,right,right,1.0,1.5652,0.0,46.0,46.0,46.0,1.0,playground_137.jpg,playground_144.jpg,7.0,A2NC28XJKAFJV
527,1.0,right,right,1.0,2.6376,0.0,47.0,47.0,47.0,1.0,highway_171.jpg,highway_273.jpg,7.0,A2NC28XJKAFJV
528,1.0,right,left,0.0,1.9485,0.0,48.0,48.0,48.0,1.0,highway_369.jpg,highway_93.jpg,6.0,A2NC28XJKAFJV
529,1.0,left,left,1.0,2.1743,0.0,49.0,49.0,49.0,1.0,playground_131.jpg,playground_164.jpg,6.0,A2NC28XJKAFJV
530,1.0,right,left,0.0,2.022,0.0,50.0,50.0,50.0,1.0,playground_242.jpg,playground_145.jpg,7.0,A2NC28XJKAFJV
531,0.0,left,left,1.0,2.3617,0.0,51.0,51.0,51.0,1.0,bridge_65.jpg,bridge_181.jpg,8.0,A2NC28XJKAFJV
532,1.0,left,right,0.0,1.6478,0.0,52.0,52.0,52.0,1.0,badlands_137.jpg,badlands_139.jpg,6.0,A2NC28XJKAFJV
533,1.0,right,right,1.0,1.3733,0.0,53.0,53.0,53.0,1.0,mountain_295.jpg,mountain_156.jpg,7.0,A2NC28XJKAFJV
534,1.0,right,left,0.0,1.3721,0.0,54.0,54.0,54.0,1.0,golf_course_101.jpg,golf_course_78.jpg,7.0,A2NC28XJKAFJV
535,0.0,left,right,0.0,1.3706,0.0,55.0,55.0,55.0,1.0,highway_394.jpg,highway_204.jpg,7.0,A2NC28XJKAFJV
536,0.0,right,left,0.0,1.3248,0.0,56.0,56.0,56.0,1.0,golf_course_35.jpg,golf_course_217.jpg,7.0,A2NC28XJKAFJV
537,1.0,right,right,1.0,1.8453,0.0,57.0,57.0,57.0,1.0,playground_205.jpg,playground_219.jpg,7.0,A2NC28XJKAFJV
538,0.0,right,right,1.0,1.5833,0.0,58.0,58.0,58.0,1.0,highway_314.jpg,highway_209.jpg,7.0,A2NC28XJKAFJV
539,0.0,left,left,1.0,2.0721,0.0,59.0,59.0,59.0,1.0,bridge_108.jpg,bridge_116.jpg,7.0,A2NC28XJKAFJV
540,1.0,right,left,0.0,35.5842,0.0,0.0,0.0,0.0,1.0,highway_369.jpg,highway_93.jpg,7.0,ANDJL5986AUAF
541,0.0,right,right,1.0,2.9025,0.0,1.0,1.0,1.0,1.0,highway_204.jpg,highway_394.jpg,7.0,ANDJL5986AUAF
542,1.0,left,left,1.0,5.3913,0.0,2.0,2.0,2.0,1.0,golf_course_214.jpg,golf_course_317.jpg,7.0,ANDJL5986AUAF
543,1.0,right,right,1.0,3.1982,0.0,3.0,3.0,3.0,1.0,badlands_53.jpg,badlands_24.jpg,7.0,ANDJL5986AUAF
544,0.0,right,right,1.0,3.708,0.0,4.0,4.0,4.0,1.0,golf_course_114.jpg,golf_course_331.jpg,8.0,ANDJL5986AUAF
545,1.0,left,left,1.0,3.3255,0.0,5.0,5.0,5.0,1.0,playground_144.jpg,playground_65.jpg,8.0,ANDJL5986AUAF
546,1.0,right,right,1.0,5.0729,0.0,6.0,6.0,6.0,1.0,highway_379.jpg,highway_359.jpg,7.0,ANDJL5986AUAF
547,1.0,right,right,1.0,3.3335,0.0,7.0,7.0,7.0,1.0,bridge_148.jpg,bridge_108.jpg,7.0,ANDJL5986AUAF
548,0.0,right,right,1.0,3.4631,0.0,8.0,8.0,8.0,1.0,bridge_31.jpg,bridge_202.jpg,7.0,ANDJL5986AUAF
549,1.0,right,right,1.0,3.3512,0.0,9.0,9.0,9.0,1.0,highway_278.jpg,highway_177.jpg,7.0,ANDJL5986AUAF
550,1.0,right,left,0.0,2.5598,0.0,10.0,10.0,10.0,1.0,bridge_205.jpg,bridge_250.jpg,7.0,ANDJL5986AUAF
551,0.0,left,left,1.0,2.8392,0.0,11.0,11.0,11.0,1.0,bridge_128.jpg,bridge_61.jpg,8.0,ANDJL5986AUAF
552,1.0,right,right,1.0,2.2726,0.0,12.0,12.0,12.0,1.0,mountain_223.jpg,mountain_110.jpg,8.0,ANDJL5986AUAF
553,0.0,left,right,0.0,2.1682,0.0,13.0,13.0,13.0,1.0,badlands_137.jpg,badlands_194.jpg,8.0,ANDJL5986AUAF
554,0.0,right,right,1.0,3.4029,0.0,14.0,14.0,14.0,1.0,bridge_253.jpg,bridge_91.jpg,7.0,ANDJL5986AUAF
555,1.0,right,right,1.0,3.3739,0.0,15.0,15.0,15.0,1.0,mountain_47.jpg,mountain_293.jpg,8.0,ANDJL5986AUAF
556,0.0,right,left,0.0,2.7175,0.0,16.0,16.0,16.0,1.0,mountain_171.jpg,mountain_101.jpg,7.0,ANDJL5986AUAF
557,0.0,left,left,1.0,3.0528,0.0,17.0,17.0,17.0,1.0,highway_415.jpg,highway_60.jpg,7.0,ANDJL5986AUAF
558,0.0,left,left,1.0,2.8283,0.0,18.0,18.0,18.0,1.0,golf_course_217.jpg,golf_course_35.jpg,7.0,ANDJL5986AUAF
559,1.0,right,right,1.0,3.3465,0.0,19.0,19.0,19.0,1.0,mountain_189.jpg,mountain_123.jpg,7.0,ANDJL5986AUAF
560,0.0,right,right,1.0,12.9861,0.0,20.0,20.0,20.0,1.0,badlands_102.jpg,badlands_70.jpg,7.0,ANDJL5986AUAF
561,1.0,left,right,0.0,3.208,0.0,21.0,21.0,21.0,1.0,golf_course_87.jpg,golf_course_161.jpg,7.0,ANDJL5986AUAF
562,0.0,left,left,1.0,3.2975,0.0,22.0,22.0,22.0,1.0,highway_245.jpg,highway_134.jpg,7.0,ANDJL5986AUAF
563,0.0,right,right,1.0,1.9288,0.0,23.0,23.0,23.0,1.0,highway_203.jpg,highway_294.jpg,6.0,ANDJL5986AUAF
564,1.0,right,left,0.0,1.8195,0.0,24.0,24.0,24.0,1.0,badlands_203.jpg,badlands_113.jpg,7.0,ANDJL5986AUAF
565,0.0,left,left,1.0,2.1887,0.0,25.0,25.0,25.0,1.0,mountain_154.jpg,mountain_131.jpg,7.0,ANDJL5986AUAF
566,0.0,left,left,1.0,2.4126,0.0,26.0,26.0,26.0,1.0,bridge_256.jpg,bridge_54.jpg,7.0,ANDJL5986AUAF
567,1.0,right,right,1.0,2.4122,0.0,27.0,27.0,27.0,1.0,golf_course_209.jpg,golf_course_309.jpg,7.0,ANDJL5986AUAF
568,0.0,right,right,1.0,2.321,0.0,28.0,28.0,28.0,1.0,highway_384.jpg,highway_273.jpg,7.0,ANDJL5986AUAF
569,0.0,right,left,0.0,3.0533,0.0,29.0,29.0,29.0,1.0,mountain_193.jpg,mountain_57.jpg,7.0,ANDJL5986AUAF
570,1.0,left,left,1.0,3.4761,0.0,30.0,30.0,30.0,1.0,golf_course_195.jpg,golf_course_2.jpg,7.0,ANDJL5986AUAF
571,0.0,left,right,0.0,2.6847,0.0,31.0,31.0,31.0,1.0,mountain_222.jpg,mountain_244.jpg,7.0,ANDJL5986AUAF
572,0.0,right,right,1.0,2.5973,0.0,32.0,32.0,32.0,1.0,bridge_184.jpg,bridge_191.jpg,7.0,ANDJL5986AUAF
573,0.0,left,left,1.0,1.8939,0.0,33.0,33.0,33.0,1.0,badlands_21.jpg,badlands_1.jpg,7.0,ANDJL5986AUAF
574,1.0,right,right,1.0,2.0661,0.0,34.0,34.0,34.0,1.0,badlands_63.jpg,badlands_52.jpg,7.0,ANDJL5986AUAF
575,0.0,left,left,1.0,3.4533,0.0,35.0,35.0,35.0,1.0,playground_10.jpg,playground_122.jpg,7.0,ANDJL5986AUAF
576,1.0,right,right,1.0,2.8193,0.0,36.0,36.0,36.0,1.0,badlands_103.jpg,badlands_184.jpg,7.0,ANDJL5986AUAF
577,1.0,right,right,1.0,4.6972,0.0,37.0,37.0,37.0,1.0,highway_293.jpg,highway_156.jpg,7.0,ANDJL5986AUAF
578,1.0,right,right,1.0,3.2088,0.0,38.0,38.0,38.0,1.0,bridge_60.jpg,bridge_65.jpg,8.0,ANDJL5986AUAF
579,0.0,right,left,0.0,3.3164,0.0,39.0,39.0,39.0,1.0,badlands_114.jpg,badlands_23.jpg,7.0,ANDJL5986AUAF
580,0.0,right,left,0.0,38.7719,0.0,40.0,40.0,40.0,1.0,playground_22.jpg,playground_76.jpg,6.0,ANDJL5986AUAF
581,0.0,right,right,1.0,3.1786,0.0,41.0,41.0,41.0,1.0,golf_course_134.jpg,golf_course_78.jpg,7.0,ANDJL5986AUAF
582,0.0,right,right,1.0,1.5426,0.0,42.0,42.0,42.0,1.0,mountain_3.jpg,mountain_232.jpg,7.0,ANDJL5986AUAF
583,1.0,right,right,1.0,2.0447,0.0,43.0,43.0,43.0,1.0,badlands_62.jpg,badlands_222.jpg,8.0,ANDJL5986AUAF
584,1.0,right,right,1.0,3.1666,0.0,44.0,44.0,44.0,1.0,mountain_295.jpg,mountain_156.jpg,7.0,ANDJL5986AUAF
585,1.0,right,right,1.0,3.2049,0.0,45.0,45.0,45.0,1.0,playground_242.jpg,playground_145.jpg,7.0,ANDJL5986AUAF
586,1.0,left,left,1.0,2.1893,0.0,46.0,46.0,46.0,1.0,bridge_146.jpg,bridge_121.jpg,7.0,ANDJL5986AUAF
587,0.0,left,left,1.0,1.7925,0.0,47.0,47.0,47.0,1.0,playground_131.jpg,playground_43.jpg,7.0,ANDJL5986AUAF
588,0.0,right,right,1.0,2.308,0.0,48.0,48.0,48.0,1.0,golf_course_235.jpg,golf_course_193.jpg,8.0,ANDJL5986AUAF
589,1.0,right,right,1.0,2.825,0.0,49.0,49.0,49.0,1.0,golf_course_97.jpg,golf_course_15.jpg,7.0,ANDJL5986AUAF
590,1.0,right,right,1.0,8.8372,0.0,50.0,50.0,50.0,1.0,playground_205.jpg,playground_219.jpg,7.0,ANDJL5986AUAF
591,1.0,right,right,1.0,6.2611,0.0,51.0,51.0,51.0,1.0,playground_40.jpg,playground_240.jpg,7.0,ANDJL5986AUAF
592,0.0,right,right,1.0,2.43,0.0,52.0,52.0,52.0,1.0,badlands_115.jpg,badlands_221.jpg,8.0,ANDJL5986AUAF
593,1.0,right,right,1.0,1.9233,0.0,53.0,53.0,53.0,1.0,mountain_97.jpg,mountain_230.jpg,6.0,ANDJL5986AUAF
594,0.0,right,right,1.0,2.0554,0.0,54.0,54.0,54.0,1.0,playground_268.jpg,playground_60.jpg,8.0,ANDJL5986AUAF
595,1.0,left,right,0.0,2.3077,0.0,55.0,55.0,55.0,1.0,bridge_172.jpg,bridge_163.jpg,6.0,ANDJL5986AUAF
596,0.0,right,right,1.0,5.2657,0.0,56.0,56.0,56.0,1.0,playground_167.jpg,playground_117.jpg,7.0,ANDJL5986AUAF
597,1.0,right,right,1.0,2.9374,0.0,57.0,57.0,57.0,1.0,playground_215.jpg,playground_257.jpg,8.0,ANDJL5986AUAF
598,1.0,right,right,1.0,2.5607,0.0,58.0,58.0,58.0,1.0,highway_122.jpg,highway_209.jpg,7.0,ANDJL5986AUAF
599,0.0,right,right,1.0,3.9203,0.0,59.0,59.0,59.0,1.0,golf_course_157.jpg,golf_course_188.jpg,7.0,ANDJL5986AUAF
600,1.0,left,right,0.0,4.9707,0.0,0.0,0.0,0.0,1.0,bridge_65.jpg,bridge_60.jpg,7.0,A19PB6VUP0RAC3
601,1.0,right,left,0.0,3.2804,0.0,1.0,1.0,1.0,1.0,mountain_223.jpg,mountain_110.jpg,6.0,A19PB6VUP0RAC3
602,1.0,right,right,1.0,3.1885,0.0,2.0,2.0,2.0,1.0,golf_course_161.jpg,golf_course_87.jpg,8.0,A19PB6VUP0RAC3
603,1.0,left,left,1.0,3.3651,0.0,3.0,3.0,3.0,1.0,highway_394.jpg,highway_406.jpg,6.0,A19PB6VUP0RAC3
604,0.0,left,left,1.0,3.1,0.0,4.0,4.0,4.0,1.0,golf_course_217.jpg,golf_course_35.jpg,8.0,A19PB6VUP0RAC3
605,0.0,left,left,1.0,2.7194,0.0,5.0,5.0,5.0,1.0,badlands_21.jpg,badlands_1.jpg,7.0,A19PB6VUP0RAC3
606,0.0,left,left,1.0,2.1082,0.0,6.0,6.0,6.0,1.0,mountain_230.jpg,mountain_184.jpg,6.0,A19PB6VUP0RAC3
607,0.0,right,right,1.0,4.134,0.0,7.0,7.0,7.0,1.0,playground_214.jpg,playground_257.jpg,8.0,A19PB6VUP0RAC3
608,0.0,left,left,1.0,3.1028,0.0,8.0,8.0,8.0,1.0,bridge_172.jpg,bridge_17.jpg,8.0,A19PB6VUP0RAC3
609,1.0,right,left,0.0,4.7583,0.0,9.0,9.0,9.0,1.0,bridge_148.jpg,bridge_108.jpg,4.0,A19PB6VUP0RAC3
610,0.0,left,right,0.0,7.7515,0.0,10.0,10.0,10.0,1.0,badlands_184.jpg,badlands_228.jpg,5.0,A19PB6VUP0RAC3
611,1.0,left,right,0.0,6.8982,0.0,11.0,11.0,11.0,1.0,golf_course_195.jpg,golf_course_2.jpg,7.0,A19PB6VUP0RAC3
612,0.0,right,right,1.0,2.5147,0.0,12.0,12.0,12.0,1.0,bridge_253.jpg,bridge_91.jpg,8.0,A19PB6VUP0RAC3
613,0.0,right,left,0.0,5.3654,0.0,13.0,13.0,13.0,1.0,highway_203.jpg,highway_294.jpg,8.0,A19PB6VUP0RAC3
614,1.0,left,left,1.0,7.3914,0.0,14.0,14.0,14.0,1.0,playground_117.jpg,playground_127.jpg,8.0,A19PB6VUP0RAC3
615,0.0,left,right,0.0,9.2673,0.0,15.0,15.0,15.0,1.0,mountain_154.jpg,mountain_131.jpg,6.0,A19PB6VUP0RAC3
616,0.0,left,left,1.0,2.3388,0.0,16.0,16.0,16.0,1.0,badlands_70.jpg,badlands_102.jpg,3.0,A19PB6VUP0RAC3
617,1.0,left,left,1.0,4.0421,0.0,17.0,17.0,17.0,1.0,mountain_57.jpg,mountain_138.jpg,3.0,A19PB6VUP0RAC3
618,1.0,left,right,0.0,2.1179,0.0,18.0,18.0,18.0,1.0,golf_course_193.jpg,golf_course_123.jpg,8.0,A19PB6VUP0RAC3
619,0.0,right,right,1.0,2.1291,0.0,19.0,19.0,19.0,1.0,highway_85.jpg,highway_93.jpg,8.0,A19PB6VUP0RAC3
620,0.0,right,left,0.0,2.3442,0.0,20.0,20.0,20.0,1.0,bridge_27.jpg,bridge_146.jpg,8.0,A19PB6VUP0RAC3
621,0.0,right,left,0.0,2.3982,0.0,21.0,21.0,21.0,1.0,bridge_184.jpg,bridge_191.jpg,4.0,A19PB6VUP0RAC3
622,1.0,right,right,1.0,3.5057,0.0,22.0,22.0,22.0,1.0,highway_278.jpg,highway_177.jpg,6.0,A19PB6VUP0RAC3
623,1.0,right,left,0.0,4.6707,0.0,23.0,23.0,23.0,1.0,highway_293.jpg,highway_156.jpg,6.0,A19PB6VUP0RAC3
624,1.0,left,left,1.0,2.6578,0.0,24.0,24.0,24.0,1.0,badlands_222.jpg,badlands_62.jpg,6.0,A19PB6VUP0RAC3
625,0.0,left,right,0.0,2.7062,0.0,25.0,25.0,25.0,1.0,golf_course_15.jpg,golf_course_113.jpg,6.0,A19PB6VUP0RAC3
626,1.0,right,right,1.0,2.1817,0.0,26.0,26.0,26.0,1.0,highway_379.jpg,highway_359.jpg,7.0,A19PB6VUP0RAC3
627,1.0,right,left,0.0,3.7266,0.0,27.0,27.0,27.0,1.0,playground_12.jpg,playground_10.jpg,7.0,A19PB6VUP0RAC3
628,1.0,right,right,1.0,4.5636,0.0,28.0,28.0,28.0,1.0,badlands_53.jpg,badlands_24.jpg,7.0,A19PB6VUP0RAC3
629,0.0,left,right,0.0,3.2033,0.0,29.0,29.0,29.0,1.0,mountain_293.jpg,mountain_72.jpg,7.0,A19PB6VUP0RAC3
630,0.0,right,right,1.0,18.9659,0.0,30.0,30.0,30.0,1.0,highway_314.jpg,highway_209.jpg,7.0,A19PB6VUP0RAC3
631,0.0,left,left,1.0,5.5377,0.0,31.0,31.0,31.0,1.0,mountain_232.jpg,mountain_3.jpg,8.0,A19PB6VUP0RAC3
632,0.0,left,left,1.0,4.1469,0.0,32.0,32.0,32.0,1.0,playground_76.jpg,playground_22.jpg,8.0,A19PB6VUP0RAC3
633,1.0,right,right,1.0,4.2166,0.0,33.0,33.0,33.0,1.0,bridge_38.jpg,bridge_202.jpg,8.0,A19PB6VUP0RAC3
634,0.0,right,right,1.0,5.0337,0.0,34.0,34.0,34.0,1.0,badlands_115.jpg,badlands_221.jpg,5.0,A19PB6VUP0RAC3
635,1.0,left,left,1.0,3.7852,0.0,35.0,35.0,35.0,1.0,badlands_137.jpg,badlands_139.jpg,8.0,A19PB6VUP0RAC3
636,1.0,left,left,1.0,2.1523,0.0,36.0,36.0,36.0,1.0,golf_course_331.jpg,golf_course_26.jpg,8.0,A19PB6VUP0RAC3
637,0.0,left,left,1.0,2.3885,0.0,37.0,37.0,37.0,1.0,bridge_250.jpg,bridge_134.jpg,6.0,A19PB6VUP0RAC3
638,1.0,left,left,1.0,1.4726,0.0,38.0,38.0,38.0,1.0,playground_131.jpg,playground_164.jpg,8.0,A19PB6VUP0RAC3
639,1.0,left,left,1.0,2.1466,0.0,39.0,39.0,39.0,1.0,mountain_222.jpg,mountain_93.jpg,6.0,A19PB6VUP0RAC3
640,0.0,right,right,1.0,1.4707,0.0,40.0,40.0,40.0,1.0,highway_60.jpg,highway_415.jpg,8.0,A19PB6VUP0RAC3
641,0.0,right,right,1.0,1.5296,0.0,41.0,41.0,41.0,1.0,badlands_114.jpg,badlands_23.jpg,6.0,A19PB6VUP0RAC3
642,0.0,left,right,0.0,1.53,0.0,42.0,42.0,42.0,1.0,golf_course_309.jpg,golf_course_16.jpg,8.0,A19PB6VUP0RAC3
643,0.0,right,right,1.0,1.3574,0.0,43.0,43.0,43.0,1.0,playground_21.jpg,playground_219.jpg,7.0,A19PB6VUP0RAC3
644,0.0,left,left,1.0,3.0308,0.0,44.0,44.0,44.0,1.0,mountain_123.jpg,mountain_94.jpg,3.0,A19PB6VUP0RAC3
645,0.0,right,left,0.0,2.0913,0.0,45.0,45.0,45.0,1.0,playground_268.jpg,playground_60.jpg,6.0,A19PB6VUP0RAC3
646,1.0,left,right,0.0,1.8147,0.0,46.0,46.0,46.0,1.0,golf_course_78.jpg,golf_course_101.jpg,8.0,A19PB6VUP0RAC3
647,0.0,right,right,1.0,1.1741,0.0,47.0,47.0,47.0,1.0,playground_137.jpg,playground_144.jpg,8.0,A19PB6VUP0RAC3
648,0.0,right,right,1.0,3.709,0.0,48.0,48.0,48.0,1.0,golf_course_157.jpg,golf_course_188.jpg,8.0,A19PB6VUP0RAC3
649,0.0,left,right,0.0,2.373,0.0,49.0,49.0,49.0,1.0,highway_245.jpg,highway_134.jpg,8.0,A19PB6VUP0RAC3
650,1.0,right,left,0.0,1.52,0.0,50.0,50.0,50.0,1.0,bridge_244.jpg,bridge_128.jpg,4.0,A19PB6VUP0RAC3
651,1.0,left,right,0.0,1.6245,0.0,51.0,51.0,51.0,1.0,playground_145.jpg,playground_242.jpg,7.0,A19PB6VUP0RAC3
652,1.0,left,right,0.0,2.7309,0.0,52.0,52.0,52.0,1.0,badlands_113.jpg,badlands_203.jpg,8.0,A19PB6VUP0RAC3
653,1.0,right,right,1.0,2.2938,0.0,53.0,53.0,53.0,1.0,playground_40.jpg,playground_240.jpg,6.0,A19PB6VUP0RAC3
654,1.0,right,right,1.0,1.8954,0.0,54.0,54.0,54.0,1.0,mountain_295.jpg,mountain_156.jpg,8.0,A19PB6VUP0RAC3
655,1.0,right,right,1.0,3.359,0.0,55.0,55.0,55.0,1.0,highway_171.jpg,highway_273.jpg,4.0,A19PB6VUP0RAC3
656,1.0,right,right,1.0,8.3335,0.0,56.0,56.0,56.0,1.0,badlands_63.jpg,badlands_52.jpg,8.0,A19PB6VUP0RAC3
657,1.0,left,left,1.0,5.3616,0.0,57.0,57.0,57.0,1.0,bridge_256.jpg,bridge_211.jpg,5.0,A19PB6VUP0RAC3
658,0.0,left,right,0.0,1.7611,0.0,58.0,58.0,58.0,1.0,golf_course_214.jpg,golf_course_312.jpg,8.0,A19PB6VUP0RAC3
659,1.0,right,right,1.0,2.0979,0.0,59.0,59.0,59.0,1.0,mountain_221.jpg,mountain_101.jpg,7.0,A19PB6VUP0RAC3
660,0.0,left,right,0.0,2.8608,0.0,0.0,0.0,0.0,1.0,playground_144.jpg,playground_137.jpg,4.0,A3BD6HXLYH3CGH
661,0.0,left,right,0.0,12.2708,0.0,1.0,1.0,1.0,1.0,badlands_52.jpg,badlands_94.jpg,7.0,A3BD6HXLYH3CGH
662,0.0,left,left,1.0,2.259400001,0.0,2.0,2.0,2.0,1.0,mountain_123.jpg,mountain_94.jpg,7.0,A3BD6HXLYH3CGH
663,0.0,right,right,1.0,2.7665,0.0,3.0,3.0,3.0,1.0,golf_course_134.jpg,golf_course_78.jpg,7.0,A3BD6HXLYH3CGH
664,1.0,right,left,0.0,3.4712,0.0,4.0,4.0,4.0,1.0,badlands_103.jpg,badlands_184.jpg,5.0,A3BD6HXLYH3CGH
665,1.0,right,right,1.0,1.9644,0.0,5.0,5.0,5.0,1.0,bridge_244.jpg,bridge_128.jpg,6.0,A3BD6HXLYH3CGH
666,0.0,left,left,1.0,1.747200001,0.0,6.0,6.0,6.0,1.0,bridge_91.jpg,bridge_253.jpg,5.0,A3BD6HXLYH3CGH
667,1.0,left,right,0.0,11.7121,0.0,7.0,7.0,7.0,1.0,badlands_70.jpg,badlands_119.jpg,6.0,A3BD6HXLYH3CGH
668,1.0,left,right,0.0,7.7026,0.0,8.0,8.0,8.0,1.0,mountain_110.jpg,mountain_223.jpg,6.0,A3BD6HXLYH3CGH
669,0.0,left,right,0.0,9.7242,0.0,9.0,9.0,9.0,1.0,golf_course_15.jpg,golf_course_113.jpg,6.0,A3BD6HXLYH3CGH
670,0.0,left,right,0.0,5.0077,0.0,10.0,10.0,10.0,1.0,highway_359.jpg,highway_389.jpg,6.0,A3BD6HXLYH3CGH
671,0.0,left,right,0.0,10.0195,0.0,11.0,11.0,11.0,1.0,golf_course_309.jpg,golf_course_16.jpg,7.0,A3BD6HXLYH3CGH
672,1.0,right,right,1.0,1.535,0.0,12.0,12.0,12.0,1.0,bridge_60.jpg,bridge_65.jpg,6.0,A3BD6HXLYH3CGH
673,0.0,left,right,0.0,1.553599999,0.0,13.0,13.0,13.0,1.0,mountain_293.jpg,mountain_72.jpg,6.0,A3BD6HXLYH3CGH
674,0.0,right,right,1.0,1.877599999,0.0,14.0,14.0,14.0,1.0,bridge_184.jpg,bridge_191.jpg,7.0,A3BD6HXLYH3CGH
675,1.0,right,right,1.0,4.6555,0.0,15.0,15.0,15.0,1.0,highway_368.jpg,highway_294.jpg,7.0,A3BD6HXLYH3CGH
676,1.0,right,right,1.0,5.082,0.0,16.0,16.0,16.0,1.0,mountain_138.jpg,mountain_57.jpg,6.0,A3BD6HXLYH3CGH
677,0.0,right,right,1.0,2.706400001,0.0,17.0,17.0,17.0,1.0,playground_21.jpg,playground_219.jpg,6.0,A3BD6HXLYH3CGH
678,1.0,left,right,0.0,6.1672,0.0,18.0,18.0,18.0,1.0,playground_117.jpg,playground_127.jpg,6.0,A3BD6HXLYH3CGH
679,0.0,left,right,0.0,0.7757,0.0,19.0,19.0,19.0,1.0,golf_course_331.jpg,golf_course_114.jpg,5.0,A3BD6HXLYH3CGH
680,0.0,left,right,0.0,1.114599999,0.0,20.0,20.0,20.0,1.0,badlands_222.jpg,badlands_34.jpg,4.0,A3BD6HXLYH3CGH
681,0.0,left,right,0.0,1.5576,0.0,21.0,21.0,21.0,1.0,mountain_222.jpg,mountain_244.jpg,5.0,A3BD6HXLYH3CGH
682,1.0,left,right,0.0,1.646900001,0.0,22.0,22.0,22.0,1.0,bridge_146.jpg,bridge_121.jpg,5.0,A3BD6HXLYH3CGH
683,0.0,right,right,1.0,1.511099999,0.0,23.0,23.0,23.0,1.0,highway_60.jpg,highway_415.jpg,5.0,A3BD6HXLYH3CGH
684,1.0,right,right,1.0,0.7657,0.0,24.0,24.0,24.0,1.0,highway_369.jpg,highway_93.jpg,6.0,A3BD6HXLYH3CGH
685,0.0,right,right,1.0,0.8287,0.0,25.0,25.0,25.0,1.0,highway_314.jpg,highway_209.jpg,6.0,A3BD6HXLYH3CGH
686,0.0,left,right,0.0,1.1428,0.0,26.0,26.0,26.0,1.0,badlands_113.jpg,badlands_225.jpg,6.0,A3BD6HXLYH3CGH
687,0.0,left,right,0.0,1.1502,0.0,27.0,27.0,27.0,1.0,badlands_21.jpg,badlands_1.jpg,5.0,A3BD6HXLYH3CGH
688,0.0,left,right,0.0,0.421200001,0.0,28.0,28.0,28.0,1.0,playground_60.jpg,playground_268.jpg,6.0,A3BD6HXLYH3CGH
689,1.0,right,right,1.0,0.015900001,0.0,29.0,29.0,29.0,1.0,highway_406.jpg,highway_394.jpg,6.0,A3BD6HXLYH3CGH
690,0.0,right,right,1.0,0.014400001,0.0,30.0,30.0,30.0,1.0,golf_course_35.jpg,golf_course_217.jpg,6.0,A3BD6HXLYH3CGH
691,0.0,right,right,1.0,0.0145,0.0,31.0,31.0,31.0,1.0,bridge_134.jpg,bridge_250.jpg,6.0,A3BD6HXLYH3CGH
692,0.0,left,right,0.0,0.8375,0.0,32.0,32.0,32.0,1.0,badlands_24.jpg,badlands_3.jpg,6.0,A3BD6HXLYH3CGH
693,0.0,right,right,1.0,0.0148,0.0,33.0,33.0,33.0,1.0,mountain_131.jpg,mountain_154.jpg,5.0,A3BD6HXLYH3CGH
694,0.0,right,right,1.0,0.015099999,0.0,34.0,34.0,34.0,1.0,highway_87.jpg,highway_177.jpg,5.0,A3BD6HXLYH3CGH
695,1.0,right,right,1.0,0.4527,0.0,35.0,35.0,35.0,1.0,golf_course_317.jpg,golf_course_214.jpg,5.0,A3BD6HXLYH3CGH
696,1.0,right,right,1.0,0.4152,0.0,36.0,36.0,36.0,1.0,golf_course_160.jpg,golf_course_188.jpg,5.0,A3BD6HXLYH3CGH
697,0.0,left,right,0.0,0.3861,0.0,37.0,37.0,37.0,1.0,playground_257.jpg,playground_214.jpg,5.0,A3BD6HXLYH3CGH
698,0.0,right,right,1.0,0.4362,0.0,38.0,38.0,38.0,1.0,bridge_17.jpg,bridge_172.jpg,5.0,A3BD6HXLYH3CGH
699,1.0,left,right,0.0,0.8208,0.0,39.0,39.0,39.0,1.0,badlands_137.jpg,badlands_139.jpg,6.0,A3BD6HXLYH3CGH
700,1.0,right,right,1.0,0.015400001,0.0,40.0,40.0,40.0,1.0,bridge_38.jpg,bridge_202.jpg,6.0,A3BD6HXLYH3CGH
701,1.0,left,right,0.0,1.2207,0.0,41.0,41.0,41.0,1.0,bridge_108.jpg,bridge_148.jpg,6.0,A3BD6HXLYH3CGH
702,1.0,left,right,0.0,0.8899,0.0,42.0,42.0,42.0,1.0,golf_course_195.jpg,golf_course_2.jpg,7.0,A3BD6HXLYH3CGH
703,1.0,left,right,0.0,0.016900001,0.0,43.0,43.0,43.0,1.0,playground_10.jpg,playground_12.jpg,8.0,A3BD6HXLYH3CGH
704,1.0,left,right,0.0,0.747400001,0.0,44.0,44.0,44.0,1.0,playground_145.jpg,playground_242.jpg,8.0,A3BD6HXLYH3CGH
705,1.0,right,right,1.0,1.2222,0.0,45.0,45.0,45.0,1.0,golf_course_161.jpg,golf_course_87.jpg,8.0,A3BD6HXLYH3CGH
706,1.0,left,right,0.0,0.7713,0.0,46.0,46.0,46.0,1.0,badlands_23.jpg,badlands_101.jpg,7.0,A3BD6HXLYH3CGH
707,1.0,right,right,1.0,0.7598,0.0,47.0,47.0,47.0,1.0,mountain_221.jpg,mountain_101.jpg,6.0,A3BD6HXLYH3CGH
708,1.0,right,right,1.0,0.7692,0.0,48.0,48.0,48.0,1.0,mountain_97.jpg,mountain_230.jpg,6.0,A3BD6HXLYH3CGH
709,0.0,right,right,1.0,0.7385,0.0,49.0,49.0,49.0,1.0,mountain_128.jpg,mountain_156.jpg,6.0,A3BD6HXLYH3CGH
710,1.0,left,right,0.0,0.8042,0.0,50.0,50.0,50.0,1.0,badlands_221.jpg,badlands_207.jpg,6.0,A3BD6HXLYH3CGH
711,1.0,left,right,0.0,0.0142,0.0,51.0,51.0,51.0,1.0,mountain_232.jpg,mountain_54.jpg,6.0,A3BD6HXLYH3CGH
712,1.0,left,right,0.0,0.391099999,0.0,52.0,52.0,52.0,1.0,playground_76.jpg,playground_72.jpg,6.0,A3BD6HXLYH3CGH
713,1.0,left,right,0.0,0.014599999,0.0,53.0,53.0,53.0,1.0,golf_course_193.jpg,golf_course_123.jpg,6.0,A3BD6HXLYH3CGH
714,1.0,left,right,0.0,0.0146,0.0,54.0,54.0,54.0,1.0,highway_245.jpg,highway_206.jpg,6.0,A3BD6HXLYH3CGH
715,0.0,right,right,1.0,0.4122,0.0,55.0,55.0,55.0,1.0,highway_384.jpg,highway_273.jpg,6.0,A3BD6HXLYH3CGH
716,0.0,right,right,1.0,0.386099999,0.0,56.0,56.0,56.0,1.0,playground_43.jpg,playground_131.jpg,6.0,A3BD6HXLYH3CGH
717,0.0,right,right,1.0,1.1403,0.0,57.0,57.0,57.0,1.0,bridge_54.jpg,bridge_256.jpg,6.0,A3BD6HXLYH3CGH
718,1.0,right,right,1.0,0.9187,0.0,58.0,58.0,58.0,1.0,playground_40.jpg,playground_240.jpg,6.0,A3BD6HXLYH3CGH
719,1.0,left,right,0.0,0.386400001,0.0,59.0,59.0,59.0,1.0,highway_156.jpg,highway_293.jpg,7.0,A3BD6HXLYH3CGH
720,0.0,right,right,1.0,2.2992,0.0,0.0,0.0,0.0,1.0,golf_course_25.jpg,golf_course_195.jpg,4.0,A10HW8JXM17XLD
721,0.0,right,right,1.0,9.4982,0.0,1.0,1.0,1.0,1.0,mountain_94.jpg,mountain_123.jpg,3.0,A10HW8JXM17XLD
722,0.0,right,right,1.0,4.7772,0.0,2.0,2.0,2.0,1.0,highway_204.jpg,highway_394.jpg,7.0,A10HW8JXM17XLD
723,1.0,left,left,1.0,3.9577,0.0,3.0,3.0,3.0,1.0,badlands_184.jpg,badlands_103.jpg,8.0,A10HW8JXM17XLD
724,0.0,left,left,1.0,3.1291,0.0,4.0,4.0,4.0,1.0,highway_359.jpg,highway_389.jpg,7.0,A10HW8JXM17XLD
725,1.0,right,right,1.0,3.9654,0.0,5.0,5.0,5.0,1.0,bridge_82.jpg,bridge_91.jpg,6.0,A10HW8JXM17XLD
726,0.0,left,left,1.0,4.7339,0.0,6.0,6.0,6.0,1.0,badlands_24.jpg,badlands_3.jpg,4.0,A10HW8JXM17XLD
727,0.0,right,right,1.0,2.5411,0.0,7.0,7.0,7.0,1.0,playground_122.jpg,playground_10.jpg,7.0,A10HW8JXM17XLD
728,1.0,left,left,1.0,2.7534,0.0,8.0,8.0,8.0,1.0,badlands_52.jpg,badlands_63.jpg,7.0,A10HW8JXM17XLD
729,1.0,right,left,0.0,13.6019,0.0,9.0,9.0,9.0,1.0,badlands_207.jpg,badlands_221.jpg,5.0,A10HW8JXM17XLD
730,0.0,right,right,1.0,4.0008,0.0,10.0,10.0,10.0,1.0,badlands_102.jpg,badlands_70.jpg,4.0,A10HW8JXM17XLD
731,0.0,right,right,1.0,4.4472,0.0,11.0,11.0,11.0,1.0,playground_229.jpg,playground_145.jpg,7.0,A10HW8JXM17XLD
732,1.0,right,right,1.0,5.1245,0.0,12.0,12.0,12.0,1.0,mountain_138.jpg,mountain_57.jpg,6.0,A10HW8JXM17XLD
733,1.0,left,left,1.0,4.5731,0.0,13.0,13.0,13.0,1.0,bridge_128.jpg,bridge_244.jpg,6.0,A10HW8JXM17XLD
734,1.0,right,right,1.0,5.4493,0.0,14.0,14.0,14.0,1.0,badlands_62.jpg,badlands_222.jpg,8.0,A10HW8JXM17XLD
735,0.0,right,right,1.0,4.1326,0.0,15.0,15.0,15.0,1.0,highway_203.jpg,highway_294.jpg,8.0,A10HW8JXM17XLD
736,1.0,left,right,0.0,5.3372,0.0,16.0,16.0,16.0,1.0,playground_131.jpg,playground_164.jpg,8.0,A10HW8JXM17XLD
737,1.0,right,right,1.0,4.3187,0.0,17.0,17.0,17.0,1.0,golf_course_161.jpg,golf_course_87.jpg,8.0,A10HW8JXM17XLD
738,1.0,right,right,1.0,4.1577,0.0,18.0,18.0,18.0,1.0,golf_course_160.jpg,golf_course_188.jpg,7.0,A10HW8JXM17XLD
739,0.0,right,right,1.0,3.6974,0.0,19.0,19.0,19.0,1.0,badlands_225.jpg,badlands_113.jpg,7.0,A10HW8JXM17XLD
740,0.0,right,right,1.0,8.2917,0.0,20.0,20.0,20.0,1.0,bridge_27.jpg,bridge_146.jpg,6.0,A10HW8JXM17XLD
741,1.0,left,right,0.0,7.8254,0.0,21.0,21.0,21.0,1.0,highway_273.jpg,highway_171.jpg,8.0,A10HW8JXM17XLD
742,0.0,left,left,1.0,4.3573,0.0,22.0,22.0,22.0,1.0,mountain_293.jpg,mountain_72.jpg,7.0,A10HW8JXM17XLD
743,1.0,left,left,1.0,2.9384,0.0,23.0,23.0,23.0,1.0,playground_240.jpg,playground_40.jpg,6.0,A10HW8JXM17XLD
744,0.0,right,right,1.0,1.6049,0.0,24.0,24.0,24.0,1.0,mountain_128.jpg,mountain_156.jpg,8.0,A10HW8JXM17XLD
745,0.0,right,right,1.0,3.5786,0.0,25.0,25.0,25.0,1.0,bridge_54.jpg,bridge_256.jpg,4.0,A10HW8JXM17XLD
746,0.0,left,left,1.0,5.4741,0.0,26.0,26.0,26.0,1.0,playground_219.jpg,playground_21.jpg,7.0,A10HW8JXM17XLD
747,0.0,left,left,1.0,3.4024,0.0,27.0,27.0,27.0,1.0,bridge_202.jpg,bridge_31.jpg,5.0,A10HW8JXM17XLD
748,1.0,left,left,1.0,7.636,0.0,28.0,28.0,28.0,1.0,highway_93.jpg,highway_369.jpg,9.0,A10HW8JXM17XLD
749,0.0,left,left,1.0,3.8054,0.0,29.0,29.0,29.0,1.0,highway_156.jpg,highway_160.jpg,5.0,A10HW8JXM17XLD
750,0.0,left,left,1.0,3.2039,0.0,30.0,30.0,30.0,1.0,mountain_154.jpg,mountain_131.jpg,7.0,A10HW8JXM17XLD
751,0.0,right,right,1.0,3.9629,0.0,31.0,31.0,31.0,1.0,bridge_184.jpg,bridge_191.jpg,5.0,A10HW8JXM17XLD
752,1.0,left,left,1.0,4.2651,0.0,32.0,32.0,32.0,1.0,playground_60.jpg,playground_244.jpg,7.0,A10HW8JXM17XLD
753,1.0,left,left,1.0,2.7199,0.0,33.0,33.0,33.0,1.0,golf_course_193.jpg,golf_course_123.jpg,7.0,A10HW8JXM17XLD
754,1.0,left,left,1.0,2.5487,0.0,34.0,34.0,34.0,1.0,bridge_250.jpg,bridge_205.jpg,7.0,A10HW8JXM17XLD
755,0.0,left,left,1.0,3.2225,0.0,35.0,35.0,35.0,1.0,badlands_137.jpg,badlands_194.jpg,6.0,A10HW8JXM17XLD
756,1.0,right,left,0.0,10.4211,0.0,36.0,36.0,36.0,1.0,highway_278.jpg,highway_177.jpg,8.0,A10HW8JXM17XLD
757,0.0,left,left,1.0,5.7422,0.0,37.0,37.0,37.0,1.0,highway_245.jpg,highway_134.jpg,6.0,A10HW8JXM17XLD
758,1.0,left,right,0.0,5.8597,0.0,38.0,38.0,38.0,1.0,golf_course_214.jpg,golf_course_317.jpg,9.0,A10HW8JXM17XLD
759,0.0,right,right,1.0,5.6952,0.0,39.0,39.0,39.0,1.0,golf_course_113.jpg,golf_course_15.jpg,7.0,A10HW8JXM17XLD
760,1.0,left,left,1.0,4.0294,0.0,40.0,40.0,40.0,1.0,playground_76.jpg,playground_72.jpg,7.0,A10HW8JXM17XLD
761,0.0,left,left,1.0,3.4993,0.0,41.0,41.0,41.0,1.0,playground_257.jpg,playground_214.jpg,5.0,A10HW8JXM17XLD
762,1.0,right,left,0.0,5.1712,0.0,42.0,42.0,42.0,1.0,mountain_221.jpg,mountain_101.jpg,6.0,A10HW8JXM17XLD
763,0.0,left,left,1.0,2.6176,0.0,43.0,43.0,43.0,1.0,badlands_21.jpg,badlands_1.jpg,3.0,A10HW8JXM17XLD
764,1.0,right,right,1.0,2.4718,0.0,44.0,44.0,44.0,1.0,badlands_101.jpg,badlands_23.jpg,5.0,A10HW8JXM17XLD
765,1.0,right,left,0.0,9.6033,0.0,45.0,45.0,45.0,1.0,golf_course_101.jpg,golf_course_78.jpg,5.0,A10HW8JXM17XLD
766,0.0,right,right,1.0,6.6833,0.0,46.0,46.0,46.0,1.0,golf_course_16.jpg,golf_course_309.jpg,6.0,A10HW8JXM17XLD
767,1.0,right,right,1.0,6.8415,0.0,47.0,47.0,47.0,1.0,mountain_54.jpg,mountain_232.jpg,7.0,A10HW8JXM17XLD
768,1.0,right,right,1.0,1.9396,0.0,48.0,48.0,48.0,1.0,bridge_148.jpg,bridge_108.jpg,4.0,A10HW8JXM17XLD
769,0.0,right,right,1.0,2.45,0.0,49.0,49.0,49.0,1.0,golf_course_114.jpg,golf_course_331.jpg,5.0,A10HW8JXM17XLD
770,1.0,left,left,1.0,6.9389,0.0,50.0,50.0,50.0,1.0,mountain_230.jpg,mountain_97.jpg,4.0,A10HW8JXM17XLD
771,1.0,left,left,1.0,3.2718,0.0,51.0,51.0,51.0,1.0,playground_144.jpg,playground_65.jpg,5.0,A10HW8JXM17XLD
772,0.0,right,right,1.0,3.6981,0.0,52.0,52.0,52.0,1.0,bridge_181.jpg,bridge_65.jpg,6.0,A10HW8JXM17XLD
773,0.0,right,right,1.0,4.7175,0.0,53.0,53.0,53.0,1.0,mountain_244.jpg,mountain_222.jpg,5.0,A10HW8JXM17XLD
774,1.0,left,left,1.0,3.6438,0.0,54.0,54.0,54.0,1.0,highway_415.jpg,highway_174.jpg,9.0,A10HW8JXM17XLD
775,1.0,left,left,1.0,3.3629,0.0,55.0,55.0,55.0,1.0,bridge_172.jpg,bridge_163.jpg,4.0,A10HW8JXM17XLD
776,1.0,left,left,1.0,4.1133,0.0,56.0,56.0,56.0,1.0,mountain_110.jpg,mountain_223.jpg,6.0,A10HW8JXM17XLD
777,0.0,left,right,0.0,10.3268,0.0,57.0,57.0,57.0,1.0,golf_course_217.jpg,golf_course_35.jpg,5.0,A10HW8JXM17XLD
778,1.0,left,left,1.0,4.7326,0.0,58.0,58.0,58.0,1.0,highway_209.jpg,highway_122.jpg,8.0,A10HW8JXM17XLD
779,0.0,left,right,0.0,3.5245,0.0,59.0,59.0,59.0,1.0,playground_117.jpg,playground_167.jpg,8.0,A10HW8JXM17XLD
780,1.0,left,left,1.0,9.7484,0.0,0.0,0.0,0.0,1.0,mountain_156.jpg,mountain_295.jpg,5.0,A2B0J7HGR6T34W
781,1.0,right,right,1.0,5.8259,0.0,1.0,1.0,1.0,1.0,golf_course_26.jpg,golf_course_331.jpg,9.0,A2B0J7HGR6T34W
782,1.0,left,left,1.0,7.4216,0.0,2.0,2.0,2.0,1.0,golf_course_188.jpg,golf_course_160.jpg,8.0,A2B0J7HGR6T34W
783,1.0,left,left,1.0,5.6866,0.0,3.0,3.0,3.0,1.0,highway_156.jpg,highway_293.jpg,9.0,A2B0J7HGR6T34W
784,1.0,left,left,1.0,8.9897,0.0,4.0,4.0,4.0,1.0,playground_240.jpg,playground_40.jpg,9.0,A2B0J7HGR6T34W
785,0.0,right,right,1.0,8.2253,0.0,5.0,5.0,5.0,1.0,badlands_228.jpg,badlands_184.jpg,8.0,A2B0J7HGR6T34W
786,0.0,left,left,1.0,3.6314,0.0,6.0,6.0,6.0,1.0,golf_course_78.jpg,golf_course_134.jpg,9.0,A2B0J7HGR6T34W
787,0.0,right,right,1.0,7.4665,0.0,7.0,7.0,7.0,1.0,mountain_72.jpg,mountain_293.jpg,5.0,A2B0J7HGR6T34W
788,0.0,left,left,1.0,13.2917,0.0,8.0,8.0,8.0,1.0,playground_145.jpg,playground_229.jpg,5.0,A2B0J7HGR6T34W
789,0.0,right,right,1.0,4.8253,0.0,9.0,9.0,9.0,1.0,highway_203.jpg,highway_294.jpg,9.0,A2B0J7HGR6T34W
790,0.0,left,left,1.0,4.8216,0.0,10.0,10.0,10.0,1.0,playground_60.jpg,playground_268.jpg,8.0,A2B0J7HGR6T34W
791,1.0,left,left,1.0,9.4253,0.0,11.0,11.0,11.0,1.0,highway_245.jpg,highway_206.jpg,3.0,A2B0J7HGR6T34W
792,1.0,left,left,1.0,7.6654,0.0,12.0,12.0,12.0,1.0,badlands_221.jpg,badlands_207.jpg,9.0,A2B0J7HGR6T34W
793,0.0,right,right,1.0,3.4243,0.0,13.0,13.0,13.0,1.0,badlands_94.jpg,badlands_52.jpg,9.0,A2B0J7HGR6T34W
794,1.0,right,right,1.0,7.8338,0.0,14.0,14.0,14.0,1.0,highway_122.jpg,highway_209.jpg,9.0,A2B0J7HGR6T34W
795,1.0,right,right,1.0,8.4996,0.0,15.0,15.0,15.0,1.0,golf_course_262.jpg,golf_course_217.jpg,9.0,A2B0J7HGR6T34W
796,1.0,left,left,1.0,6.8335,0.0,16.0,16.0,16.0,1.0,highway_359.jpg,highway_379.jpg,9.0,A2B0J7HGR6T34W
797,1.0,left,left,1.0,3.4221,0.0,17.0,17.0,17.0,1.0,bridge_91.jpg,bridge_82.jpg,9.0,A2B0J7HGR6T34W
798,1.0,left,left,1.0,7.1082,0.0,18.0,18.0,18.0,1.0,bridge_172.jpg,bridge_163.jpg,9.0,A2B0J7HGR6T34W
799,1.0,left,left,1.0,8.6582,0.0,19.0,19.0,19.0,1.0,mountain_110.jpg,mountain_223.jpg,9.0,A2B0J7HGR6T34W
800,1.0,left,left,1.0,6.6453,0.0,20.0,20.0,20.0,1.0,golf_course_214.jpg,golf_course_317.jpg,9.0,A2B0J7HGR6T34W
801,1.0,left,left,1.0,3.2125,0.0,21.0,21.0,21.0,1.0,playground_144.jpg,playground_65.jpg,9.0,A2B0J7HGR6T34W
802,0.0,left,right,0.0,7.1892,0.0,22.0,22.0,22.0,1.0,playground_257.jpg,playground_214.jpg,9.0,A2B0J7HGR6T34W
803,1.0,left,left,1.0,4.2251,0.0,23.0,23.0,23.0,1.0,badlands_24.jpg,badlands_53.jpg,9.0,A2B0J7HGR6T34W
804,1.0,right,right,1.0,3.198,0.0,24.0,24.0,24.0,1.0,golf_course_123.jpg,golf_course_193.jpg,9.0,A2B0J7HGR6T34W
805,1.0,right,left,0.0,8.8163,0.0,25.0,25.0,25.0,1.0,badlands_139.jpg,badlands_137.jpg,9.0,A2B0J7HGR6T34W
806,1.0,right,right,1.0,10.0599,0.0,26.0,26.0,26.0,1.0,bridge_244.jpg,bridge_128.jpg,9.0,A2B0J7HGR6T34W
807,0.0,left,right,0.0,5.6281,0.0,27.0,27.0,27.0,1.0,badlands_23.jpg,badlands_114.jpg,9.0,A2B0J7HGR6T34W
808,0.0,right,right,1.0,6.1911,0.0,28.0,28.0,28.0,1.0,golf_course_25.jpg,golf_course_195.jpg,6.0,A2B0J7HGR6T34W
809,0.0,right,right,1.0,9.5016,0.0,29.0,29.0,29.0,1.0,playground_21.jpg,playground_219.jpg,9.0,A2B0J7HGR6T34W
810,1.0,left,left,1.0,6.8427,0.0,30.0,30.0,30.0,1.0,badlands_70.jpg,badlands_119.jpg,7.0,A2B0J7HGR6T34W
811,0.0,right,right,1.0,4.4042,0.0,31.0,31.0,31.0,1.0,bridge_54.jpg,bridge_256.jpg,9.0,A2B0J7HGR6T34W
812,0.0,right,right,1.0,4.4958,0.0,32.0,32.0,32.0,1.0,golf_course_16.jpg,golf_course_309.jpg,6.0,A2B0J7HGR6T34W
813,0.0,left,left,1.0,10.0171,0.0,33.0,33.0,33.0,1.0,bridge_202.jpg,bridge_31.jpg,8.0,A2B0J7HGR6T34W
814,1.0,right,left,0.0,7.2812,0.0,34.0,34.0,34.0,1.0,mountain_54.jpg,mountain_232.jpg,6.0,A2B0J7HGR6T34W
815,1.0,left,left,1.0,4.6097,0.0,35.0,35.0,35.0,1.0,badlands_113.jpg,badlands_203.jpg,9.0,A2B0J7HGR6T34W
816,0.0,right,right,1.0,3.6345,0.0,36.0,36.0,36.0,1.0,playground_122.jpg,playground_10.jpg,9.0,A2B0J7HGR6T34W
817,0.0,left,left,1.0,3.8212,0.0,37.0,37.0,37.0,1.0,bridge_146.jpg,bridge_27.jpg,9.0,A2B0J7HGR6T34W
818,1.0,left,left,1.0,11.9767,0.0,38.0,38.0,38.0,1.0,playground_117.jpg,playground_127.jpg,7.0,A2B0J7HGR6T34W
819,0.0,left,left,1.0,2.8641,0.0,39.0,39.0,39.0,1.0,mountain_123.jpg,mountain_94.jpg,9.0,A2B0J7HGR6T34W
820,0.0,right,right,1.0,8.4121,0.0,40.0,40.0,40.0,1.0,mountain_244.jpg,mountain_222.jpg,6.0,A2B0J7HGR6T34W
821,0.0,right,right,1.0,4.2394,0.0,41.0,41.0,41.0,1.0,highway_384.jpg,highway_273.jpg,9.0,A2B0J7HGR6T34W
822,1.0,left,left,1.0,5.6485,0.0,42.0,42.0,42.0,1.0,mountain_57.jpg,mountain_138.jpg,9.0,A2B0J7HGR6T34W
823,1.0,left,left,1.0,5.9831,0.0,43.0,43.0,43.0,1.0,bridge_250.jpg,bridge_205.jpg,6.0,A2B0J7HGR6T34W
824,0.0,right,right,1.0,6.8289,0.0,44.0,44.0,44.0,1.0,bridge_181.jpg,bridge_65.jpg,7.0,A2B0J7HGR6T34W
825,0.0,left,left,1.0,2.426,0.0,45.0,45.0,45.0,1.0,badlands_21.jpg,badlands_1.jpg,9.0,A2B0J7HGR6T34W
826,0.0,left,left,1.0,4.841,0.0,46.0,46.0,46.0,1.0,mountain_230.jpg,mountain_184.jpg,9.0,A2B0J7HGR6T34W
827,0.0,left,left,1.0,7.4042,0.0,47.0,47.0,47.0,1.0,badlands_222.jpg,badlands_34.jpg,8.0,A2B0J7HGR6T34W
828,1.0,left,left,1.0,4.8266,0.0,48.0,48.0,48.0,1.0,highway_415.jpg,highway_174.jpg,9.0,A2B0J7HGR6T34W
829,1.0,left,left,1.0,12.493,0.0,49.0,49.0,49.0,1.0,mountain_154.jpg,mountain_95.jpg,5.0,A2B0J7HGR6T34W
830,1.0,right,left,0.0,10.2107,0.0,50.0,50.0,50.0,1.0,playground_72.jpg,playground_76.jpg,5.0,A2B0J7HGR6T34W
831,0.0,left,left,1.0,8.6301,0.0,51.0,51.0,51.0,1.0,bridge_191.jpg,bridge_184.jpg,5.0,A2B0J7HGR6T34W
832,1.0,right,right,1.0,4.2765,0.0,52.0,52.0,52.0,1.0,bridge_148.jpg,bridge_108.jpg,9.0,A2B0J7HGR6T34W
833,0.0,right,right,1.0,5.5985,0.0,53.0,53.0,53.0,1.0,mountain_171.jpg,mountain_101.jpg,9.0,A2B0J7HGR6T34W
834,1.0,right,left,0.0,7.6307,0.0,54.0,54.0,54.0,1.0,playground_164.jpg,playground_131.jpg,5.0,A2B0J7HGR6T34W
835,0.0,right,right,1.0,5.3845,0.0,55.0,55.0,55.0,1.0,highway_87.jpg,highway_177.jpg,9.0,A2B0J7HGR6T34W
836,0.0,right,right,1.0,3.229,0.0,56.0,56.0,56.0,1.0,golf_course_130.jpg,golf_course_87.jpg,9.0,A2B0J7HGR6T34W
837,0.0,right,right,1.0,8.4556,0.0,57.0,57.0,57.0,1.0,highway_85.jpg,highway_93.jpg,6.0,A2B0J7HGR6T34W
838,0.0,left,left,1.0,4.1866,0.0,58.0,58.0,58.0,1.0,highway_394.jpg,highway_204.jpg,9.0,A2B0J7HGR6T34W
839,0.0,left,left,1.0,8.2515,0.0,59.0,59.0,59.0,1.0,golf_course_15.jpg,golf_course_113.jpg,6.0,A2B0J7HGR6T34W
840,0.0,left,right,0.0,4.5075,0.0,0.0,0.0,0.0,1.0,bridge_108.jpg,bridge_116.jpg,9.0,A1PRUVH5Q0T9FS
841,0.0,right,right,1.0,2.6191,0.0,1.0,1.0,1.0,1.0,highway_204.jpg,highway_394.jpg,1.0,A1PRUVH5Q0T9FS
842,0.0,right,left,0.0,6.7056,0.0,2.0,2.0,2.0,1.0,badlands_115.jpg,badlands_221.jpg,1.0,A1PRUVH5Q0T9FS
843,1.0,right,right,1.0,4.7521,0.0,3.0,3.0,3.0,1.0,mountain_295.jpg,mountain_156.jpg,1.0,A1PRUVH5Q0T9FS
844,0.0,left,right,0.0,5.0901,0.0,4.0,4.0,4.0,1.0,golf_course_214.jpg,golf_course_312.jpg,1.0,A1PRUVH5Q0T9FS
845,1.0,left,left,1.0,2.8482,0.0,5.0,5.0,5.0,1.0,bridge_128.jpg,bridge_244.jpg,1.0,A1PRUVH5Q0T9FS
846,1.0,left,left,1.0,2.9425,0.0,6.0,6.0,6.0,1.0,bridge_202.jpg,bridge_38.jpg,1.0,A1PRUVH5Q0T9FS
847,1.0,right,right,1.0,3.4795,0.0,7.0,7.0,7.0,1.0,golf_course_209.jpg,golf_course_309.jpg,1.0,A1PRUVH5Q0T9FS
848,0.0,left,right,0.0,20.7704,0.0,8.0,8.0,8.0,1.0,mountain_222.jpg,mountain_244.jpg,1.0,A1PRUVH5Q0T9FS
849,1.0,right,right,1.0,2.8712,0.0,9.0,9.0,9.0,1.0,mountain_138.jpg,mountain_57.jpg,1.0,A1PRUVH5Q0T9FS
850,1.0,left,left,1.0,7.6254,0.0,10.0,10.0,10.0,1.0,playground_144.jpg,playground_65.jpg,9.0,A1PRUVH5Q0T9FS
851,1.0,right,left,0.0,5.7663,0.0,11.0,11.0,11.0,1.0,bridge_211.jpg,bridge_256.jpg,1.0,A1PRUVH5Q0T9FS
852,0.0,left,left,1.0,2.266,0.0,12.0,12.0,12.0,1.0,highway_93.jpg,highway_85.jpg,1.0,A1PRUVH5Q0T9FS
853,0.0,left,left,1.0,6.0404,0.0,13.0,13.0,13.0,1.0,golf_course_195.jpg,golf_course_25.jpg,1.0,A1PRUVH5Q0T9FS
854,0.0,right,left,0.0,10.427,0.0,14.0,14.0,14.0,1.0,highway_160.jpg,highway_156.jpg,1.0,A1PRUVH5Q0T9FS
855,0.0,left,left,1.0,4.3277,0.0,15.0,15.0,15.0,1.0,playground_219.jpg,playground_21.jpg,1.0,A1PRUVH5Q0T9FS
856,0.0,right,right,1.0,3.4622,0.0,16.0,16.0,16.0,1.0,highway_87.jpg,highway_177.jpg,1.0,A1PRUVH5Q0T9FS
857,0.0,right,right,1.0,4.5036,0.0,17.0,17.0,17.0,1.0,bridge_27.jpg,bridge_146.jpg,1.0,A1PRUVH5Q0T9FS
858,0.0,right,left,0.0,3.5225,0.0,18.0,18.0,18.0,1.0,playground_122.jpg,playground_10.jpg,1.0,A1PRUVH5Q0T9FS
859,0.0,right,right,1.0,2.8773,0.0,19.0,19.0,19.0,1.0,playground_2.jpg,playground_240.jpg,1.0,A1PRUVH5Q0T9FS
860,1.0,right,right,1.0,3.4744,0.0,20.0,20.0,20.0,1.0,golf_course_97.jpg,golf_course_15.jpg,9.0,A1PRUVH5Q0T9FS
861,0.0,right,right,1.0,2.874,0.0,21.0,21.0,21.0,1.0,bridge_17.jpg,bridge_172.jpg,1.0,A1PRUVH5Q0T9FS
862,1.0,left,right,0.0,4.463,0.0,22.0,22.0,22.0,1.0,golf_course_217.jpg,golf_course_262.jpg,1.0,A1PRUVH5Q0T9FS
863,1.0,right,right,1.0,3.0975,0.0,23.0,23.0,23.0,1.0,badlands_101.jpg,badlands_23.jpg,1.0,A1PRUVH5Q0T9FS
864,1.0,right,right,1.0,4.0822,0.0,24.0,24.0,24.0,1.0,mountain_221.jpg,mountain_101.jpg,1.0,A1PRUVH5Q0T9FS
865,0.0,right,right,1.0,2.2096,0.0,25.0,25.0,25.0,1.0,playground_43.jpg,playground_131.jpg,1.0,A1PRUVH5Q0T9FS
866,0.0,right,right,1.0,1.9329,0.0,26.0,26.0,26.0,1.0,mountain_3.jpg,mountain_232.jpg,1.0,A1PRUVH5Q0T9FS
867,1.0,right,left,0.0,2.5674,0.0,27.0,27.0,27.0,1.0,badlands_139.jpg,badlands_137.jpg,1.0,A1PRUVH5Q0T9FS
868,1.0,left,left,1.0,2.2128,0.0,28.0,28.0,28.0,1.0,highway_209.jpg,highway_122.jpg,1.0,A1PRUVH5Q0T9FS
869,0.0,right,left,0.0,2.888,0.0,29.0,29.0,29.0,1.0,mountain_184.jpg,mountain_230.jpg,1.0,A1PRUVH5Q0T9FS
870,0.0,left,left,1.0,2.5064,0.0,30.0,30.0,30.0,1.0,mountain_123.jpg,mountain_94.jpg,1.0,A1PRUVH5Q0T9FS
871,0.0,right,right,1.0,5.4354,0.0,31.0,31.0,31.0,1.0,badlands_3.jpg,badlands_24.jpg,1.0,A1PRUVH5Q0T9FS
872,1.0,right,right,1.0,3.4128,0.0,32.0,32.0,32.0,1.0,bridge_205.jpg,bridge_250.jpg,1.0,A1PRUVH5Q0T9FS
873,1.0,right,right,1.0,2.5542,0.0,33.0,33.0,33.0,1.0,highway_379.jpg,highway_359.jpg,1.0,A1PRUVH5Q0T9FS
874,0.0,right,right,1.0,5.9633,0.0,34.0,34.0,34.0,1.0,golf_course_157.jpg,golf_course_188.jpg,1.0,A1PRUVH5Q0T9FS
875,1.0,right,right,1.0,3.7927,0.0,35.0,35.0,35.0,1.0,highway_174.jpg,highway_415.jpg,1.0,A1PRUVH5Q0T9FS
876,0.0,left,left,1.0,2.5594,0.0,36.0,36.0,36.0,1.0,playground_76.jpg,playground_22.jpg,1.0,A1PRUVH5Q0T9FS
877,1.0,left,left,1.0,2.549,0.0,37.0,37.0,37.0,1.0,highway_294.jpg,highway_368.jpg,1.0,A1PRUVH5Q0T9FS
878,0.0,right,right,1.0,2.6234,0.0,38.0,38.0,38.0,1.0,golf_course_114.jpg,golf_course_331.jpg,1.0,A1PRUVH5Q0T9FS
879,1.0,left,left,1.0,7.6461,0.0,39.0,39.0,39.0,1.0,playground_257.jpg,playground_215.jpg,1.0,A1PRUVH5Q0T9FS
880,0.0,left,left,1.0,2.2401,0.0,40.0,40.0,40.0,1.0,golf_course_87.jpg,golf_course_130.jpg,1.0,A1PRUVH5Q0T9FS
881,1.0,left,right,0.0,2.799,0.0,41.0,41.0,41.0,1.0,badlands_21.jpg,badlands_98.jpg,1.0,A1PRUVH5Q0T9FS
882,1.0,right,right,1.0,2.5303,0.0,42.0,42.0,42.0,1.0,mountain_47.jpg,mountain_293.jpg,1.0,A1PRUVH5Q0T9FS
883,0.0,right,right,1.0,4.1608,0.0,43.0,43.0,43.0,1.0,mountain_157.jpg,mountain_110.jpg,1.0,A1PRUVH5Q0T9FS
884,1.0,right,right,1.0,2.5553,0.0,44.0,44.0,44.0,1.0,badlands_63.jpg,badlands_52.jpg,1.0,A1PRUVH5Q0T9FS
885,1.0,left,right,0.0,5.294,0.0,45.0,45.0,45.0,1.0,golf_course_193.jpg,golf_course_123.jpg,9.0,A1PRUVH5Q0T9FS
886,0.0,right,left,0.0,1.9034,0.0,46.0,46.0,46.0,1.0,badlands_34.jpg,badlands_222.jpg,1.0,A1PRUVH5Q0T9FS
887,1.0,left,left,1.0,5.3222,0.0,47.0,47.0,47.0,1.0,highway_273.jpg,highway_171.jpg,1.0,A1PRUVH5Q0T9FS
888,1.0,left,right,0.0,3.1743,0.0,48.0,48.0,48.0,1.0,playground_60.jpg,playground_244.jpg,1.0,A1PRUVH5Q0T9FS
889,1.0,left,left,1.0,5.1262,0.0,49.0,49.0,49.0,1.0,playground_145.jpg,playground_242.jpg,1.0,A1PRUVH5Q0T9FS
890,0.0,left,right,0.0,6.338,0.0,50.0,50.0,50.0,1.0,highway_245.jpg,highway_134.jpg,1.0,A1PRUVH5Q0T9FS
891,0.0,right,right,1.0,2.5254,0.0,51.0,51.0,51.0,1.0,badlands_102.jpg,badlands_70.jpg,1.0,A1PRUVH5Q0T9FS
892,1.0,left,left,1.0,3.4648,0.0,52.0,52.0,52.0,1.0,bridge_191.jpg,bridge_75.jpg,1.0,A1PRUVH5Q0T9FS
893,1.0,left,left,1.0,5.5764,0.0,53.0,53.0,53.0,1.0,playground_117.jpg,playground_127.jpg,1.0,A1PRUVH5Q0T9FS
894,0.0,left,left,1.0,2.8497,0.0,54.0,54.0,54.0,1.0,badlands_113.jpg,badlands_225.jpg,1.0,A1PRUVH5Q0T9FS
895,1.0,right,right,1.0,1.8801,0.0,55.0,55.0,55.0,1.0,mountain_95.jpg,mountain_154.jpg,1.0,A1PRUVH5Q0T9FS
896,0.0,right,right,1.0,2.5397,0.0,56.0,56.0,56.0,1.0,bridge_181.jpg,bridge_65.jpg,1.0,A1PRUVH5Q0T9FS
897,1.0,right,left,0.0,1.9312,0.0,57.0,57.0,57.0,1.0,golf_course_101.jpg,golf_course_78.jpg,1.0,A1PRUVH5Q0T9FS
898,0.0,left,left,1.0,2.5928,0.0,58.0,58.0,58.0,1.0,bridge_91.jpg,bridge_253.jpg,1.0,A1PRUVH5Q0T9FS
899,1.0,right,right,1.0,2.5481,0.0,59.0,59.0,59.0,1.0,badlands_103.jpg,badlands_184.jpg,1.0,A1PRUVH5Q0T9FS
900,1.0,left,right,0.0,8.7032,0.0,0.0,0.0,0.0,1.0,badlands_70.jpg,badlands_119.jpg,2.0,AR6H3B01WJ1FQ
901,1.0,left,right,0.0,2.3728,0.0,1.0,1.0,1.0,1.0,golf_course_195.jpg,golf_course_2.jpg,3.0,AR6H3B01WJ1FQ
902,0.0,right,right,1.0,2.3975,0.0,2.0,2.0,2.0,1.0,golf_course_114.jpg,golf_course_331.jpg,2.0,AR6H3B01WJ1FQ
903,0.0,right,right,1.0,2.274,0.0,3.0,3.0,3.0,1.0,playground_22.jpg,playground_76.jpg,4.0,AR6H3B01WJ1FQ
904,1.0,left,right,0.0,1.4336,0.0,4.0,4.0,4.0,1.0,mountain_293.jpg,mountain_47.jpg,2.0,AR6H3B01WJ1FQ
905,0.0,right,right,1.0,1.4862,0.0,5.0,5.0,5.0,1.0,badlands_194.jpg,badlands_137.jpg,3.0,AR6H3B01WJ1FQ
906,1.0,right,right,1.0,1.4162,0.0,6.0,6.0,6.0,1.0,badlands_101.jpg,badlands_23.jpg,2.0,AR6H3B01WJ1FQ
907,1.0,left,right,0.0,1.4604,0.0,7.0,7.0,7.0,1.0,mountain_230.jpg,mountain_97.jpg,2.0,AR6H3B01WJ1FQ
908,0.0,left,right,0.0,3.9285,0.0,8.0,8.0,8.0,1.0,badlands_24.jpg,badlands_3.jpg,2.0,AR6H3B01WJ1FQ
909,0.0,right,right,1.0,1.7619,0.0,9.0,9.0,9.0,1.0,golf_course_130.jpg,golf_course_87.jpg,2.0,AR6H3B01WJ1FQ
910,0.0,right,right,1.0,1.298,0.0,10.0,10.0,10.0,1.0,playground_167.jpg,playground_117.jpg,4.0,AR6H3B01WJ1FQ
911,0.0,left,right,0.0,1.3668,0.0,11.0,11.0,11.0,1.0,playground_257.jpg,playground_214.jpg,3.0,AR6H3B01WJ1FQ
912,0.0,right,right,1.0,1.4898,0.0,12.0,12.0,12.0,1.0,highway_314.jpg,highway_209.jpg,2.0,AR6H3B01WJ1FQ
913,1.0,left,right,0.0,1.1404,0.0,13.0,13.0,13.0,1.0,playground_219.jpg,playground_205.jpg,3.0,AR6H3B01WJ1FQ
914,1.0,left,right,0.0,8.7274,0.0,14.0,14.0,14.0,1.0,golf_course_309.jpg,golf_course_209.jpg,2.0,AR6H3B01WJ1FQ
915,1.0,left,right,0.0,6.8946,0.0,15.0,15.0,15.0,1.0,badlands_21.jpg,badlands_98.jpg,2.0,AR6H3B01WJ1FQ
916,1.0,left,right,0.0,2.0598,0.0,16.0,16.0,16.0,1.0,playground_240.jpg,playground_40.jpg,3.0,AR6H3B01WJ1FQ
917,0.0,right,right,1.0,4.3611,0.0,17.0,17.0,17.0,1.0,mountain_128.jpg,mountain_156.jpg,3.0,AR6H3B01WJ1FQ
918,0.0,left,right,0.0,1.5084,0.0,18.0,18.0,18.0,1.0,bridge_172.jpg,bridge_17.jpg,3.0,AR6H3B01WJ1FQ
919,0.0,right,right,1.0,28.0936,0.0,19.0,19.0,19.0,1.0,mountain_94.jpg,mountain_123.jpg,4.0,AR6H3B01WJ1FQ
920,0.0,left,right,0.0,1.4202,0.0,20.0,20.0,20.0,1.0,golf_course_188.jpg,golf_course_157.jpg,3.0,AR6H3B01WJ1FQ
921,1.0,right,right,1.0,2.2114,0.0,21.0,21.0,21.0,1.0,bridge_60.jpg,bridge_65.jpg,3.0,AR6H3B01WJ1FQ
922,1.0,left,right,0.0,3.3939,0.0,22.0,22.0,22.0,1.0,golf_course_78.jpg,golf_course_101.jpg,2.0,AR6H3B01WJ1FQ
923,1.0,right,right,1.0,0.9386,0.0,23.0,23.0,23.0,1.0,mountain_223.jpg,mountain_110.jpg,3.0,AR6H3B01WJ1FQ
924,1.0,left,right,0.0,6.6823,0.0,24.0,24.0,24.0,1.0,playground_144.jpg,playground_65.jpg,3.0,AR6H3B01WJ1FQ
925,0.0,right,right,1.0,1.0912,0.0,25.0,25.0,25.0,1.0,mountain_244.jpg,mountain_222.jpg,3.0,AR6H3B01WJ1FQ
926,1.0,left,right,0.0,0.9425,0.0,26.0,26.0,26.0,1.0,mountain_154.jpg,mountain_95.jpg,3.0,AR6H3B01WJ1FQ
927,0.0,right,right,1.0,0.9519,0.0,27.0,27.0,27.0,1.0,playground_268.jpg,playground_60.jpg,4.0,AR6H3B01WJ1FQ
928,0.0,left,right,0.0,1.4179,0.0,28.0,28.0,28.0,1.0,badlands_222.jpg,badlands_34.jpg,3.0,AR6H3B01WJ1FQ
929,0.0,left,right,0.0,6.6836,0.0,29.0,29.0,29.0,1.0,bridge_191.jpg,bridge_184.jpg,3.0,AR6H3B01WJ1FQ
930,1.0,right,right,1.0,5.9146,0.0,30.0,30.0,30.0,1.0,bridge_38.jpg,bridge_202.jpg,3.0,AR6H3B01WJ1FQ
931,0.0,right,right,1.0,3.2761,0.0,31.0,31.0,31.0,1.0,badlands_115.jpg,badlands_221.jpg,3.0,AR6H3B01WJ1FQ
932,1.0,left,right,0.0,10.2265,0.0,32.0,32.0,32.0,1.0,bridge_91.jpg,bridge_82.jpg,4.0,AR6H3B01WJ1FQ
933,1.0,left,right,0.0,1.4353,0.0,33.0,33.0,33.0,1.0,golf_course_214.jpg,golf_course_317.jpg,4.0,AR6H3B01WJ1FQ
934,0.0,left,right,0.0,2.492,0.0,34.0,34.0,34.0,1.0,highway_273.jpg,highway_384.jpg,4.0,AR6H3B01WJ1FQ
935,0.0,right,right,1.0,1.2146,0.0,35.0,35.0,35.0,1.0,golf_course_35.jpg,golf_course_217.jpg,3.0,AR6H3B01WJ1FQ
936,1.0,right,right,1.0,1.0936,0.0,36.0,36.0,36.0,1.0,highway_368.jpg,highway_294.jpg,3.0,AR6H3B01WJ1FQ
937,0.0,right,right,1.0,1.2121,0.0,37.0,37.0,37.0,1.0,highway_60.jpg,highway_415.jpg,3.0,AR6H3B01WJ1FQ
938,1.0,right,right,1.0,4.1175,0.0,38.0,38.0,38.0,1.0,highway_293.jpg,highway_156.jpg,4.0,AR6H3B01WJ1FQ
939,1.0,right,right,1.0,1.2005,0.0,39.0,39.0,39.0,1.0,mountain_221.jpg,mountain_101.jpg,3.0,AR6H3B01WJ1FQ
940,1.0,right,right,1.0,0.9642,0.0,40.0,40.0,40.0,1.0,playground_164.jpg,playground_131.jpg,4.0,AR6H3B01WJ1FQ
941,0.0,left,right,0.0,1.1242,0.0,41.0,41.0,41.0,1.0,golf_course_193.jpg,golf_course_235.jpg,2.0,AR6H3B01WJ1FQ
942,0.0,right,right,1.0,1.0458,0.0,42.0,42.0,42.0,1.0,playground_229.jpg,playground_145.jpg,3.0,AR6H3B01WJ1FQ
943,0.0,left,right,0.0,0.9592,0.0,43.0,43.0,43.0,1.0,bridge_250.jpg,bridge_134.jpg,3.0,AR6H3B01WJ1FQ
944,0.0,left,right,0.0,1.138,0.0,44.0,44.0,44.0,1.0,highway_177.jpg,highway_87.jpg,3.0,AR6H3B01WJ1FQ
