,layer,correct,test_test_response.keys,test_test_response.corr,test_test_response.rt,trials_2.thisRepN,trials_2.thisTrialN,trials_2.thisN,trials_2.thisIndex,trials_2.ran,image1,image2,bar_2.response,subject
0,0.0,right,right,1.0,2.2992,0.0,0.0,0.0,0.0,1.0,golf_course_25.jpg,golf_course_195.jpg,4.0,A10HW8JXM17XLD
1,0.0,right,right,1.0,9.4982,0.0,1.0,1.0,1.0,1.0,mountain_94.jpg,mountain_123.jpg,3.0,A10HW8JXM17XLD
2,0.0,right,right,1.0,4.7772,0.0,2.0,2.0,2.0,1.0,highway_204.jpg,highway_394.jpg,7.0,A10HW8JXM17XLD
3,1.0,left,left,1.0,3.9577,0.0,3.0,3.0,3.0,1.0,badlands_184.jpg,badlands_103.jpg,8.0,A10HW8JXM17XLD
4,0.0,left,left,1.0,3.1291,0.0,4.0,4.0,4.0,1.0,highway_359.jpg,highway_389.jpg,7.0,A10HW8JXM17XLD
5,1.0,right,right,1.0,3.9654,0.0,5.0,5.0,5.0,1.0,bridge_82.jpg,bridge_91.jpg,6.0,A10HW8JXM17XLD
6,0.0,left,left,1.0,4.7339,0.0,6.0,6.0,6.0,1.0,badlands_24.jpg,badlands_3.jpg,4.0,A10HW8JXM17XLD
7,0.0,right,right,1.0,2.5411,0.0,7.0,7.0,7.0,1.0,playground_122.jpg,playground_10.jpg,7.0,A10HW8JXM17XLD
8,1.0,left,left,1.0,2.7534,0.0,8.0,8.0,8.0,1.0,badlands_52.jpg,badlands_63.jpg,7.0,A10HW8JXM17XLD
9,1.0,right,left,0.0,13.6019,0.0,9.0,9.0,9.0,1.0,badlands_207.jpg,badlands_221.jpg,5.0,A10HW8JXM17XLD
10,0.0,right,right,1.0,4.0008,0.0,10.0,10.0,10.0,1.0,badlands_102.jpg,badlands_70.jpg,4.0,A10HW8JXM17XLD
11,0.0,right,right,1.0,4.4472,0.0,11.0,11.0,11.0,1.0,playground_229.jpg,playground_145.jpg,7.0,A10HW8JXM17XLD
12,1.0,right,right,1.0,5.1245,0.0,12.0,12.0,12.0,1.0,mountain_138.jpg,mountain_57.jpg,6.0,A10HW8JXM17XLD
13,1.0,left,left,1.0,4.5731,0.0,13.0,13.0,13.0,1.0,bridge_128.jpg,bridge_244.jpg,6.0,A10HW8JXM17XLD
14,1.0,right,right,1.0,5.4493,0.0,14.0,14.0,14.0,1.0,badlands_62.jpg,badlands_222.jpg,8.0,A10HW8JXM17XLD
15,0.0,right,right,1.0,4.1326,0.0,15.0,15.0,15.0,1.0,highway_203.jpg,highway_294.jpg,8.0,A10HW8JXM17XLD
16,1.0,left,right,0.0,5.3372,0.0,16.0,16.0,16.0,1.0,playground_131.jpg,playground_164.jpg,8.0,A10HW8JXM17XLD
17,1.0,right,right,1.0,4.3187,0.0,17.0,17.0,17.0,1.0,golf_course_161.jpg,golf_course_87.jpg,8.0,A10HW8JXM17XLD
18,1.0,right,right,1.0,4.1577,0.0,18.0,18.0,18.0,1.0,golf_course_160.jpg,golf_course_188.jpg,7.0,A10HW8JXM17XLD
19,0.0,right,right,1.0,3.6974,0.0,19.0,19.0,19.0,1.0,badlands_225.jpg,badlands_113.jpg,7.0,A10HW8JXM17XLD
20,0.0,right,right,1.0,8.2917,0.0,20.0,20.0,20.0,1.0,bridge_27.jpg,bridge_146.jpg,6.0,A10HW8JXM17XLD
21,1.0,left,right,0.0,7.8254,0.0,21.0,21.0,21.0,1.0,highway_273.jpg,highway_171.jpg,8.0,A10HW8JXM17XLD
22,0.0,left,left,1.0,4.3573,0.0,22.0,22.0,22.0,1.0,mountain_293.jpg,mountain_72.jpg,7.0,A10HW8JXM17XLD
23,1.0,left,left,1.0,2.9384,0.0,23.0,23.0,23.0,1.0,playground_240.jpg,playground_40.jpg,6.0,A10HW8JXM17XLD
24,0.0,right,right,1.0,1.6049,0.0,24.0,24.0,24.0,1.0,mountain_128.jpg,mountain_156.jpg,8.0,A10HW8JXM17XLD
25,0.0,right,right,1.0,3.5786,0.0,25.0,25.0,25.0,1.0,bridge_54.jpg,bridge_256.jpg,4.0,A10HW8JXM17XLD
26,0.0,left,left,1.0,5.4741,0.0,26.0,26.0,26.0,1.0,playground_219.jpg,playground_21.jpg,7.0,A10HW8JXM17XLD
27,0.0,left,left,1.0,3.4024,0.0,27.0,27.0,27.0,1.0,bridge_202.jpg,bridge_31.jpg,5.0,A10HW8JXM17XLD
28,1.0,left,left,1.0,7.636,0.0,28.0,28.0,28.0,1.0,highway_93.jpg,highway_369.jpg,9.0,A10HW8JXM17XLD
29,0.0,left,left,1.0,3.8054,0.0,29.0,29.0,29.0,1.0,highway_156.jpg,highway_160.jpg,5.0,A10HW8JXM17XLD
30,0.0,left,left,1.0,3.2039,0.0,30.0,30.0,30.0,1.0,mountain_154.jpg,mountain_131.jpg,7.0,A10HW8JXM17XLD
31,0.0,right,right,1.0,3.9629,0.0,31.0,31.0,31.0,1.0,bridge_184.jpg,bridge_191.jpg,5.0,A10HW8JXM17XLD
32,1.0,left,left,1.0,4.2651,0.0,32.0,32.0,32.0,1.0,playground_60.jpg,playground_244.jpg,7.0,A10HW8JXM17XLD
33,1.0,left,left,1.0,2.7199,0.0,33.0,33.0,33.0,1.0,golf_course_193.jpg,golf_course_123.jpg,7.0,A10HW8JXM17XLD
34,1.0,left,left,1.0,2.5487,0.0,34.0,34.0,34.0,1.0,bridge_250.jpg,bridge_205.jpg,7.0,A10HW8JXM17XLD
35,0.0,left,left,1.0,3.2225,0.0,35.0,35.0,35.0,1.0,badlands_137.jpg,badlands_194.jpg,6.0,A10HW8JXM17XLD
36,1.0,right,left,0.0,10.4211,0.0,36.0,36.0,36.0,1.0,highway_278.jpg,highway_177.jpg,8.0,A10HW8JXM17XLD
37,0.0,left,left,1.0,5.7422,0.0,37.0,37.0,37.0,1.0,highway_245.jpg,highway_134.jpg,6.0,A10HW8JXM17XLD
38,1.0,left,right,0.0,5.8597,0.0,38.0,38.0,38.0,1.0,golf_course_214.jpg,golf_course_317.jpg,9.0,A10HW8JXM17XLD
39,0.0,right,right,1.0,5.6952,0.0,39.0,39.0,39.0,1.0,golf_course_113.jpg,golf_course_15.jpg,7.0,A10HW8JXM17XLD
40,1.0,left,left,1.0,4.0294,0.0,40.0,40.0,40.0,1.0,playground_76.jpg,playground_72.jpg,7.0,A10HW8JXM17XLD
41,0.0,left,left,1.0,3.4993,0.0,41.0,41.0,41.0,1.0,playground_257.jpg,playground_214.jpg,5.0,A10HW8JXM17XLD
42,1.0,right,left,0.0,5.1712,0.0,42.0,42.0,42.0,1.0,mountain_221.jpg,mountain_101.jpg,6.0,A10HW8JXM17XLD
43,0.0,left,left,1.0,2.6176,0.0,43.0,43.0,43.0,1.0,badlands_21.jpg,badlands_1.jpg,3.0,A10HW8JXM17XLD
44,1.0,right,right,1.0,2.4718,0.0,44.0,44.0,44.0,1.0,badlands_101.jpg,badlands_23.jpg,5.0,A10HW8JXM17XLD
45,1.0,right,left,0.0,9.6033,0.0,45.0,45.0,45.0,1.0,golf_course_101.jpg,golf_course_78.jpg,5.0,A10HW8JXM17XLD
46,0.0,right,right,1.0,6.6833,0.0,46.0,46.0,46.0,1.0,golf_course_16.jpg,golf_course_309.jpg,6.0,A10HW8JXM17XLD
47,1.0,right,right,1.0,6.8415,0.0,47.0,47.0,47.0,1.0,mountain_54.jpg,mountain_232.jpg,7.0,A10HW8JXM17XLD
48,1.0,right,right,1.0,1.9396,0.0,48.0,48.0,48.0,1.0,bridge_148.jpg,bridge_108.jpg,4.0,A10HW8JXM17XLD
49,0.0,right,right,1.0,2.45,0.0,49.0,49.0,49.0,1.0,golf_course_114.jpg,golf_course_331.jpg,5.0,A10HW8JXM17XLD
50,1.0,left,left,1.0,6.9389,0.0,50.0,50.0,50.0,1.0,mountain_230.jpg,mountain_97.jpg,4.0,A10HW8JXM17XLD
51,1.0,left,left,1.0,3.2718,0.0,51.0,51.0,51.0,1.0,playground_144.jpg,playground_65.jpg,5.0,A10HW8JXM17XLD
52,0.0,right,right,1.0,3.6981,0.0,52.0,52.0,52.0,1.0,bridge_181.jpg,bridge_65.jpg,6.0,A10HW8JXM17XLD
53,0.0,right,right,1.0,4.7175,0.0,53.0,53.0,53.0,1.0,mountain_244.jpg,mountain_222.jpg,5.0,A10HW8JXM17XLD
54,1.0,left,left,1.0,3.6438,0.0,54.0,54.0,54.0,1.0,highway_415.jpg,highway_174.jpg,9.0,A10HW8JXM17XLD
55,1.0,left,left,1.0,3.3629,0.0,55.0,55.0,55.0,1.0,bridge_172.jpg,bridge_163.jpg,4.0,A10HW8JXM17XLD
56,1.0,left,left,1.0,4.1133,0.0,56.0,56.0,56.0,1.0,mountain_110.jpg,mountain_223.jpg,6.0,A10HW8JXM17XLD
57,0.0,left,right,0.0,10.3268,0.0,57.0,57.0,57.0,1.0,golf_course_217.jpg,golf_course_35.jpg,5.0,A10HW8JXM17XLD
58,1.0,left,left,1.0,4.7326,0.0,58.0,58.0,58.0,1.0,highway_209.jpg,highway_122.jpg,8.0,A10HW8JXM17XLD
59,0.0,left,right,0.0,3.5245,0.0,59.0,59.0,59.0,1.0,playground_117.jpg,playground_167.jpg,8.0,A10HW8JXM17XLD
60,0.0,right,right,1.0,7.1074,0.0,0.0,0.0,0.0,1.0,golf_course_130.jpg,golf_course_87.jpg,7.0,A19AYB3M3IIP51
61,1.0,right,right,1.0,2.8933,0.0,1.0,1.0,1.0,1.0,bridge_75.jpg,bridge_191.jpg,8.0,A19AYB3M3IIP51
62,0.0,right,right,1.0,2.8745,0.0,2.0,2.0,2.0,1.0,highway_87.jpg,highway_177.jpg,7.0,A19AYB3M3IIP51
63,0.0,left,right,0.0,7.223,0.0,3.0,3.0,3.0,1.0,playground_145.jpg,playground_229.jpg,5.0,A19AYB3M3IIP51
64,0.0,left,left,1.0,1.9672,0.0,4.0,4.0,4.0,1.0,badlands_52.jpg,badlands_94.jpg,8.0,A19AYB3M3IIP51
65,1.0,right,right,1.0,4.3468,0.0,5.0,5.0,5.0,1.0,mountain_95.jpg,mountain_154.jpg,6.0,A19AYB3M3IIP51
66,1.0,right,left,0.0,2.8705,0.0,6.0,6.0,6.0,1.0,playground_244.jpg,playground_60.jpg,7.0,A19AYB3M3IIP51
67,0.0,right,left,0.0,7.9884,0.0,7.0,7.0,7.0,1.0,golf_course_113.jpg,golf_course_15.jpg,8.0,A19AYB3M3IIP51
68,1.0,left,right,0.0,34.6683,0.0,8.0,8.0,8.0,1.0,highway_359.jpg,highway_379.jpg,6.0,A19AYB3M3IIP51
69,1.0,left,right,0.0,3.3844,0.0,9.0,9.0,9.0,1.0,badlands_137.jpg,badlands_139.jpg,5.0,A19AYB3M3IIP51
70,0.0,left,left,1.0,3.124,0.0,10.0,10.0,10.0,1.0,mountain_101.jpg,mountain_171.jpg,6.0,A19AYB3M3IIP51
71,0.0,left,right,0.0,2.6471,0.0,11.0,11.0,11.0,1.0,bridge_250.jpg,bridge_134.jpg,7.0,A19AYB3M3IIP51
72,0.0,right,right,1.0,5.4567,0.0,12.0,12.0,12.0,1.0,playground_122.jpg,playground_10.jpg,4.0,A19AYB3M3IIP51
73,0.0,left,left,1.0,2.5138,0.0,13.0,13.0,13.0,1.0,bridge_256.jpg,bridge_54.jpg,7.0,A19AYB3M3IIP51
74,0.0,left,left,1.0,1.725,0.0,14.0,14.0,14.0,1.0,highway_209.jpg,highway_314.jpg,6.0,A19AYB3M3IIP51
75,1.0,right,right,1.0,2.4581,0.0,15.0,15.0,15.0,1.0,mountain_97.jpg,mountain_230.jpg,4.0,A19AYB3M3IIP51
76,1.0,right,left,0.0,2.2332,0.0,16.0,16.0,16.0,1.0,highway_293.jpg,highway_156.jpg,3.0,A19AYB3M3IIP51
77,0.0,right,left,0.0,2.1778,0.0,17.0,17.0,17.0,1.0,badlands_228.jpg,badlands_184.jpg,6.0,A19AYB3M3IIP51
78,1.0,left,right,0.0,5.2975,0.0,18.0,18.0,18.0,1.0,bridge_108.jpg,bridge_148.jpg,6.0,A19AYB3M3IIP51
79,0.0,right,right,1.0,2.6236,0.0,19.0,19.0,19.0,1.0,mountain_3.jpg,mountain_232.jpg,4.0,A19AYB3M3IIP51
80,0.0,right,right,1.0,2.6169,0.0,20.0,20.0,20.0,1.0,badlands_34.jpg,badlands_222.jpg,7.0,A19AYB3M3IIP51
81,0.0,left,left,1.0,2.8465,0.0,21.0,21.0,21.0,1.0,highway_245.jpg,highway_134.jpg,5.0,A19AYB3M3IIP51
82,1.0,left,left,1.0,3.8963,0.0,22.0,22.0,22.0,1.0,golf_course_309.jpg,golf_course_209.jpg,6.0,A19AYB3M3IIP51
83,1.0,right,right,1.0,1.4384,0.0,23.0,23.0,23.0,1.0,bridge_163.jpg,bridge_172.jpg,8.0,A19AYB3M3IIP51
84,0.0,left,right,0.0,3.5279,0.0,24.0,24.0,24.0,1.0,highway_415.jpg,highway_60.jpg,6.0,A19AYB3M3IIP51
85,1.0,right,right,1.0,2.222,0.0,25.0,25.0,25.0,1.0,badlands_101.jpg,badlands_23.jpg,7.0,A19AYB3M3IIP51
86,0.0,left,left,1.0,1.8107,0.0,26.0,26.0,26.0,1.0,playground_240.jpg,playground_2.jpg,8.0,A19AYB3M3IIP51
87,1.0,right,right,1.0,3.1876,0.0,27.0,27.0,27.0,1.0,golf_course_2.jpg,golf_course_195.jpg,5.0,A19AYB3M3IIP51
88,1.0,right,left,0.0,1.894,0.0,28.0,28.0,28.0,1.0,badlands_203.jpg,badlands_113.jpg,6.0,A19AYB3M3IIP51
89,1.0,left,right,0.0,5.8146,0.0,29.0,29.0,29.0,1.0,highway_93.jpg,highway_369.jpg,4.0,A19AYB3M3IIP51
90,0.0,right,right,1.0,7.0229,0.0,30.0,30.0,30.0,1.0,bridge_181.jpg,bridge_65.jpg,5.0,A19AYB3M3IIP51
91,1.0,right,right,1.0,8.4383,0.0,31.0,31.0,31.0,1.0,playground_205.jpg,playground_219.jpg,7.0,A19AYB3M3IIP51
92,1.0,left,left,1.0,1.9432,0.0,32.0,32.0,32.0,1.0,playground_131.jpg,playground_164.jpg,8.0,A19AYB3M3IIP51
93,1.0,right,left,0.0,5.1849,0.0,33.0,33.0,33.0,1.0,playground_65.jpg,playground_144.jpg,4.0,A19AYB3M3IIP51
94,1.0,left,left,1.0,1.8792,0.0,34.0,34.0,34.0,1.0,highway_394.jpg,highway_406.jpg,6.0,A19AYB3M3IIP51
95,0.0,right,right,1.0,34.1613,0.0,35.0,35.0,35.0,1.0,badlands_115.jpg,badlands_221.jpg,5.0,A19AYB3M3IIP51
96,0.0,right,right,1.0,4.1826,0.0,36.0,36.0,36.0,1.0,playground_214.jpg,playground_257.jpg,5.0,A19AYB3M3IIP51
97,1.0,right,right,1.0,2.5681,0.0,37.0,37.0,37.0,1.0,highway_171.jpg,highway_273.jpg,7.0,A19AYB3M3IIP51
98,1.0,left,left,1.0,2.205,0.0,38.0,38.0,38.0,1.0,golf_course_193.jpg,golf_course_123.jpg,6.0,A19AYB3M3IIP51
99,0.0,right,left,0.0,3.7382,0.0,39.0,39.0,39.0,1.0,playground_22.jpg,playground_76.jpg,5.0,A19AYB3M3IIP51
100,0.0,right,left,0.0,4.9576,0.0,40.0,40.0,40.0,1.0,golf_course_134.jpg,golf_course_78.jpg,6.0,A19AYB3M3IIP51
101,1.0,left,left,1.0,1.6736,0.0,41.0,41.0,41.0,1.0,badlands_21.jpg,badlands_98.jpg,7.0,A19AYB3M3IIP51
102,1.0,left,left,1.0,2.4266,0.0,42.0,42.0,42.0,1.0,bridge_128.jpg,bridge_244.jpg,8.0,A19AYB3M3IIP51
103,1.0,right,right,1.0,2.5631,0.0,43.0,43.0,43.0,1.0,mountain_223.jpg,mountain_110.jpg,7.0,A19AYB3M3IIP51
104,0.0,left,left,1.0,4.4399,0.0,44.0,44.0,44.0,1.0,bridge_91.jpg,bridge_253.jpg,2.0,A19AYB3M3IIP51
105,0.0,right,right,1.0,1.6169,0.0,45.0,45.0,45.0,1.0,mountain_94.jpg,mountain_123.jpg,6.0,A19AYB3M3IIP51
106,0.0,right,right,1.0,21.2592,0.0,46.0,46.0,46.0,1.0,bridge_27.jpg,bridge_146.jpg,5.0,A19AYB3M3IIP51
107,0.0,right,right,1.0,3.051,0.0,47.0,47.0,47.0,1.0,mountain_244.jpg,mountain_222.jpg,4.0,A19AYB3M3IIP51
108,1.0,left,left,1.0,2.5901,0.0,48.0,48.0,48.0,1.0,mountain_57.jpg,mountain_138.jpg,6.0,A19AYB3M3IIP51
109,0.0,left,left,1.0,2.9028,0.0,49.0,49.0,49.0,1.0,golf_course_188.jpg,golf_course_157.jpg,6.0,A19AYB3M3IIP51
110,0.0,right,right,1.0,7.5407,0.0,50.0,50.0,50.0,1.0,golf_course_114.jpg,golf_course_331.jpg,7.0,A19AYB3M3IIP51
111,1.0,left,left,1.0,4.8727,0.0,51.0,51.0,51.0,1.0,bridge_202.jpg,bridge_38.jpg,4.0,A19AYB3M3IIP51
112,1.0,left,left,1.0,1.8385,0.0,52.0,52.0,52.0,1.0,golf_course_214.jpg,golf_course_317.jpg,6.0,A19AYB3M3IIP51
113,0.0,left,right,0.0,2.0469,0.0,53.0,53.0,53.0,1.0,highway_294.jpg,highway_203.jpg,7.0,A19AYB3M3IIP51
114,0.0,right,right,1.0,1.4993,0.0,54.0,54.0,54.0,1.0,badlands_102.jpg,badlands_70.jpg,6.0,A19AYB3M3IIP51
115,1.0,right,right,1.0,3.1172,0.0,55.0,55.0,55.0,1.0,playground_127.jpg,playground_117.jpg,5.0,A19AYB3M3IIP51
116,1.0,right,right,1.0,1.8247,0.0,56.0,56.0,56.0,1.0,golf_course_262.jpg,golf_course_217.jpg,7.0,A19AYB3M3IIP51
117,1.0,right,right,1.0,3.2756,0.0,57.0,57.0,57.0,1.0,badlands_53.jpg,badlands_24.jpg,5.0,A19AYB3M3IIP51
118,0.0,left,left,1.0,2.2732,0.0,58.0,58.0,58.0,1.0,mountain_156.jpg,mountain_128.jpg,6.0,A19AYB3M3IIP51
119,1.0,left,right,0.0,1.4993,0.0,59.0,59.0,59.0,1.0,mountain_293.jpg,mountain_47.jpg,7.0,A19AYB3M3IIP51
120,1.0,left,right,0.0,4.9707,0.0,0.0,0.0,0.0,1.0,bridge_65.jpg,bridge_60.jpg,7.0,A19PB6VUP0RAC3
121,1.0,right,left,0.0,3.2804,0.0,1.0,1.0,1.0,1.0,mountain_223.jpg,mountain_110.jpg,6.0,A19PB6VUP0RAC3
122,1.0,right,right,1.0,3.1885,0.0,2.0,2.0,2.0,1.0,golf_course_161.jpg,golf_course_87.jpg,8.0,A19PB6VUP0RAC3
123,1.0,left,left,1.0,3.3651,0.0,3.0,3.0,3.0,1.0,highway_394.jpg,highway_406.jpg,6.0,A19PB6VUP0RAC3
124,0.0,left,left,1.0,3.1,0.0,4.0,4.0,4.0,1.0,golf_course_217.jpg,golf_course_35.jpg,8.0,A19PB6VUP0RAC3
125,0.0,left,left,1.0,2.7194,0.0,5.0,5.0,5.0,1.0,badlands_21.jpg,badlands_1.jpg,7.0,A19PB6VUP0RAC3
126,0.0,left,left,1.0,2.1082,0.0,6.0,6.0,6.0,1.0,mountain_230.jpg,mountain_184.jpg,6.0,A19PB6VUP0RAC3
127,0.0,right,right,1.0,4.134,0.0,7.0,7.0,7.0,1.0,playground_214.jpg,playground_257.jpg,8.0,A19PB6VUP0RAC3
128,0.0,left,left,1.0,3.1028,0.0,8.0,8.0,8.0,1.0,bridge_172.jpg,bridge_17.jpg,8.0,A19PB6VUP0RAC3
129,1.0,right,left,0.0,4.7583,0.0,9.0,9.0,9.0,1.0,bridge_148.jpg,bridge_108.jpg,4.0,A19PB6VUP0RAC3
130,0.0,left,right,0.0,7.7515,0.0,10.0,10.0,10.0,1.0,badlands_184.jpg,badlands_228.jpg,5.0,A19PB6VUP0RAC3
131,1.0,left,right,0.0,6.8982,0.0,11.0,11.0,11.0,1.0,golf_course_195.jpg,golf_course_2.jpg,7.0,A19PB6VUP0RAC3
132,0.0,right,right,1.0,2.5147,0.0,12.0,12.0,12.0,1.0,bridge_253.jpg,bridge_91.jpg,8.0,A19PB6VUP0RAC3
133,0.0,right,left,0.0,5.3654,0.0,13.0,13.0,13.0,1.0,highway_203.jpg,highway_294.jpg,8.0,A19PB6VUP0RAC3
134,1.0,left,left,1.0,7.3914,0.0,14.0,14.0,14.0,1.0,playground_117.jpg,playground_127.jpg,8.0,A19PB6VUP0RAC3
135,0.0,left,right,0.0,9.2673,0.0,15.0,15.0,15.0,1.0,mountain_154.jpg,mountain_131.jpg,6.0,A19PB6VUP0RAC3
136,0.0,left,left,1.0,2.3388,0.0,16.0,16.0,16.0,1.0,badlands_70.jpg,badlands_102.jpg,3.0,A19PB6VUP0RAC3
137,1.0,left,left,1.0,4.0421,0.0,17.0,17.0,17.0,1.0,mountain_57.jpg,mountain_138.jpg,3.0,A19PB6VUP0RAC3
138,1.0,left,right,0.0,2.1179,0.0,18.0,18.0,18.0,1.0,golf_course_193.jpg,golf_course_123.jpg,8.0,A19PB6VUP0RAC3
139,0.0,right,right,1.0,2.1291,0.0,19.0,19.0,19.0,1.0,highway_85.jpg,highway_93.jpg,8.0,A19PB6VUP0RAC3
140,0.0,right,left,0.0,2.3442,0.0,20.0,20.0,20.0,1.0,bridge_27.jpg,bridge_146.jpg,8.0,A19PB6VUP0RAC3
141,0.0,right,left,0.0,2.3982,0.0,21.0,21.0,21.0,1.0,bridge_184.jpg,bridge_191.jpg,4.0,A19PB6VUP0RAC3
142,1.0,right,right,1.0,3.5057,0.0,22.0,22.0,22.0,1.0,highway_278.jpg,highway_177.jpg,6.0,A19PB6VUP0RAC3
143,1.0,right,left,0.0,4.6707,0.0,23.0,23.0,23.0,1.0,highway_293.jpg,highway_156.jpg,6.0,A19PB6VUP0RAC3
144,1.0,left,left,1.0,2.6578,0.0,24.0,24.0,24.0,1.0,badlands_222.jpg,badlands_62.jpg,6.0,A19PB6VUP0RAC3
145,0.0,left,right,0.0,2.7062,0.0,25.0,25.0,25.0,1.0,golf_course_15.jpg,golf_course_113.jpg,6.0,A19PB6VUP0RAC3
146,1.0,right,right,1.0,2.1817,0.0,26.0,26.0,26.0,1.0,highway_379.jpg,highway_359.jpg,7.0,A19PB6VUP0RAC3
147,1.0,right,left,0.0,3.7266,0.0,27.0,27.0,27.0,1.0,playground_12.jpg,playground_10.jpg,7.0,A19PB6VUP0RAC3
148,1.0,right,right,1.0,4.5636,0.0,28.0,28.0,28.0,1.0,badlands_53.jpg,badlands_24.jpg,7.0,A19PB6VUP0RAC3
149,0.0,left,right,0.0,3.2033,0.0,29.0,29.0,29.0,1.0,mountain_293.jpg,mountain_72.jpg,7.0,A19PB6VUP0RAC3
150,0.0,right,right,1.0,18.9659,0.0,30.0,30.0,30.0,1.0,highway_314.jpg,highway_209.jpg,7.0,A19PB6VUP0RAC3
151,0.0,left,left,1.0,5.5377,0.0,31.0,31.0,31.0,1.0,mountain_232.jpg,mountain_3.jpg,8.0,A19PB6VUP0RAC3
152,0.0,left,left,1.0,4.1469,0.0,32.0,32.0,32.0,1.0,playground_76.jpg,playground_22.jpg,8.0,A19PB6VUP0RAC3
153,1.0,right,right,1.0,4.2166,0.0,33.0,33.0,33.0,1.0,bridge_38.jpg,bridge_202.jpg,8.0,A19PB6VUP0RAC3
154,0.0,right,right,1.0,5.0337,0.0,34.0,34.0,34.0,1.0,badlands_115.jpg,badlands_221.jpg,5.0,A19PB6VUP0RAC3
155,1.0,left,left,1.0,3.7852,0.0,35.0,35.0,35.0,1.0,badlands_137.jpg,badlands_139.jpg,8.0,A19PB6VUP0RAC3
156,1.0,left,left,1.0,2.1523,0.0,36.0,36.0,36.0,1.0,golf_course_331.jpg,golf_course_26.jpg,8.0,A19PB6VUP0RAC3
157,0.0,left,left,1.0,2.3885,0.0,37.0,37.0,37.0,1.0,bridge_250.jpg,bridge_134.jpg,6.0,A19PB6VUP0RAC3
158,1.0,left,left,1.0,1.4726,0.0,38.0,38.0,38.0,1.0,playground_131.jpg,playground_164.jpg,8.0,A19PB6VUP0RAC3
159,1.0,left,left,1.0,2.1466,0.0,39.0,39.0,39.0,1.0,mountain_222.jpg,mountain_93.jpg,6.0,A19PB6VUP0RAC3
160,0.0,right,right,1.0,1.4707,0.0,40.0,40.0,40.0,1.0,highway_60.jpg,highway_415.jpg,8.0,A19PB6VUP0RAC3
161,0.0,right,right,1.0,1.5296,0.0,41.0,41.0,41.0,1.0,badlands_114.jpg,badlands_23.jpg,6.0,A19PB6VUP0RAC3
162,0.0,left,right,0.0,1.53,0.0,42.0,42.0,42.0,1.0,golf_course_309.jpg,golf_course_16.jpg,8.0,A19PB6VUP0RAC3
163,0.0,right,right,1.0,1.3574,0.0,43.0,43.0,43.0,1.0,playground_21.jpg,playground_219.jpg,7.0,A19PB6VUP0RAC3
164,0.0,left,left,1.0,3.0308,0.0,44.0,44.0,44.0,1.0,mountain_123.jpg,mountain_94.jpg,3.0,A19PB6VUP0RAC3
165,0.0,right,left,0.0,2.0913,0.0,45.0,45.0,45.0,1.0,playground_268.jpg,playground_60.jpg,6.0,A19PB6VUP0RAC3
166,1.0,left,right,0.0,1.8147,0.0,46.0,46.0,46.0,1.0,golf_course_78.jpg,golf_course_101.jpg,8.0,A19PB6VUP0RAC3
167,0.0,right,right,1.0,1.1741,0.0,47.0,47.0,47.0,1.0,playground_137.jpg,playground_144.jpg,8.0,A19PB6VUP0RAC3
168,0.0,right,right,1.0,3.709,0.0,48.0,48.0,48.0,1.0,golf_course_157.jpg,golf_course_188.jpg,8.0,A19PB6VUP0RAC3
169,0.0,left,right,0.0,2.373,0.0,49.0,49.0,49.0,1.0,highway_245.jpg,highway_134.jpg,8.0,A19PB6VUP0RAC3
170,1.0,right,left,0.0,1.52,0.0,50.0,50.0,50.0,1.0,bridge_244.jpg,bridge_128.jpg,4.0,A19PB6VUP0RAC3
171,1.0,left,right,0.0,1.6245,0.0,51.0,51.0,51.0,1.0,playground_145.jpg,playground_242.jpg,7.0,A19PB6VUP0RAC3
172,1.0,left,right,0.0,2.7309,0.0,52.0,52.0,52.0,1.0,badlands_113.jpg,badlands_203.jpg,8.0,A19PB6VUP0RAC3
173,1.0,right,right,1.0,2.2938,0.0,53.0,53.0,53.0,1.0,playground_40.jpg,playground_240.jpg,6.0,A19PB6VUP0RAC3
174,1.0,right,right,1.0,1.8954,0.0,54.0,54.0,54.0,1.0,mountain_295.jpg,mountain_156.jpg,8.0,A19PB6VUP0RAC3
175,1.0,right,right,1.0,3.359,0.0,55.0,55.0,55.0,1.0,highway_171.jpg,highway_273.jpg,4.0,A19PB6VUP0RAC3
176,1.0,right,right,1.0,8.3335,0.0,56.0,56.0,56.0,1.0,badlands_63.jpg,badlands_52.jpg,8.0,A19PB6VUP0RAC3
177,1.0,left,left,1.0,5.3616,0.0,57.0,57.0,57.0,1.0,bridge_256.jpg,bridge_211.jpg,5.0,A19PB6VUP0RAC3
178,0.0,left,right,0.0,1.7611,0.0,58.0,58.0,58.0,1.0,golf_course_214.jpg,golf_course_312.jpg,8.0,A19PB6VUP0RAC3
179,1.0,right,right,1.0,2.0979,0.0,59.0,59.0,59.0,1.0,mountain_221.jpg,mountain_101.jpg,7.0,A19PB6VUP0RAC3
180,1.0,right,right,1.0,3.1953,0.0,0.0,0.0,0.0,1.0,playground_72.jpg,playground_76.jpg,8.0,A1ABRVTR49OA73
181,0.0,right,right,1.0,1.6617,0.0,1.0,1.0,1.0,1.0,golf_course_16.jpg,golf_course_309.jpg,7.0,A1ABRVTR49OA73
182,1.0,left,right,0.0,1.9623,0.0,2.0,2.0,2.0,1.0,playground_60.jpg,playground_244.jpg,8.0,A1ABRVTR49OA73
183,0.0,right,left,0.0,1.822,0.0,3.0,3.0,3.0,1.0,bridge_17.jpg,bridge_172.jpg,7.0,A1ABRVTR49OA73
184,1.0,right,right,1.0,2.009,0.0,4.0,4.0,4.0,1.0,mountain_54.jpg,mountain_232.jpg,8.0,A1ABRVTR49OA73
185,0.0,left,left,1.0,1.2859,0.0,5.0,5.0,5.0,1.0,golf_course_217.jpg,golf_course_35.jpg,7.0,A1ABRVTR49OA73
186,0.0,right,right,1.0,1.2249,0.0,6.0,6.0,6.0,1.0,highway_85.jpg,highway_93.jpg,7.0,A1ABRVTR49OA73
187,1.0,left,left,1.0,1.2745,0.0,7.0,7.0,7.0,1.0,mountain_101.jpg,mountain_221.jpg,8.0,A1ABRVTR49OA73
188,1.0,right,right,1.0,2.4379,0.0,8.0,8.0,8.0,1.0,bridge_148.jpg,bridge_108.jpg,8.0,A1ABRVTR49OA73
189,0.0,left,left,1.0,2.2877,0.0,9.0,9.0,9.0,1.0,highway_209.jpg,highway_314.jpg,6.0,A1ABRVTR49OA73
190,0.0,right,right,1.0,1.9546,0.0,10.0,10.0,10.0,1.0,playground_167.jpg,playground_117.jpg,8.0,A1ABRVTR49OA73
191,1.0,right,left,0.0,1.7969,0.0,11.0,11.0,11.0,1.0,bridge_38.jpg,bridge_202.jpg,9.0,A1ABRVTR49OA73
192,0.0,right,right,1.0,2.379,0.0,12.0,12.0,12.0,1.0,badlands_102.jpg,badlands_70.jpg,5.0,A1ABRVTR49OA73
193,1.0,left,left,1.0,1.199,0.0,13.0,13.0,13.0,1.0,mountain_293.jpg,mountain_47.jpg,8.0,A1ABRVTR49OA73
194,1.0,right,right,1.0,1.1846,0.0,14.0,14.0,14.0,1.0,bridge_244.jpg,bridge_128.jpg,7.0,A1ABRVTR49OA73
195,1.0,right,left,0.0,1.1072,0.0,15.0,15.0,15.0,1.0,highway_293.jpg,highway_156.jpg,9.0,A1ABRVTR49OA73
196,1.0,right,right,1.0,1.4136,0.0,16.0,16.0,16.0,1.0,playground_40.jpg,playground_240.jpg,8.0,A1ABRVTR49OA73
197,1.0,left,left,1.0,1.1462,0.0,17.0,17.0,17.0,1.0,golf_course_193.jpg,golf_course_123.jpg,8.0,A1ABRVTR49OA73
198,0.0,right,right,1.0,1.4019,0.0,18.0,18.0,18.0,1.0,playground_137.jpg,playground_144.jpg,7.0,A1ABRVTR49OA73
199,0.0,right,left,0.0,0.973,0.0,19.0,19.0,19.0,1.0,playground_214.jpg,playground_257.jpg,7.0,A1ABRVTR49OA73
200,0.0,right,right,1.0,1.0971,0.0,20.0,20.0,20.0,1.0,mountain_157.jpg,mountain_110.jpg,8.0,A1ABRVTR49OA73
201,1.0,left,left,1.0,1.0941,0.0,21.0,21.0,21.0,1.0,badlands_23.jpg,badlands_101.jpg,7.0,A1ABRVTR49OA73
202,1.0,left,right,0.0,1.3773,0.0,22.0,22.0,22.0,1.0,highway_273.jpg,highway_171.jpg,8.0,A1ABRVTR49OA73
203,1.0,left,left,1.0,1.9892,0.0,23.0,23.0,23.0,1.0,bridge_250.jpg,bridge_205.jpg,6.0,A1ABRVTR49OA73
204,0.0,right,right,1.0,1.0832,0.0,24.0,24.0,24.0,1.0,highway_204.jpg,highway_394.jpg,8.0,A1ABRVTR49OA73
205,1.0,right,left,0.0,1.0309,0.0,25.0,25.0,25.0,1.0,badlands_103.jpg,badlands_184.jpg,7.0,A1ABRVTR49OA73
206,1.0,right,right,1.0,1.3112,0.0,26.0,26.0,26.0,1.0,highway_368.jpg,highway_294.jpg,8.0,A1ABRVTR49OA73
207,0.0,left,left,1.0,1.4095,0.0,27.0,27.0,27.0,1.0,bridge_191.jpg,bridge_184.jpg,9.0,A1ABRVTR49OA73
208,1.0,left,right,0.0,1.5064,0.0,28.0,28.0,28.0,1.0,golf_course_214.jpg,golf_course_317.jpg,8.0,A1ABRVTR49OA73
209,0.0,left,left,1.0,0.9938,0.0,29.0,29.0,29.0,1.0,badlands_52.jpg,badlands_94.jpg,7.0,A1ABRVTR49OA73
210,0.0,left,left,1.0,1.3794,0.0,30.0,30.0,30.0,1.0,mountain_123.jpg,mountain_94.jpg,8.0,A1ABRVTR49OA73
211,1.0,left,right,0.0,1.0931,0.0,31.0,31.0,31.0,1.0,badlands_221.jpg,badlands_207.jpg,8.0,A1ABRVTR49OA73
212,0.0,left,left,1.0,1.1394,0.0,32.0,32.0,32.0,1.0,golf_course_331.jpg,golf_course_114.jpg,7.0,A1ABRVTR49OA73
213,0.0,right,right,1.0,1.1487,0.0,33.0,33.0,33.0,1.0,golf_course_25.jpg,golf_course_195.jpg,8.0,A1ABRVTR49OA73
214,0.0,left,left,1.0,1.2172,0.0,34.0,34.0,34.0,1.0,playground_145.jpg,playground_229.jpg,7.0,A1ABRVTR49OA73
215,0.0,right,right,1.0,1.1036,0.0,35.0,35.0,35.0,1.0,golf_course_157.jpg,golf_course_188.jpg,8.0,A1ABRVTR49OA73
216,0.0,left,left,1.0,1.068,0.0,36.0,36.0,36.0,1.0,badlands_137.jpg,badlands_194.jpg,8.0,A1ABRVTR49OA73
217,0.0,left,right,0.0,0.7704,0.0,37.0,37.0,37.0,1.0,bridge_256.jpg,bridge_54.jpg,8.0,A1ABRVTR49OA73
218,0.0,left,left,1.0,1.0605,0.0,38.0,38.0,38.0,1.0,highway_415.jpg,highway_60.jpg,7.0,A1ABRVTR49OA73
219,0.0,left,right,0.0,1.0892,0.0,39.0,39.0,39.0,1.0,highway_245.jpg,highway_134.jpg,8.0,A1ABRVTR49OA73
220,0.0,right,right,1.0,1.3886,0.0,40.0,40.0,40.0,1.0,badlands_3.jpg,badlands_24.jpg,8.0,A1ABRVTR49OA73
221,1.0,left,left,1.0,1.0904,0.0,41.0,41.0,41.0,1.0,playground_131.jpg,playground_164.jpg,8.0,A1ABRVTR49OA73
222,1.0,right,left,0.0,1.1134,0.0,42.0,42.0,42.0,1.0,badlands_203.jpg,badlands_113.jpg,7.0,A1ABRVTR49OA73
223,1.0,right,right,1.0,76.3472,0.0,43.0,43.0,43.0,1.0,golf_course_101.jpg,golf_course_78.jpg,8.0,A1ABRVTR49OA73
224,1.0,right,left,0.0,2.6023,0.0,44.0,44.0,44.0,1.0,mountain_93.jpg,mountain_222.jpg,7.0,A1ABRVTR49OA73
225,1.0,left,right,0.0,1.0734,0.0,45.0,45.0,45.0,1.0,playground_219.jpg,playground_205.jpg,8.0,A1ABRVTR49OA73
226,1.0,left,left,1.0,1.1038,0.0,46.0,46.0,46.0,1.0,highway_177.jpg,highway_278.jpg,8.0,A1ABRVTR49OA73
227,1.0,right,right,1.0,0.9998,0.0,47.0,47.0,47.0,1.0,highway_379.jpg,highway_359.jpg,8.0,A1ABRVTR49OA73
228,0.0,right,left,0.0,0.9641,0.0,48.0,48.0,48.0,1.0,badlands_1.jpg,badlands_21.jpg,8.0,A1ABRVTR49OA73
229,0.0,left,right,0.0,1.2329,0.0,49.0,49.0,49.0,1.0,bridge_146.jpg,bridge_27.jpg,7.0,A1ABRVTR49OA73
230,0.0,right,right,1.0,1.0774,0.0,50.0,50.0,50.0,1.0,playground_122.jpg,playground_10.jpg,6.0,A1ABRVTR49OA73
231,1.0,left,right,0.0,0.9859,0.0,51.0,51.0,51.0,1.0,golf_course_15.jpg,golf_course_97.jpg,8.0,A1ABRVTR49OA73
232,1.0,right,right,1.0,0.9531,0.0,52.0,52.0,52.0,1.0,bridge_60.jpg,bridge_65.jpg,7.0,A1ABRVTR49OA73
233,0.0,right,left,0.0,1.1343,0.0,53.0,53.0,53.0,1.0,bridge_253.jpg,bridge_91.jpg,7.0,A1ABRVTR49OA73
234,0.0,right,right,1.0,0.9601,0.0,54.0,54.0,54.0,1.0,mountain_193.jpg,mountain_57.jpg,6.0,A1ABRVTR49OA73
235,0.0,right,right,1.0,1.427,0.0,55.0,55.0,55.0,1.0,mountain_128.jpg,mountain_156.jpg,7.0,A1ABRVTR49OA73
236,0.0,left,right,0.0,1.2749,0.0,56.0,56.0,56.0,1.0,mountain_230.jpg,mountain_184.jpg,7.0,A1ABRVTR49OA73
237,1.0,left,right,0.0,1.5588,0.0,57.0,57.0,57.0,1.0,golf_course_87.jpg,golf_course_161.jpg,8.0,A1ABRVTR49OA73
238,1.0,right,left,0.0,0.8648,0.0,58.0,58.0,58.0,1.0,mountain_95.jpg,mountain_154.jpg,7.0,A1ABRVTR49OA73
239,1.0,left,right,0.0,1.1301,0.0,59.0,59.0,59.0,1.0,badlands_222.jpg,badlands_62.jpg,8.0,A1ABRVTR49OA73
240,0.0,left,left,1.0,2.6358,0.0,0.0,0.0,0.0,1.0,playground_76.jpg,playground_22.jpg,7.0,A1AMGHYG5PT0L2
241,1.0,right,right,1.0,1.505,0.0,1.0,1.0,1.0,1.0,badlands_98.jpg,badlands_21.jpg,7.0,A1AMGHYG5PT0L2
242,0.0,left,left,1.0,1.7537,0.0,2.0,2.0,2.0,1.0,playground_257.jpg,playground_214.jpg,3.0,A1AMGHYG5PT0L2
243,0.0,left,right,0.0,1.5382,0.0,3.0,3.0,3.0,1.0,playground_219.jpg,playground_21.jpg,5.0,A1AMGHYG5PT0L2
244,1.0,left,right,0.0,2.1202,0.0,4.0,4.0,4.0,1.0,bridge_108.jpg,bridge_148.jpg,4.0,A1AMGHYG5PT0L2
245,1.0,right,left,0.0,2.2654,0.0,5.0,5.0,5.0,1.0,playground_244.jpg,playground_60.jpg,6.0,A1AMGHYG5PT0L2
246,0.0,right,right,1.0,1.2447,0.0,6.0,6.0,6.0,1.0,bridge_181.jpg,bridge_65.jpg,5.0,A1AMGHYG5PT0L2
247,0.0,right,left,0.0,1.7292,0.0,7.0,7.0,7.0,1.0,badlands_34.jpg,badlands_222.jpg,6.0,A1AMGHYG5PT0L2
248,0.0,right,right,1.0,2.2654,0.0,8.0,8.0,8.0,1.0,golf_course_130.jpg,golf_course_87.jpg,4.0,A1AMGHYG5PT0L2
249,0.0,left,left,1.0,2595.7143,0.0,9.0,9.0,9.0,1.0,playground_144.jpg,playground_137.jpg,2.0,A1AMGHYG5PT0L2
250,0.0,right,right,1.0,1.4375,0.0,10.0,10.0,10.0,1.0,bridge_61.jpg,bridge_128.jpg,1.0,A1AMGHYG5PT0L2
251,1.0,right,right,1.0,1.6508,0.0,11.0,11.0,11.0,1.0,bridge_163.jpg,bridge_172.jpg,4.0,A1AMGHYG5PT0L2
252,0.0,right,right,1.0,1.7218,0.0,12.0,12.0,12.0,1.0,badlands_94.jpg,badlands_52.jpg,4.0,A1AMGHYG5PT0L2
253,0.0,right,left,0.0,1.1397,0.0,13.0,13.0,13.0,1.0,bridge_134.jpg,bridge_250.jpg,3.0,A1AMGHYG5PT0L2
254,0.0,left,left,1.0,1.0723,0.0,14.0,14.0,14.0,1.0,golf_course_214.jpg,golf_course_312.jpg,2.0,A1AMGHYG5PT0L2
255,0.0,right,right,1.0,1.5884,0.0,15.0,15.0,15.0,1.0,mountain_157.jpg,mountain_110.jpg,5.0,A1AMGHYG5PT0L2
256,1.0,right,left,0.0,2.4875,0.0,16.0,16.0,16.0,1.0,playground_164.jpg,playground_131.jpg,4.0,A1AMGHYG5PT0L2
257,1.0,right,right,1.0,1.5732,0.0,17.0,17.0,17.0,1.0,bridge_121.jpg,bridge_146.jpg,3.0,A1AMGHYG5PT0L2
258,1.0,left,left,1.0,1.3407,0.0,18.0,18.0,18.0,1.0,golf_course_193.jpg,golf_course_123.jpg,3.0,A1AMGHYG5PT0L2
259,1.0,right,left,0.0,2.6289,0.0,19.0,19.0,19.0,1.0,highway_174.jpg,highway_415.jpg,6.0,A1AMGHYG5PT0L2
260,0.0,left,left,1.0,1.9623,0.0,20.0,20.0,20.0,1.0,mountain_222.jpg,mountain_244.jpg,5.0,A1AMGHYG5PT0L2
261,1.0,left,right,0.0,1.1529,0.0,21.0,21.0,21.0,1.0,mountain_293.jpg,mountain_47.jpg,3.0,A1AMGHYG5PT0L2
262,1.0,right,right,1.0,4.9112,0.0,22.0,22.0,22.0,1.0,mountain_97.jpg,mountain_230.jpg,5.0,A1AMGHYG5PT0L2
263,1.0,right,right,1.0,1.4558,0.0,23.0,23.0,23.0,1.0,highway_379.jpg,highway_359.jpg,6.0,A1AMGHYG5PT0L2
264,1.0,left,left,1.0,28.6319,0.0,24.0,24.0,24.0,1.0,highway_273.jpg,highway_171.jpg,4.0,A1AMGHYG5PT0L2
265,1.0,left,right,0.0,1.2199,0.0,25.0,25.0,25.0,1.0,badlands_24.jpg,badlands_53.jpg,5.0,A1AMGHYG5PT0L2
266,0.0,right,left,0.0,1.5259,0.0,26.0,26.0,26.0,1.0,mountain_193.jpg,mountain_57.jpg,6.0,A1AMGHYG5PT0L2
267,1.0,left,left,1.0,1.2572,0.0,27.0,27.0,27.0,1.0,badlands_23.jpg,badlands_101.jpg,4.0,A1AMGHYG5PT0L2
268,1.0,left,left,1.0,1.005,0.0,28.0,28.0,28.0,1.0,golf_course_15.jpg,golf_course_97.jpg,4.0,A1AMGHYG5PT0L2
269,0.0,left,right,0.0,0.9389,0.0,29.0,29.0,29.0,1.0,badlands_221.jpg,badlands_115.jpg,5.0,A1AMGHYG5PT0L2
270,0.0,right,right,1.0,0.9716,0.0,30.0,30.0,30.0,1.0,badlands_102.jpg,badlands_70.jpg,4.0,A1AMGHYG5PT0L2
271,0.0,right,left,0.0,1.3373,0.0,31.0,31.0,31.0,1.0,highway_203.jpg,highway_294.jpg,7.0,A1AMGHYG5PT0L2
272,0.0,right,right,1.0,0.9613,0.0,32.0,32.0,32.0,1.0,highway_85.jpg,highway_93.jpg,4.0,A1AMGHYG5PT0L2
273,0.0,left,left,1.0,1.3884,0.0,33.0,33.0,33.0,1.0,bridge_202.jpg,bridge_31.jpg,3.0,A1AMGHYG5PT0L2
274,1.0,right,left,0.0,0.9286,0.0,34.0,34.0,34.0,1.0,highway_206.jpg,highway_245.jpg,2.0,A1AMGHYG5PT0L2
275,0.0,right,left,0.0,1.0793,0.0,35.0,35.0,35.0,1.0,highway_87.jpg,highway_177.jpg,2.0,A1AMGHYG5PT0L2
276,1.0,right,right,1.0,2.4094,0.0,36.0,36.0,36.0,1.0,golf_course_26.jpg,golf_course_331.jpg,3.0,A1AMGHYG5PT0L2
277,0.0,right,left,0.0,0.8718,0.0,37.0,37.0,37.0,1.0,golf_course_25.jpg,golf_course_195.jpg,4.0,A1AMGHYG5PT0L2
278,1.0,right,right,1.0,1.2717,0.0,38.0,38.0,38.0,1.0,badlands_139.jpg,badlands_137.jpg,4.0,A1AMGHYG5PT0L2
279,0.0,right,left,0.0,2.2913,0.0,39.0,39.0,39.0,1.0,highway_160.jpg,highway_156.jpg,3.0,A1AMGHYG5PT0L2
280,1.0,left,right,0.0,1.0402,0.0,40.0,40.0,40.0,1.0,playground_117.jpg,playground_127.jpg,3.0,A1AMGHYG5PT0L2
281,0.0,right,right,1.0,0.9269,0.0,41.0,41.0,41.0,1.0,mountain_3.jpg,mountain_232.jpg,3.0,A1AMGHYG5PT0L2
282,0.0,right,right,1.0,0.4938,0.0,42.0,42.0,42.0,1.0,playground_229.jpg,playground_145.jpg,3.0,A1AMGHYG5PT0L2
283,0.0,left,left,1.0,0.8929,0.0,43.0,43.0,43.0,1.0,highway_394.jpg,highway_204.jpg,3.0,A1AMGHYG5PT0L2
284,1.0,left,right,0.0,1.9885,0.0,44.0,44.0,44.0,1.0,bridge_191.jpg,bridge_75.jpg,5.0,A1AMGHYG5PT0L2
285,1.0,left,right,0.0,1.3759,0.0,45.0,45.0,45.0,1.0,mountain_156.jpg,mountain_295.jpg,4.0,A1AMGHYG5PT0L2
286,1.0,right,right,1.0,0.9627,0.0,46.0,46.0,46.0,1.0,golf_course_160.jpg,golf_course_188.jpg,5.0,A1AMGHYG5PT0L2
287,1.0,right,left,0.0,2.043,0.0,47.0,47.0,47.0,1.0,golf_course_209.jpg,golf_course_309.jpg,4.0,A1AMGHYG5PT0L2
288,1.0,left,left,1.0,1.2243,0.0,48.0,48.0,48.0,1.0,highway_209.jpg,highway_122.jpg,5.0,A1AMGHYG5PT0L2
289,1.0,left,left,1.0,1.0178,0.0,49.0,49.0,49.0,1.0,mountain_154.jpg,mountain_95.jpg,5.0,A1AMGHYG5PT0L2
290,0.0,right,right,1.0,1.6781,0.0,50.0,50.0,50.0,1.0,badlands_225.jpg,badlands_113.jpg,4.0,A1AMGHYG5PT0L2
291,1.0,right,left,0.0,0.9812,0.0,51.0,51.0,51.0,1.0,mountain_221.jpg,mountain_101.jpg,5.0,A1AMGHYG5PT0L2
292,0.0,left,right,0.0,1.2423,0.0,52.0,52.0,52.0,1.0,mountain_123.jpg,mountain_94.jpg,4.0,A1AMGHYG5PT0L2
293,0.0,right,right,1.0,0.9932,0.0,53.0,53.0,53.0,1.0,golf_course_35.jpg,golf_course_217.jpg,5.0,A1AMGHYG5PT0L2
294,1.0,right,left,0.0,1.0157,0.0,54.0,54.0,54.0,1.0,playground_40.jpg,playground_240.jpg,5.0,A1AMGHYG5PT0L2
295,1.0,left,left,1.0,1.1654,0.0,55.0,55.0,55.0,1.0,bridge_91.jpg,bridge_82.jpg,3.0,A1AMGHYG5PT0L2
296,0.0,left,right,0.0,1.2619,0.0,56.0,56.0,56.0,1.0,golf_course_78.jpg,golf_course_134.jpg,5.0,A1AMGHYG5PT0L2
297,0.0,left,left,1.0,1.2281,0.0,57.0,57.0,57.0,1.0,bridge_256.jpg,bridge_54.jpg,4.0,A1AMGHYG5PT0L2
298,1.0,left,left,1.0,1.1943,0.0,58.0,58.0,58.0,1.0,playground_10.jpg,playground_12.jpg,4.0,A1AMGHYG5PT0L2
299,1.0,left,left,1.0,0.7587,0.0,59.0,59.0,59.0,1.0,badlands_184.jpg,badlands_103.jpg,4.0,A1AMGHYG5PT0L2
300,1.0,right,right,1.0,5.002,0.0,0.0,0.0,0.0,1.0,golf_course_26.jpg,golf_course_331.jpg,8.0,A1BQLX0A4W8A8
301,1.0,right,left,0.0,3.6312,0.0,1.0,1.0,1.0,1.0,golf_course_2.jpg,golf_course_195.jpg,8.0,A1BQLX0A4W8A8
302,1.0,left,right,0.0,4.3326,0.0,2.0,2.0,2.0,1.0,mountain_101.jpg,mountain_221.jpg,8.0,A1BQLX0A4W8A8
303,1.0,right,right,1.0,1.6318,0.0,3.0,3.0,3.0,1.0,bridge_38.jpg,bridge_202.jpg,7.0,A1BQLX0A4W8A8
304,1.0,right,right,1.0,2.1637,0.0,4.0,4.0,4.0,1.0,bridge_244.jpg,bridge_128.jpg,8.0,A1BQLX0A4W8A8
305,1.0,right,right,1.0,4.9122,0.0,5.0,5.0,5.0,1.0,badlands_103.jpg,badlands_184.jpg,7.0,A1BQLX0A4W8A8
306,1.0,left,left,1.0,20.0215,0.0,6.0,6.0,6.0,1.0,badlands_221.jpg,badlands_207.jpg,8.0,A1BQLX0A4W8A8
307,0.0,right,left,0.0,9.7009,0.0,7.0,7.0,7.0,1.0,mountain_157.jpg,mountain_110.jpg,8.0,A1BQLX0A4W8A8
308,1.0,left,right,0.0,2.2451,0.0,8.0,8.0,8.0,1.0,mountain_232.jpg,mountain_54.jpg,7.0,A1BQLX0A4W8A8
309,1.0,left,left,1.0,3.9432,0.0,9.0,9.0,9.0,1.0,playground_117.jpg,playground_127.jpg,7.0,A1BQLX0A4W8A8
310,1.0,left,right,0.0,41.5148,0.0,10.0,10.0,10.0,1.0,bridge_146.jpg,bridge_121.jpg,7.0,A1BQLX0A4W8A8
311,0.0,left,left,1.0,1.5454,0.0,11.0,11.0,11.0,1.0,badlands_23.jpg,badlands_114.jpg,8.0,A1BQLX0A4W8A8
312,1.0,right,right,1.0,3.4339,0.0,12.0,12.0,12.0,1.0,highway_278.jpg,highway_177.jpg,7.0,A1BQLX0A4W8A8
313,1.0,left,left,1.0,1.7638,0.0,13.0,13.0,13.0,1.0,highway_394.jpg,highway_406.jpg,7.0,A1BQLX0A4W8A8
314,0.0,right,right,1.0,1.967,0.0,14.0,14.0,14.0,1.0,golf_course_16.jpg,golf_course_309.jpg,7.0,A1BQLX0A4W8A8
315,1.0,right,left,0.0,1.0019,0.0,15.0,15.0,15.0,1.0,badlands_119.jpg,badlands_70.jpg,7.0,A1BQLX0A4W8A8
316,0.0,right,right,1.0,1.9827,0.0,16.0,16.0,16.0,1.0,mountain_72.jpg,mountain_293.jpg,8.0,A1BQLX0A4W8A8
317,1.0,left,left,1.0,2.2188,0.0,17.0,17.0,17.0,1.0,highway_359.jpg,highway_379.jpg,8.0,A1BQLX0A4W8A8
318,0.0,left,right,0.0,0.8573,0.0,18.0,18.0,18.0,1.0,bridge_256.jpg,bridge_54.jpg,7.0,A1BQLX0A4W8A8
319,0.0,left,left,1.0,2.146,0.0,19.0,19.0,19.0,1.0,highway_93.jpg,highway_85.jpg,7.0,A1BQLX0A4W8A8
320,0.0,left,right,0.0,1.0153,0.0,20.0,20.0,20.0,1.0,golf_course_193.jpg,golf_course_235.jpg,7.0,A1BQLX0A4W8A8
321,0.0,left,left,1.0,1.0733,0.0,21.0,21.0,21.0,1.0,bridge_108.jpg,bridge_116.jpg,8.0,A1BQLX0A4W8A8
322,1.0,left,right,0.0,0.881,0.0,22.0,22.0,22.0,1.0,playground_240.jpg,playground_40.jpg,8.0,A1BQLX0A4W8A8
323,0.0,left,left,1.0,1.1473,0.0,23.0,23.0,23.0,1.0,highway_156.jpg,highway_160.jpg,7.0,A1BQLX0A4W8A8
324,0.0,right,right,1.0,1.927,0.0,24.0,24.0,24.0,1.0,highway_134.jpg,highway_245.jpg,7.0,A1BQLX0A4W8A8
325,0.0,left,right,0.0,1.2184,0.0,25.0,25.0,25.0,1.0,badlands_21.jpg,badlands_1.jpg,6.0,A1BQLX0A4W8A8
326,0.0,left,left,1.0,2.0616,0.0,26.0,26.0,26.0,1.0,golf_course_214.jpg,golf_course_312.jpg,7.0,A1BQLX0A4W8A8
327,1.0,left,right,0.0,2.728,0.0,27.0,27.0,27.0,1.0,badlands_52.jpg,badlands_63.jpg,7.0,A1BQLX0A4W8A8
328,1.0,right,left,0.0,2.8979,0.0,28.0,28.0,28.0,1.0,highway_171.jpg,highway_273.jpg,7.0,A1BQLX0A4W8A8
329,1.0,left,right,0.0,0.8138,0.0,29.0,29.0,29.0,1.0,golf_course_78.jpg,golf_course_101.jpg,8.0,A1BQLX0A4W8A8
330,1.0,right,left,0.0,1.8842,0.0,30.0,30.0,30.0,1.0,mountain_95.jpg,mountain_154.jpg,7.0,A1BQLX0A4W8A8
331,0.0,left,right,0.0,0.7302,0.0,31.0,31.0,31.0,1.0,bridge_65.jpg,bridge_181.jpg,8.0,A1BQLX0A4W8A8
332,1.0,right,left,0.0,3.0759,0.0,32.0,32.0,32.0,1.0,mountain_295.jpg,mountain_156.jpg,7.0,A1BQLX0A4W8A8
333,1.0,left,right,0.0,0.8578,0.0,33.0,33.0,33.0,1.0,highway_415.jpg,highway_174.jpg,8.0,A1BQLX0A4W8A8
334,1.0,left,left,1.0,1.1021,0.0,34.0,34.0,34.0,1.0,playground_131.jpg,playground_164.jpg,7.0,A1BQLX0A4W8A8
335,0.0,right,right,1.0,1.3475,0.0,35.0,35.0,35.0,1.0,golf_course_113.jpg,golf_course_15.jpg,7.0,A1BQLX0A4W8A8
336,0.0,right,right,1.0,1.0963,0.0,36.0,36.0,36.0,1.0,playground_268.jpg,playground_60.jpg,8.0,A1BQLX0A4W8A8
337,0.0,left,left,1.0,1.4998,0.0,37.0,37.0,37.0,1.0,playground_219.jpg,playground_21.jpg,7.0,A1BQLX0A4W8A8
338,0.0,right,right,1.0,0.6713,0.0,38.0,38.0,38.0,1.0,badlands_225.jpg,badlands_113.jpg,8.0,A1BQLX0A4W8A8
339,1.0,right,left,0.0,0.7976,0.0,39.0,39.0,39.0,1.0,playground_65.jpg,playground_144.jpg,7.0,A1BQLX0A4W8A8
340,0.0,right,left,0.0,1.4451,0.0,40.0,40.0,40.0,1.0,golf_course_35.jpg,golf_course_217.jpg,8.0,A1BQLX0A4W8A8
341,1.0,right,right,1.0,0.3736,0.0,41.0,41.0,41.0,1.0,playground_12.jpg,playground_10.jpg,8.0,A1BQLX0A4W8A8
342,1.0,left,left,1.0,1.0601,0.0,42.0,42.0,42.0,1.0,bridge_250.jpg,bridge_205.jpg,7.0,A1BQLX0A4W8A8
343,0.0,right,right,1.0,1.6505,0.0,43.0,43.0,43.0,1.0,playground_229.jpg,playground_145.jpg,8.0,A1BQLX0A4W8A8
344,1.0,left,left,1.0,2.4144,0.0,44.0,44.0,44.0,1.0,mountain_123.jpg,mountain_189.jpg,7.0,A1BQLX0A4W8A8
345,0.0,left,right,0.0,0.8297,0.0,45.0,45.0,45.0,1.0,mountain_222.jpg,mountain_244.jpg,8.0,A1BQLX0A4W8A8
346,1.0,right,left,0.0,1.13,0.0,46.0,46.0,46.0,1.0,golf_course_160.jpg,golf_course_188.jpg,7.0,A1BQLX0A4W8A8
347,0.0,right,right,1.0,0.8255,0.0,47.0,47.0,47.0,1.0,badlands_34.jpg,badlands_222.jpg,8.0,A1BQLX0A4W8A8
348,0.0,right,left,0.0,0.8983,0.0,48.0,48.0,48.0,1.0,highway_314.jpg,highway_209.jpg,7.0,A1BQLX0A4W8A8
349,0.0,right,right,1.0,0.9728,0.0,49.0,49.0,49.0,1.0,bridge_184.jpg,bridge_191.jpg,8.0,A1BQLX0A4W8A8
350,1.0,left,left,1.0,3.0841,0.0,50.0,50.0,50.0,1.0,badlands_137.jpg,badlands_139.jpg,7.0,A1BQLX0A4W8A8
351,0.0,right,right,1.0,1.4154,0.0,51.0,51.0,51.0,1.0,badlands_3.jpg,badlands_24.jpg,8.0,A1BQLX0A4W8A8
352,0.0,right,left,0.0,0.8984,0.0,52.0,52.0,52.0,1.0,playground_22.jpg,playground_76.jpg,7.0,A1BQLX0A4W8A8
353,1.0,right,right,1.0,1.9742,0.0,53.0,53.0,53.0,1.0,bridge_163.jpg,bridge_172.jpg,8.0,A1BQLX0A4W8A8
354,0.0,right,left,0.0,3.1497,0.0,54.0,54.0,54.0,1.0,mountain_184.jpg,mountain_230.jpg,6.0,A1BQLX0A4W8A8
355,1.0,right,right,1.0,0.5424,0.0,55.0,55.0,55.0,1.0,golf_course_161.jpg,golf_course_87.jpg,7.0,A1BQLX0A4W8A8
356,0.0,right,right,1.0,1.3262,0.0,56.0,56.0,56.0,1.0,bridge_253.jpg,bridge_91.jpg,7.0,A1BQLX0A4W8A8
357,0.0,right,right,1.0,0.785,0.0,57.0,57.0,57.0,1.0,playground_214.jpg,playground_257.jpg,7.0,A1BQLX0A4W8A8
358,0.0,right,right,1.0,0.6517,0.0,58.0,58.0,58.0,1.0,highway_203.jpg,highway_294.jpg,6.0,A1BQLX0A4W8A8
359,0.0,right,right,1.0,0.7314,0.0,59.0,59.0,59.0,1.0,mountain_193.jpg,mountain_57.jpg,8.0,A1BQLX0A4W8A8
360,0.0,left,left,1.0,2.7601,0.0,0.0,0.0,0.0,1.0,playground_60.jpg,playground_268.jpg,3.0,A1DIYFGQT1QDV2
361,0.0,left,left,1.0,5.1068,0.0,1.0,1.0,1.0,1.0,golf_course_214.jpg,golf_course_312.jpg,3.0,A1DIYFGQT1QDV2
362,1.0,left,left,1.0,3.7834,0.0,2.0,2.0,2.0,1.0,highway_177.jpg,highway_278.jpg,4.0,A1DIYFGQT1QDV2
363,1.0,right,right,1.0,5.8188,0.0,3.0,3.0,3.0,1.0,mountain_189.jpg,mountain_123.jpg,3.0,A1DIYFGQT1QDV2
364,0.0,right,right,1.0,5.5524,0.0,4.0,4.0,4.0,1.0,bridge_134.jpg,bridge_250.jpg,2.0,A1DIYFGQT1QDV2
365,0.0,right,right,1.0,7.1026,0.0,5.0,5.0,5.0,1.0,mountain_157.jpg,mountain_110.jpg,2.0,A1DIYFGQT1QDV2
366,1.0,right,right,1.0,2.7086,0.0,6.0,6.0,6.0,1.0,golf_course_209.jpg,golf_course_309.jpg,1.0,A1DIYFGQT1QDV2
367,0.0,left,left,1.0,7.1369,0.0,7.0,7.0,7.0,1.0,playground_219.jpg,playground_21.jpg,3.0,A1DIYFGQT1QDV2
368,1.0,right,right,1.0,4.2385,0.0,8.0,8.0,8.0,1.0,highway_368.jpg,highway_294.jpg,3.0,A1DIYFGQT1QDV2
369,1.0,right,right,1.0,2.6243,0.0,9.0,9.0,9.0,1.0,bridge_148.jpg,bridge_108.jpg,2.0,A1DIYFGQT1QDV2
370,0.0,left,right,0.0,4.8988,0.0,10.0,10.0,10.0,1.0,playground_144.jpg,playground_137.jpg,1.0,A1DIYFGQT1QDV2
371,0.0,left,left,1.0,5.06,0.0,11.0,11.0,11.0,1.0,playground_117.jpg,playground_167.jpg,3.0,A1DIYFGQT1QDV2
372,0.0,left,left,1.0,5.1807,0.0,12.0,12.0,12.0,1.0,mountain_156.jpg,mountain_128.jpg,2.0,A1DIYFGQT1QDV2
373,0.0,right,right,1.0,6.8767,0.0,13.0,13.0,13.0,1.0,highway_384.jpg,highway_273.jpg,1.0,A1DIYFGQT1QDV2
374,0.0,left,left,1.0,6.7661,0.0,14.0,14.0,14.0,1.0,mountain_101.jpg,mountain_171.jpg,1.0,A1DIYFGQT1QDV2
375,1.0,right,left,0.0,4.8948,0.0,15.0,15.0,15.0,1.0,playground_12.jpg,playground_10.jpg,4.0,A1DIYFGQT1QDV2
376,0.0,left,left,1.0,4.1457,0.0,16.0,16.0,16.0,1.0,highway_209.jpg,highway_314.jpg,1.0,A1DIYFGQT1QDV2
377,0.0,right,right,1.0,3.9642,0.0,17.0,17.0,17.0,1.0,badlands_1.jpg,badlands_21.jpg,1.0,A1DIYFGQT1QDV2
378,0.0,right,right,1.0,6.3999,0.0,18.0,18.0,18.0,1.0,badlands_3.jpg,badlands_24.jpg,1.0,A1DIYFGQT1QDV2
379,1.0,left,left,1.0,5.8703,0.0,19.0,19.0,19.0,1.0,bridge_65.jpg,bridge_60.jpg,1.0,A1DIYFGQT1QDV2
380,1.0,left,left,1.0,6.5933,0.0,20.0,20.0,20.0,1.0,bridge_146.jpg,bridge_121.jpg,1.0,A1DIYFGQT1QDV2
381,1.0,left,left,1.0,3.997,0.0,21.0,21.0,21.0,1.0,golf_course_15.jpg,golf_course_97.jpg,6.0,A1DIYFGQT1QDV2
382,0.0,right,right,1.0,3.4211,0.0,22.0,22.0,22.0,1.0,bridge_61.jpg,bridge_128.jpg,1.0,A1DIYFGQT1QDV2
383,1.0,right,right,1.0,3.0213,0.0,23.0,23.0,23.0,1.0,mountain_138.jpg,mountain_57.jpg,4.0,A1DIYFGQT1QDV2
384,1.0,left,right,0.0,8.856,0.0,24.0,24.0,24.0,1.0,bridge_172.jpg,bridge_163.jpg,1.0,A1DIYFGQT1QDV2
385,1.0,left,left,1.0,4.381,0.0,25.0,25.0,25.0,1.0,playground_131.jpg,playground_164.jpg,4.0,A1DIYFGQT1QDV2
386,1.0,right,right,1.0,2.8144,0.0,26.0,26.0,26.0,1.0,golf_course_2.jpg,golf_course_195.jpg,5.0,A1DIYFGQT1QDV2
387,1.0,right,right,1.0,4.6585,0.0,27.0,27.0,27.0,1.0,badlands_63.jpg,badlands_52.jpg,4.0,A1DIYFGQT1QDV2
388,1.0,right,right,1.0,2.2453,0.0,28.0,28.0,28.0,1.0,golf_course_262.jpg,golf_course_217.jpg,3.0,A1DIYFGQT1QDV2
389,1.0,left,left,1.0,2.2554,0.0,29.0,29.0,29.0,1.0,badlands_137.jpg,badlands_139.jpg,3.0,A1DIYFGQT1QDV2
390,0.0,right,right,1.0,4.8194,0.0,30.0,30.0,30.0,1.0,mountain_72.jpg,mountain_293.jpg,5.0,A1DIYFGQT1QDV2
391,0.0,left,right,0.0,4.817,0.0,31.0,31.0,31.0,1.0,bridge_191.jpg,bridge_184.jpg,1.0,A1DIYFGQT1QDV2
392,0.0,right,right,1.0,4.5906,0.0,32.0,32.0,32.0,1.0,mountain_3.jpg,mountain_232.jpg,1.0,A1DIYFGQT1QDV2
393,0.0,left,left,1.0,5.6814,0.0,33.0,33.0,33.0,1.0,badlands_222.jpg,badlands_34.jpg,1.0,A1DIYFGQT1QDV2
394,1.0,right,right,1.0,4.1445,0.0,34.0,34.0,34.0,1.0,mountain_93.jpg,mountain_222.jpg,1.0,A1DIYFGQT1QDV2
395,1.0,left,right,0.0,3.9868,0.0,35.0,35.0,35.0,1.0,bridge_202.jpg,bridge_38.jpg,3.0,A1DIYFGQT1QDV2
396,0.0,left,right,0.0,4.8418,0.0,36.0,36.0,36.0,1.0,golf_course_188.jpg,golf_course_157.jpg,1.0,A1DIYFGQT1QDV2
397,0.0,right,right,1.0,7.8106,0.0,37.0,37.0,37.0,1.0,highway_60.jpg,highway_415.jpg,1.0,A1DIYFGQT1QDV2
398,1.0,right,right,1.0,3.5112,0.0,38.0,38.0,38.0,1.0,badlands_203.jpg,badlands_113.jpg,4.0,A1DIYFGQT1QDV2
399,1.0,right,right,1.0,3.5546,0.0,39.0,39.0,39.0,1.0,highway_369.jpg,highway_93.jpg,5.0,A1DIYFGQT1QDV2
400,1.0,right,right,1.0,2.9503,0.0,40.0,40.0,40.0,1.0,badlands_207.jpg,badlands_221.jpg,1.0,A1DIYFGQT1QDV2
401,1.0,right,right,1.0,7.8518,0.0,41.0,41.0,41.0,1.0,playground_242.jpg,playground_145.jpg,4.0,A1DIYFGQT1QDV2
402,1.0,right,right,1.0,3.1014,0.0,42.0,42.0,42.0,1.0,mountain_97.jpg,mountain_230.jpg,2.0,A1DIYFGQT1QDV2
403,1.0,right,right,1.0,5.1567,0.0,43.0,43.0,43.0,1.0,mountain_95.jpg,mountain_154.jpg,1.0,A1DIYFGQT1QDV2
404,0.0,left,right,0.0,10.8899,0.0,44.0,44.0,44.0,1.0,highway_156.jpg,highway_160.jpg,1.0,A1DIYFGQT1QDV2
405,0.0,right,left,0.0,4.4196,0.0,45.0,45.0,45.0,1.0,playground_214.jpg,playground_257.jpg,1.0,A1DIYFGQT1QDV2
406,0.0,right,left,0.0,6.007,0.0,46.0,46.0,46.0,1.0,golf_course_134.jpg,golf_course_78.jpg,6.0,A1DIYFGQT1QDV2
407,0.0,left,left,1.0,3.6378,0.0,47.0,47.0,47.0,1.0,golf_course_87.jpg,golf_course_130.jpg,3.0,A1DIYFGQT1QDV2
408,0.0,right,right,1.0,2.4394,0.0,48.0,48.0,48.0,1.0,bridge_54.jpg,bridge_256.jpg,1.0,A1DIYFGQT1QDV2
409,0.0,left,left,1.0,3.7807,0.0,49.0,49.0,49.0,1.0,highway_245.jpg,highway_134.jpg,1.0,A1DIYFGQT1QDV2
410,0.0,left,left,1.0,3.1992,0.0,50.0,50.0,50.0,1.0,badlands_70.jpg,badlands_102.jpg,1.0,A1DIYFGQT1QDV2
411,1.0,right,right,1.0,3.2963,0.0,51.0,51.0,51.0,1.0,golf_course_123.jpg,golf_course_193.jpg,1.0,A1DIYFGQT1QDV2
412,1.0,right,left,0.0,10.8433,0.0,52.0,52.0,52.0,1.0,highway_379.jpg,highway_359.jpg,3.0,A1DIYFGQT1QDV2
413,1.0,left,left,1.0,2.6594,0.0,53.0,53.0,53.0,1.0,playground_76.jpg,playground_72.jpg,2.0,A1DIYFGQT1QDV2
414,0.0,right,right,1.0,2.2729,0.0,54.0,54.0,54.0,1.0,golf_course_114.jpg,golf_course_331.jpg,1.0,A1DIYFGQT1QDV2
415,0.0,left,left,1.0,4.0029,0.0,55.0,55.0,55.0,1.0,bridge_91.jpg,bridge_253.jpg,1.0,A1DIYFGQT1QDV2
416,1.0,right,right,1.0,2.3641,0.0,56.0,56.0,56.0,1.0,highway_406.jpg,highway_394.jpg,5.0,A1DIYFGQT1QDV2
417,0.0,left,right,0.0,3.1401,0.0,57.0,57.0,57.0,1.0,badlands_184.jpg,badlands_228.jpg,3.0,A1DIYFGQT1QDV2
418,1.0,right,right,1.0,2.7294,0.0,58.0,58.0,58.0,1.0,badlands_101.jpg,badlands_23.jpg,3.0,A1DIYFGQT1QDV2
419,1.0,left,right,0.0,2.3377,0.0,59.0,59.0,59.0,1.0,playground_240.jpg,playground_40.jpg,2.0,A1DIYFGQT1QDV2
420,1.0,right,right,1.0,4.812,0.0,0.0,0.0,0.0,1.0,bridge_82.jpg,bridge_91.jpg,1.0,A1F3HF70PF8G97
421,1.0,left,left,1.0,4.8333,0.0,1.0,1.0,1.0,1.0,highway_273.jpg,highway_171.jpg,1.0,A1F3HF70PF8G97
422,0.0,right,right,1.0,3.2259,0.0,2.0,2.0,2.0,1.0,mountain_131.jpg,mountain_154.jpg,1.0,A1F3HF70PF8G97
423,1.0,right,right,1.0,17.1635,0.0,3.0,3.0,3.0,1.0,playground_40.jpg,playground_240.jpg,1.0,A1F3HF70PF8G97
424,1.0,right,right,1.0,4.9941,0.0,4.0,4.0,4.0,1.0,highway_122.jpg,highway_209.jpg,1.0,A1F3HF70PF8G97
425,0.0,right,right,1.0,2.1975,0.0,5.0,5.0,5.0,1.0,bridge_31.jpg,bridge_202.jpg,1.0,A1F3HF70PF8G97
426,0.0,right,right,1.0,3.4367,0.0,6.0,6.0,6.0,1.0,golf_course_114.jpg,golf_course_331.jpg,1.0,A1F3HF70PF8G97
427,0.0,left,left,1.0,3.1139,0.0,7.0,7.0,7.0,1.0,mountain_293.jpg,mountain_72.jpg,1.0,A1F3HF70PF8G97
428,0.0,left,left,1.0,2.199,0.0,8.0,8.0,8.0,1.0,golf_course_193.jpg,golf_course_235.jpg,1.0,A1F3HF70PF8G97
429,1.0,right,left,0.0,4.0691,0.0,9.0,9.0,9.0,1.0,mountain_223.jpg,mountain_110.jpg,1.0,A1F3HF70PF8G97
430,1.0,left,left,1.0,2.1816,0.0,10.0,10.0,10.0,1.0,bridge_191.jpg,bridge_75.jpg,1.0,A1F3HF70PF8G97
431,0.0,left,right,0.0,3.1615,0.0,11.0,11.0,11.0,1.0,playground_10.jpg,playground_122.jpg,1.0,A1F3HF70PF8G97
432,1.0,left,left,1.0,4.0644,0.0,12.0,12.0,12.0,1.0,golf_course_78.jpg,golf_course_101.jpg,1.0,A1F3HF70PF8G97
433,0.0,right,left,0.0,12.828,0.0,13.0,13.0,13.0,1.0,playground_229.jpg,playground_145.jpg,1.0,A1F3HF70PF8G97
434,0.0,right,left,0.0,3.7582,0.0,14.0,14.0,14.0,1.0,mountain_244.jpg,mountain_222.jpg,1.0,A1F3HF70PF8G97
435,0.0,left,left,1.0,2.534,0.0,15.0,15.0,15.0,1.0,bridge_65.jpg,bridge_181.jpg,1.0,A1F3HF70PF8G97
436,0.0,left,left,1.0,2.2123,0.0,16.0,16.0,16.0,1.0,mountain_232.jpg,mountain_3.jpg,1.0,A1F3HF70PF8G97
437,0.0,left,left,1.0,1.8917,0.0,17.0,17.0,17.0,1.0,highway_93.jpg,highway_85.jpg,1.0,A1F3HF70PF8G97
438,1.0,right,right,1.0,2.8457,0.0,18.0,18.0,18.0,1.0,highway_278.jpg,highway_177.jpg,1.0,A1F3HF70PF8G97
439,0.0,left,left,1.0,3.4527,0.0,19.0,19.0,19.0,1.0,mountain_123.jpg,mountain_94.jpg,1.0,A1F3HF70PF8G97
440,1.0,right,left,0.0,5.6824,0.0,20.0,20.0,20.0,1.0,mountain_221.jpg,mountain_101.jpg,1.0,A1F3HF70PF8G97
441,1.0,left,left,1.0,6.6014,0.0,21.0,21.0,21.0,1.0,highway_415.jpg,highway_174.jpg,1.0,A1F3HF70PF8G97
442,1.0,right,right,1.0,2.5608,0.0,22.0,22.0,22.0,1.0,bridge_163.jpg,bridge_172.jpg,1.0,A1F3HF70PF8G97
443,1.0,right,right,1.0,2.5276,0.0,23.0,23.0,23.0,1.0,golf_course_161.jpg,golf_course_87.jpg,1.0,A1F3HF70PF8G97
444,0.0,right,right,1.0,3.4954,0.0,24.0,24.0,24.0,1.0,badlands_225.jpg,badlands_113.jpg,1.0,A1F3HF70PF8G97
445,1.0,left,right,0.0,2.5129,0.0,25.0,25.0,25.0,1.0,bridge_256.jpg,bridge_211.jpg,1.0,A1F3HF70PF8G97
446,0.0,right,left,0.0,3.1899,0.0,26.0,26.0,26.0,1.0,badlands_34.jpg,badlands_222.jpg,1.0,A1F3HF70PF8G97
447,1.0,left,left,1.0,12.7764,0.0,27.0,27.0,27.0,1.0,golf_course_15.jpg,golf_course_97.jpg,1.0,A1F3HF70PF8G97
448,0.0,right,right,1.0,3.4116,0.0,28.0,28.0,28.0,1.0,highway_389.jpg,highway_359.jpg,1.0,A1F3HF70PF8G97
449,0.0,left,left,1.0,5.8551,0.0,29.0,29.0,29.0,1.0,golf_course_195.jpg,golf_course_25.jpg,1.0,A1F3HF70PF8G97
450,0.0,left,left,1.0,9.0434,0.0,30.0,30.0,30.0,1.0,playground_76.jpg,playground_22.jpg,1.0,A1F3HF70PF8G97
451,1.0,right,right,1.0,6.2321,0.0,31.0,31.0,31.0,1.0,badlands_207.jpg,badlands_221.jpg,1.0,A1F3HF70PF8G97
452,1.0,right,right,1.0,4.6817,0.0,32.0,32.0,32.0,1.0,badlands_103.jpg,badlands_184.jpg,1.0,A1F3HF70PF8G97
453,1.0,right,right,1.0,7.4728,0.0,33.0,33.0,33.0,1.0,playground_127.jpg,playground_117.jpg,1.0,A1F3HF70PF8G97
454,1.0,right,right,1.0,5.008,0.0,34.0,34.0,34.0,1.0,badlands_119.jpg,badlands_70.jpg,1.0,A1F3HF70PF8G97
455,1.0,right,left,0.0,5.882,0.0,35.0,35.0,35.0,1.0,bridge_244.jpg,bridge_128.jpg,1.0,A1F3HF70PF8G97
456,1.0,right,left,0.0,3.4161,0.0,36.0,36.0,36.0,1.0,playground_244.jpg,playground_60.jpg,1.0,A1F3HF70PF8G97
457,0.0,left,right,0.0,2.5031,0.0,37.0,37.0,37.0,1.0,bridge_250.jpg,bridge_134.jpg,1.0,A1F3HF70PF8G97
458,1.0,left,left,1.0,7.8793,0.0,38.0,38.0,38.0,1.0,badlands_52.jpg,badlands_63.jpg,1.0,A1F3HF70PF8G97
459,0.0,left,right,0.0,2.4966,0.0,39.0,39.0,39.0,1.0,badlands_24.jpg,badlands_3.jpg,1.0,A1F3HF70PF8G97
460,0.0,left,right,0.0,2.4878,0.0,40.0,40.0,40.0,1.0,bridge_146.jpg,bridge_27.jpg,1.0,A1F3HF70PF8G97
461,1.0,right,right,1.0,1.8999,0.0,41.0,41.0,41.0,1.0,golf_course_209.jpg,golf_course_309.jpg,1.0,A1F3HF70PF8G97
462,1.0,right,right,1.0,4.4462,0.0,42.0,42.0,42.0,1.0,playground_65.jpg,playground_144.jpg,1.0,A1F3HF70PF8G97
463,1.0,right,right,1.0,2.8247,0.0,43.0,43.0,43.0,1.0,golf_course_317.jpg,golf_course_214.jpg,1.0,A1F3HF70PF8G97
464,0.0,left,left,1.0,3.1643,0.0,44.0,44.0,44.0,1.0,golf_course_188.jpg,golf_course_157.jpg,1.0,A1F3HF70PF8G97
465,0.0,right,left,0.0,2.5465,0.0,45.0,45.0,45.0,1.0,bridge_116.jpg,bridge_108.jpg,1.0,A1F3HF70PF8G97
466,1.0,right,right,1.0,4.0678,0.0,46.0,46.0,46.0,1.0,badlands_139.jpg,badlands_137.jpg,1.0,A1F3HF70PF8G97
467,0.0,right,right,1.0,2.5431,0.0,47.0,47.0,47.0,1.0,highway_204.jpg,highway_394.jpg,1.0,A1F3HF70PF8G97
468,0.0,left,left,1.0,4.3822,0.0,48.0,48.0,48.0,1.0,badlands_21.jpg,badlands_1.jpg,1.0,A1F3HF70PF8G97
469,0.0,left,left,1.0,7.8372,0.0,49.0,49.0,49.0,1.0,highway_245.jpg,highway_134.jpg,1.0,A1F3HF70PF8G97
470,0.0,right,left,0.0,7.1805,0.0,50.0,50.0,50.0,1.0,highway_160.jpg,highway_156.jpg,1.0,A1F3HF70PF8G97
471,1.0,left,left,1.0,3.1462,0.0,51.0,51.0,51.0,1.0,mountain_156.jpg,mountain_295.jpg,1.0,A1F3HF70PF8G97
472,0.0,left,left,1.0,2.5018,0.0,52.0,52.0,52.0,1.0,golf_course_217.jpg,golf_course_35.jpg,1.0,A1F3HF70PF8G97
473,1.0,left,left,1.0,2.2082,0.0,53.0,53.0,53.0,1.0,playground_131.jpg,playground_164.jpg,1.0,A1F3HF70PF8G97
474,1.0,left,left,1.0,2.8467,0.0,54.0,54.0,54.0,1.0,mountain_57.jpg,mountain_138.jpg,1.0,A1F3HF70PF8G97
475,0.0,right,left,0.0,4.3751,0.0,55.0,55.0,55.0,1.0,playground_214.jpg,playground_257.jpg,1.0,A1F3HF70PF8G97
476,0.0,right,right,1.0,5.6938,0.0,56.0,56.0,56.0,1.0,badlands_114.jpg,badlands_23.jpg,1.0,A1F3HF70PF8G97
477,0.0,right,left,0.0,4.0619,0.0,57.0,57.0,57.0,1.0,playground_21.jpg,playground_219.jpg,1.0,A1F3HF70PF8G97
478,1.0,left,left,1.0,3.189,0.0,58.0,58.0,58.0,1.0,highway_294.jpg,highway_368.jpg,1.0,A1F3HF70PF8G97
479,1.0,right,left,0.0,3.7994,0.0,59.0,59.0,59.0,1.0,mountain_97.jpg,mountain_230.jpg,1.0,A1F3HF70PF8G97
480,0.0,left,right,0.0,4.5075,0.0,0.0,0.0,0.0,1.0,bridge_108.jpg,bridge_116.jpg,9.0,A1PRUVH5Q0T9FS
481,0.0,right,right,1.0,2.6191,0.0,1.0,1.0,1.0,1.0,highway_204.jpg,highway_394.jpg,1.0,A1PRUVH5Q0T9FS
482,0.0,right,left,0.0,6.7056,0.0,2.0,2.0,2.0,1.0,badlands_115.jpg,badlands_221.jpg,1.0,A1PRUVH5Q0T9FS
483,1.0,right,right,1.0,4.7521,0.0,3.0,3.0,3.0,1.0,mountain_295.jpg,mountain_156.jpg,1.0,A1PRUVH5Q0T9FS
484,0.0,left,right,0.0,5.0901,0.0,4.0,4.0,4.0,1.0,golf_course_214.jpg,golf_course_312.jpg,1.0,A1PRUVH5Q0T9FS
485,1.0,left,left,1.0,2.8482,0.0,5.0,5.0,5.0,1.0,bridge_128.jpg,bridge_244.jpg,1.0,A1PRUVH5Q0T9FS
486,1.0,left,left,1.0,2.9425,0.0,6.0,6.0,6.0,1.0,bridge_202.jpg,bridge_38.jpg,1.0,A1PRUVH5Q0T9FS
487,1.0,right,right,1.0,3.4795,0.0,7.0,7.0,7.0,1.0,golf_course_209.jpg,golf_course_309.jpg,1.0,A1PRUVH5Q0T9FS
488,0.0,left,right,0.0,20.7704,0.0,8.0,8.0,8.0,1.0,mountain_222.jpg,mountain_244.jpg,1.0,A1PRUVH5Q0T9FS
489,1.0,right,right,1.0,2.8712,0.0,9.0,9.0,9.0,1.0,mountain_138.jpg,mountain_57.jpg,1.0,A1PRUVH5Q0T9FS
490,1.0,left,left,1.0,7.6254,0.0,10.0,10.0,10.0,1.0,playground_144.jpg,playground_65.jpg,9.0,A1PRUVH5Q0T9FS
491,1.0,right,left,0.0,5.7663,0.0,11.0,11.0,11.0,1.0,bridge_211.jpg,bridge_256.jpg,1.0,A1PRUVH5Q0T9FS
492,0.0,left,left,1.0,2.266,0.0,12.0,12.0,12.0,1.0,highway_93.jpg,highway_85.jpg,1.0,A1PRUVH5Q0T9FS
493,0.0,left,left,1.0,6.0404,0.0,13.0,13.0,13.0,1.0,golf_course_195.jpg,golf_course_25.jpg,1.0,A1PRUVH5Q0T9FS
494,0.0,right,left,0.0,10.427,0.0,14.0,14.0,14.0,1.0,highway_160.jpg,highway_156.jpg,1.0,A1PRUVH5Q0T9FS
495,0.0,left,left,1.0,4.3277,0.0,15.0,15.0,15.0,1.0,playground_219.jpg,playground_21.jpg,1.0,A1PRUVH5Q0T9FS
496,0.0,right,right,1.0,3.4622,0.0,16.0,16.0,16.0,1.0,highway_87.jpg,highway_177.jpg,1.0,A1PRUVH5Q0T9FS
497,0.0,right,right,1.0,4.5036,0.0,17.0,17.0,17.0,1.0,bridge_27.jpg,bridge_146.jpg,1.0,A1PRUVH5Q0T9FS
498,0.0,right,left,0.0,3.5225,0.0,18.0,18.0,18.0,1.0,playground_122.jpg,playground_10.jpg,1.0,A1PRUVH5Q0T9FS
499,0.0,right,right,1.0,2.8773,0.0,19.0,19.0,19.0,1.0,playground_2.jpg,playground_240.jpg,1.0,A1PRUVH5Q0T9FS
500,1.0,right,right,1.0,3.4744,0.0,20.0,20.0,20.0,1.0,golf_course_97.jpg,golf_course_15.jpg,9.0,A1PRUVH5Q0T9FS
501,0.0,right,right,1.0,2.874,0.0,21.0,21.0,21.0,1.0,bridge_17.jpg,bridge_172.jpg,1.0,A1PRUVH5Q0T9FS
502,1.0,left,right,0.0,4.463,0.0,22.0,22.0,22.0,1.0,golf_course_217.jpg,golf_course_262.jpg,1.0,A1PRUVH5Q0T9FS
503,1.0,right,right,1.0,3.0975,0.0,23.0,23.0,23.0,1.0,badlands_101.jpg,badlands_23.jpg,1.0,A1PRUVH5Q0T9FS
504,1.0,right,right,1.0,4.0822,0.0,24.0,24.0,24.0,1.0,mountain_221.jpg,mountain_101.jpg,1.0,A1PRUVH5Q0T9FS
505,0.0,right,right,1.0,2.2096,0.0,25.0,25.0,25.0,1.0,playground_43.jpg,playground_131.jpg,1.0,A1PRUVH5Q0T9FS
506,0.0,right,right,1.0,1.9329,0.0,26.0,26.0,26.0,1.0,mountain_3.jpg,mountain_232.jpg,1.0,A1PRUVH5Q0T9FS
507,1.0,right,left,0.0,2.5674,0.0,27.0,27.0,27.0,1.0,badlands_139.jpg,badlands_137.jpg,1.0,A1PRUVH5Q0T9FS
508,1.0,left,left,1.0,2.2128,0.0,28.0,28.0,28.0,1.0,highway_209.jpg,highway_122.jpg,1.0,A1PRUVH5Q0T9FS
509,0.0,right,left,0.0,2.888,0.0,29.0,29.0,29.0,1.0,mountain_184.jpg,mountain_230.jpg,1.0,A1PRUVH5Q0T9FS
510,0.0,left,left,1.0,2.5064,0.0,30.0,30.0,30.0,1.0,mountain_123.jpg,mountain_94.jpg,1.0,A1PRUVH5Q0T9FS
511,0.0,right,right,1.0,5.4354,0.0,31.0,31.0,31.0,1.0,badlands_3.jpg,badlands_24.jpg,1.0,A1PRUVH5Q0T9FS
512,1.0,right,right,1.0,3.4128,0.0,32.0,32.0,32.0,1.0,bridge_205.jpg,bridge_250.jpg,1.0,A1PRUVH5Q0T9FS
513,1.0,right,right,1.0,2.5542,0.0,33.0,33.0,33.0,1.0,highway_379.jpg,highway_359.jpg,1.0,A1PRUVH5Q0T9FS
514,0.0,right,right,1.0,5.9633,0.0,34.0,34.0,34.0,1.0,golf_course_157.jpg,golf_course_188.jpg,1.0,A1PRUVH5Q0T9FS
515,1.0,right,right,1.0,3.7927,0.0,35.0,35.0,35.0,1.0,highway_174.jpg,highway_415.jpg,1.0,A1PRUVH5Q0T9FS
516,0.0,left,left,1.0,2.5594,0.0,36.0,36.0,36.0,1.0,playground_76.jpg,playground_22.jpg,1.0,A1PRUVH5Q0T9FS
517,1.0,left,left,1.0,2.549,0.0,37.0,37.0,37.0,1.0,highway_294.jpg,highway_368.jpg,1.0,A1PRUVH5Q0T9FS
518,0.0,right,right,1.0,2.6234,0.0,38.0,38.0,38.0,1.0,golf_course_114.jpg,golf_course_331.jpg,1.0,A1PRUVH5Q0T9FS
519,1.0,left,left,1.0,7.6461,0.0,39.0,39.0,39.0,1.0,playground_257.jpg,playground_215.jpg,1.0,A1PRUVH5Q0T9FS
520,0.0,left,left,1.0,2.2401,0.0,40.0,40.0,40.0,1.0,golf_course_87.jpg,golf_course_130.jpg,1.0,A1PRUVH5Q0T9FS
521,1.0,left,right,0.0,2.799,0.0,41.0,41.0,41.0,1.0,badlands_21.jpg,badlands_98.jpg,1.0,A1PRUVH5Q0T9FS
522,1.0,right,right,1.0,2.5303,0.0,42.0,42.0,42.0,1.0,mountain_47.jpg,mountain_293.jpg,1.0,A1PRUVH5Q0T9FS
523,0.0,right,right,1.0,4.1608,0.0,43.0,43.0,43.0,1.0,mountain_157.jpg,mountain_110.jpg,1.0,A1PRUVH5Q0T9FS
524,1.0,right,right,1.0,2.5553,0.0,44.0,44.0,44.0,1.0,badlands_63.jpg,badlands_52.jpg,1.0,A1PRUVH5Q0T9FS
525,1.0,left,right,0.0,5.294,0.0,45.0,45.0,45.0,1.0,golf_course_193.jpg,golf_course_123.jpg,9.0,A1PRUVH5Q0T9FS
526,0.0,right,left,0.0,1.9034,0.0,46.0,46.0,46.0,1.0,badlands_34.jpg,badlands_222.jpg,1.0,A1PRUVH5Q0T9FS
527,1.0,left,left,1.0,5.3222,0.0,47.0,47.0,47.0,1.0,highway_273.jpg,highway_171.jpg,1.0,A1PRUVH5Q0T9FS
528,1.0,left,right,0.0,3.1743,0.0,48.0,48.0,48.0,1.0,playground_60.jpg,playground_244.jpg,1.0,A1PRUVH5Q0T9FS
529,1.0,left,left,1.0,5.1262,0.0,49.0,49.0,49.0,1.0,playground_145.jpg,playground_242.jpg,1.0,A1PRUVH5Q0T9FS
530,0.0,left,right,0.0,6.338,0.0,50.0,50.0,50.0,1.0,highway_245.jpg,highway_134.jpg,1.0,A1PRUVH5Q0T9FS
531,0.0,right,right,1.0,2.5254,0.0,51.0,51.0,51.0,1.0,badlands_102.jpg,badlands_70.jpg,1.0,A1PRUVH5Q0T9FS
532,1.0,left,left,1.0,3.4648,0.0,52.0,52.0,52.0,1.0,bridge_191.jpg,bridge_75.jpg,1.0,A1PRUVH5Q0T9FS
533,1.0,left,left,1.0,5.5764,0.0,53.0,53.0,53.0,1.0,playground_117.jpg,playground_127.jpg,1.0,A1PRUVH5Q0T9FS
534,0.0,left,left,1.0,2.8497,0.0,54.0,54.0,54.0,1.0,badlands_113.jpg,badlands_225.jpg,1.0,A1PRUVH5Q0T9FS
535,1.0,right,right,1.0,1.8801,0.0,55.0,55.0,55.0,1.0,mountain_95.jpg,mountain_154.jpg,1.0,A1PRUVH5Q0T9FS
536,0.0,right,right,1.0,2.5397,0.0,56.0,56.0,56.0,1.0,bridge_181.jpg,bridge_65.jpg,1.0,A1PRUVH5Q0T9FS
537,1.0,right,left,0.0,1.9312,0.0,57.0,57.0,57.0,1.0,golf_course_101.jpg,golf_course_78.jpg,1.0,A1PRUVH5Q0T9FS
538,0.0,left,left,1.0,2.5928,0.0,58.0,58.0,58.0,1.0,bridge_91.jpg,bridge_253.jpg,1.0,A1PRUVH5Q0T9FS
539,1.0,right,right,1.0,2.5481,0.0,59.0,59.0,59.0,1.0,badlands_103.jpg,badlands_184.jpg,1.0,A1PRUVH5Q0T9FS
540,1.0,left,left,1.0,9.1351,0.0,0.0,0.0,0.0,1.0,playground_76.jpg,playground_72.jpg,8.0,A1Q3GKUJF8EWHG
541,1.0,left,left,1.0,30.3387,0.0,1.0,1.0,1.0,1.0,badlands_137.jpg,badlands_139.jpg,7.0,A1Q3GKUJF8EWHG
542,1.0,left,left,1.0,3.2166,0.0,2.0,2.0,2.0,1.0,golf_course_217.jpg,golf_course_262.jpg,7.0,A1Q3GKUJF8EWHG
543,0.0,right,right,1.0,2.6093,0.0,3.0,3.0,3.0,1.0,highway_314.jpg,highway_209.jpg,8.0,A1Q3GKUJF8EWHG
544,0.0,right,left,0.0,16.2534,0.0,4.0,4.0,4.0,1.0,bridge_134.jpg,bridge_250.jpg,8.0,A1Q3GKUJF8EWHG
545,0.0,right,right,1.0,3.6663,0.0,5.0,5.0,5.0,1.0,bridge_253.jpg,bridge_91.jpg,8.0,A1Q3GKUJF8EWHG
546,1.0,left,right,0.0,2.5568,0.0,6.0,6.0,6.0,1.0,golf_course_195.jpg,golf_course_2.jpg,8.0,A1Q3GKUJF8EWHG
547,0.0,right,left,0.0,3.0212,0.0,7.0,7.0,7.0,1.0,playground_268.jpg,playground_60.jpg,7.0,A1Q3GKUJF8EWHG
548,1.0,left,right,0.0,2.7506,0.0,8.0,8.0,8.0,1.0,bridge_172.jpg,bridge_163.jpg,7.0,A1Q3GKUJF8EWHG
549,0.0,left,left,1.0,2.7659,0.0,9.0,9.0,9.0,1.0,badlands_23.jpg,badlands_114.jpg,7.0,A1Q3GKUJF8EWHG
550,0.0,right,right,1.0,2.9281,0.0,10.0,10.0,10.0,1.0,bridge_27.jpg,bridge_146.jpg,7.0,A1Q3GKUJF8EWHG
551,0.0,right,left,0.0,2.0341,0.0,11.0,11.0,11.0,1.0,badlands_34.jpg,badlands_222.jpg,7.0,A1Q3GKUJF8EWHG
552,0.0,left,left,1.0,1.8397,0.0,12.0,12.0,12.0,1.0,highway_156.jpg,highway_160.jpg,7.0,A1Q3GKUJF8EWHG
553,1.0,right,left,0.0,3.0176,0.0,13.0,13.0,13.0,1.0,bridge_148.jpg,bridge_108.jpg,7.0,A1Q3GKUJF8EWHG
554,1.0,right,left,0.0,2.3597,0.0,14.0,14.0,14.0,1.0,playground_242.jpg,playground_145.jpg,7.0,A1Q3GKUJF8EWHG
555,1.0,right,right,1.0,2.1914,0.0,15.0,15.0,15.0,1.0,badlands_103.jpg,badlands_184.jpg,7.0,A1Q3GKUJF8EWHG
556,1.0,right,right,1.0,2.5322,0.0,16.0,16.0,16.0,1.0,golf_course_160.jpg,golf_course_188.jpg,7.0,A1Q3GKUJF8EWHG
557,1.0,left,left,1.0,2.2666,0.0,17.0,17.0,17.0,1.0,playground_219.jpg,playground_205.jpg,7.0,A1Q3GKUJF8EWHG
558,1.0,right,right,1.0,3.2506,0.0,18.0,18.0,18.0,1.0,mountain_93.jpg,mountain_222.jpg,7.0,A1Q3GKUJF8EWHG
559,0.0,right,right,1.0,2.5713,0.0,19.0,19.0,19.0,1.0,mountain_131.jpg,mountain_154.jpg,7.0,A1Q3GKUJF8EWHG
560,1.0,left,right,0.0,2.8496,0.0,20.0,20.0,20.0,1.0,badlands_70.jpg,badlands_119.jpg,7.0,A1Q3GKUJF8EWHG
561,0.0,right,right,1.0,2.8252,0.0,21.0,21.0,21.0,1.0,bridge_181.jpg,bridge_65.jpg,7.0,A1Q3GKUJF8EWHG
562,1.0,left,right,0.0,3.9847,0.0,22.0,22.0,22.0,1.0,mountain_123.jpg,mountain_189.jpg,7.0,A1Q3GKUJF8EWHG
563,1.0,right,left,0.0,2.3336,0.0,23.0,23.0,23.0,1.0,bridge_75.jpg,bridge_191.jpg,7.0,A1Q3GKUJF8EWHG
564,0.0,right,left,0.0,2.7385,0.0,24.0,24.0,24.0,1.0,playground_214.jpg,playground_257.jpg,7.0,A1Q3GKUJF8EWHG
565,0.0,right,left,0.0,2.3527,0.0,25.0,25.0,25.0,1.0,mountain_157.jpg,mountain_110.jpg,7.0,A1Q3GKUJF8EWHG
566,1.0,left,left,1.0,2.8005,0.0,26.0,26.0,26.0,1.0,mountain_156.jpg,mountain_295.jpg,7.0,A1Q3GKUJF8EWHG
567,1.0,right,right,1.0,2.4854,0.0,27.0,27.0,27.0,1.0,highway_368.jpg,highway_294.jpg,7.0,A1Q3GKUJF8EWHG
568,0.0,right,right,1.0,2.2164,0.0,28.0,28.0,28.0,1.0,playground_137.jpg,playground_144.jpg,7.0,A1Q3GKUJF8EWHG
569,0.0,left,right,0.0,2.2218,0.0,29.0,29.0,29.0,1.0,golf_course_214.jpg,golf_course_312.jpg,7.0,A1Q3GKUJF8EWHG
570,0.0,left,right,0.0,2.3969,0.0,30.0,30.0,30.0,1.0,badlands_221.jpg,badlands_115.jpg,7.0,A1Q3GKUJF8EWHG
571,1.0,left,right,0.0,3.2241,0.0,31.0,31.0,31.0,1.0,golf_course_15.jpg,golf_course_97.jpg,7.0,A1Q3GKUJF8EWHG
572,0.0,left,left,1.0,1.4691,0.0,32.0,32.0,32.0,1.0,highway_177.jpg,highway_87.jpg,7.0,A1Q3GKUJF8EWHG
573,1.0,right,right,1.0,7.3129,0.0,33.0,33.0,33.0,1.0,golf_course_161.jpg,golf_course_87.jpg,7.0,A1Q3GKUJF8EWHG
574,1.0,right,right,1.0,1.6064,0.0,34.0,34.0,34.0,1.0,playground_40.jpg,playground_240.jpg,7.0,A1Q3GKUJF8EWHG
575,1.0,right,left,0.0,1.4925,0.0,35.0,35.0,35.0,1.0,highway_369.jpg,highway_93.jpg,7.0,A1Q3GKUJF8EWHG
576,1.0,right,right,1.0,1.4166,0.0,36.0,36.0,36.0,1.0,bridge_38.jpg,bridge_202.jpg,7.0,A1Q3GKUJF8EWHG
577,1.0,left,right,0.0,3.294,0.0,37.0,37.0,37.0,1.0,playground_117.jpg,playground_127.jpg,7.0,A1Q3GKUJF8EWHG
578,0.0,right,right,1.0,1.595,0.0,38.0,38.0,38.0,1.0,playground_43.jpg,playground_131.jpg,7.0,A1Q3GKUJF8EWHG
579,1.0,left,left,1.0,1.7936,0.0,39.0,39.0,39.0,1.0,bridge_256.jpg,bridge_211.jpg,7.0,A1Q3GKUJF8EWHG
580,1.0,right,right,1.0,1.8643,0.0,40.0,40.0,40.0,1.0,highway_171.jpg,highway_273.jpg,7.0,A1Q3GKUJF8EWHG
581,0.0,left,left,1.0,1.4815,0.0,41.0,41.0,41.0,1.0,mountain_230.jpg,mountain_184.jpg,7.0,A1Q3GKUJF8EWHG
582,1.0,left,right,0.0,2.2053,0.0,42.0,42.0,42.0,1.0,badlands_24.jpg,badlands_53.jpg,7.0,A1Q3GKUJF8EWHG
583,1.0,left,right,0.0,1.309,0.0,43.0,43.0,43.0,1.0,badlands_113.jpg,badlands_203.jpg,7.0,A1Q3GKUJF8EWHG
584,1.0,right,left,0.0,1.8845,0.0,44.0,44.0,44.0,1.0,highway_206.jpg,highway_245.jpg,7.0,A1Q3GKUJF8EWHG
585,1.0,left,right,0.0,1.9347,0.0,45.0,45.0,45.0,1.0,mountain_232.jpg,mountain_54.jpg,7.0,A1Q3GKUJF8EWHG
586,0.0,left,right,0.0,3.2607,0.0,46.0,46.0,46.0,1.0,badlands_52.jpg,badlands_94.jpg,7.0,A1Q3GKUJF8EWHG
587,0.0,left,left,1.0,2.0973,0.0,47.0,47.0,47.0,1.0,golf_course_193.jpg,golf_course_235.jpg,7.0,A1Q3GKUJF8EWHG
588,0.0,left,left,1.0,2.0885,0.0,48.0,48.0,48.0,1.0,highway_415.jpg,highway_60.jpg,6.0,A1Q3GKUJF8EWHG
589,0.0,right,left,0.0,1.5441,0.0,49.0,49.0,49.0,1.0,mountain_193.jpg,mountain_57.jpg,7.0,A1Q3GKUJF8EWHG
590,0.0,right,right,1.0,1.9621,0.0,50.0,50.0,50.0,1.0,golf_course_16.jpg,golf_course_309.jpg,7.0,A1Q3GKUJF8EWHG
591,0.0,right,right,1.0,1.5406,0.0,51.0,51.0,51.0,1.0,badlands_1.jpg,badlands_21.jpg,7.0,A1Q3GKUJF8EWHG
592,0.0,left,left,1.0,1.2281,0.0,52.0,52.0,52.0,1.0,playground_10.jpg,playground_122.jpg,7.0,A1Q3GKUJF8EWHG
593,0.0,right,left,0.0,1.6239,0.0,53.0,53.0,53.0,1.0,mountain_171.jpg,mountain_101.jpg,7.0,A1Q3GKUJF8EWHG
594,0.0,left,left,1.0,1.5512,0.0,54.0,54.0,54.0,1.0,highway_359.jpg,highway_389.jpg,7.0,A1Q3GKUJF8EWHG
595,1.0,left,left,1.0,1.7345,0.0,55.0,55.0,55.0,1.0,mountain_293.jpg,mountain_47.jpg,7.0,A1Q3GKUJF8EWHG
596,1.0,right,right,1.0,1.4377,0.0,56.0,56.0,56.0,1.0,highway_406.jpg,highway_394.jpg,7.0,A1Q3GKUJF8EWHG
597,0.0,left,left,1.0,2.5557,0.0,57.0,57.0,57.0,1.0,bridge_128.jpg,bridge_61.jpg,7.0,A1Q3GKUJF8EWHG
598,0.0,left,left,1.0,1.6232,0.0,58.0,58.0,58.0,1.0,golf_course_331.jpg,golf_course_114.jpg,7.0,A1Q3GKUJF8EWHG
599,0.0,right,left,0.0,1.5396,0.0,59.0,59.0,59.0,1.0,golf_course_134.jpg,golf_course_78.jpg,7.0,A1Q3GKUJF8EWHG
600,1.0,right,right,1.0,64.8554,0.0,0.0,0.0,0.0,1.0,playground_72.jpg,playground_76.jpg,7.0,A1YALKEEJHHWSO
601,1.0,right,right,1.0,6.325900001,0.0,1.0,1.0,1.0,1.0,highway_406.jpg,highway_394.jpg,8.0,A1YALKEEJHHWSO
602,0.0,right,right,1.0,2.9768,0.0,2.0,2.0,2.0,1.0,bridge_54.jpg,bridge_256.jpg,7.0,A1YALKEEJHHWSO
603,0.0,left,right,0.0,3.3962,0.0,3.0,3.0,3.0,1.0,playground_240.jpg,playground_2.jpg,7.0,A1YALKEEJHHWSO
604,0.0,left,left,1.0,3.1835,0.0,4.0,4.0,4.0,1.0,playground_10.jpg,playground_122.jpg,7.0,A1YALKEEJHHWSO
605,0.0,left,left,1.0,1.918,0.0,5.0,5.0,5.0,1.0,golf_course_193.jpg,golf_course_235.jpg,7.0,A1YALKEEJHHWSO
606,1.0,left,left,1.0,2.615,0.0,6.0,6.0,6.0,1.0,highway_359.jpg,highway_379.jpg,8.0,A1YALKEEJHHWSO
607,1.0,left,right,0.0,3.618400001,0.0,7.0,7.0,7.0,1.0,mountain_293.jpg,mountain_47.jpg,8.0,A1YALKEEJHHWSO
608,1.0,right,right,1.0,1.9624,0.0,8.0,8.0,8.0,1.0,mountain_138.jpg,mountain_57.jpg,6.0,A1YALKEEJHHWSO
609,1.0,left,left,1.0,3.4809,0.0,9.0,9.0,9.0,1.0,playground_219.jpg,playground_205.jpg,7.0,A1YALKEEJHHWSO
610,0.0,left,right,0.0,2.7303,0.0,10.0,10.0,10.0,1.0,golf_course_214.jpg,golf_course_312.jpg,8.0,A1YALKEEJHHWSO
611,1.0,left,left,1.0,2.651599999,0.0,11.0,11.0,11.0,1.0,playground_117.jpg,playground_127.jpg,6.0,A1YALKEEJHHWSO
612,0.0,right,right,1.0,2.9136,0.0,12.0,12.0,12.0,1.0,mountain_157.jpg,mountain_110.jpg,7.0,A1YALKEEJHHWSO
613,1.0,left,right,0.0,1.4843,0.0,13.0,13.0,13.0,1.0,badlands_52.jpg,badlands_63.jpg,7.0,A1YALKEEJHHWSO
614,1.0,right,right,1.0,1.792400001,0.0,14.0,14.0,14.0,1.0,highway_278.jpg,highway_177.jpg,7.0,A1YALKEEJHHWSO
615,0.0,right,left,0.0,4.0507,0.0,15.0,15.0,15.0,1.0,highway_160.jpg,highway_156.jpg,7.0,A1YALKEEJHHWSO
616,0.0,left,right,0.0,5.2087,0.0,16.0,16.0,16.0,1.0,golf_course_309.jpg,golf_course_16.jpg,8.0,A1YALKEEJHHWSO
617,0.0,left,right,0.0,4.686900001,0.0,17.0,17.0,17.0,1.0,badlands_184.jpg,badlands_228.jpg,7.0,A1YALKEEJHHWSO
618,0.0,left,left,1.0,4.899,0.0,18.0,18.0,18.0,1.0,highway_273.jpg,highway_384.jpg,7.0,A1YALKEEJHHWSO
619,1.0,left,right,0.0,2.2948,0.0,19.0,19.0,19.0,1.0,bridge_108.jpg,bridge_148.jpg,8.0,A1YALKEEJHHWSO
620,0.0,left,right,0.0,1.1768,0.0,20.0,20.0,20.0,1.0,badlands_24.jpg,badlands_3.jpg,7.0,A1YALKEEJHHWSO
621,1.0,left,right,0.0,2.0512,0.0,21.0,21.0,21.0,1.0,badlands_70.jpg,badlands_119.jpg,6.0,A1YALKEEJHHWSO
622,0.0,left,right,0.0,0.9195,0.0,22.0,22.0,22.0,1.0,golf_course_331.jpg,golf_course_114.jpg,8.0,A1YALKEEJHHWSO
623,0.0,right,right,1.0,1.7422,0.0,23.0,23.0,23.0,1.0,highway_134.jpg,highway_245.jpg,7.0,A1YALKEEJHHWSO
624,1.0,left,left,1.0,3.4728,0.0,24.0,24.0,24.0,1.0,playground_60.jpg,playground_244.jpg,8.0,A1YALKEEJHHWSO
625,1.0,right,right,1.0,1.7465,0.0,25.0,25.0,25.0,1.0,mountain_95.jpg,mountain_154.jpg,6.0,A1YALKEEJHHWSO
626,0.0,right,left,0.0,2.3906,0.0,26.0,26.0,26.0,1.0,playground_214.jpg,playground_257.jpg,8.0,A1YALKEEJHHWSO
627,0.0,left,left,1.0,1.616200001,0.0,27.0,27.0,27.0,1.0,playground_144.jpg,playground_137.jpg,8.0,A1YALKEEJHHWSO
628,1.0,left,right,0.0,4.821099999,0.0,28.0,28.0,28.0,1.0,bridge_91.jpg,bridge_82.jpg,7.0,A1YALKEEJHHWSO
629,0.0,left,right,0.0,2.696,0.0,29.0,29.0,29.0,1.0,mountain_230.jpg,mountain_184.jpg,8.0,A1YALKEEJHHWSO
630,1.0,right,right,1.0,2.0923,0.0,30.0,30.0,30.0,1.0,badlands_139.jpg,badlands_137.jpg,7.0,A1YALKEEJHHWSO
631,0.0,left,right,0.0,2.049599999,0.0,31.0,31.0,31.0,1.0,badlands_222.jpg,badlands_34.jpg,6.0,A1YALKEEJHHWSO
632,1.0,left,left,1.0,2.3879,0.0,32.0,32.0,32.0,1.0,playground_131.jpg,playground_164.jpg,8.0,A1YALKEEJHHWSO
633,0.0,left,left,1.0,1.6559,0.0,33.0,33.0,33.0,1.0,bridge_65.jpg,bridge_181.jpg,7.0,A1YALKEEJHHWSO
634,1.0,left,left,1.0,1.6568,0.0,34.0,34.0,34.0,1.0,badlands_113.jpg,badlands_203.jpg,6.0,A1YALKEEJHHWSO
635,1.0,right,left,0.0,3.121099999,0.0,35.0,35.0,35.0,1.0,highway_369.jpg,highway_93.jpg,8.0,A1YALKEEJHHWSO
636,1.0,left,left,1.0,1.526599999,0.0,36.0,36.0,36.0,1.0,golf_course_188.jpg,golf_course_160.jpg,7.0,A1YALKEEJHHWSO
637,1.0,left,right,0.0,3.693099999,0.0,37.0,37.0,37.0,1.0,badlands_221.jpg,badlands_207.jpg,6.0,A1YALKEEJHHWSO
638,0.0,right,right,1.0,4.3359,0.0,38.0,38.0,38.0,1.0,bridge_31.jpg,bridge_202.jpg,7.0,A1YALKEEJHHWSO
639,1.0,right,left,0.0,1.213099999,0.0,39.0,39.0,39.0,1.0,bridge_205.jpg,bridge_250.jpg,6.0,A1YALKEEJHHWSO
640,0.0,right,right,1.0,1.5281,0.0,40.0,40.0,40.0,1.0,highway_314.jpg,highway_209.jpg,7.0,A1YALKEEJHHWSO
641,1.0,right,left,0.0,1.171400001,0.0,41.0,41.0,41.0,1.0,mountain_295.jpg,mountain_156.jpg,6.0,A1YALKEEJHHWSO
642,0.0,right,right,1.0,1.608099999,0.0,42.0,42.0,42.0,1.0,bridge_61.jpg,bridge_128.jpg,7.0,A1YALKEEJHHWSO
643,0.0,right,right,1.0,1.615400001,0.0,43.0,43.0,43.0,1.0,highway_60.jpg,highway_415.jpg,8.0,A1YALKEEJHHWSO
644,0.0,left,left,1.0,1.4372,0.0,44.0,44.0,44.0,1.0,badlands_23.jpg,badlands_114.jpg,7.0,A1YALKEEJHHWSO
645,1.0,right,right,1.0,1.573,0.0,45.0,45.0,45.0,1.0,golf_course_97.jpg,golf_course_15.jpg,8.0,A1YALKEEJHHWSO
646,1.0,right,right,1.0,1.3572,0.0,46.0,46.0,46.0,1.0,bridge_75.jpg,bridge_191.jpg,7.0,A1YALKEEJHHWSO
647,0.0,left,right,0.0,2.5255,0.0,47.0,47.0,47.0,1.0,mountain_101.jpg,mountain_171.jpg,6.0,A1YALKEEJHHWSO
648,0.0,right,right,1.0,2.378799999,0.0,48.0,48.0,48.0,1.0,mountain_3.jpg,mountain_232.jpg,7.0,A1YALKEEJHHWSO
649,1.0,right,left,0.0,1.481,0.0,49.0,49.0,49.0,1.0,mountain_189.jpg,mountain_123.jpg,6.0,A1YALKEEJHHWSO
650,0.0,right,right,1.0,2.2168,0.0,50.0,50.0,50.0,1.0,bridge_17.jpg,bridge_172.jpg,7.0,A1YALKEEJHHWSO
651,1.0,right,left,0.0,2.1783,0.0,51.0,51.0,51.0,1.0,golf_course_262.jpg,golf_course_217.jpg,8.0,A1YALKEEJHHWSO
652,0.0,left,right,0.0,1.315599999,0.0,52.0,52.0,52.0,1.0,mountain_222.jpg,mountain_244.jpg,7.0,A1YALKEEJHHWSO
653,1.0,right,left,0.0,2.3947,0.0,53.0,53.0,53.0,1.0,highway_368.jpg,highway_294.jpg,7.0,A1YALKEEJHHWSO
654,1.0,right,left,0.0,2.0868,0.0,54.0,54.0,54.0,1.0,golf_course_101.jpg,golf_course_78.jpg,8.0,A1YALKEEJHHWSO
655,0.0,left,right,0.0,2.22,0.0,55.0,55.0,55.0,1.0,playground_145.jpg,playground_229.jpg,7.0,A1YALKEEJHHWSO
656,1.0,right,right,1.0,1.2667,0.0,56.0,56.0,56.0,1.0,golf_course_161.jpg,golf_course_87.jpg,7.0,A1YALKEEJHHWSO
657,0.0,left,left,1.0,1.1791,0.0,57.0,57.0,57.0,1.0,badlands_21.jpg,badlands_1.jpg,6.0,A1YALKEEJHHWSO
658,1.0,right,right,1.0,1.397,0.0,58.0,58.0,58.0,1.0,bridge_121.jpg,bridge_146.jpg,7.0,A1YALKEEJHHWSO
659,0.0,left,right,0.0,1.3096,0.0,59.0,59.0,59.0,1.0,golf_course_195.jpg,golf_course_25.jpg,7.0,A1YALKEEJHHWSO
660,0.0,right,left,0.0,12.2089,0.0,0.0,0.0,0.0,1.0,playground_137.jpg,playground_144.jpg,7.0,A1ZFUHVIPQOVGK
661,1.0,right,left,0.0,6.7158,0.0,1.0,1.0,1.0,1.0,bridge_60.jpg,bridge_65.jpg,7.0,A1ZFUHVIPQOVGK
662,0.0,right,right,1.0,5.6792,0.0,2.0,2.0,2.0,1.0,mountain_193.jpg,mountain_57.jpg,7.0,A1ZFUHVIPQOVGK
663,1.0,right,left,0.0,4.68,0.0,3.0,3.0,3.0,1.0,golf_course_209.jpg,golf_course_309.jpg,6.0,A1ZFUHVIPQOVGK
664,0.0,right,right,1.0,1.9149,0.0,4.0,4.0,4.0,1.0,mountain_72.jpg,mountain_293.jpg,6.0,A1ZFUHVIPQOVGK
665,1.0,left,left,1.0,2.0032,0.0,5.0,5.0,5.0,1.0,badlands_21.jpg,badlands_98.jpg,6.0,A1ZFUHVIPQOVGK
666,1.0,right,right,1.0,1.6063,0.0,6.0,6.0,6.0,1.0,golf_course_123.jpg,golf_course_193.jpg,7.0,A1ZFUHVIPQOVGK
667,1.0,right,left,0.0,1.6705,0.0,7.0,7.0,7.0,1.0,bridge_244.jpg,bridge_128.jpg,6.0,A1ZFUHVIPQOVGK
668,0.0,right,right,1.0,1.28,0.0,8.0,8.0,8.0,1.0,golf_course_134.jpg,golf_course_78.jpg,7.0,A1ZFUHVIPQOVGK
669,1.0,left,left,1.0,3.4766,0.0,9.0,9.0,9.0,1.0,highway_359.jpg,highway_379.jpg,6.0,A1ZFUHVIPQOVGK
670,0.0,left,right,0.0,1.5169,0.0,10.0,10.0,10.0,1.0,highway_245.jpg,highway_134.jpg,7.0,A1ZFUHVIPQOVGK
671,0.0,right,left,0.0,1.8586,0.0,11.0,11.0,11.0,1.0,badlands_3.jpg,badlands_24.jpg,7.0,A1ZFUHVIPQOVGK
672,0.0,right,right,1.0,1.015,0.0,12.0,12.0,12.0,1.0,playground_122.jpg,playground_10.jpg,7.0,A1ZFUHVIPQOVGK
673,0.0,right,right,1.0,1.8616,0.0,13.0,13.0,13.0,1.0,playground_43.jpg,playground_131.jpg,6.0,A1ZFUHVIPQOVGK
674,1.0,left,right,0.0,1.671,0.0,14.0,14.0,14.0,1.0,highway_156.jpg,highway_293.jpg,8.0,A1ZFUHVIPQOVGK
675,1.0,right,left,0.0,1.5136,0.0,15.0,15.0,15.0,1.0,mountain_95.jpg,mountain_154.jpg,7.0,A1ZFUHVIPQOVGK
676,1.0,left,left,1.0,1.9278,0.0,16.0,16.0,16.0,1.0,playground_257.jpg,playground_215.jpg,7.0,A1ZFUHVIPQOVGK
677,0.0,right,right,1.0,1.2073,0.0,17.0,17.0,17.0,1.0,golf_course_35.jpg,golf_course_217.jpg,7.0,A1ZFUHVIPQOVGK
678,1.0,right,left,0.0,1.97,0.0,18.0,18.0,18.0,1.0,mountain_223.jpg,mountain_110.jpg,7.0,A1ZFUHVIPQOVGK
679,1.0,right,right,1.0,0.7657,0.0,19.0,19.0,19.0,1.0,golf_course_2.jpg,golf_course_195.jpg,7.0,A1ZFUHVIPQOVGK
680,1.0,right,left,0.0,0.8851,0.0,20.0,20.0,20.0,1.0,playground_205.jpg,playground_219.jpg,7.0,A1ZFUHVIPQOVGK
681,0.0,left,right,0.0,1.2627,0.0,21.0,21.0,21.0,1.0,golf_course_15.jpg,golf_course_113.jpg,7.0,A1ZFUHVIPQOVGK
682,0.0,left,left,1.0,1.0397,0.0,22.0,22.0,22.0,1.0,golf_course_188.jpg,golf_course_157.jpg,7.0,A1ZFUHVIPQOVGK
683,0.0,left,right,0.0,1.3809,0.0,23.0,23.0,23.0,1.0,badlands_23.jpg,badlands_114.jpg,7.0,A1ZFUHVIPQOVGK
684,1.0,right,left,0.0,1.0916,0.0,24.0,24.0,24.0,1.0,playground_40.jpg,playground_240.jpg,6.0,A1ZFUHVIPQOVGK
685,1.0,right,right,1.0,1.452,0.0,25.0,25.0,25.0,1.0,highway_122.jpg,highway_209.jpg,7.0,A1ZFUHVIPQOVGK
686,0.0,right,left,0.0,1.0836,0.0,26.0,26.0,26.0,1.0,bridge_27.jpg,bridge_146.jpg,7.0,A1ZFUHVIPQOVGK
687,0.0,left,right,0.0,1.4469,0.0,27.0,27.0,27.0,1.0,bridge_91.jpg,bridge_253.jpg,7.0,A1ZFUHVIPQOVGK
688,1.0,left,left,1.0,1.0073,0.0,28.0,28.0,28.0,1.0,highway_177.jpg,highway_278.jpg,6.0,A1ZFUHVIPQOVGK
689,1.0,left,right,0.0,1.085,0.0,29.0,29.0,29.0,1.0,badlands_184.jpg,badlands_103.jpg,8.0,A1ZFUHVIPQOVGK
690,1.0,left,left,1.0,0.9288,0.0,30.0,30.0,30.0,1.0,bridge_191.jpg,bridge_75.jpg,6.0,A1ZFUHVIPQOVGK
691,1.0,left,right,0.0,0.9144,0.0,31.0,31.0,31.0,1.0,golf_course_331.jpg,golf_course_26.jpg,7.0,A1ZFUHVIPQOVGK
692,0.0,right,left,0.0,1.1198,0.0,32.0,32.0,32.0,1.0,mountain_171.jpg,mountain_101.jpg,5.0,A1ZFUHVIPQOVGK
693,1.0,right,right,1.0,0.798,0.0,33.0,33.0,33.0,1.0,mountain_97.jpg,mountain_230.jpg,7.0,A1ZFUHVIPQOVGK
694,0.0,right,left,0.0,1.3621,0.0,34.0,34.0,34.0,1.0,bridge_116.jpg,bridge_108.jpg,6.0,A1ZFUHVIPQOVGK
695,0.0,left,right,0.0,2.6613,0.0,35.0,35.0,35.0,1.0,golf_course_87.jpg,golf_course_130.jpg,7.0,A1ZFUHVIPQOVGK
696,1.0,right,left,0.0,1.2538,0.0,36.0,36.0,36.0,1.0,badlands_119.jpg,badlands_70.jpg,6.0,A1ZFUHVIPQOVGK
697,0.0,left,right,0.0,1.0342,0.0,37.0,37.0,37.0,1.0,highway_273.jpg,highway_384.jpg,7.0,A1ZFUHVIPQOVGK
698,1.0,right,left,0.0,0.8843,0.0,38.0,38.0,38.0,1.0,golf_course_317.jpg,golf_course_214.jpg,6.0,A1ZFUHVIPQOVGK
699,1.0,left,right,0.0,1.2111,0.0,39.0,39.0,39.0,1.0,mountain_156.jpg,mountain_295.jpg,7.0,A1ZFUHVIPQOVGK
700,0.0,left,left,1.0,1.2349,0.0,40.0,40.0,40.0,1.0,mountain_123.jpg,mountain_94.jpg,6.0,A1ZFUHVIPQOVGK
701,0.0,right,right,1.0,1.1555,0.0,41.0,41.0,41.0,1.0,highway_204.jpg,highway_394.jpg,7.0,A1ZFUHVIPQOVGK
702,1.0,right,left,0.0,0.8635,0.0,42.0,42.0,42.0,1.0,bridge_211.jpg,bridge_256.jpg,6.0,A1ZFUHVIPQOVGK
703,0.0,right,right,1.0,1.175,0.0,43.0,43.0,43.0,1.0,playground_167.jpg,playground_117.jpg,7.0,A1ZFUHVIPQOVGK
704,0.0,left,left,1.0,1.0231,0.0,44.0,44.0,44.0,1.0,bridge_202.jpg,bridge_31.jpg,6.0,A1ZFUHVIPQOVGK
705,1.0,right,right,1.0,1.0131,0.0,45.0,45.0,45.0,1.0,mountain_54.jpg,mountain_232.jpg,7.0,A1ZFUHVIPQOVGK
706,0.0,left,left,1.0,0.8689,0.0,46.0,46.0,46.0,1.0,highway_415.jpg,highway_60.jpg,6.0,A1ZFUHVIPQOVGK
707,1.0,right,right,1.0,0.9628,0.0,47.0,47.0,47.0,1.0,badlands_139.jpg,badlands_137.jpg,7.0,A1ZFUHVIPQOVGK
708,1.0,left,left,1.0,1.0512,0.0,48.0,48.0,48.0,1.0,playground_76.jpg,playground_72.jpg,6.0,A1ZFUHVIPQOVGK
709,1.0,left,right,0.0,1.1618,0.0,49.0,49.0,49.0,1.0,badlands_221.jpg,badlands_207.jpg,7.0,A1ZFUHVIPQOVGK
710,1.0,left,left,1.0,1.0217,0.0,50.0,50.0,50.0,1.0,playground_60.jpg,playground_244.jpg,7.0,A1ZFUHVIPQOVGK
711,0.0,right,left,0.0,2.005,0.0,51.0,51.0,51.0,1.0,playground_229.jpg,playground_145.jpg,6.0,A1ZFUHVIPQOVGK
712,0.0,left,right,0.0,1.2775,0.0,52.0,52.0,52.0,1.0,mountain_222.jpg,mountain_244.jpg,7.0,A1ZFUHVIPQOVGK
713,0.0,left,left,1.0,0.9415,0.0,53.0,53.0,53.0,1.0,highway_294.jpg,highway_203.jpg,6.0,A1ZFUHVIPQOVGK
714,0.0,right,right,1.0,1.5063,0.0,54.0,54.0,54.0,1.0,badlands_225.jpg,badlands_113.jpg,8.0,A1ZFUHVIPQOVGK
715,0.0,right,left,0.0,1.1634,0.0,55.0,55.0,55.0,1.0,bridge_17.jpg,bridge_172.jpg,6.0,A1ZFUHVIPQOVGK
716,0.0,right,right,1.0,1.1789,0.0,56.0,56.0,56.0,1.0,badlands_34.jpg,badlands_222.jpg,7.0,A1ZFUHVIPQOVGK
717,0.0,left,left,1.0,0.6818,0.0,57.0,57.0,57.0,1.0,badlands_52.jpg,badlands_94.jpg,7.0,A1ZFUHVIPQOVGK
718,1.0,right,right,1.0,0.866,0.0,58.0,58.0,58.0,1.0,highway_369.jpg,highway_93.jpg,7.0,A1ZFUHVIPQOVGK
719,1.0,left,left,1.0,1.0244,0.0,59.0,59.0,59.0,1.0,bridge_250.jpg,bridge_205.jpg,6.0,A1ZFUHVIPQOVGK
720,1.0,right,right,1.0,5.6303,0.0,0.0,0.0,0.0,1.0,bridge_244.jpg,bridge_128.jpg,6.0,A2AN972XU7OY8W
721,1.0,right,right,1.0,4.1399,0.0,1.0,1.0,1.0,1.0,golf_course_160.jpg,golf_course_188.jpg,7.0,A2AN972XU7OY8W
722,0.0,right,right,1.0,2.5249,0.0,2.0,2.0,2.0,1.0,bridge_184.jpg,bridge_191.jpg,6.0,A2AN972XU7OY8W
723,0.0,right,left,0.0,1.7792,0.0,3.0,3.0,3.0,1.0,mountain_171.jpg,mountain_101.jpg,6.0,A2AN972XU7OY8W
724,0.0,right,left,0.0,2.534,0.0,4.0,4.0,4.0,1.0,highway_203.jpg,highway_294.jpg,5.0,A2AN972XU7OY8W
725,0.0,right,right,1.0,1.8958,0.0,5.0,5.0,5.0,1.0,playground_2.jpg,playground_240.jpg,6.0,A2AN972XU7OY8W
726,1.0,left,left,1.0,1.734,0.0,6.0,6.0,6.0,1.0,highway_273.jpg,highway_171.jpg,5.0,A2AN972XU7OY8W
727,0.0,right,left,0.0,1.7852,0.0,7.0,7.0,7.0,1.0,golf_course_35.jpg,golf_course_217.jpg,5.0,A2AN972XU7OY8W
728,0.0,left,left,1.0,1.4284,0.0,8.0,8.0,8.0,1.0,highway_415.jpg,highway_60.jpg,6.0,A2AN972XU7OY8W
729,1.0,left,left,1.0,1.5372,0.0,9.0,9.0,9.0,1.0,bridge_91.jpg,bridge_82.jpg,7.0,A2AN972XU7OY8W
730,1.0,left,right,0.0,4.0803,0.0,10.0,10.0,10.0,1.0,badlands_184.jpg,badlands_103.jpg,6.0,A2AN972XU7OY8W
731,1.0,right,right,1.0,1.8956,0.0,11.0,11.0,11.0,1.0,golf_course_209.jpg,golf_course_309.jpg,6.0,A2AN972XU7OY8W
732,0.0,left,left,1.0,2.5405,0.0,12.0,12.0,12.0,1.0,golf_course_87.jpg,golf_course_130.jpg,4.0,A2AN972XU7OY8W
733,0.0,right,left,0.0,1.557,0.0,13.0,13.0,13.0,1.0,playground_214.jpg,playground_257.jpg,6.0,A2AN972XU7OY8W
734,1.0,right,right,1.0,1.3996,0.0,14.0,14.0,14.0,1.0,playground_164.jpg,playground_131.jpg,6.0,A2AN972XU7OY8W
735,0.0,right,right,1.0,1.5754,0.0,15.0,15.0,15.0,1.0,bridge_17.jpg,bridge_172.jpg,7.0,A2AN972XU7OY8W
736,1.0,right,left,0.0,1.5172,0.0,16.0,16.0,16.0,1.0,bridge_205.jpg,bridge_250.jpg,5.0,A2AN972XU7OY8W
737,1.0,right,left,0.0,1.4695,0.0,17.0,17.0,17.0,1.0,mountain_295.jpg,mountain_156.jpg,5.0,A2AN972XU7OY8W
738,1.0,right,right,1.0,1.9311,0.0,18.0,18.0,18.0,1.0,bridge_38.jpg,bridge_202.jpg,7.0,A2AN972XU7OY8W
739,1.0,left,left,1.0,1.7429,0.0,19.0,19.0,19.0,1.0,playground_144.jpg,playground_65.jpg,5.0,A2AN972XU7OY8W
740,1.0,left,left,1.0,1.3319,0.0,20.0,20.0,20.0,1.0,highway_209.jpg,highway_122.jpg,5.0,A2AN972XU7OY8W
741,0.0,left,left,1.0,1.8231,0.0,21.0,21.0,21.0,1.0,mountain_232.jpg,mountain_3.jpg,6.0,A2AN972XU7OY8W
742,1.0,right,right,1.0,1.6729,0.0,22.0,22.0,22.0,1.0,badlands_207.jpg,badlands_221.jpg,5.0,A2AN972XU7OY8W
743,1.0,right,right,1.0,1.1702,0.0,23.0,23.0,23.0,1.0,mountain_47.jpg,mountain_293.jpg,5.0,A2AN972XU7OY8W
744,1.0,right,right,1.0,1.9112,0.0,24.0,24.0,24.0,1.0,mountain_97.jpg,mountain_230.jpg,6.0,A2AN972XU7OY8W
745,0.0,left,left,1.0,3.184,0.0,25.0,25.0,25.0,1.0,bridge_108.jpg,bridge_116.jpg,4.0,A2AN972XU7OY8W
746,0.0,right,right,1.0,1.6096,0.0,26.0,26.0,26.0,1.0,mountain_131.jpg,mountain_154.jpg,5.0,A2AN972XU7OY8W
747,1.0,left,right,0.0,1.4382,0.0,27.0,27.0,27.0,1.0,mountain_57.jpg,mountain_138.jpg,6.0,A2AN972XU7OY8W
748,1.0,right,left,0.0,1.5822,0.0,28.0,28.0,28.0,1.0,playground_244.jpg,playground_60.jpg,6.0,A2AN972XU7OY8W
749,0.0,left,left,1.0,1.5535,0.0,29.0,29.0,29.0,1.0,mountain_123.jpg,mountain_94.jpg,5.0,A2AN972XU7OY8W
750,1.0,left,left,1.0,1.8269,0.0,30.0,30.0,30.0,1.0,mountain_222.jpg,mountain_93.jpg,7.0,A2AN972XU7OY8W
751,1.0,left,left,1.0,1.4287,0.0,31.0,31.0,31.0,1.0,golf_course_193.jpg,golf_course_123.jpg,5.0,A2AN972XU7OY8W
752,1.0,right,right,1.0,1.6384,0.0,32.0,32.0,32.0,1.0,bridge_60.jpg,bridge_65.jpg,7.0,A2AN972XU7OY8W
753,1.0,left,right,0.0,1.8449,0.0,33.0,33.0,33.0,1.0,highway_394.jpg,highway_406.jpg,6.0,A2AN972XU7OY8W
754,1.0,left,left,1.0,2.237,0.0,34.0,34.0,34.0,1.0,playground_145.jpg,playground_242.jpg,5.0,A2AN972XU7OY8W
755,1.0,left,left,1.0,1.2213,0.0,35.0,35.0,35.0,1.0,badlands_24.jpg,badlands_53.jpg,5.0,A2AN972XU7OY8W
756,0.0,left,left,1.0,2.0365,0.0,36.0,36.0,36.0,1.0,playground_10.jpg,playground_122.jpg,4.0,A2AN972XU7OY8W
757,1.0,right,right,1.0,1.3774,0.0,37.0,37.0,37.0,1.0,badlands_98.jpg,badlands_21.jpg,5.0,A2AN972XU7OY8W
758,0.0,right,right,1.0,1.0844,0.0,38.0,38.0,38.0,1.0,golf_course_25.jpg,golf_course_195.jpg,5.0,A2AN972XU7OY8W
759,0.0,left,right,0.0,1.2857,0.0,39.0,39.0,39.0,1.0,badlands_23.jpg,badlands_114.jpg,6.0,A2AN972XU7OY8W
760,0.0,left,right,0.0,1.802,0.0,40.0,40.0,40.0,1.0,bridge_256.jpg,bridge_54.jpg,4.0,A2AN972XU7OY8W
761,0.0,left,right,0.0,1.2816,0.0,41.0,41.0,41.0,1.0,mountain_110.jpg,mountain_157.jpg,6.0,A2AN972XU7OY8W
762,0.0,left,right,0.0,1.1069,0.0,42.0,42.0,42.0,1.0,badlands_222.jpg,badlands_34.jpg,6.0,A2AN972XU7OY8W
763,1.0,right,left,0.0,1.4444,0.0,43.0,43.0,43.0,1.0,golf_course_101.jpg,golf_course_78.jpg,6.0,A2AN972XU7OY8W
764,0.0,left,right,0.0,1.81,0.0,44.0,44.0,44.0,1.0,golf_course_15.jpg,golf_course_113.jpg,6.0,A2AN972XU7OY8W
765,0.0,right,right,1.0,1.7784,0.0,45.0,45.0,45.0,1.0,playground_167.jpg,playground_117.jpg,5.0,A2AN972XU7OY8W
766,1.0,right,right,1.0,1.6124,0.0,46.0,46.0,46.0,1.0,playground_205.jpg,playground_219.jpg,7.0,A2AN972XU7OY8W
767,0.0,right,right,1.0,1.3846,0.0,47.0,47.0,47.0,1.0,highway_389.jpg,highway_359.jpg,5.0,A2AN972XU7OY8W
768,0.0,left,left,1.0,1.4276,0.0,48.0,48.0,48.0,1.0,badlands_52.jpg,badlands_94.jpg,5.0,A2AN972XU7OY8W
769,0.0,right,right,1.0,1.7109,0.0,49.0,49.0,49.0,1.0,highway_134.jpg,highway_245.jpg,7.0,A2AN972XU7OY8W
770,0.0,left,left,1.0,1.7497,0.0,50.0,50.0,50.0,1.0,playground_76.jpg,playground_22.jpg,7.0,A2AN972XU7OY8W
771,1.0,right,right,1.0,1.8641,0.0,51.0,51.0,51.0,1.0,golf_course_317.jpg,golf_course_214.jpg,7.0,A2AN972XU7OY8W
772,1.0,left,left,1.0,1.8823,0.0,52.0,52.0,52.0,1.0,highway_156.jpg,highway_293.jpg,5.0,A2AN972XU7OY8W
773,1.0,right,left,0.0,1.3785,0.0,53.0,53.0,53.0,1.0,highway_278.jpg,highway_177.jpg,6.0,A2AN972XU7OY8W
774,0.0,left,right,0.0,0.9668,0.0,54.0,54.0,54.0,1.0,badlands_113.jpg,badlands_225.jpg,6.0,A2AN972XU7OY8W
775,0.0,left,right,0.0,18.6669,0.0,55.0,55.0,55.0,1.0,golf_course_331.jpg,golf_course_114.jpg,6.0,A2AN972XU7OY8W
776,0.0,left,right,0.0,1.5595,0.0,56.0,56.0,56.0,1.0,badlands_137.jpg,badlands_194.jpg,6.0,A2AN972XU7OY8W
777,0.0,right,right,1.0,1.4514,0.0,57.0,57.0,57.0,1.0,highway_85.jpg,highway_93.jpg,5.0,A2AN972XU7OY8W
778,0.0,left,right,0.0,1.27,0.0,58.0,58.0,58.0,1.0,bridge_146.jpg,bridge_27.jpg,5.0,A2AN972XU7OY8W
779,1.0,left,right,0.0,1.3041,0.0,59.0,59.0,59.0,1.0,badlands_70.jpg,badlands_119.jpg,5.0,A2AN972XU7OY8W
780,1.0,left,left,1.0,9.7484,0.0,0.0,0.0,0.0,1.0,mountain_156.jpg,mountain_295.jpg,5.0,A2B0J7HGR6T34W
781,1.0,right,right,1.0,5.8259,0.0,1.0,1.0,1.0,1.0,golf_course_26.jpg,golf_course_331.jpg,9.0,A2B0J7HGR6T34W
782,1.0,left,left,1.0,7.4216,0.0,2.0,2.0,2.0,1.0,golf_course_188.jpg,golf_course_160.jpg,8.0,A2B0J7HGR6T34W
783,1.0,left,left,1.0,5.6866,0.0,3.0,3.0,3.0,1.0,highway_156.jpg,highway_293.jpg,9.0,A2B0J7HGR6T34W
784,1.0,left,left,1.0,8.9897,0.0,4.0,4.0,4.0,1.0,playground_240.jpg,playground_40.jpg,9.0,A2B0J7HGR6T34W
785,0.0,right,right,1.0,8.2253,0.0,5.0,5.0,5.0,1.0,badlands_228.jpg,badlands_184.jpg,8.0,A2B0J7HGR6T34W
786,0.0,left,left,1.0,3.6314,0.0,6.0,6.0,6.0,1.0,golf_course_78.jpg,golf_course_134.jpg,9.0,A2B0J7HGR6T34W
787,0.0,right,right,1.0,7.4665,0.0,7.0,7.0,7.0,1.0,mountain_72.jpg,mountain_293.jpg,5.0,A2B0J7HGR6T34W
788,0.0,left,left,1.0,13.2917,0.0,8.0,8.0,8.0,1.0,playground_145.jpg,playground_229.jpg,5.0,A2B0J7HGR6T34W
789,0.0,right,right,1.0,4.8253,0.0,9.0,9.0,9.0,1.0,highway_203.jpg,highway_294.jpg,9.0,A2B0J7HGR6T34W
790,0.0,left,left,1.0,4.8216,0.0,10.0,10.0,10.0,1.0,playground_60.jpg,playground_268.jpg,8.0,A2B0J7HGR6T34W
791,1.0,left,left,1.0,9.4253,0.0,11.0,11.0,11.0,1.0,highway_245.jpg,highway_206.jpg,3.0,A2B0J7HGR6T34W
792,1.0,left,left,1.0,7.6654,0.0,12.0,12.0,12.0,1.0,badlands_221.jpg,badlands_207.jpg,9.0,A2B0J7HGR6T34W
793,0.0,right,right,1.0,3.4243,0.0,13.0,13.0,13.0,1.0,badlands_94.jpg,badlands_52.jpg,9.0,A2B0J7HGR6T34W
794,1.0,right,right,1.0,7.8338,0.0,14.0,14.0,14.0,1.0,highway_122.jpg,highway_209.jpg,9.0,A2B0J7HGR6T34W
795,1.0,right,right,1.0,8.4996,0.0,15.0,15.0,15.0,1.0,golf_course_262.jpg,golf_course_217.jpg,9.0,A2B0J7HGR6T34W
796,1.0,left,left,1.0,6.8335,0.0,16.0,16.0,16.0,1.0,highway_359.jpg,highway_379.jpg,9.0,A2B0J7HGR6T34W
797,1.0,left,left,1.0,3.4221,0.0,17.0,17.0,17.0,1.0,bridge_91.jpg,bridge_82.jpg,9.0,A2B0J7HGR6T34W
798,1.0,left,left,1.0,7.1082,0.0,18.0,18.0,18.0,1.0,bridge_172.jpg,bridge_163.jpg,9.0,A2B0J7HGR6T34W
799,1.0,left,left,1.0,8.6582,0.0,19.0,19.0,19.0,1.0,mountain_110.jpg,mountain_223.jpg,9.0,A2B0J7HGR6T34W
800,1.0,left,left,1.0,6.6453,0.0,20.0,20.0,20.0,1.0,golf_course_214.jpg,golf_course_317.jpg,9.0,A2B0J7HGR6T34W
801,1.0,left,left,1.0,3.2125,0.0,21.0,21.0,21.0,1.0,playground_144.jpg,playground_65.jpg,9.0,A2B0J7HGR6T34W
802,0.0,left,right,0.0,7.1892,0.0,22.0,22.0,22.0,1.0,playground_257.jpg,playground_214.jpg,9.0,A2B0J7HGR6T34W
803,1.0,left,left,1.0,4.2251,0.0,23.0,23.0,23.0,1.0,badlands_24.jpg,badlands_53.jpg,9.0,A2B0J7HGR6T34W
804,1.0,right,right,1.0,3.198,0.0,24.0,24.0,24.0,1.0,golf_course_123.jpg,golf_course_193.jpg,9.0,A2B0J7HGR6T34W
805,1.0,right,left,0.0,8.8163,0.0,25.0,25.0,25.0,1.0,badlands_139.jpg,badlands_137.jpg,9.0,A2B0J7HGR6T34W
806,1.0,right,right,1.0,10.0599,0.0,26.0,26.0,26.0,1.0,bridge_244.jpg,bridge_128.jpg,9.0,A2B0J7HGR6T34W
807,0.0,left,right,0.0,5.6281,0.0,27.0,27.0,27.0,1.0,badlands_23.jpg,badlands_114.jpg,9.0,A2B0J7HGR6T34W
808,0.0,right,right,1.0,6.1911,0.0,28.0,28.0,28.0,1.0,golf_course_25.jpg,golf_course_195.jpg,6.0,A2B0J7HGR6T34W
809,0.0,right,right,1.0,9.5016,0.0,29.0,29.0,29.0,1.0,playground_21.jpg,playground_219.jpg,9.0,A2B0J7HGR6T34W
810,1.0,left,left,1.0,6.8427,0.0,30.0,30.0,30.0,1.0,badlands_70.jpg,badlands_119.jpg,7.0,A2B0J7HGR6T34W
811,0.0,right,right,1.0,4.4042,0.0,31.0,31.0,31.0,1.0,bridge_54.jpg,bridge_256.jpg,9.0,A2B0J7HGR6T34W
812,0.0,right,right,1.0,4.4958,0.0,32.0,32.0,32.0,1.0,golf_course_16.jpg,golf_course_309.jpg,6.0,A2B0J7HGR6T34W
813,0.0,left,left,1.0,10.0171,0.0,33.0,33.0,33.0,1.0,bridge_202.jpg,bridge_31.jpg,8.0,A2B0J7HGR6T34W
814,1.0,right,left,0.0,7.2812,0.0,34.0,34.0,34.0,1.0,mountain_54.jpg,mountain_232.jpg,6.0,A2B0J7HGR6T34W
815,1.0,left,left,1.0,4.6097,0.0,35.0,35.0,35.0,1.0,badlands_113.jpg,badlands_203.jpg,9.0,A2B0J7HGR6T34W
816,0.0,right,right,1.0,3.6345,0.0,36.0,36.0,36.0,1.0,playground_122.jpg,playground_10.jpg,9.0,A2B0J7HGR6T34W
817,0.0,left,left,1.0,3.8212,0.0,37.0,37.0,37.0,1.0,bridge_146.jpg,bridge_27.jpg,9.0,A2B0J7HGR6T34W
818,1.0,left,left,1.0,11.9767,0.0,38.0,38.0,38.0,1.0,playground_117.jpg,playground_127.jpg,7.0,A2B0J7HGR6T34W
819,0.0,left,left,1.0,2.8641,0.0,39.0,39.0,39.0,1.0,mountain_123.jpg,mountain_94.jpg,9.0,A2B0J7HGR6T34W
820,0.0,right,right,1.0,8.4121,0.0,40.0,40.0,40.0,1.0,mountain_244.jpg,mountain_222.jpg,6.0,A2B0J7HGR6T34W
821,0.0,right,right,1.0,4.2394,0.0,41.0,41.0,41.0,1.0,highway_384.jpg,highway_273.jpg,9.0,A2B0J7HGR6T34W
822,1.0,left,left,1.0,5.6485,0.0,42.0,42.0,42.0,1.0,mountain_57.jpg,mountain_138.jpg,9.0,A2B0J7HGR6T34W
823,1.0,left,left,1.0,5.9831,0.0,43.0,43.0,43.0,1.0,bridge_250.jpg,bridge_205.jpg,6.0,A2B0J7HGR6T34W
824,0.0,right,right,1.0,6.8289,0.0,44.0,44.0,44.0,1.0,bridge_181.jpg,bridge_65.jpg,7.0,A2B0J7HGR6T34W
825,0.0,left,left,1.0,2.426,0.0,45.0,45.0,45.0,1.0,badlands_21.jpg,badlands_1.jpg,9.0,A2B0J7HGR6T34W
826,0.0,left,left,1.0,4.841,0.0,46.0,46.0,46.0,1.0,mountain_230.jpg,mountain_184.jpg,9.0,A2B0J7HGR6T34W
827,0.0,left,left,1.0,7.4042,0.0,47.0,47.0,47.0,1.0,badlands_222.jpg,badlands_34.jpg,8.0,A2B0J7HGR6T34W
828,1.0,left,left,1.0,4.8266,0.0,48.0,48.0,48.0,1.0,highway_415.jpg,highway_174.jpg,9.0,A2B0J7HGR6T34W
829,1.0,left,left,1.0,12.493,0.0,49.0,49.0,49.0,1.0,mountain_154.jpg,mountain_95.jpg,5.0,A2B0J7HGR6T34W
830,1.0,right,left,0.0,10.2107,0.0,50.0,50.0,50.0,1.0,playground_72.jpg,playground_76.jpg,5.0,A2B0J7HGR6T34W
831,0.0,left,left,1.0,8.6301,0.0,51.0,51.0,51.0,1.0,bridge_191.jpg,bridge_184.jpg,5.0,A2B0J7HGR6T34W
832,1.0,right,right,1.0,4.2765,0.0,52.0,52.0,52.0,1.0,bridge_148.jpg,bridge_108.jpg,9.0,A2B0J7HGR6T34W
833,0.0,right,right,1.0,5.5985,0.0,53.0,53.0,53.0,1.0,mountain_171.jpg,mountain_101.jpg,9.0,A2B0J7HGR6T34W
834,1.0,right,left,0.0,7.6307,0.0,54.0,54.0,54.0,1.0,playground_164.jpg,playground_131.jpg,5.0,A2B0J7HGR6T34W
835,0.0,right,right,1.0,5.3845,0.0,55.0,55.0,55.0,1.0,highway_87.jpg,highway_177.jpg,9.0,A2B0J7HGR6T34W
836,0.0,right,right,1.0,3.229,0.0,56.0,56.0,56.0,1.0,golf_course_130.jpg,golf_course_87.jpg,9.0,A2B0J7HGR6T34W
837,0.0,right,right,1.0,8.4556,0.0,57.0,57.0,57.0,1.0,highway_85.jpg,highway_93.jpg,6.0,A2B0J7HGR6T34W
838,0.0,left,left,1.0,4.1866,0.0,58.0,58.0,58.0,1.0,highway_394.jpg,highway_204.jpg,9.0,A2B0J7HGR6T34W
839,0.0,left,left,1.0,8.2515,0.0,59.0,59.0,59.0,1.0,golf_course_15.jpg,golf_course_113.jpg,6.0,A2B0J7HGR6T34W
840,1.0,right,right,1.0,8.5403,0.0,0.0,0.0,0.0,1.0,highway_379.jpg,highway_359.jpg,6.0,A2F48NO7AD9VKK
841,0.0,left,right,0.0,6.7613,0.0,1.0,1.0,1.0,1.0,playground_257.jpg,playground_214.jpg,7.0,A2F48NO7AD9VKK
842,0.0,right,left,0.0,6.3937,0.0,2.0,2.0,2.0,1.0,highway_203.jpg,highway_294.jpg,7.0,A2F48NO7AD9VKK
843,0.0,left,left,1.0,4.9492,0.0,3.0,3.0,3.0,1.0,highway_209.jpg,highway_314.jpg,3.0,A2F48NO7AD9VKK
844,0.0,right,right,1.0,4.9712,0.0,4.0,4.0,4.0,1.0,highway_60.jpg,highway_415.jpg,4.0,A2F48NO7AD9VKK
845,1.0,left,left,1.0,4.9932,0.0,5.0,5.0,5.0,1.0,badlands_70.jpg,badlands_119.jpg,5.0,A2F48NO7AD9VKK
846,0.0,right,right,1.0,5.1774,0.0,6.0,6.0,6.0,1.0,golf_course_134.jpg,golf_course_78.jpg,5.0,A2F48NO7AD9VKK
847,0.0,left,left,1.0,2.2333,0.0,7.0,7.0,7.0,1.0,bridge_172.jpg,bridge_17.jpg,3.0,A2F48NO7AD9VKK
848,0.0,left,left,1.0,2.0679,0.0,8.0,8.0,8.0,1.0,bridge_191.jpg,bridge_184.jpg,2.0,A2F48NO7AD9VKK
849,1.0,left,left,1.0,6.8471,0.0,9.0,9.0,9.0,1.0,highway_156.jpg,highway_293.jpg,6.0,A2F48NO7AD9VKK
850,1.0,left,right,0.0,3.8486,0.0,10.0,10.0,10.0,1.0,highway_245.jpg,highway_206.jpg,3.0,A2F48NO7AD9VKK
851,1.0,left,left,1.0,5.2482,0.0,11.0,11.0,11.0,1.0,highway_177.jpg,highway_278.jpg,6.0,A2F48NO7AD9VKK
852,1.0,right,right,1.0,2.9168,0.0,12.0,12.0,12.0,1.0,highway_406.jpg,highway_394.jpg,3.0,A2F48NO7AD9VKK
853,0.0,left,left,1.0,4.3869,0.0,13.0,13.0,13.0,1.0,golf_course_15.jpg,golf_course_113.jpg,5.0,A2F48NO7AD9VKK
854,0.0,right,left,0.0,3.9423,0.0,14.0,14.0,14.0,1.0,mountain_171.jpg,mountain_101.jpg,2.0,A2F48NO7AD9VKK
855,0.0,left,left,1.0,2.5654,0.0,15.0,15.0,15.0,1.0,bridge_108.jpg,bridge_116.jpg,2.0,A2F48NO7AD9VKK
856,1.0,left,left,1.0,2.2518,0.0,16.0,16.0,16.0,1.0,badlands_21.jpg,badlands_98.jpg,3.0,A2F48NO7AD9VKK
857,1.0,left,left,1.0,1.8655,0.0,17.0,17.0,17.0,1.0,bridge_146.jpg,bridge_121.jpg,4.0,A2F48NO7AD9VKK
858,1.0,right,right,1.0,3.6481,0.0,18.0,18.0,18.0,1.0,golf_course_262.jpg,golf_course_217.jpg,2.0,A2F48NO7AD9VKK
859,0.0,right,left,0.0,3.7473,0.0,19.0,19.0,19.0,1.0,playground_167.jpg,playground_117.jpg,4.0,A2F48NO7AD9VKK
860,0.0,right,right,1.0,2.3085,0.0,20.0,20.0,20.0,1.0,mountain_3.jpg,mountain_232.jpg,2.0,A2F48NO7AD9VKK
861,1.0,left,left,1.0,1.9146,0.0,21.0,21.0,21.0,1.0,bridge_65.jpg,bridge_60.jpg,3.0,A2F48NO7AD9VKK
862,0.0,right,right,1.0,4.8811,0.0,22.0,22.0,22.0,1.0,mountain_193.jpg,mountain_57.jpg,3.0,A2F48NO7AD9VKK
863,0.0,left,right,0.0,4.5315,0.0,23.0,23.0,23.0,1.0,bridge_91.jpg,bridge_253.jpg,2.0,A2F48NO7AD9VKK
864,0.0,left,left,1.0,3.6482,0.0,24.0,24.0,24.0,1.0,golf_course_195.jpg,golf_course_25.jpg,3.0,A2F48NO7AD9VKK
865,0.0,right,left,0.0,4.6831,0.0,25.0,25.0,25.0,1.0,playground_2.jpg,playground_240.jpg,3.0,A2F48NO7AD9VKK
866,0.0,left,right,0.0,2.2482,0.0,26.0,26.0,26.0,1.0,badlands_221.jpg,badlands_115.jpg,5.0,A2F48NO7AD9VKK
867,1.0,right,right,1.0,3.935,0.0,27.0,27.0,27.0,1.0,badlands_62.jpg,badlands_222.jpg,8.0,A2F48NO7AD9VKK
868,1.0,left,left,1.0,3.85,0.0,28.0,28.0,28.0,1.0,bridge_256.jpg,bridge_211.jpg,2.0,A2F48NO7AD9VKK
869,0.0,left,left,1.0,1.4042,0.0,29.0,29.0,29.0,1.0,mountain_293.jpg,mountain_72.jpg,4.0,A2F48NO7AD9VKK
870,1.0,right,left,0.0,2.3209,0.0,30.0,30.0,30.0,1.0,golf_course_209.jpg,golf_course_309.jpg,2.0,A2F48NO7AD9VKK
871,1.0,left,left,1.0,2.7549,0.0,31.0,31.0,31.0,1.0,mountain_156.jpg,mountain_295.jpg,4.0,A2F48NO7AD9VKK
872,0.0,left,left,1.0,3.4982,0.0,32.0,32.0,32.0,1.0,golf_course_87.jpg,golf_course_130.jpg,4.0,A2F48NO7AD9VKK
873,1.0,right,left,0.0,2.5255,0.0,33.0,33.0,33.0,1.0,playground_244.jpg,playground_60.jpg,5.0,A2F48NO7AD9VKK
874,0.0,left,right,0.0,1.902,0.0,34.0,34.0,34.0,1.0,bridge_250.jpg,bridge_134.jpg,3.0,A2F48NO7AD9VKK
875,1.0,left,right,0.0,1.6898,0.0,35.0,35.0,35.0,1.0,mountain_123.jpg,mountain_189.jpg,4.0,A2F48NO7AD9VKK
876,1.0,left,left,1.0,1.6654,0.0,36.0,36.0,36.0,1.0,golf_course_214.jpg,golf_course_317.jpg,4.0,A2F48NO7AD9VKK
877,0.0,left,right,0.0,3.5531,0.0,37.0,37.0,37.0,1.0,badlands_113.jpg,badlands_225.jpg,6.0,A2F48NO7AD9VKK
878,1.0,left,left,1.0,3.0159,0.0,38.0,38.0,38.0,1.0,playground_131.jpg,playground_164.jpg,3.0,A2F48NO7AD9VKK
879,1.0,left,left,1.0,2.7442,0.0,39.0,39.0,39.0,1.0,badlands_23.jpg,badlands_101.jpg,3.0,A2F48NO7AD9VKK
880,0.0,right,right,1.0,2.0448,0.0,40.0,40.0,40.0,1.0,badlands_94.jpg,badlands_52.jpg,3.0,A2F48NO7AD9VKK
881,0.0,left,left,1.0,1.5208,0.0,41.0,41.0,41.0,1.0,playground_144.jpg,playground_137.jpg,1.0,A2F48NO7AD9VKK
882,1.0,left,left,1.0,2.8697,0.0,42.0,42.0,42.0,1.0,bridge_202.jpg,bridge_38.jpg,4.0,A2F48NO7AD9VKK
883,1.0,left,left,1.0,2.3909,0.0,43.0,43.0,43.0,1.0,mountain_222.jpg,mountain_93.jpg,2.0,A2F48NO7AD9VKK
884,1.0,right,left,0.0,1.6531,0.0,44.0,44.0,44.0,1.0,playground_72.jpg,playground_76.jpg,3.0,A2F48NO7AD9VKK
885,1.0,right,right,1.0,2.5853,0.0,45.0,45.0,45.0,1.0,playground_12.jpg,playground_10.jpg,3.0,A2F48NO7AD9VKK
886,1.0,right,right,1.0,2.2092,0.0,46.0,46.0,46.0,1.0,mountain_223.jpg,mountain_110.jpg,5.0,A2F48NO7AD9VKK
887,1.0,left,left,1.0,2.2332,0.0,47.0,47.0,47.0,1.0,bridge_128.jpg,bridge_244.jpg,3.0,A2F48NO7AD9VKK
888,0.0,right,right,1.0,2.0548,0.0,48.0,48.0,48.0,1.0,playground_229.jpg,playground_145.jpg,4.0,A2F48NO7AD9VKK
889,1.0,right,right,1.0,2.1865,0.0,49.0,49.0,49.0,1.0,golf_course_123.jpg,golf_course_193.jpg,2.0,A2F48NO7AD9VKK
890,0.0,right,right,1.0,1.8161,0.0,50.0,50.0,50.0,1.0,golf_course_114.jpg,golf_course_331.jpg,2.0,A2F48NO7AD9VKK
891,0.0,left,left,1.0,3.5198,0.0,51.0,51.0,51.0,1.0,mountain_230.jpg,mountain_184.jpg,1.0,A2F48NO7AD9VKK
892,0.0,right,right,1.0,3.5234,0.0,52.0,52.0,52.0,1.0,highway_85.jpg,highway_93.jpg,3.0,A2F48NO7AD9VKK
893,0.0,right,right,1.0,9.0826,0.0,53.0,53.0,53.0,1.0,badlands_3.jpg,badlands_24.jpg,4.0,A2F48NO7AD9VKK
894,0.0,left,right,0.0,2.749,0.0,54.0,54.0,54.0,1.0,badlands_137.jpg,badlands_194.jpg,3.0,A2F48NO7AD9VKK
895,1.0,right,left,0.0,3.2127,0.0,55.0,55.0,55.0,1.0,playground_205.jpg,playground_219.jpg,4.0,A2F48NO7AD9VKK
896,0.0,right,left,0.0,3.2185,0.0,56.0,56.0,56.0,1.0,highway_384.jpg,highway_273.jpg,1.0,A2F48NO7AD9VKK
897,1.0,right,right,1.0,4.6146,0.0,57.0,57.0,57.0,1.0,golf_course_160.jpg,golf_course_188.jpg,3.0,A2F48NO7AD9VKK
898,1.0,left,left,1.0,2.8336,0.0,58.0,58.0,58.0,1.0,badlands_184.jpg,badlands_103.jpg,4.0,A2F48NO7AD9VKK
899,1.0,right,right,1.0,2.6073,0.0,59.0,59.0,59.0,1.0,mountain_95.jpg,mountain_154.jpg,3.0,A2F48NO7AD9VKK
900,1.0,left,left,1.0,2.4547,0.0,0.0,0.0,0.0,1.0,playground_131.jpg,playground_164.jpg,6.0,A2FREFX5AGACUZ
901,1.0,left,right,0.0,2.1885,0.0,1.0,1.0,1.0,1.0,badlands_24.jpg,badlands_53.jpg,5.0,A2FREFX5AGACUZ
902,0.0,left,left,1.0,4.7562,0.0,2.0,2.0,2.0,1.0,mountain_110.jpg,mountain_157.jpg,5.0,A2FREFX5AGACUZ
903,1.0,left,right,0.0,1.332,0.0,3.0,3.0,3.0,1.0,badlands_222.jpg,badlands_62.jpg,6.0,A2FREFX5AGACUZ
904,0.0,left,right,0.0,1.6287,0.0,4.0,4.0,4.0,1.0,mountain_293.jpg,mountain_72.jpg,7.0,A2FREFX5AGACUZ
905,0.0,right,right,1.0,4.8714,0.0,5.0,5.0,5.0,1.0,highway_85.jpg,highway_93.jpg,7.0,A2FREFX5AGACUZ
906,0.0,right,right,1.0,1.7901,0.0,6.0,6.0,6.0,1.0,badlands_228.jpg,badlands_184.jpg,6.0,A2FREFX5AGACUZ
907,0.0,left,left,1.0,1.472,0.0,7.0,7.0,7.0,1.0,playground_144.jpg,playground_137.jpg,6.0,A2FREFX5AGACUZ
908,1.0,left,left,1.0,3.7411,0.0,8.0,8.0,8.0,1.0,bridge_91.jpg,bridge_82.jpg,6.0,A2FREFX5AGACUZ
909,0.0,right,left,0.0,1.5568,0.0,9.0,9.0,9.0,1.0,badlands_102.jpg,badlands_70.jpg,6.0,A2FREFX5AGACUZ
910,0.0,right,left,0.0,1.7334,0.0,10.0,10.0,10.0,1.0,playground_229.jpg,playground_145.jpg,8.0,A2FREFX5AGACUZ
911,1.0,right,right,1.0,1.5519,0.0,11.0,11.0,11.0,1.0,playground_127.jpg,playground_117.jpg,5.0,A2FREFX5AGACUZ
912,0.0,left,left,1.0,2.4852,0.0,12.0,12.0,12.0,1.0,bridge_256.jpg,bridge_54.jpg,5.0,A2FREFX5AGACUZ
913,1.0,left,left,1.0,1.5649,0.0,13.0,13.0,13.0,1.0,badlands_21.jpg,badlands_98.jpg,6.0,A2FREFX5AGACUZ
914,0.0,right,right,1.0,1.2499,0.0,14.0,14.0,14.0,1.0,badlands_94.jpg,badlands_52.jpg,6.0,A2FREFX5AGACUZ
915,0.0,left,left,1.0,1.3258,0.0,15.0,15.0,15.0,1.0,golf_course_193.jpg,golf_course_235.jpg,5.0,A2FREFX5AGACUZ
916,0.0,right,right,1.0,1.2041,0.0,16.0,16.0,16.0,1.0,badlands_225.jpg,badlands_113.jpg,6.0,A2FREFX5AGACUZ
917,1.0,right,left,0.0,1.8024,0.0,17.0,17.0,17.0,1.0,playground_244.jpg,playground_60.jpg,5.0,A2FREFX5AGACUZ
918,1.0,left,right,0.0,1.8452,0.0,18.0,18.0,18.0,1.0,playground_76.jpg,playground_72.jpg,5.0,A2FREFX5AGACUZ
919,1.0,left,left,1.0,7.7722,0.0,19.0,19.0,19.0,1.0,highway_273.jpg,highway_171.jpg,5.0,A2FREFX5AGACUZ
920,0.0,right,right,1.0,2.3697,0.0,20.0,20.0,20.0,1.0,highway_204.jpg,highway_394.jpg,7.0,A2FREFX5AGACUZ
921,0.0,right,right,1.0,1.3004,0.0,21.0,21.0,21.0,1.0,highway_389.jpg,highway_359.jpg,6.0,A2FREFX5AGACUZ
922,0.0,left,right,0.0,1.9,0.0,22.0,22.0,22.0,1.0,badlands_23.jpg,badlands_114.jpg,5.0,A2FREFX5AGACUZ
923,0.0,left,right,0.0,1.6474,0.0,23.0,23.0,23.0,1.0,bridge_65.jpg,bridge_181.jpg,5.0,A2FREFX5AGACUZ
924,0.0,left,left,1.0,1.2569,0.0,24.0,24.0,24.0,1.0,highway_209.jpg,highway_314.jpg,6.0,A2FREFX5AGACUZ
925,0.0,right,right,1.0,2.5751,0.0,25.0,25.0,25.0,1.0,mountain_193.jpg,mountain_57.jpg,5.0,A2FREFX5AGACUZ
926,0.0,right,right,1.0,1.6306,0.0,26.0,26.0,26.0,1.0,golf_course_113.jpg,golf_course_15.jpg,6.0,A2FREFX5AGACUZ
927,0.0,left,left,1.0,1.7601,0.0,27.0,27.0,27.0,1.0,golf_course_87.jpg,golf_course_130.jpg,4.0,A2FREFX5AGACUZ
928,1.0,right,right,1.0,2.1097,0.0,28.0,28.0,28.0,1.0,bridge_148.jpg,bridge_108.jpg,5.0,A2FREFX5AGACUZ
929,0.0,left,right,0.0,1.9738,0.0,29.0,29.0,29.0,1.0,bridge_191.jpg,bridge_184.jpg,5.0,A2FREFX5AGACUZ
930,1.0,left,right,0.0,1.805,0.0,30.0,30.0,30.0,1.0,mountain_101.jpg,mountain_221.jpg,5.0,A2FREFX5AGACUZ
931,0.0,right,right,1.0,1.2723,0.0,31.0,31.0,31.0,1.0,playground_2.jpg,playground_240.jpg,6.0,A2FREFX5AGACUZ
932,1.0,left,right,0.0,1.2518,0.0,32.0,32.0,32.0,1.0,playground_10.jpg,playground_12.jpg,7.0,A2FREFX5AGACUZ
933,1.0,left,left,1.0,1.8345,0.0,33.0,33.0,33.0,1.0,golf_course_217.jpg,golf_course_262.jpg,5.0,A2FREFX5AGACUZ
934,1.0,right,right,1.0,1.3275,0.0,34.0,34.0,34.0,1.0,golf_course_101.jpg,golf_course_78.jpg,6.0,A2FREFX5AGACUZ
935,1.0,right,right,1.0,1.2879,0.0,35.0,35.0,35.0,1.0,badlands_139.jpg,badlands_137.jpg,6.0,A2FREFX5AGACUZ
936,1.0,left,left,1.0,1.9376,0.0,36.0,36.0,36.0,1.0,bridge_202.jpg,bridge_38.jpg,5.0,A2FREFX5AGACUZ
937,1.0,right,left,0.0,3.0204,0.0,37.0,37.0,37.0,1.0,mountain_54.jpg,mountain_232.jpg,5.0,A2FREFX5AGACUZ
938,1.0,right,right,1.0,1.6636,0.0,38.0,38.0,38.0,1.0,bridge_163.jpg,bridge_172.jpg,5.0,A2FREFX5AGACUZ
939,0.0,left,right,0.0,1.6809,0.0,39.0,39.0,39.0,1.0,bridge_146.jpg,bridge_27.jpg,5.0,A2FREFX5AGACUZ
940,1.0,left,right,0.0,3.5349,0.0,40.0,40.0,40.0,1.0,highway_415.jpg,highway_174.jpg,6.0,A2FREFX5AGACUZ
941,0.0,left,right,0.0,2.3443,0.0,41.0,41.0,41.0,1.0,golf_course_309.jpg,golf_course_16.jpg,5.0,A2FREFX5AGACUZ
942,1.0,left,left,1.0,3.0249,0.0,42.0,42.0,42.0,1.0,golf_course_331.jpg,golf_course_26.jpg,5.0,A2FREFX5AGACUZ
943,1.0,right,right,1.0,8.0705,0.0,43.0,43.0,43.0,1.0,mountain_95.jpg,mountain_154.jpg,5.0,A2FREFX5AGACUZ
944,0.0,left,right,0.0,1.3274,0.0,44.0,44.0,44.0,1.0,golf_course_188.jpg,golf_course_157.jpg,6.0,A2FREFX5AGACUZ
945,1.0,left,right,0.0,1.7231,0.0,45.0,45.0,45.0,1.0,highway_245.jpg,highway_206.jpg,6.0,A2FREFX5AGACUZ
