,index,test_encoding_response.keys,test_encoding_response.corr,trials.thisTrialN,target,correct,test_encoding_response.rt,key_resp_end.keys,subject
0,20,,1.0,0.0,bridge_256.jpg,,,,A1ZFUHVIPQOVGK
1,21,,1.0,1.0,highway_359.jpg,,,,A1ZFUHVIPQOVGK
2,22,,1.0,2.0,badlands_70.jpg,,,,A1ZFUHVIPQOVGK
3,23,,1.0,3.0,mountain_222.jpg,,,,A1ZFUHVIPQOVGK
4,24,,1.0,4.0,playground_76.jpg,,,,A1ZFUHVIPQOVGK
5,25,,1.0,5.0,bridge_250.jpg,,,,A1ZFUHVIPQOVGK
6,26,,1.0,6.0,mountain_232.jpg,,,,A1ZFUHVIPQOVGK
7,27,,1.0,7.0,badlands_21.jpg,,,,A1ZFUHVIPQOVGK
8,28,,1.0,8.0,golf_course_309.jpg,,,,A1ZFUHVIPQOVGK
9,29,,1.0,9.0,highway_415.jpg,,,,A1ZFUHVIPQOVGK
10,30,,1.0,10.0,mountain_154.jpg,,,,A1ZFUHVIPQOVGK
11,31,,1.0,11.0,bridge_128.jpg,,,,A1ZFUHVIPQOVGK
12,32,,1.0,12.0,highway_273.jpg,,,,A1ZFUHVIPQOVGK
13,33,,1.0,13.0,bridge_202.jpg,,,,A1ZFUHVIPQOVGK
14,34,right,1.0,14.0,right.jpg,right,1.4302,,A1ZFUHVIPQOVGK
15,35,,1.0,15.0,mountain_110.jpg,,,,A1ZFUHVIPQOVGK
16,36,,1.0,16.0,bridge_191.jpg,,,,A1ZFUHVIPQOVGK
17,37,,1.0,17.0,badlands_113.jpg,,,,A1ZFUHVIPQOVGK
18,38,left,1.0,18.0,left.jpg,left,1.4184,,A1ZFUHVIPQOVGK
19,39,,1.0,19.0,golf_course_195.jpg,,,,A1ZFUHVIPQOVGK
20,40,,1.0,20.0,playground_60.jpg,,,,A1ZFUHVIPQOVGK
21,41,,1.0,21.0,mountain_101.jpg,,,,A1ZFUHVIPQOVGK
22,42,,1.0,22.0,golf_course_217.jpg,,,,A1ZFUHVIPQOVGK
23,43,,1.0,23.0,golf_course_331.jpg,,,,A1ZFUHVIPQOVGK
24,44,,1.0,24.0,mountain_123.jpg,,,,A1ZFUHVIPQOVGK
25,45,,1.0,25.0,playground_145.jpg,,,,A1ZFUHVIPQOVGK
26,46,,1.0,26.0,highway_245.jpg,,,,A1ZFUHVIPQOVGK
27,47,,1.0,27.0,mountain_57.jpg,,,,A1ZFUHVIPQOVGK
28,48,,1.0,28.0,playground_131.jpg,,,,A1ZFUHVIPQOVGK
29,49,,1.0,29.0,highway_177.jpg,,,,A1ZFUHVIPQOVGK
30,50,right,1.0,30.0,right.jpg,right,1.401,,A1ZFUHVIPQOVGK
31,51,,1.0,31.0,badlands_23.jpg,,,,A1ZFUHVIPQOVGK
32,52,,1.0,32.0,highway_294.jpg,,,,A1ZFUHVIPQOVGK
33,53,,1.0,33.0,highway_156.jpg,,,,A1ZFUHVIPQOVGK
34,54,,1.0,34.0,highway_394.jpg,,,,A1ZFUHVIPQOVGK
35,55,,1.0,35.0,bridge_91.jpg,,,,A1ZFUHVIPQOVGK
36,56,left,1.0,36.0,left.jpg,left,1.517,,A1ZFUHVIPQOVGK
37,57,,1.0,37.0,bridge_172.jpg,,,,A1ZFUHVIPQOVGK
38,58,,1.0,38.0,golf_course_78.jpg,,,,A1ZFUHVIPQOVGK
39,59,,1.0,39.0,mountain_293.jpg,,,,A1ZFUHVIPQOVGK
40,60,,1.0,40.0,playground_144.jpg,,,,A1ZFUHVIPQOVGK
41,61,,1.0,41.0,bridge_65.jpg,,,,A1ZFUHVIPQOVGK
42,62,,1.0,42.0,badlands_52.jpg,,,,A1ZFUHVIPQOVGK
43,63,,1.0,43.0,highway_209.jpg,,,,A1ZFUHVIPQOVGK
44,64,,1.0,44.0,golf_course_188.jpg,,,,A1ZFUHVIPQOVGK
45,65,,1.0,45.0,golf_course_214.jpg,,,,A1ZFUHVIPQOVGK
46,66,,1.0,46.0,bridge_108.jpg,,,,A1ZFUHVIPQOVGK
47,67,,1.0,47.0,mountain_230.jpg,,,,A1ZFUHVIPQOVGK
48,68,,1.0,48.0,playground_219.jpg,,,,A1ZFUHVIPQOVGK
49,69,,1.0,49.0,bridge_146.jpg,,,,A1ZFUHVIPQOVGK
50,70,,1.0,50.0,badlands_137.jpg,,,,A1ZFUHVIPQOVGK
51,71,,1.0,51.0,playground_257.jpg,,,,A1ZFUHVIPQOVGK
52,72,,1.0,52.0,mountain_156.jpg,,,,A1ZFUHVIPQOVGK
53,73,,1.0,53.0,golf_course_15.jpg,,,,A1ZFUHVIPQOVGK
54,74,right,1.0,54.0,right.jpg,right,1.8852,,A1ZFUHVIPQOVGK
55,75,,1.0,55.0,badlands_184.jpg,,,,A1ZFUHVIPQOVGK
56,76,,1.0,56.0,badlands_24.jpg,,,,A1ZFUHVIPQOVGK
57,77,,1.0,57.0,badlands_221.jpg,,,,A1ZFUHVIPQOVGK
58,78,,1.0,58.0,highway_93.jpg,,,,A1ZFUHVIPQOVGK
59,79,,1.0,59.0,playground_117.jpg,,,,A1ZFUHVIPQOVGK
60,80,,1.0,60.0,playground_10.jpg,,,,A1ZFUHVIPQOVGK
61,81,,1.0,61.0,badlands_222.jpg,,,,A1ZFUHVIPQOVGK
62,82,,1.0,62.0,golf_course_87.jpg,,,,A1ZFUHVIPQOVGK
63,83,,1.0,63.0,playground_240.jpg,,,,A1ZFUHVIPQOVGK
64,84,,1.0,64.0,golf_course_193.jpg,,,,A1ZFUHVIPQOVGK
65,20,,1.0,0.0,bridge_172.jpg,,,,A1AMGHYG5PT0L2
66,21,,1.0,1.0,badlands_70.jpg,,,,A1AMGHYG5PT0L2
67,22,,1.0,2.0,playground_10.jpg,,,,A1AMGHYG5PT0L2
68,23,,1.0,3.0,highway_177.jpg,,,,A1AMGHYG5PT0L2
69,24,,1.0,4.0,badlands_21.jpg,,,,A1AMGHYG5PT0L2
70,25,,1.0,5.0,golf_course_188.jpg,,,,A1AMGHYG5PT0L2
71,26,,1.0,6.0,golf_course_15.jpg,,,,A1AMGHYG5PT0L2
72,27,,1.0,7.0,playground_219.jpg,,,,A1AMGHYG5PT0L2
73,28,,1.0,8.0,mountain_230.jpg,,,,A1AMGHYG5PT0L2
74,29,,1.0,9.0,badlands_113.jpg,,,,A1AMGHYG5PT0L2
75,30,,1.0,10.0,bridge_128.jpg,,,,A1AMGHYG5PT0L2
76,31,,1.0,11.0,mountain_232.jpg,,,,A1AMGHYG5PT0L2
77,32,,1.0,12.0,bridge_65.jpg,,,,A1AMGHYG5PT0L2
78,33,right,1.0,13.0,right.jpg,right,1.9663,,A1AMGHYG5PT0L2
79,34,,1.0,14.0,highway_209.jpg,,,,A1AMGHYG5PT0L2
80,35,,1.0,15.0,golf_course_193.jpg,,,,A1AMGHYG5PT0L2
81,36,,1.0,16.0,mountain_293.jpg,,,,A1AMGHYG5PT0L2
82,37,,1.0,17.0,mountain_57.jpg,,,,A1AMGHYG5PT0L2
83,38,,1.0,18.0,mountain_110.jpg,,,,A1AMGHYG5PT0L2
84,39,,1.0,19.0,mountain_154.jpg,,,,A1AMGHYG5PT0L2
85,40,,1.0,20.0,golf_course_78.jpg,,,,A1AMGHYG5PT0L2
86,41,left,1.0,21.0,left.jpg,left,0.5649,,A1AMGHYG5PT0L2
87,42,,1.0,22.0,badlands_52.jpg,,,,A1AMGHYG5PT0L2
88,43,,1.0,23.0,highway_359.jpg,,,,A1AMGHYG5PT0L2
89,44,,1.0,24.0,highway_156.jpg,,,,A1AMGHYG5PT0L2
90,45,,1.0,25.0,playground_131.jpg,,,,A1AMGHYG5PT0L2
91,46,,1.0,26.0,bridge_146.jpg,,,,A1AMGHYG5PT0L2
92,47,,1.0,27.0,badlands_184.jpg,,,,A1AMGHYG5PT0L2
93,48,left,1.0,28.0,left.jpg,left,0.6478,,A1AMGHYG5PT0L2
94,49,,1.0,29.0,mountain_222.jpg,,,,A1AMGHYG5PT0L2
95,50,,1.0,30.0,highway_294.jpg,,,,A1AMGHYG5PT0L2
96,51,,1.0,31.0,bridge_256.jpg,,,,A1AMGHYG5PT0L2
97,52,,1.0,32.0,bridge_191.jpg,,,,A1AMGHYG5PT0L2
98,53,,1.0,33.0,playground_76.jpg,,,,A1AMGHYG5PT0L2
99,54,,1.0,34.0,playground_240.jpg,,,,A1AMGHYG5PT0L2
100,55,,1.0,35.0,playground_60.jpg,,,,A1AMGHYG5PT0L2
101,56,right,1.0,36.0,right.jpg,right,2.9639,,A1AMGHYG5PT0L2
102,57,,1.0,37.0,playground_117.jpg,,,,A1AMGHYG5PT0L2
103,58,,1.0,38.0,mountain_101.jpg,,,,A1AMGHYG5PT0L2
104,59,,1.0,39.0,badlands_23.jpg,,,,A1AMGHYG5PT0L2
105,60,,1.0,40.0,bridge_202.jpg,,,,A1AMGHYG5PT0L2
106,61,,1.0,41.0,playground_144.jpg,,,,A1AMGHYG5PT0L2
107,62,,1.0,42.0,golf_course_87.jpg,,,,A1AMGHYG5PT0L2
108,63,,1.0,43.0,bridge_108.jpg,,,,A1AMGHYG5PT0L2
109,64,,1.0,44.0,bridge_91.jpg,,,,A1AMGHYG5PT0L2
110,65,,1.0,45.0,golf_course_214.jpg,,,,A1AMGHYG5PT0L2
111,66,,1.0,46.0,badlands_221.jpg,,,,A1AMGHYG5PT0L2
112,67,,1.0,47.0,badlands_24.jpg,,,,A1AMGHYG5PT0L2
113,68,,1.0,48.0,highway_93.jpg,,,,A1AMGHYG5PT0L2
114,69,,1.0,49.0,playground_257.jpg,,,,A1AMGHYG5PT0L2
115,70,,1.0,50.0,bridge_250.jpg,,,,A1AMGHYG5PT0L2
116,71,,1.0,51.0,golf_course_195.jpg,,,,A1AMGHYG5PT0L2
117,72,,1.0,52.0,mountain_156.jpg,,,,A1AMGHYG5PT0L2
118,73,,1.0,53.0,playground_145.jpg,,,,A1AMGHYG5PT0L2
119,74,,0.0,54.0,left.jpg,left,,,A1AMGHYG5PT0L2
120,75,,1.0,55.0,golf_course_331.jpg,,,,A1AMGHYG5PT0L2
121,76,,1.0,56.0,badlands_222.jpg,,,,A1AMGHYG5PT0L2
122,77,,1.0,57.0,badlands_137.jpg,,,,A1AMGHYG5PT0L2
123,78,,1.0,58.0,highway_245.jpg,,,,A1AMGHYG5PT0L2
124,79,,1.0,59.0,highway_415.jpg,,,,A1AMGHYG5PT0L2
125,80,,1.0,60.0,highway_394.jpg,,,,A1AMGHYG5PT0L2
126,81,,1.0,61.0,mountain_123.jpg,,,,A1AMGHYG5PT0L2
127,82,,1.0,62.0,golf_course_309.jpg,,,,A1AMGHYG5PT0L2
128,83,,1.0,63.0,highway_273.jpg,,,,A1AMGHYG5PT0L2
129,84,,1.0,64.0,golf_course_217.jpg,,,,A1AMGHYG5PT0L2
130,20,,1.0,0.0,bridge_250.jpg,,,,A1YALKEEJHHWSO
131,21,,1.0,1.0,mountain_110.jpg,,,,A1YALKEEJHHWSO
132,22,,1.0,2.0,highway_359.jpg,,,,A1YALKEEJHHWSO
133,23,,1.0,3.0,bridge_146.jpg,,,,A1YALKEEJHHWSO
134,24,,1.0,4.0,playground_240.jpg,,,,A1YALKEEJHHWSO
135,25,,1.0,5.0,playground_257.jpg,,,,A1YALKEEJHHWSO
136,26,,1.0,6.0,playground_60.jpg,,,,A1YALKEEJHHWSO
137,27,,1.0,7.0,golf_course_193.jpg,,,,A1YALKEEJHHWSO
138,28,,1.0,8.0,mountain_232.jpg,,,,A1YALKEEJHHWSO
139,29,,1.0,9.0,badlands_21.jpg,,,,A1YALKEEJHHWSO
140,30,,1.0,10.0,golf_course_15.jpg,,,,A1YALKEEJHHWSO
141,31,,1.0,11.0,mountain_123.jpg,,,,A1YALKEEJHHWSO
142,32,,1.0,12.0,golf_course_87.jpg,,,,A1YALKEEJHHWSO
143,33,,1.0,13.0,bridge_256.jpg,,,,A1YALKEEJHHWSO
144,34,left,1.0,14.0,left.jpg,left,1.991200001,,A1YALKEEJHHWSO
145,35,,1.0,15.0,badlands_137.jpg,,,,A1YALKEEJHHWSO
146,36,,1.0,16.0,highway_177.jpg,,,,A1YALKEEJHHWSO
147,37,,1.0,17.0,badlands_113.jpg,,,,A1YALKEEJHHWSO
148,38,,1.0,18.0,bridge_128.jpg,,,,A1YALKEEJHHWSO
149,39,,1.0,19.0,golf_course_195.jpg,,,,A1YALKEEJHHWSO
150,40,,1.0,20.0,badlands_24.jpg,,,,A1YALKEEJHHWSO
151,41,,1.0,21.0,highway_273.jpg,,,,A1YALKEEJHHWSO
152,42,,1.0,22.0,playground_219.jpg,,,,A1YALKEEJHHWSO
153,43,,1.0,23.0,highway_415.jpg,,,,A1YALKEEJHHWSO
154,44,left,1.0,24.0,left.jpg,left,1.9927,,A1YALKEEJHHWSO
155,45,,1.0,25.0,golf_course_188.jpg,,,,A1YALKEEJHHWSO
156,46,,1.0,26.0,mountain_57.jpg,,,,A1YALKEEJHHWSO
157,47,,1.0,27.0,mountain_101.jpg,,,,A1YALKEEJHHWSO
158,48,,1.0,28.0,badlands_23.jpg,,,,A1YALKEEJHHWSO
159,49,,1.0,29.0,playground_145.jpg,,,,A1YALKEEJHHWSO
160,50,left,1.0,30.0,left.jpg,left,1.9937,,A1YALKEEJHHWSO
161,51,,1.0,31.0,bridge_91.jpg,,,,A1YALKEEJHHWSO
162,52,,1.0,32.0,highway_156.jpg,,,,A1YALKEEJHHWSO
163,53,,1.0,33.0,mountain_222.jpg,,,,A1YALKEEJHHWSO
164,54,,1.0,34.0,mountain_293.jpg,,,,A1YALKEEJHHWSO
165,55,,1.0,35.0,highway_209.jpg,,,,A1YALKEEJHHWSO
166,56,,1.0,36.0,bridge_65.jpg,,,,A1YALKEEJHHWSO
167,57,,1.0,37.0,highway_245.jpg,,,,A1YALKEEJHHWSO
168,58,,1.0,38.0,golf_course_214.jpg,,,,A1YALKEEJHHWSO
169,59,,1.0,39.0,playground_144.jpg,,,,A1YALKEEJHHWSO
170,60,,1.0,40.0,playground_76.jpg,,,,A1YALKEEJHHWSO
171,61,right,1.0,41.0,right.jpg,right,1.9948,,A1YALKEEJHHWSO
172,62,,1.0,42.0,bridge_191.jpg,,,,A1YALKEEJHHWSO
173,63,,1.0,43.0,badlands_70.jpg,,,,A1YALKEEJHHWSO
174,64,,1.0,44.0,highway_294.jpg,,,,A1YALKEEJHHWSO
175,65,,1.0,45.0,bridge_108.jpg,,,,A1YALKEEJHHWSO
176,66,,1.0,46.0,highway_93.jpg,,,,A1YALKEEJHHWSO
177,67,,1.0,47.0,golf_course_309.jpg,,,,A1YALKEEJHHWSO
178,68,,1.0,48.0,playground_131.jpg,,,,A1YALKEEJHHWSO
179,69,right,1.0,49.0,right.jpg,right,1.6535,,A1YALKEEJHHWSO
180,70,,1.0,50.0,mountain_156.jpg,,,,A1YALKEEJHHWSO
181,71,,1.0,51.0,badlands_222.jpg,,,,A1YALKEEJHHWSO
182,72,,1.0,52.0,bridge_172.jpg,,,,A1YALKEEJHHWSO
183,73,,1.0,53.0,mountain_230.jpg,,,,A1YALKEEJHHWSO
184,74,,1.0,54.0,golf_course_331.jpg,,,,A1YALKEEJHHWSO
185,75,,1.0,55.0,highway_394.jpg,,,,A1YALKEEJHHWSO
186,76,,1.0,56.0,mountain_154.jpg,,,,A1YALKEEJHHWSO
187,77,,1.0,57.0,playground_117.jpg,,,,A1YALKEEJHHWSO
188,78,,1.0,58.0,badlands_221.jpg,,,,A1YALKEEJHHWSO
189,79,,1.0,59.0,badlands_52.jpg,,,,A1YALKEEJHHWSO
190,80,,1.0,60.0,playground_10.jpg,,,,A1YALKEEJHHWSO
191,81,,1.0,61.0,badlands_184.jpg,,,,A1YALKEEJHHWSO
192,82,,1.0,62.0,bridge_202.jpg,,,,A1YALKEEJHHWSO
193,83,,1.0,63.0,golf_course_78.jpg,,,,A1YALKEEJHHWSO
194,84,,1.0,64.0,golf_course_217.jpg,,,,A1YALKEEJHHWSO
195,20,,1.0,0.0,highway_245.jpg,,,,A2AN972XU7OY8W
196,21,,1.0,1.0,badlands_222.jpg,,,,A2AN972XU7OY8W
197,22,,1.0,2.0,highway_209.jpg,,,,A2AN972XU7OY8W
198,23,,1.0,3.0,badlands_23.jpg,,,,A2AN972XU7OY8W
199,24,,1.0,4.0,badlands_70.jpg,,,,A2AN972XU7OY8W
200,25,,1.0,5.0,bridge_65.jpg,,,,A2AN972XU7OY8W
201,26,,1.0,6.0,golf_course_214.jpg,,,,A2AN972XU7OY8W
202,27,,1.0,7.0,mountain_232.jpg,,,,A2AN972XU7OY8W
203,28,,1.0,8.0,playground_144.jpg,,,,A2AN972XU7OY8W
204,29,,1.0,9.0,golf_course_309.jpg,,,,A2AN972XU7OY8W
205,30,,1.0,10.0,mountain_57.jpg,,,,A2AN972XU7OY8W
206,31,,1.0,11.0,mountain_101.jpg,,,,A2AN972XU7OY8W
207,32,,1.0,12.0,highway_294.jpg,,,,A2AN972XU7OY8W
208,33,left,1.0,13.0,left.jpg,left,1.0506,,A2AN972XU7OY8W
209,34,,1.0,14.0,golf_course_331.jpg,,,,A2AN972XU7OY8W
210,35,,1.0,15.0,bridge_202.jpg,,,,A2AN972XU7OY8W
211,36,,1.0,16.0,golf_course_188.jpg,,,,A2AN972XU7OY8W
212,37,,1.0,17.0,bridge_108.jpg,,,,A2AN972XU7OY8W
213,38,,1.0,18.0,golf_course_217.jpg,,,,A2AN972XU7OY8W
214,39,,1.0,19.0,playground_10.jpg,,,,A2AN972XU7OY8W
215,40,,1.0,20.0,mountain_154.jpg,,,,A2AN972XU7OY8W
216,41,,1.0,21.0,highway_156.jpg,,,,A2AN972XU7OY8W
217,42,,1.0,22.0,mountain_110.jpg,,,,A2AN972XU7OY8W
218,43,left,1.0,23.0,left.jpg,left,0.982,,A2AN972XU7OY8W
219,44,,1.0,24.0,badlands_113.jpg,,,,A2AN972XU7OY8W
220,45,,1.0,25.0,badlands_221.jpg,,,,A2AN972XU7OY8W
221,46,,1.0,26.0,mountain_156.jpg,,,,A2AN972XU7OY8W
222,47,,1.0,27.0,mountain_123.jpg,,,,A2AN972XU7OY8W
223,48,,1.0,28.0,bridge_91.jpg,,,,A2AN972XU7OY8W
224,49,,1.0,29.0,bridge_191.jpg,,,,A2AN972XU7OY8W
225,50,,1.0,30.0,mountain_222.jpg,,,,A2AN972XU7OY8W
226,51,,1.0,31.0,badlands_52.jpg,,,,A2AN972XU7OY8W
227,52,left,1.0,32.0,left.jpg,left,1.3417,,A2AN972XU7OY8W
228,53,,1.0,33.0,golf_course_195.jpg,,,,A2AN972XU7OY8W
229,54,,1.0,34.0,highway_415.jpg,,,,A2AN972XU7OY8W
230,55,,1.0,35.0,playground_145.jpg,,,,A2AN972XU7OY8W
231,56,right,1.0,36.0,right.jpg,right,0.9742,,A2AN972XU7OY8W
232,57,,1.0,37.0,badlands_137.jpg,,,,A2AN972XU7OY8W
233,58,,1.0,38.0,bridge_250.jpg,,,,A2AN972XU7OY8W
234,59,,1.0,39.0,mountain_230.jpg,,,,A2AN972XU7OY8W
235,60,,1.0,40.0,playground_76.jpg,,,,A2AN972XU7OY8W
236,61,,1.0,41.0,bridge_146.jpg,,,,A2AN972XU7OY8W
237,62,,1.0,42.0,golf_course_193.jpg,,,,A2AN972XU7OY8W
238,63,,1.0,43.0,badlands_184.jpg,,,,A2AN972XU7OY8W
239,64,,1.0,44.0,bridge_256.jpg,,,,A2AN972XU7OY8W
240,65,,1.0,45.0,highway_359.jpg,,,,A2AN972XU7OY8W
241,66,,1.0,46.0,highway_273.jpg,,,,A2AN972XU7OY8W
242,67,,1.0,47.0,playground_240.jpg,,,,A2AN972XU7OY8W
243,68,,1.0,48.0,playground_219.jpg,,,,A2AN972XU7OY8W
244,69,right,1.0,49.0,right.jpg,right,1.1267,,A2AN972XU7OY8W
245,70,,1.0,50.0,highway_394.jpg,,,,A2AN972XU7OY8W
246,71,,1.0,51.0,badlands_24.jpg,,,,A2AN972XU7OY8W
247,72,,1.0,52.0,mountain_293.jpg,,,,A2AN972XU7OY8W
248,73,,1.0,53.0,badlands_21.jpg,,,,A2AN972XU7OY8W
249,74,,1.0,54.0,golf_course_87.jpg,,,,A2AN972XU7OY8W
250,75,,1.0,55.0,highway_177.jpg,,,,A2AN972XU7OY8W
251,76,,1.0,56.0,playground_257.jpg,,,,A2AN972XU7OY8W
252,77,,1.0,57.0,playground_60.jpg,,,,A2AN972XU7OY8W
253,78,,1.0,58.0,highway_93.jpg,,,,A2AN972XU7OY8W
254,79,,1.0,59.0,playground_131.jpg,,,,A2AN972XU7OY8W
255,80,,1.0,60.0,playground_117.jpg,,,,A2AN972XU7OY8W
256,81,,1.0,61.0,bridge_172.jpg,,,,A2AN972XU7OY8W
257,82,,1.0,62.0,golf_course_15.jpg,,,,A2AN972XU7OY8W
258,83,,1.0,63.0,golf_course_78.jpg,,,,A2AN972XU7OY8W
259,84,,1.0,64.0,bridge_128.jpg,,,,A2AN972XU7OY8W
260,20,,1.0,0.0,golf_course_309.jpg,,,,A1F3HF70PF8G97
261,21,,1.0,1.0,golf_course_214.jpg,,,,A1F3HF70PF8G97
262,22,,1.0,2.0,playground_257.jpg,,,,A1F3HF70PF8G97
263,23,,1.0,3.0,mountain_154.jpg,,,,A1F3HF70PF8G97
264,24,,1.0,4.0,playground_131.jpg,,,,A1F3HF70PF8G97
265,25,,1.0,5.0,playground_240.jpg,,,,A1F3HF70PF8G97
266,26,,1.0,6.0,badlands_52.jpg,,,,A1F3HF70PF8G97
267,27,,1.0,7.0,golf_course_217.jpg,,,,A1F3HF70PF8G97
268,28,right,1.0,8.0,right.jpg,right,1.4193,,A1F3HF70PF8G97
269,29,,1.0,9.0,mountain_123.jpg,,,,A1F3HF70PF8G97
270,30,,1.0,10.0,highway_415.jpg,,,,A1F3HF70PF8G97
271,31,,1.0,11.0,badlands_222.jpg,,,,A1F3HF70PF8G97
272,32,,1.0,12.0,golf_course_331.jpg,,,,A1F3HF70PF8G97
273,33,,1.0,13.0,badlands_21.jpg,,,,A1F3HF70PF8G97
274,34,,1.0,14.0,badlands_184.jpg,,,,A1F3HF70PF8G97
275,35,,1.0,15.0,bridge_172.jpg,,,,A1F3HF70PF8G97
276,36,,1.0,16.0,badlands_24.jpg,,,,A1F3HF70PF8G97
277,37,,1.0,17.0,bridge_91.jpg,,,,A1F3HF70PF8G97
278,38,,1.0,18.0,golf_course_78.jpg,,,,A1F3HF70PF8G97
279,39,,1.0,19.0,golf_course_188.jpg,,,,A1F3HF70PF8G97
280,40,right,1.0,20.0,right.jpg,right,1.428,,A1F3HF70PF8G97
281,41,,1.0,21.0,highway_294.jpg,,,,A1F3HF70PF8G97
282,42,,1.0,22.0,bridge_191.jpg,,,,A1F3HF70PF8G97
283,43,,1.0,23.0,highway_93.jpg,,,,A1F3HF70PF8G97
284,44,,1.0,24.0,bridge_108.jpg,,,,A1F3HF70PF8G97
285,45,,1.0,25.0,badlands_23.jpg,,,,A1F3HF70PF8G97
286,46,,1.0,26.0,mountain_101.jpg,,,,A1F3HF70PF8G97
287,47,,1.0,27.0,highway_156.jpg,,,,A1F3HF70PF8G97
288,48,,1.0,28.0,bridge_256.jpg,,,,A1F3HF70PF8G97
289,49,,1.0,29.0,highway_209.jpg,,,,A1F3HF70PF8G97
290,50,,1.0,30.0,highway_177.jpg,,,,A1F3HF70PF8G97
291,51,,1.0,31.0,mountain_232.jpg,,,,A1F3HF70PF8G97
292,52,left,1.0,32.0,left.jpg,left,1.437,,A1F3HF70PF8G97
293,53,,1.0,33.0,highway_394.jpg,,,,A1F3HF70PF8G97
294,54,,1.0,34.0,playground_219.jpg,,,,A1F3HF70PF8G97
295,55,,1.0,35.0,bridge_202.jpg,,,,A1F3HF70PF8G97
296,56,,1.0,36.0,playground_117.jpg,,,,A1F3HF70PF8G97
297,57,,1.0,37.0,playground_76.jpg,,,,A1F3HF70PF8G97
298,58,right,1.0,38.0,right.jpg,right,1.4607,,A1F3HF70PF8G97
299,59,,1.0,39.0,badlands_137.jpg,,,,A1F3HF70PF8G97
300,60,,1.0,40.0,mountain_222.jpg,,,,A1F3HF70PF8G97
301,61,,1.0,41.0,badlands_221.jpg,,,,A1F3HF70PF8G97
302,62,,1.0,42.0,mountain_110.jpg,,,,A1F3HF70PF8G97
303,63,,1.0,43.0,playground_10.jpg,,,,A1F3HF70PF8G97
304,64,,1.0,44.0,playground_144.jpg,,,,A1F3HF70PF8G97
305,65,,1.0,45.0,golf_course_87.jpg,,,,A1F3HF70PF8G97
306,66,,1.0,46.0,golf_course_195.jpg,,,,A1F3HF70PF8G97
307,67,,1.0,47.0,badlands_113.jpg,,,,A1F3HF70PF8G97
308,68,left,1.0,48.0,left.jpg,left,1.7056,,A1F3HF70PF8G97
309,69,,1.0,49.0,playground_145.jpg,,,,A1F3HF70PF8G97
310,70,,1.0,50.0,playground_60.jpg,,,,A1F3HF70PF8G97
311,71,,1.0,51.0,highway_359.jpg,,,,A1F3HF70PF8G97
312,72,,1.0,52.0,mountain_156.jpg,,,,A1F3HF70PF8G97
313,73,,1.0,53.0,golf_course_15.jpg,,,,A1F3HF70PF8G97
314,74,,1.0,54.0,golf_course_193.jpg,,,,A1F3HF70PF8G97
315,75,,1.0,55.0,bridge_128.jpg,,,,A1F3HF70PF8G97
316,76,,1.0,56.0,mountain_57.jpg,,,,A1F3HF70PF8G97
317,77,,1.0,57.0,highway_273.jpg,,,,A1F3HF70PF8G97
318,78,,1.0,58.0,bridge_146.jpg,,,,A1F3HF70PF8G97
319,79,,1.0,59.0,mountain_293.jpg,,,,A1F3HF70PF8G97
320,80,,1.0,60.0,bridge_250.jpg,,,,A1F3HF70PF8G97
321,81,,1.0,61.0,badlands_70.jpg,,,,A1F3HF70PF8G97
322,82,,1.0,62.0,highway_245.jpg,,,,A1F3HF70PF8G97
323,83,,1.0,63.0,bridge_65.jpg,,,,A1F3HF70PF8G97
324,84,,1.0,64.0,mountain_230.jpg,,,,A1F3HF70PF8G97
325,20,,1.0,0.0,golf_course_193.jpg,,,,A2FREFX5AGACUZ
326,21,,1.0,1.0,highway_177.jpg,,,,A2FREFX5AGACUZ
327,22,,1.0,2.0,golf_course_188.jpg,,,,A2FREFX5AGACUZ
328,23,,1.0,3.0,bridge_202.jpg,,,,A2FREFX5AGACUZ
329,24,,1.0,4.0,playground_60.jpg,,,,A2FREFX5AGACUZ
330,25,,1.0,5.0,golf_course_78.jpg,,,,A2FREFX5AGACUZ
331,26,,1.0,6.0,badlands_52.jpg,,,,A2FREFX5AGACUZ
332,27,,1.0,7.0,golf_course_309.jpg,,,,A2FREFX5AGACUZ
333,28,,1.0,8.0,mountain_110.jpg,,,,A2FREFX5AGACUZ
334,29,,1.0,9.0,mountain_101.jpg,,,,A2FREFX5AGACUZ
335,30,,1.0,10.0,highway_93.jpg,,,,A2FREFX5AGACUZ
336,31,,1.0,11.0,highway_415.jpg,,,,A2FREFX5AGACUZ
337,32,,1.0,12.0,badlands_113.jpg,,,,A2FREFX5AGACUZ
338,33,,1.0,13.0,playground_131.jpg,,,,A2FREFX5AGACUZ
339,34,left,1.0,14.0,left.jpg,left,1.0643,,A2FREFX5AGACUZ
340,35,,1.0,15.0,mountain_154.jpg,,,,A2FREFX5AGACUZ
341,36,,1.0,16.0,playground_117.jpg,,,,A2FREFX5AGACUZ
342,37,,1.0,17.0,playground_219.jpg,,,,A2FREFX5AGACUZ
343,38,right,1.0,18.0,right.jpg,right,1.1222,,A2FREFX5AGACUZ
344,39,,1.0,19.0,badlands_222.jpg,,,,A2FREFX5AGACUZ
345,40,,1.0,20.0,highway_245.jpg,,,,A2FREFX5AGACUZ
346,41,,1.0,21.0,golf_course_15.jpg,,,,A2FREFX5AGACUZ
347,42,,1.0,22.0,mountain_293.jpg,,,,A2FREFX5AGACUZ
348,43,,1.0,23.0,highway_394.jpg,,,,A2FREFX5AGACUZ
349,44,,1.0,24.0,bridge_65.jpg,,,,A2FREFX5AGACUZ
350,45,,1.0,25.0,golf_course_217.jpg,,,,A2FREFX5AGACUZ
351,46,,1.0,26.0,golf_course_214.jpg,,,,A2FREFX5AGACUZ
352,47,,1.0,27.0,mountain_222.jpg,,,,A2FREFX5AGACUZ
353,48,,1.0,28.0,highway_209.jpg,,,,A2FREFX5AGACUZ
354,49,,1.0,29.0,highway_156.jpg,,,,A2FREFX5AGACUZ
355,50,,1.0,30.0,bridge_256.jpg,,,,A2FREFX5AGACUZ
356,51,left,1.0,31.0,left.jpg,left,1.0681,,A2FREFX5AGACUZ
357,52,,1.0,32.0,badlands_184.jpg,,,,A2FREFX5AGACUZ
358,53,,1.0,33.0,mountain_232.jpg,,,,A2FREFX5AGACUZ
359,54,,1.0,34.0,bridge_250.jpg,,,,A2FREFX5AGACUZ
360,55,,1.0,35.0,badlands_221.jpg,,,,A2FREFX5AGACUZ
361,56,,1.0,36.0,mountain_123.jpg,,,,A2FREFX5AGACUZ
362,57,,1.0,37.0,mountain_57.jpg,,,,A2FREFX5AGACUZ
363,58,,1.0,38.0,badlands_70.jpg,,,,A2FREFX5AGACUZ
364,59,,1.0,39.0,playground_10.jpg,,,,A2FREFX5AGACUZ
365,60,,1.0,40.0,playground_144.jpg,,,,A2FREFX5AGACUZ
366,61,,1.0,41.0,bridge_108.jpg,,,,A2FREFX5AGACUZ
367,62,,1.0,42.0,badlands_23.jpg,,,,A2FREFX5AGACUZ
368,63,right,1.0,43.0,right.jpg,right,1.1044,,A2FREFX5AGACUZ
369,64,,1.0,44.0,highway_294.jpg,,,,A2FREFX5AGACUZ
370,65,,1.0,45.0,highway_273.jpg,,,,A2FREFX5AGACUZ
371,66,,1.0,46.0,playground_257.jpg,,,,A2FREFX5AGACUZ
372,67,,1.0,47.0,badlands_21.jpg,,,,A2FREFX5AGACUZ
373,68,,1.0,48.0,bridge_91.jpg,,,,A2FREFX5AGACUZ
374,69,,1.0,49.0,mountain_230.jpg,,,,A2FREFX5AGACUZ
375,70,,1.0,50.0,playground_145.jpg,,,,A2FREFX5AGACUZ
376,71,,1.0,51.0,golf_course_195.jpg,,,,A2FREFX5AGACUZ
377,72,,1.0,52.0,bridge_128.jpg,,,,A2FREFX5AGACUZ
378,73,right,1.0,53.0,right.jpg,right,1.0676,,A2FREFX5AGACUZ
379,74,,1.0,54.0,highway_359.jpg,,,,A2FREFX5AGACUZ
380,75,,1.0,55.0,bridge_146.jpg,,,,A2FREFX5AGACUZ
381,76,,1.0,56.0,playground_76.jpg,,,,A2FREFX5AGACUZ
382,77,,1.0,57.0,golf_course_331.jpg,,,,A2FREFX5AGACUZ
383,78,,1.0,58.0,badlands_24.jpg,,,,A2FREFX5AGACUZ
384,79,,1.0,59.0,golf_course_87.jpg,,,,A2FREFX5AGACUZ
385,80,,1.0,60.0,bridge_172.jpg,,,,A2FREFX5AGACUZ
386,81,,1.0,61.0,playground_240.jpg,,,,A2FREFX5AGACUZ
387,82,,1.0,62.0,mountain_156.jpg,,,,A2FREFX5AGACUZ
388,83,,1.0,63.0,badlands_137.jpg,,,,A2FREFX5AGACUZ
389,84,,1.0,64.0,bridge_191.jpg,,,,A2FREFX5AGACUZ
390,20,,1.0,0.0,bridge_91.jpg,,,,A1DIYFGQT1QDV2
391,21,,1.0,1.0,badlands_21.jpg,,,,A1DIYFGQT1QDV2
392,22,,1.0,2.0,highway_394.jpg,,,,A1DIYFGQT1QDV2
393,23,,1.0,3.0,golf_course_193.jpg,,,,A1DIYFGQT1QDV2
394,24,,1.0,4.0,golf_course_214.jpg,,,,A1DIYFGQT1QDV2
395,25,,1.0,5.0,playground_131.jpg,,,,A1DIYFGQT1QDV2
396,26,,1.0,6.0,highway_93.jpg,,,,A1DIYFGQT1QDV2
397,27,,1.0,7.0,bridge_191.jpg,,,,A1DIYFGQT1QDV2
398,28,,1.0,8.0,mountain_57.jpg,,,,A1DIYFGQT1QDV2
399,29,,1.0,9.0,badlands_113.jpg,,,,A1DIYFGQT1QDV2
400,30,left,1.0,10.0,left.jpg,left,0.7864,,A1DIYFGQT1QDV2
401,31,,1.0,11.0,badlands_184.jpg,,,,A1DIYFGQT1QDV2
402,32,,1.0,12.0,mountain_230.jpg,,,,A1DIYFGQT1QDV2
403,33,,1.0,13.0,bridge_256.jpg,,,,A1DIYFGQT1QDV2
404,34,,1.0,14.0,mountain_293.jpg,,,,A1DIYFGQT1QDV2
405,35,,1.0,15.0,playground_60.jpg,,,,A1DIYFGQT1QDV2
406,36,,1.0,16.0,playground_145.jpg,,,,A1DIYFGQT1QDV2
407,37,,1.0,17.0,playground_117.jpg,,,,A1DIYFGQT1QDV2
408,38,,1.0,18.0,highway_415.jpg,,,,A1DIYFGQT1QDV2
409,39,,1.0,19.0,golf_course_195.jpg,,,,A1DIYFGQT1QDV2
410,40,,1.0,20.0,badlands_70.jpg,,,,A1DIYFGQT1QDV2
411,41,,1.0,21.0,badlands_221.jpg,,,,A1DIYFGQT1QDV2
412,42,right,1.0,22.0,right.jpg,right,0.7525,,A1DIYFGQT1QDV2
413,43,,1.0,23.0,bridge_250.jpg,,,,A1DIYFGQT1QDV2
414,44,,1.0,24.0,mountain_222.jpg,,,,A1DIYFGQT1QDV2
415,45,,1.0,25.0,highway_273.jpg,,,,A1DIYFGQT1QDV2
416,46,,1.0,26.0,playground_76.jpg,,,,A1DIYFGQT1QDV2
417,47,,1.0,27.0,mountain_123.jpg,,,,A1DIYFGQT1QDV2
418,48,,1.0,28.0,golf_course_309.jpg,,,,A1DIYFGQT1QDV2
419,49,,1.0,29.0,mountain_232.jpg,,,,A1DIYFGQT1QDV2
420,50,left,1.0,30.0,left.jpg,left,0.7178,,A1DIYFGQT1QDV2
421,51,,1.0,31.0,highway_209.jpg,,,,A1DIYFGQT1QDV2
422,52,,1.0,32.0,bridge_202.jpg,,,,A1DIYFGQT1QDV2
423,53,,1.0,33.0,mountain_110.jpg,,,,A1DIYFGQT1QDV2
424,54,,1.0,34.0,bridge_108.jpg,,,,A1DIYFGQT1QDV2
425,55,,1.0,35.0,mountain_154.jpg,,,,A1DIYFGQT1QDV2
426,56,,1.0,36.0,bridge_128.jpg,,,,A1DIYFGQT1QDV2
427,57,,1.0,37.0,highway_177.jpg,,,,A1DIYFGQT1QDV2
428,58,,1.0,38.0,badlands_52.jpg,,,,A1DIYFGQT1QDV2
429,59,,1.0,39.0,golf_course_15.jpg,,,,A1DIYFGQT1QDV2
430,60,,1.0,40.0,playground_240.jpg,,,,A1DIYFGQT1QDV2
431,61,,1.0,41.0,highway_294.jpg,,,,A1DIYFGQT1QDV2
432,62,,1.0,42.0,mountain_101.jpg,,,,A1DIYFGQT1QDV2
433,63,,1.0,43.0,badlands_23.jpg,,,,A1DIYFGQT1QDV2
434,64,right,1.0,44.0,right.jpg,right,0.6838,,A1DIYFGQT1QDV2
435,65,,1.0,45.0,highway_245.jpg,,,,A1DIYFGQT1QDV2
436,66,,1.0,46.0,badlands_222.jpg,,,,A1DIYFGQT1QDV2
437,67,left,1.0,47.0,left.jpg,left,0.7721,,A1DIYFGQT1QDV2
438,68,,1.0,48.0,badlands_24.jpg,,,,A1DIYFGQT1QDV2
439,69,,1.0,49.0,mountain_156.jpg,,,,A1DIYFGQT1QDV2
440,70,,1.0,50.0,golf_course_217.jpg,,,,A1DIYFGQT1QDV2
441,71,,1.0,51.0,playground_219.jpg,,,,A1DIYFGQT1QDV2
442,72,,1.0,52.0,badlands_137.jpg,,,,A1DIYFGQT1QDV2
443,73,,1.0,53.0,playground_257.jpg,,,,A1DIYFGQT1QDV2
444,74,,1.0,54.0,bridge_172.jpg,,,,A1DIYFGQT1QDV2
445,75,,1.0,55.0,highway_156.jpg,,,,A1DIYFGQT1QDV2
446,76,,1.0,56.0,golf_course_78.jpg,,,,A1DIYFGQT1QDV2
447,77,,1.0,57.0,golf_course_188.jpg,,,,A1DIYFGQT1QDV2
448,78,,1.0,58.0,playground_10.jpg,,,,A1DIYFGQT1QDV2
449,79,,1.0,59.0,golf_course_87.jpg,,,,A1DIYFGQT1QDV2
450,80,,1.0,60.0,highway_359.jpg,,,,A1DIYFGQT1QDV2
451,81,,1.0,61.0,playground_144.jpg,,,,A1DIYFGQT1QDV2
452,82,,1.0,62.0,bridge_65.jpg,,,,A1DIYFGQT1QDV2
453,83,,1.0,63.0,bridge_146.jpg,,,,A1DIYFGQT1QDV2
454,84,,1.0,64.0,golf_course_331.jpg,,,,A1DIYFGQT1QDV2
455,20,,1.0,0.0,highway_93.jpg,,,,A2M9R3LBVLI5ZN
456,21,,1.0,1.0,bridge_65.jpg,,,,A2M9R3LBVLI5ZN
457,22,,1.0,2.0,golf_course_309.jpg,,,,A2M9R3LBVLI5ZN
458,23,,1.0,3.0,golf_course_87.jpg,,,,A2M9R3LBVLI5ZN
459,24,,1.0,4.0,highway_156.jpg,,,,A2M9R3LBVLI5ZN
460,25,,1.0,5.0,bridge_146.jpg,,,,A2M9R3LBVLI5ZN
461,26,,1.0,6.0,highway_177.jpg,,,,A2M9R3LBVLI5ZN
462,27,,1.0,7.0,golf_course_15.jpg,,,,A2M9R3LBVLI5ZN
463,28,,1.0,8.0,bridge_172.jpg,,,,A2M9R3LBVLI5ZN
464,29,,1.0,9.0,bridge_191.jpg,,,,A2M9R3LBVLI5ZN
465,30,,1.0,10.0,playground_76.jpg,,,,A2M9R3LBVLI5ZN
466,31,,1.0,11.0,highway_245.jpg,,,,A2M9R3LBVLI5ZN
467,32,,1.0,12.0,playground_131.jpg,,,,A2M9R3LBVLI5ZN
468,33,,1.0,13.0,playground_60.jpg,,,,A2M9R3LBVLI5ZN
469,34,left,1.0,14.0,left.jpg,left,1.4141,,A2M9R3LBVLI5ZN
470,35,,1.0,15.0,mountain_123.jpg,,,,A2M9R3LBVLI5ZN
471,36,,1.0,16.0,golf_course_217.jpg,,,,A2M9R3LBVLI5ZN
472,37,,1.0,17.0,badlands_70.jpg,,,,A2M9R3LBVLI5ZN
473,38,,1.0,18.0,highway_273.jpg,,,,A2M9R3LBVLI5ZN
474,39,,1.0,19.0,badlands_21.jpg,,,,A2M9R3LBVLI5ZN
475,40,,1.0,20.0,highway_394.jpg,,,,A2M9R3LBVLI5ZN
476,41,,1.0,21.0,bridge_108.jpg,,,,A2M9R3LBVLI5ZN
477,42,left,1.0,22.0,left.jpg,left,1.5695,,A2M9R3LBVLI5ZN
478,43,,1.0,23.0,highway_294.jpg,,,,A2M9R3LBVLI5ZN
479,44,,1.0,24.0,playground_117.jpg,,,,A2M9R3LBVLI5ZN
480,45,,1.0,25.0,playground_10.jpg,,,,A2M9R3LBVLI5ZN
481,46,,1.0,26.0,golf_course_195.jpg,,,,A2M9R3LBVLI5ZN
482,47,,1.0,27.0,badlands_24.jpg,,,,A2M9R3LBVLI5ZN
483,48,,1.0,28.0,playground_257.jpg,,,,A2M9R3LBVLI5ZN
484,49,,1.0,29.0,badlands_23.jpg,,,,A2M9R3LBVLI5ZN
485,50,,1.0,30.0,highway_209.jpg,,,,A2M9R3LBVLI5ZN
486,51,,1.0,31.0,playground_144.jpg,,,,A2M9R3LBVLI5ZN
487,52,,0.0,32.0,right.jpg,right,,,A2M9R3LBVLI5ZN
488,53,,1.0,33.0,golf_course_214.jpg,,,,A2M9R3LBVLI5ZN
489,54,,1.0,34.0,mountain_110.jpg,,,,A2M9R3LBVLI5ZN
490,55,,1.0,35.0,mountain_230.jpg,,,,A2M9R3LBVLI5ZN
491,56,,1.0,36.0,mountain_101.jpg,,,,A2M9R3LBVLI5ZN
492,57,,1.0,37.0,mountain_232.jpg,,,,A2M9R3LBVLI5ZN
493,58,right,1.0,38.0,right.jpg,right,1.3083,,A2M9R3LBVLI5ZN
494,59,,1.0,39.0,badlands_184.jpg,,,,A2M9R3LBVLI5ZN
495,60,,1.0,40.0,mountain_222.jpg,,,,A2M9R3LBVLI5ZN
496,61,,1.0,41.0,badlands_221.jpg,,,,A2M9R3LBVLI5ZN
497,62,,1.0,42.0,mountain_293.jpg,,,,A2M9R3LBVLI5ZN
498,63,,1.0,43.0,golf_course_331.jpg,,,,A2M9R3LBVLI5ZN
499,64,,1.0,44.0,bridge_202.jpg,,,,A2M9R3LBVLI5ZN
500,65,,1.0,45.0,highway_359.jpg,,,,A2M9R3LBVLI5ZN
501,66,,1.0,46.0,mountain_156.jpg,,,,A2M9R3LBVLI5ZN
502,67,,1.0,47.0,mountain_57.jpg,,,,A2M9R3LBVLI5ZN
503,68,left,1.0,48.0,left.jpg,left,1.293,,A2M9R3LBVLI5ZN
504,69,,1.0,49.0,highway_415.jpg,,,,A2M9R3LBVLI5ZN
505,70,,1.0,50.0,bridge_91.jpg,,,,A2M9R3LBVLI5ZN
506,71,,1.0,51.0,playground_145.jpg,,,,A2M9R3LBVLI5ZN
507,72,,1.0,52.0,golf_course_193.jpg,,,,A2M9R3LBVLI5ZN
508,73,,1.0,53.0,golf_course_78.jpg,,,,A2M9R3LBVLI5ZN
509,74,,1.0,54.0,golf_course_188.jpg,,,,A2M9R3LBVLI5ZN
510,75,,1.0,55.0,mountain_154.jpg,,,,A2M9R3LBVLI5ZN
511,76,,1.0,56.0,badlands_113.jpg,,,,A2M9R3LBVLI5ZN
512,77,,1.0,57.0,playground_219.jpg,,,,A2M9R3LBVLI5ZN
513,78,,1.0,58.0,badlands_137.jpg,,,,A2M9R3LBVLI5ZN
514,79,,1.0,59.0,bridge_250.jpg,,,,A2M9R3LBVLI5ZN
515,80,,1.0,60.0,badlands_52.jpg,,,,A2M9R3LBVLI5ZN
516,81,,1.0,61.0,badlands_222.jpg,,,,A2M9R3LBVLI5ZN
517,82,,1.0,62.0,bridge_256.jpg,,,,A2M9R3LBVLI5ZN
518,83,,1.0,63.0,playground_240.jpg,,,,A2M9R3LBVLI5ZN
519,84,,1.0,64.0,bridge_128.jpg,,,,A2M9R3LBVLI5ZN
520,20,,1.0,0.0,golf_course_188.jpg,,,,A2NC28XJKAFJV
521,21,,1.0,1.0,golf_course_193.jpg,,,,A2NC28XJKAFJV
522,22,,1.0,2.0,playground_145.jpg,,,,A2NC28XJKAFJV
523,23,,1.0,3.0,highway_156.jpg,,,,A2NC28XJKAFJV
524,24,,1.0,4.0,bridge_108.jpg,,,,A2NC28XJKAFJV
525,25,,1.0,5.0,mountain_154.jpg,,,,A2NC28XJKAFJV
526,26,,1.0,6.0,badlands_137.jpg,,,,A2NC28XJKAFJV
527,27,,1.0,7.0,bridge_65.jpg,,,,A2NC28XJKAFJV
528,28,left,1.0,8.0,left.jpg,left,1.6026,,A2NC28XJKAFJV
529,29,,1.0,9.0,mountain_57.jpg,,,,A2NC28XJKAFJV
530,30,,1.0,10.0,bridge_250.jpg,,,,A2NC28XJKAFJV
531,31,,1.0,11.0,golf_course_15.jpg,,,,A2NC28XJKAFJV
532,32,,1.0,12.0,mountain_110.jpg,,,,A2NC28XJKAFJV
533,33,,1.0,13.0,highway_359.jpg,,,,A2NC28XJKAFJV
534,34,,1.0,14.0,highway_93.jpg,,,,A2NC28XJKAFJV
535,35,,1.0,15.0,bridge_128.jpg,,,,A2NC28XJKAFJV
536,36,,1.0,16.0,bridge_191.jpg,,,,A2NC28XJKAFJV
537,37,right,1.0,17.0,right.jpg,right,1.6779,,A2NC28XJKAFJV
538,38,,1.0,18.0,mountain_232.jpg,,,,A2NC28XJKAFJV
539,39,,1.0,19.0,highway_209.jpg,,,,A2NC28XJKAFJV
540,40,,1.0,20.0,badlands_52.jpg,,,,A2NC28XJKAFJV
541,41,,1.0,21.0,badlands_21.jpg,,,,A2NC28XJKAFJV
542,42,,1.0,22.0,playground_131.jpg,,,,A2NC28XJKAFJV
543,43,,1.0,23.0,badlands_113.jpg,,,,A2NC28XJKAFJV
544,44,,1.0,24.0,mountain_222.jpg,,,,A2NC28XJKAFJV
545,45,,1.0,25.0,bridge_91.jpg,,,,A2NC28XJKAFJV
546,46,,1.0,26.0,playground_257.jpg,,,,A2NC28XJKAFJV
547,47,,1.0,27.0,playground_144.jpg,,,,A2NC28XJKAFJV
548,48,,1.0,28.0,highway_245.jpg,,,,A2NC28XJKAFJV
549,49,,1.0,29.0,badlands_221.jpg,,,,A2NC28XJKAFJV
550,50,right,1.0,30.0,right.jpg,right,1.6805,,A2NC28XJKAFJV
551,51,,1.0,31.0,playground_10.jpg,,,,A2NC28XJKAFJV
552,52,,1.0,32.0,badlands_70.jpg,,,,A2NC28XJKAFJV
553,53,,1.0,33.0,golf_course_309.jpg,,,,A2NC28XJKAFJV
554,54,,1.0,34.0,golf_course_87.jpg,,,,A2NC28XJKAFJV
555,55,,1.0,35.0,golf_course_195.jpg,,,,A2NC28XJKAFJV
556,56,,1.0,36.0,highway_415.jpg,,,,A2NC28XJKAFJV
557,57,,1.0,37.0,badlands_23.jpg,,,,A2NC28XJKAFJV
558,58,,1.0,38.0,highway_394.jpg,,,,A2NC28XJKAFJV
559,59,,1.0,39.0,playground_219.jpg,,,,A2NC28XJKAFJV
560,60,,1.0,40.0,golf_course_217.jpg,,,,A2NC28XJKAFJV
561,61,,1.0,41.0,badlands_222.jpg,,,,A2NC28XJKAFJV
562,62,,1.0,42.0,highway_294.jpg,,,,A2NC28XJKAFJV
563,63,left,1.0,43.0,left.jpg,left,1.7789,,A2NC28XJKAFJV
564,64,,1.0,44.0,golf_course_78.jpg,,,,A2NC28XJKAFJV
565,65,,1.0,45.0,bridge_146.jpg,,,,A2NC28XJKAFJV
566,66,,1.0,46.0,mountain_293.jpg,,,,A2NC28XJKAFJV
567,67,,1.0,47.0,playground_117.jpg,,,,A2NC28XJKAFJV
568,68,,1.0,48.0,highway_273.jpg,,,,A2NC28XJKAFJV
569,69,,1.0,49.0,badlands_184.jpg,,,,A2NC28XJKAFJV
570,70,,1.0,50.0,mountain_230.jpg,,,,A2NC28XJKAFJV
571,71,left,1.0,51.0,left.jpg,left,1.784,,A2NC28XJKAFJV
572,72,,1.0,52.0,highway_177.jpg,,,,A2NC28XJKAFJV
573,73,,1.0,53.0,badlands_24.jpg,,,,A2NC28XJKAFJV
574,74,,1.0,54.0,bridge_202.jpg,,,,A2NC28XJKAFJV
575,75,,1.0,55.0,bridge_256.jpg,,,,A2NC28XJKAFJV
576,76,,1.0,56.0,playground_60.jpg,,,,A2NC28XJKAFJV
577,77,,1.0,57.0,golf_course_331.jpg,,,,A2NC28XJKAFJV
578,78,,1.0,58.0,golf_course_214.jpg,,,,A2NC28XJKAFJV
579,79,,1.0,59.0,playground_240.jpg,,,,A2NC28XJKAFJV
580,80,,1.0,60.0,mountain_156.jpg,,,,A2NC28XJKAFJV
581,81,,1.0,61.0,mountain_123.jpg,,,,A2NC28XJKAFJV
582,82,,1.0,62.0,playground_76.jpg,,,,A2NC28XJKAFJV
583,83,,1.0,63.0,bridge_172.jpg,,,,A2NC28XJKAFJV
584,84,,1.0,64.0,mountain_101.jpg,,,,A2NC28XJKAFJV
585,20,,1.0,0.0,highway_394.jpg,,,,ANDJL5986AUAF
586,21,,1.0,1.0,playground_257.jpg,,,,ANDJL5986AUAF
587,22,,1.0,2.0,playground_219.jpg,,,,ANDJL5986AUAF
588,23,,1.0,3.0,mountain_110.jpg,,,,ANDJL5986AUAF
589,24,,1.0,4.0,playground_117.jpg,,,,ANDJL5986AUAF
590,25,,1.0,5.0,mountain_293.jpg,,,,ANDJL5986AUAF
591,26,,1.0,6.0,golf_course_15.jpg,,,,ANDJL5986AUAF
592,27,left,1.0,7.0,left.jpg,left,1.4147,,ANDJL5986AUAF
593,28,,1.0,8.0,golf_course_193.jpg,,,,ANDJL5986AUAF
594,29,,1.0,9.0,badlands_70.jpg,,,,ANDJL5986AUAF
595,30,,1.0,10.0,playground_144.jpg,,,,ANDJL5986AUAF
596,31,,1.0,11.0,badlands_24.jpg,,,,ANDJL5986AUAF
597,32,,1.0,12.0,mountain_222.jpg,,,,ANDJL5986AUAF
598,33,,1.0,13.0,playground_60.jpg,,,,ANDJL5986AUAF
599,34,,1.0,14.0,golf_course_195.jpg,,,,ANDJL5986AUAF
600,35,,1.0,15.0,mountain_154.jpg,,,,ANDJL5986AUAF
601,36,right,1.0,16.0,right.jpg,right,1.4215,,ANDJL5986AUAF
602,37,,1.0,17.0,mountain_57.jpg,,,,ANDJL5986AUAF
603,38,,1.0,18.0,badlands_222.jpg,,,,ANDJL5986AUAF
604,39,,1.0,19.0,badlands_184.jpg,,,,ANDJL5986AUAF
605,40,,1.0,20.0,highway_209.jpg,,,,ANDJL5986AUAF
606,41,,1.0,21.0,badlands_23.jpg,,,,ANDJL5986AUAF
607,42,,1.0,22.0,bridge_256.jpg,,,,ANDJL5986AUAF
608,43,,1.0,23.0,highway_415.jpg,,,,ANDJL5986AUAF
609,44,,1.0,24.0,playground_10.jpg,,,,ANDJL5986AUAF
610,45,,1.0,25.0,bridge_191.jpg,,,,ANDJL5986AUAF
611,46,,1.0,26.0,mountain_101.jpg,,,,ANDJL5986AUAF
612,47,,1.0,27.0,highway_273.jpg,,,,ANDJL5986AUAF
613,48,,1.0,28.0,bridge_172.jpg,,,,ANDJL5986AUAF
614,49,,1.0,29.0,highway_245.jpg,,,,ANDJL5986AUAF
615,50,left,1.0,30.0,left.jpg,left,2.3847,,ANDJL5986AUAF
616,51,,1.0,31.0,highway_294.jpg,,,,ANDJL5986AUAF
617,52,,1.0,32.0,golf_course_78.jpg,,,,ANDJL5986AUAF
618,53,,1.0,33.0,mountain_156.jpg,,,,ANDJL5986AUAF
619,54,,1.0,34.0,highway_156.jpg,,,,ANDJL5986AUAF
620,55,,1.0,35.0,golf_course_309.jpg,,,,ANDJL5986AUAF
621,56,,1.0,36.0,golf_course_87.jpg,,,,ANDJL5986AUAF
622,57,right,1.0,37.0,right.jpg,right,1.6744,,ANDJL5986AUAF
623,58,,1.0,38.0,bridge_65.jpg,,,,ANDJL5986AUAF
624,59,,1.0,39.0,golf_course_214.jpg,,,,ANDJL5986AUAF
625,60,,1.0,40.0,highway_359.jpg,,,,ANDJL5986AUAF
626,61,,1.0,41.0,mountain_232.jpg,,,,ANDJL5986AUAF
627,62,,1.0,42.0,bridge_146.jpg,,,,ANDJL5986AUAF
628,63,,1.0,43.0,mountain_230.jpg,,,,ANDJL5986AUAF
629,64,,1.0,44.0,bridge_108.jpg,,,,ANDJL5986AUAF
630,65,,1.0,45.0,highway_177.jpg,,,,ANDJL5986AUAF
631,66,,1.0,46.0,playground_76.jpg,,,,ANDJL5986AUAF
632,67,,1.0,47.0,badlands_21.jpg,,,,ANDJL5986AUAF
633,68,,1.0,48.0,playground_145.jpg,,,,ANDJL5986AUAF
634,69,,1.0,49.0,bridge_91.jpg,,,,ANDJL5986AUAF
635,70,,1.0,50.0,badlands_113.jpg,,,,ANDJL5986AUAF
636,71,left,1.0,51.0,left.jpg,left,1.4803,,ANDJL5986AUAF
637,72,,1.0,52.0,badlands_137.jpg,,,,ANDJL5986AUAF
638,73,,1.0,53.0,golf_course_331.jpg,,,,ANDJL5986AUAF
639,74,,1.0,54.0,bridge_250.jpg,,,,ANDJL5986AUAF
640,75,,1.0,55.0,badlands_52.jpg,,,,ANDJL5986AUAF
641,76,,1.0,56.0,bridge_202.jpg,,,,ANDJL5986AUAF
642,77,,1.0,57.0,badlands_221.jpg,,,,ANDJL5986AUAF
643,78,,1.0,58.0,playground_240.jpg,,,,ANDJL5986AUAF
644,79,,1.0,59.0,bridge_128.jpg,,,,ANDJL5986AUAF
645,80,,1.0,60.0,playground_131.jpg,,,,ANDJL5986AUAF
646,81,,1.0,61.0,mountain_123.jpg,,,,ANDJL5986AUAF
647,82,,1.0,62.0,golf_course_188.jpg,,,,ANDJL5986AUAF
648,83,,1.0,63.0,highway_93.jpg,,,,ANDJL5986AUAF
649,84,,1.0,64.0,golf_course_217.jpg,,,,ANDJL5986AUAF
650,20,,1.0,0.0,bridge_256.jpg,,,,A19PB6VUP0RAC3
651,21,,1.0,1.0,playground_144.jpg,,,,A19PB6VUP0RAC3
652,22,,1.0,2.0,highway_209.jpg,,,,A19PB6VUP0RAC3
653,23,,1.0,3.0,mountain_123.jpg,,,,A19PB6VUP0RAC3
654,24,,1.0,4.0,playground_257.jpg,,,,A19PB6VUP0RAC3
655,25,,1.0,5.0,highway_273.jpg,,,,A19PB6VUP0RAC3
656,26,,1.0,6.0,highway_156.jpg,,,,A19PB6VUP0RAC3
657,27,,1.0,7.0,mountain_230.jpg,,,,A19PB6VUP0RAC3
658,28,,1.0,8.0,highway_93.jpg,,,,A19PB6VUP0RAC3
659,29,,1.0,9.0,playground_219.jpg,,,,A19PB6VUP0RAC3
660,30,,1.0,10.0,golf_course_87.jpg,,,,A19PB6VUP0RAC3
661,31,,1.0,11.0,bridge_91.jpg,,,,A19PB6VUP0RAC3
662,32,,1.0,12.0,highway_177.jpg,,,,A19PB6VUP0RAC3
663,33,,1.0,13.0,golf_course_188.jpg,,,,A19PB6VUP0RAC3
664,34,right,1.0,14.0,right.jpg,right,0.9896,,A19PB6VUP0RAC3
665,35,,1.0,15.0,playground_117.jpg,,,,A19PB6VUP0RAC3
666,36,right,1.0,16.0,right.jpg,right,1.0921,,A19PB6VUP0RAC3
667,37,,1.0,17.0,badlands_52.jpg,,,,A19PB6VUP0RAC3
668,38,,1.0,18.0,badlands_222.jpg,,,,A19PB6VUP0RAC3
669,39,,1.0,19.0,highway_359.jpg,,,,A19PB6VUP0RAC3
670,40,,1.0,20.0,golf_course_78.jpg,,,,A19PB6VUP0RAC3
671,41,,1.0,21.0,mountain_293.jpg,,,,A19PB6VUP0RAC3
672,42,,1.0,22.0,highway_294.jpg,,,,A19PB6VUP0RAC3
673,43,,1.0,23.0,mountain_156.jpg,,,,A19PB6VUP0RAC3
674,44,,1.0,24.0,highway_415.jpg,,,,A19PB6VUP0RAC3
675,45,,1.0,25.0,mountain_222.jpg,,,,A19PB6VUP0RAC3
676,46,,1.0,26.0,badlands_137.jpg,,,,A19PB6VUP0RAC3
677,47,,1.0,27.0,playground_240.jpg,,,,A19PB6VUP0RAC3
678,48,left,1.0,28.0,left.jpg,left,0.7851,,A19PB6VUP0RAC3
679,49,,1.0,29.0,mountain_154.jpg,,,,A19PB6VUP0RAC3
680,50,,1.0,30.0,bridge_146.jpg,,,,A19PB6VUP0RAC3
681,51,,1.0,31.0,playground_76.jpg,,,,A19PB6VUP0RAC3
682,52,,1.0,32.0,playground_60.jpg,,,,A19PB6VUP0RAC3
683,53,,1.0,33.0,golf_course_309.jpg,,,,A19PB6VUP0RAC3
684,54,,1.0,34.0,mountain_110.jpg,,,,A19PB6VUP0RAC3
685,55,,1.0,35.0,badlands_23.jpg,,,,A19PB6VUP0RAC3
686,56,,1.0,36.0,playground_10.jpg,,,,A19PB6VUP0RAC3
687,57,,1.0,37.0,highway_245.jpg,,,,A19PB6VUP0RAC3
688,58,right,1.0,38.0,right.jpg,right,0.9875,,A19PB6VUP0RAC3
689,59,,1.0,39.0,badlands_184.jpg,,,,A19PB6VUP0RAC3
690,60,,1.0,40.0,bridge_250.jpg,,,,A19PB6VUP0RAC3
691,61,,1.0,41.0,golf_course_217.jpg,,,,A19PB6VUP0RAC3
692,62,,1.0,42.0,bridge_108.jpg,,,,A19PB6VUP0RAC3
693,63,,1.0,43.0,badlands_21.jpg,,,,A19PB6VUP0RAC3
694,64,,1.0,44.0,bridge_65.jpg,,,,A19PB6VUP0RAC3
695,65,,1.0,45.0,bridge_202.jpg,,,,A19PB6VUP0RAC3
696,66,,1.0,46.0,golf_course_195.jpg,,,,A19PB6VUP0RAC3
697,67,,1.0,47.0,playground_145.jpg,,,,A19PB6VUP0RAC3
698,68,,1.0,48.0,golf_course_15.jpg,,,,A19PB6VUP0RAC3
699,69,,1.0,49.0,badlands_221.jpg,,,,A19PB6VUP0RAC3
700,70,right,1.0,50.0,right.jpg,right,1.1364,,A19PB6VUP0RAC3
701,71,,1.0,51.0,badlands_24.jpg,,,,A19PB6VUP0RAC3
702,72,,1.0,52.0,bridge_191.jpg,,,,A19PB6VUP0RAC3
703,73,,1.0,53.0,playground_131.jpg,,,,A19PB6VUP0RAC3
704,74,,1.0,54.0,bridge_128.jpg,,,,A19PB6VUP0RAC3
705,75,,1.0,55.0,mountain_232.jpg,,,,A19PB6VUP0RAC3
706,76,,1.0,56.0,golf_course_331.jpg,,,,A19PB6VUP0RAC3
707,77,,1.0,57.0,golf_course_193.jpg,,,,A19PB6VUP0RAC3
708,78,,1.0,58.0,bridge_172.jpg,,,,A19PB6VUP0RAC3
709,79,,1.0,59.0,badlands_70.jpg,,,,A19PB6VUP0RAC3
710,80,,1.0,60.0,badlands_113.jpg,,,,A19PB6VUP0RAC3
711,81,,1.0,61.0,mountain_57.jpg,,,,A19PB6VUP0RAC3
712,82,,1.0,62.0,mountain_101.jpg,,,,A19PB6VUP0RAC3
713,83,,1.0,63.0,highway_394.jpg,,,,A19PB6VUP0RAC3
714,84,,1.0,64.0,golf_course_214.jpg,,,,A19PB6VUP0RAC3
715,20,,1.0,0.0,mountain_232.jpg,,,,A3BD6HXLYH3CGH
716,21,,1.0,1.0,bridge_91.jpg,,,,A3BD6HXLYH3CGH
717,22,,1.0,2.0,highway_294.jpg,,,,A3BD6HXLYH3CGH
718,23,,1.0,3.0,highway_93.jpg,,,,A3BD6HXLYH3CGH
719,24,,1.0,4.0,badlands_222.jpg,,,,A3BD6HXLYH3CGH
720,25,,1.0,5.0,playground_240.jpg,,,,A3BD6HXLYH3CGH
721,26,,1.0,6.0,playground_144.jpg,,,,A3BD6HXLYH3CGH
722,27,,1.0,7.0,playground_60.jpg,,,,A3BD6HXLYH3CGH
723,28,,1.0,8.0,playground_10.jpg,,,,A3BD6HXLYH3CGH
724,29,left,1.0,9.0,left.jpg,left,1.7639,,A3BD6HXLYH3CGH
725,30,,1.0,10.0,golf_course_217.jpg,,,,A3BD6HXLYH3CGH
726,31,,1.0,11.0,mountain_123.jpg,,,,A3BD6HXLYH3CGH
727,32,,1.0,12.0,highway_415.jpg,,,,A3BD6HXLYH3CGH
728,33,,1.0,13.0,playground_131.jpg,,,,A3BD6HXLYH3CGH
729,34,,1.0,14.0,playground_145.jpg,,,,A3BD6HXLYH3CGH
730,35,,1.0,15.0,golf_course_78.jpg,,,,A3BD6HXLYH3CGH
731,36,,1.0,16.0,playground_257.jpg,,,,A3BD6HXLYH3CGH
732,37,,1.0,17.0,bridge_202.jpg,,,,A3BD6HXLYH3CGH
733,38,,1.0,18.0,highway_359.jpg,,,,A3BD6HXLYH3CGH
734,39,left,1.0,19.0,left.jpg,left,1.7552,,A3BD6HXLYH3CGH
735,40,,1.0,20.0,badlands_24.jpg,,,,A3BD6HXLYH3CGH
736,41,,1.0,21.0,golf_course_193.jpg,,,,A3BD6HXLYH3CGH
737,42,,1.0,22.0,highway_209.jpg,,,,A3BD6HXLYH3CGH
738,43,,1.0,23.0,golf_course_15.jpg,,,,A3BD6HXLYH3CGH
739,44,,1.0,24.0,bridge_256.jpg,,,,A3BD6HXLYH3CGH
740,45,,1.0,25.0,badlands_113.jpg,,,,A3BD6HXLYH3CGH
741,46,,1.0,26.0,playground_219.jpg,,,,A3BD6HXLYH3CGH
742,47,left,1.0,27.0,left.jpg,left,1.0258,,A3BD6HXLYH3CGH
743,48,,1.0,28.0,playground_76.jpg,,,,A3BD6HXLYH3CGH
744,49,,1.0,29.0,badlands_70.jpg,,,,A3BD6HXLYH3CGH
745,50,,1.0,30.0,mountain_154.jpg,,,,A3BD6HXLYH3CGH
746,51,,1.0,31.0,badlands_52.jpg,,,,A3BD6HXLYH3CGH
747,52,,1.0,32.0,highway_245.jpg,,,,A3BD6HXLYH3CGH
748,53,,1.0,33.0,golf_course_214.jpg,,,,A3BD6HXLYH3CGH
749,54,,1.0,34.0,golf_course_309.jpg,,,,A3BD6HXLYH3CGH
750,55,,1.0,35.0,mountain_222.jpg,,,,A3BD6HXLYH3CGH
751,56,,1.0,36.0,mountain_110.jpg,,,,A3BD6HXLYH3CGH
752,57,,1.0,37.0,badlands_23.jpg,,,,A3BD6HXLYH3CGH
753,58,,1.0,38.0,playground_117.jpg,,,,A3BD6HXLYH3CGH
754,59,,1.0,39.0,badlands_221.jpg,,,,A3BD6HXLYH3CGH
755,60,,1.0,40.0,golf_course_195.jpg,,,,A3BD6HXLYH3CGH
756,61,,1.0,41.0,mountain_293.jpg,,,,A3BD6HXLYH3CGH
757,62,,1.0,42.0,bridge_250.jpg,,,,A3BD6HXLYH3CGH
758,63,left,0.0,43.0,right.jpg,right,1.0551,,A3BD6HXLYH3CGH
759,64,,1.0,44.0,mountain_156.jpg,,,,A3BD6HXLYH3CGH
760,65,,1.0,45.0,bridge_191.jpg,,,,A3BD6HXLYH3CGH
761,66,,1.0,46.0,badlands_184.jpg,,,,A3BD6HXLYH3CGH
762,67,right,0.0,47.0,left.jpg,left,1.0251,,A3BD6HXLYH3CGH
763,68,,1.0,48.0,highway_394.jpg,,,,A3BD6HXLYH3CGH
764,69,,1.0,49.0,golf_course_87.jpg,,,,A3BD6HXLYH3CGH
765,70,,1.0,50.0,mountain_230.jpg,,,,A3BD6HXLYH3CGH
766,71,,1.0,51.0,bridge_172.jpg,,,,A3BD6HXLYH3CGH
767,72,,1.0,52.0,highway_177.jpg,,,,A3BD6HXLYH3CGH
768,73,,1.0,53.0,badlands_21.jpg,,,,A3BD6HXLYH3CGH
769,74,,1.0,54.0,mountain_101.jpg,,,,A3BD6HXLYH3CGH
770,75,,1.0,55.0,bridge_128.jpg,,,,A3BD6HXLYH3CGH
771,76,,1.0,56.0,highway_273.jpg,,,,A3BD6HXLYH3CGH
772,77,,1.0,57.0,golf_course_188.jpg,,,,A3BD6HXLYH3CGH
773,78,,1.0,58.0,bridge_65.jpg,,,,A3BD6HXLYH3CGH
774,79,,1.0,59.0,golf_course_331.jpg,,,,A3BD6HXLYH3CGH
775,80,,1.0,60.0,mountain_57.jpg,,,,A3BD6HXLYH3CGH
776,81,,1.0,61.0,bridge_108.jpg,,,,A3BD6HXLYH3CGH
777,82,,1.0,62.0,badlands_137.jpg,,,,A3BD6HXLYH3CGH
778,83,,1.0,63.0,bridge_146.jpg,,,,A3BD6HXLYH3CGH
779,84,,1.0,64.0,highway_156.jpg,,,,A3BD6HXLYH3CGH
780,20,,1.0,0.0,highway_359.jpg,,,,A10HW8JXM17XLD
781,21,,1.0,1.0,golf_course_195.jpg,,,,A10HW8JXM17XLD
782,22,,1.0,2.0,mountain_57.jpg,,,,A10HW8JXM17XLD
783,23,,1.0,3.0,highway_245.jpg,,,,A10HW8JXM17XLD
784,24,,1.0,4.0,mountain_123.jpg,,,,A10HW8JXM17XLD
785,25,,1.0,5.0,badlands_70.jpg,,,,A10HW8JXM17XLD
786,26,right,1.0,6.0,right.jpg,right,1.1386,,A10HW8JXM17XLD
787,27,,1.0,7.0,highway_294.jpg,,,,A10HW8JXM17XLD
788,28,,1.0,8.0,bridge_146.jpg,,,,A10HW8JXM17XLD
789,29,,1.0,9.0,golf_course_87.jpg,,,,A10HW8JXM17XLD
790,30,,1.0,10.0,golf_course_331.jpg,,,,A10HW8JXM17XLD
791,31,,1.0,11.0,mountain_110.jpg,,,,A10HW8JXM17XLD
792,32,,1.0,12.0,mountain_293.jpg,,,,A10HW8JXM17XLD
793,33,,1.0,13.0,mountain_156.jpg,,,,A10HW8JXM17XLD
794,34,,1.0,14.0,highway_415.jpg,,,,A10HW8JXM17XLD
795,35,,1.0,15.0,bridge_191.jpg,,,,A10HW8JXM17XLD
796,36,,1.0,16.0,bridge_65.jpg,,,,A10HW8JXM17XLD
797,37,,1.0,17.0,highway_209.jpg,,,,A10HW8JXM17XLD
798,38,,1.0,18.0,bridge_256.jpg,,,,A10HW8JXM17XLD
799,39,,1.0,19.0,bridge_128.jpg,,,,A10HW8JXM17XLD
800,40,,1.0,20.0,bridge_108.jpg,,,,A10HW8JXM17XLD
801,41,,1.0,21.0,badlands_21.jpg,,,,A10HW8JXM17XLD
802,42,,1.0,22.0,badlands_24.jpg,,,,A10HW8JXM17XLD
803,43,right,1.0,23.0,right.jpg,right,1.1864,,A10HW8JXM17XLD
804,44,,1.0,24.0,highway_156.jpg,,,,A10HW8JXM17XLD
805,45,,1.0,25.0,golf_course_214.jpg,,,,A10HW8JXM17XLD
806,46,,1.0,26.0,highway_273.jpg,,,,A10HW8JXM17XLD
807,47,,1.0,27.0,badlands_52.jpg,,,,A10HW8JXM17XLD
808,48,,1.0,28.0,golf_course_309.jpg,,,,A10HW8JXM17XLD
809,49,,1.0,29.0,badlands_221.jpg,,,,A10HW8JXM17XLD
810,50,left,1.0,30.0,left.jpg,left,1.1223,,A10HW8JXM17XLD
811,51,,1.0,31.0,playground_219.jpg,,,,A10HW8JXM17XLD
812,52,,1.0,32.0,badlands_23.jpg,,,,A10HW8JXM17XLD
813,53,,1.0,33.0,badlands_222.jpg,,,,A10HW8JXM17XLD
814,54,,1.0,34.0,bridge_172.jpg,,,,A10HW8JXM17XLD
815,55,,1.0,35.0,golf_course_193.jpg,,,,A10HW8JXM17XLD
816,56,,1.0,36.0,badlands_113.jpg,,,,A10HW8JXM17XLD
817,57,,1.0,37.0,bridge_250.jpg,,,,A10HW8JXM17XLD
818,58,,1.0,38.0,playground_60.jpg,,,,A10HW8JXM17XLD
819,59,right,1.0,39.0,right.jpg,right,1.1526,,A10HW8JXM17XLD
820,60,,1.0,40.0,playground_240.jpg,,,,A10HW8JXM17XLD
821,61,,1.0,41.0,mountain_222.jpg,,,,A10HW8JXM17XLD
822,62,,1.0,42.0,mountain_154.jpg,,,,A10HW8JXM17XLD
823,63,,1.0,43.0,playground_131.jpg,,,,A10HW8JXM17XLD
824,64,,1.0,44.0,playground_76.jpg,,,,A10HW8JXM17XLD
825,65,,1.0,45.0,highway_177.jpg,,,,A10HW8JXM17XLD
826,66,,1.0,46.0,golf_course_217.jpg,,,,A10HW8JXM17XLD
827,67,,1.0,47.0,mountain_232.jpg,,,,A10HW8JXM17XLD
828,68,,1.0,48.0,mountain_230.jpg,,,,A10HW8JXM17XLD
829,69,,1.0,49.0,highway_394.jpg,,,,A10HW8JXM17XLD
830,70,,1.0,50.0,bridge_202.jpg,,,,A10HW8JXM17XLD
831,71,,1.0,51.0,badlands_137.jpg,,,,A10HW8JXM17XLD
832,72,,1.0,52.0,mountain_101.jpg,,,,A10HW8JXM17XLD
833,73,,1.0,53.0,playground_257.jpg,,,,A10HW8JXM17XLD
834,74,right,1.0,54.0,right.jpg,right,1.2804,,A10HW8JXM17XLD
835,75,,1.0,55.0,golf_course_15.jpg,,,,A10HW8JXM17XLD
836,76,,1.0,56.0,playground_117.jpg,,,,A10HW8JXM17XLD
837,77,,1.0,57.0,bridge_91.jpg,,,,A10HW8JXM17XLD
838,78,,1.0,58.0,badlands_184.jpg,,,,A10HW8JXM17XLD
839,79,,1.0,59.0,golf_course_78.jpg,,,,A10HW8JXM17XLD
840,80,,1.0,60.0,playground_10.jpg,,,,A10HW8JXM17XLD
841,81,,1.0,61.0,golf_course_188.jpg,,,,A10HW8JXM17XLD
842,82,,1.0,62.0,playground_144.jpg,,,,A10HW8JXM17XLD
843,83,,1.0,63.0,playground_145.jpg,,,,A10HW8JXM17XLD
844,84,,1.0,64.0,highway_93.jpg,,,,A10HW8JXM17XLD
845,20,,1.0,0.0,badlands_221.jpg,,,,A2B0J7HGR6T34W
846,21,,1.0,1.0,bridge_250.jpg,,,,A2B0J7HGR6T34W
847,22,,1.0,2.0,highway_245.jpg,,,,A2B0J7HGR6T34W
848,23,,1.0,3.0,playground_144.jpg,,,,A2B0J7HGR6T34W
849,24,,1.0,4.0,bridge_91.jpg,,,,A2B0J7HGR6T34W
850,25,,1.0,5.0,golf_course_309.jpg,,,,A2B0J7HGR6T34W
851,26,,1.0,6.0,golf_course_193.jpg,,,,A2B0J7HGR6T34W
852,27,,1.0,7.0,highway_93.jpg,,,,A2B0J7HGR6T34W
853,28,,1.0,8.0,highway_294.jpg,,,,A2B0J7HGR6T34W
854,29,,1.0,9.0,golf_course_15.jpg,,,,A2B0J7HGR6T34W
855,30,,1.0,10.0,playground_131.jpg,,,,A2B0J7HGR6T34W
856,31,,1.0,11.0,badlands_24.jpg,,,,A2B0J7HGR6T34W
857,32,,1.0,12.0,playground_60.jpg,,,,A2B0J7HGR6T34W
858,33,left,1.0,13.0,left.jpg,left,1.2591,,A2B0J7HGR6T34W
859,34,,1.0,14.0,badlands_222.jpg,,,,A2B0J7HGR6T34W
860,35,,1.0,15.0,golf_course_217.jpg,,,,A2B0J7HGR6T34W
861,36,,1.0,16.0,bridge_191.jpg,,,,A2B0J7HGR6T34W
862,37,,1.0,17.0,bridge_202.jpg,,,,A2B0J7HGR6T34W
863,38,,1.0,18.0,highway_273.jpg,,,,A2B0J7HGR6T34W
864,39,,1.0,19.0,golf_course_214.jpg,,,,A2B0J7HGR6T34W
865,40,,1.0,20.0,badlands_113.jpg,,,,A2B0J7HGR6T34W
866,41,left,1.0,21.0,left.jpg,left,1.4591,,A2B0J7HGR6T34W
867,42,,1.0,22.0,mountain_110.jpg,,,,A2B0J7HGR6T34W
868,43,,1.0,23.0,mountain_154.jpg,,,,A2B0J7HGR6T34W
869,44,,1.0,24.0,bridge_108.jpg,,,,A2B0J7HGR6T34W
870,45,,1.0,25.0,badlands_70.jpg,,,,A2B0J7HGR6T34W
871,46,,1.0,26.0,playground_219.jpg,,,,A2B0J7HGR6T34W
872,47,,1.0,27.0,highway_209.jpg,,,,A2B0J7HGR6T34W
873,48,,1.0,28.0,mountain_156.jpg,,,,A2B0J7HGR6T34W
874,49,,1.0,29.0,highway_415.jpg,,,,A2B0J7HGR6T34W
875,50,,1.0,30.0,golf_course_188.jpg,,,,A2B0J7HGR6T34W
876,51,,1.0,31.0,mountain_222.jpg,,,,A2B0J7HGR6T34W
877,52,,1.0,32.0,bridge_146.jpg,,,,A2B0J7HGR6T34W
878,53,,1.0,33.0,highway_156.jpg,,,,A2B0J7HGR6T34W
879,54,left,1.0,34.0,left.jpg,left,1.5031,,A2B0J7HGR6T34W
880,55,,1.0,35.0,playground_240.jpg,,,,A2B0J7HGR6T34W
881,56,,1.0,36.0,playground_145.jpg,,,,A2B0J7HGR6T34W
882,57,,1.0,37.0,highway_359.jpg,,,,A2B0J7HGR6T34W
883,58,right,1.0,38.0,right.jpg,right,1.4399,,A2B0J7HGR6T34W
884,59,,1.0,39.0,bridge_256.jpg,,,,A2B0J7HGR6T34W
885,60,,1.0,40.0,badlands_23.jpg,,,,A2B0J7HGR6T34W
886,61,,1.0,41.0,mountain_123.jpg,,,,A2B0J7HGR6T34W
887,62,,1.0,42.0,badlands_21.jpg,,,,A2B0J7HGR6T34W
888,63,,1.0,43.0,badlands_52.jpg,,,,A2B0J7HGR6T34W
889,64,,1.0,44.0,mountain_293.jpg,,,,A2B0J7HGR6T34W
890,65,,1.0,45.0,highway_177.jpg,,,,A2B0J7HGR6T34W
891,66,,1.0,46.0,bridge_172.jpg,,,,A2B0J7HGR6T34W
892,67,,1.0,47.0,golf_course_78.jpg,,,,A2B0J7HGR6T34W
893,68,left,1.0,48.0,left.jpg,left,1.2613,,A2B0J7HGR6T34W
894,69,,1.0,49.0,golf_course_87.jpg,,,,A2B0J7HGR6T34W
895,70,,1.0,50.0,golf_course_331.jpg,,,,A2B0J7HGR6T34W
896,71,,1.0,51.0,mountain_101.jpg,,,,A2B0J7HGR6T34W
897,72,,1.0,52.0,bridge_65.jpg,,,,A2B0J7HGR6T34W
898,73,,1.0,53.0,playground_117.jpg,,,,A2B0J7HGR6T34W
899,74,,1.0,54.0,bridge_128.jpg,,,,A2B0J7HGR6T34W
900,75,,1.0,55.0,playground_257.jpg,,,,A2B0J7HGR6T34W
901,76,,1.0,56.0,badlands_137.jpg,,,,A2B0J7HGR6T34W
902,77,,1.0,57.0,playground_76.jpg,,,,A2B0J7HGR6T34W
903,78,,1.0,58.0,playground_10.jpg,,,,A2B0J7HGR6T34W
904,79,,1.0,59.0,mountain_232.jpg,,,,A2B0J7HGR6T34W
905,80,,1.0,60.0,highway_394.jpg,,,,A2B0J7HGR6T34W
906,81,,1.0,61.0,golf_course_195.jpg,,,,A2B0J7HGR6T34W
907,82,,1.0,62.0,mountain_57.jpg,,,,A2B0J7HGR6T34W
908,83,,1.0,63.0,mountain_230.jpg,,,,A2B0J7HGR6T34W
909,84,,1.0,64.0,badlands_184.jpg,,,,A2B0J7HGR6T34W
910,20,,1.0,0.0,playground_76.jpg,,,,A1PRUVH5Q0T9FS
911,21,,1.0,1.0,bridge_256.jpg,,,,A1PRUVH5Q0T9FS
912,22,,1.0,2.0,golf_course_309.jpg,,,,A1PRUVH5Q0T9FS
913,23,,1.0,3.0,bridge_146.jpg,,,,A1PRUVH5Q0T9FS
914,24,,1.0,4.0,golf_course_15.jpg,,,,A1PRUVH5Q0T9FS
915,25,,1.0,5.0,bridge_108.jpg,,,,A1PRUVH5Q0T9FS
916,26,,1.0,6.0,bridge_191.jpg,,,,A1PRUVH5Q0T9FS
917,27,,1.0,7.0,playground_240.jpg,,,,A1PRUVH5Q0T9FS
918,28,,1.0,8.0,highway_209.jpg,,,,A1PRUVH5Q0T9FS
919,29,,1.0,9.0,highway_294.jpg,,,,A1PRUVH5Q0T9FS
920,30,,1.0,10.0,playground_60.jpg,,,,A1PRUVH5Q0T9FS
921,31,,1.0,11.0,badlands_70.jpg,,,,A1PRUVH5Q0T9FS
922,32,,1.0,12.0,golf_course_188.jpg,,,,A1PRUVH5Q0T9FS
923,33,right,1.0,13.0,right.jpg,right,1.1713,,A1PRUVH5Q0T9FS
924,34,,1.0,14.0,playground_219.jpg,,,,A1PRUVH5Q0T9FS
925,35,,1.0,15.0,mountain_232.jpg,,,,A1PRUVH5Q0T9FS
926,36,,1.0,16.0,bridge_128.jpg,,,,A1PRUVH5Q0T9FS
927,37,,1.0,17.0,golf_course_78.jpg,,,,A1PRUVH5Q0T9FS
928,38,right,1.0,18.0,right.jpg,right,1.4555,,A1PRUVH5Q0T9FS
929,39,,1.0,19.0,highway_177.jpg,,,,A1PRUVH5Q0T9FS
930,40,,1.0,20.0,golf_course_87.jpg,,,,A1PRUVH5Q0T9FS
931,41,,1.0,21.0,golf_course_217.jpg,,,,A1PRUVH5Q0T9FS
932,42,,1.0,22.0,mountain_230.jpg,,,,A1PRUVH5Q0T9FS
933,43,,1.0,23.0,badlands_21.jpg,,,,A1PRUVH5Q0T9FS
934,44,,1.0,24.0,bridge_202.jpg,,,,A1PRUVH5Q0T9FS
935,45,,1.0,25.0,mountain_222.jpg,,,,A1PRUVH5Q0T9FS
936,46,left,1.0,26.0,left.jpg,left,1.1757,,A1PRUVH5Q0T9FS
937,47,,1.0,27.0,golf_course_195.jpg,,,,A1PRUVH5Q0T9FS
938,48,,1.0,28.0,badlands_23.jpg,,,,A1PRUVH5Q0T9FS
939,49,,1.0,29.0,mountain_101.jpg,,,,A1PRUVH5Q0T9FS
940,50,,1.0,30.0,golf_course_214.jpg,,,,A1PRUVH5Q0T9FS
941,51,,1.0,31.0,highway_93.jpg,,,,A1PRUVH5Q0T9FS
942,52,,1.0,32.0,mountain_293.jpg,,,,A1PRUVH5Q0T9FS
943,53,,1.0,33.0,badlands_222.jpg,,,,A1PRUVH5Q0T9FS
944,54,,1.0,34.0,bridge_172.jpg,,,,A1PRUVH5Q0T9FS
945,55,,1.0,35.0,playground_144.jpg,,,,A1PRUVH5Q0T9FS
946,56,left,1.0,36.0,left.jpg,left,1.452,,A1PRUVH5Q0T9FS
947,57,,1.0,37.0,badlands_113.jpg,,,,A1PRUVH5Q0T9FS
948,58,,1.0,38.0,mountain_154.jpg,,,,A1PRUVH5Q0T9FS
949,59,,1.0,39.0,bridge_65.jpg,,,,A1PRUVH5Q0T9FS
950,60,,1.0,40.0,bridge_91.jpg,,,,A1PRUVH5Q0T9FS
951,61,,1.0,41.0,playground_117.jpg,,,,A1PRUVH5Q0T9FS
952,62,,1.0,42.0,bridge_250.jpg,,,,A1PRUVH5Q0T9FS
953,63,,1.0,43.0,mountain_123.jpg,,,,A1PRUVH5Q0T9FS
954,64,,1.0,44.0,golf_course_193.jpg,,,,A1PRUVH5Q0T9FS
955,65,,1.0,45.0,highway_245.jpg,,,,A1PRUVH5Q0T9FS
956,66,,1.0,46.0,highway_415.jpg,,,,A1PRUVH5Q0T9FS
957,67,right,1.0,47.0,right.jpg,right,1.1809,,A1PRUVH5Q0T9FS
958,68,,1.0,48.0,highway_359.jpg,,,,A1PRUVH5Q0T9FS
959,69,,1.0,49.0,highway_273.jpg,,,,A1PRUVH5Q0T9FS
960,70,,1.0,50.0,playground_10.jpg,,,,A1PRUVH5Q0T9FS
961,71,,1.0,51.0,playground_145.jpg,,,,A1PRUVH5Q0T9FS
962,72,,1.0,52.0,mountain_57.jpg,,,,A1PRUVH5Q0T9FS
963,73,,1.0,53.0,badlands_24.jpg,,,,A1PRUVH5Q0T9FS
964,74,,1.0,54.0,playground_257.jpg,,,,A1PRUVH5Q0T9FS
965,75,,1.0,55.0,badlands_221.jpg,,,,A1PRUVH5Q0T9FS
966,76,,1.0,56.0,mountain_110.jpg,,,,A1PRUVH5Q0T9FS
967,77,,1.0,57.0,badlands_52.jpg,,,,A1PRUVH5Q0T9FS
968,78,,1.0,58.0,badlands_137.jpg,,,,A1PRUVH5Q0T9FS
969,79,,1.0,59.0,highway_394.jpg,,,,A1PRUVH5Q0T9FS
970,80,,1.0,60.0,mountain_156.jpg,,,,A1PRUVH5Q0T9FS
971,81,,1.0,61.0,playground_131.jpg,,,,A1PRUVH5Q0T9FS
972,82,,1.0,62.0,golf_course_331.jpg,,,,A1PRUVH5Q0T9FS
973,83,,1.0,63.0,badlands_184.jpg,,,,A1PRUVH5Q0T9FS
974,84,,1.0,64.0,highway_156.jpg,,,,A1PRUVH5Q0T9FS
975,20,,1.0,0.0,highway_93.jpg,,,,AR6H3B01WJ1FQ
976,21,,1.0,1.0,mountain_101.jpg,,,,AR6H3B01WJ1FQ
977,22,,1.0,2.0,playground_76.jpg,,,,AR6H3B01WJ1FQ
978,23,,1.0,3.0,badlands_113.jpg,,,,AR6H3B01WJ1FQ
979,24,,1.0,4.0,playground_117.jpg,,,,AR6H3B01WJ1FQ
980,25,,1.0,5.0,golf_course_188.jpg,,,,AR6H3B01WJ1FQ
981,26,right,1.0,6.0,right.jpg,right,1.839,,AR6H3B01WJ1FQ
982,27,,1.0,7.0,highway_294.jpg,,,,AR6H3B01WJ1FQ
983,28,,1.0,8.0,bridge_191.jpg,,,,AR6H3B01WJ1FQ
984,29,,1.0,9.0,playground_219.jpg,,,,AR6H3B01WJ1FQ
985,30,,1.0,10.0,golf_course_214.jpg,,,,AR6H3B01WJ1FQ
986,31,,1.0,11.0,mountain_154.jpg,,,,AR6H3B01WJ1FQ
987,32,,1.0,12.0,highway_394.jpg,,,,AR6H3B01WJ1FQ
988,33,,1.0,13.0,golf_course_193.jpg,,,,AR6H3B01WJ1FQ
989,34,,1.0,14.0,mountain_57.jpg,,,,AR6H3B01WJ1FQ
990,35,,1.0,15.0,golf_course_15.jpg,,,,AR6H3B01WJ1FQ
991,36,,1.0,16.0,bridge_108.jpg,,,,AR6H3B01WJ1FQ
992,37,,1.0,17.0,golf_course_309.jpg,,,,AR6H3B01WJ1FQ
993,38,,1.0,18.0,bridge_128.jpg,,,,AR6H3B01WJ1FQ
994,39,,1.0,19.0,mountain_232.jpg,,,,AR6H3B01WJ1FQ
995,40,,1.0,20.0,playground_144.jpg,,,,AR6H3B01WJ1FQ
996,41,,1.0,21.0,bridge_146.jpg,,,,AR6H3B01WJ1FQ
997,42,right,1.0,22.0,right.jpg,right,1.8048,,AR6H3B01WJ1FQ
998,43,,1.0,23.0,bridge_91.jpg,,,,AR6H3B01WJ1FQ
999,44,,1.0,24.0,mountain_222.jpg,,,,AR6H3B01WJ1FQ
1000,45,,1.0,25.0,golf_course_195.jpg,,,,AR6H3B01WJ1FQ
1001,46,,1.0,26.0,badlands_137.jpg,,,,AR6H3B01WJ1FQ
1002,47,,1.0,27.0,highway_415.jpg,,,,AR6H3B01WJ1FQ
1003,48,,1.0,28.0,mountain_110.jpg,,,,AR6H3B01WJ1FQ
1004,49,,1.0,29.0,bridge_256.jpg,,,,AR6H3B01WJ1FQ
1005,50,,1.0,30.0,golf_course_78.jpg,,,,AR6H3B01WJ1FQ
1006,51,left,1.0,31.0,left.jpg,left,1.6666,,AR6H3B01WJ1FQ
1007,52,,1.0,32.0,badlands_24.jpg,,,,AR6H3B01WJ1FQ
1008,53,,1.0,33.0,badlands_23.jpg,,,,AR6H3B01WJ1FQ
1009,54,,1.0,34.0,playground_131.jpg,,,,AR6H3B01WJ1FQ
1010,55,,1.0,35.0,badlands_21.jpg,,,,AR6H3B01WJ1FQ
1011,56,left,1.0,36.0,left.jpg,left,1.5929,,AR6H3B01WJ1FQ
1012,57,,1.0,37.0,playground_240.jpg,,,,AR6H3B01WJ1FQ
1013,58,,1.0,38.0,highway_177.jpg,,,,AR6H3B01WJ1FQ
1014,59,,1.0,39.0,golf_course_331.jpg,,,,AR6H3B01WJ1FQ
1015,60,,1.0,40.0,playground_145.jpg,,,,AR6H3B01WJ1FQ
1016,61,,1.0,41.0,playground_257.jpg,,,,AR6H3B01WJ1FQ
1017,62,,1.0,42.0,mountain_230.jpg,,,,AR6H3B01WJ1FQ
1018,63,,1.0,43.0,highway_156.jpg,,,,AR6H3B01WJ1FQ
1019,64,,1.0,44.0,highway_245.jpg,,,,AR6H3B01WJ1FQ
1020,65,,1.0,45.0,golf_course_217.jpg,,,,AR6H3B01WJ1FQ
1021,66,left,1.0,46.0,left.jpg,left,1.5932,,AR6H3B01WJ1FQ
1022,67,,1.0,47.0,mountain_123.jpg,,,,AR6H3B01WJ1FQ
1023,68,,1.0,48.0,badlands_52.jpg,,,,AR6H3B01WJ1FQ
1024,69,,1.0,49.0,mountain_156.jpg,,,,AR6H3B01WJ1FQ
1025,70,,1.0,50.0,bridge_65.jpg,,,,AR6H3B01WJ1FQ
1026,71,,1.0,51.0,golf_course_87.jpg,,,,AR6H3B01WJ1FQ
1027,72,,1.0,52.0,bridge_202.jpg,,,,AR6H3B01WJ1FQ
1028,73,,1.0,53.0,bridge_250.jpg,,,,AR6H3B01WJ1FQ
1029,74,,1.0,54.0,playground_10.jpg,,,,AR6H3B01WJ1FQ
1030,75,,1.0,55.0,playground_60.jpg,,,,AR6H3B01WJ1FQ
1031,76,,1.0,56.0,badlands_222.jpg,,,,AR6H3B01WJ1FQ
1032,77,,1.0,57.0,badlands_70.jpg,,,,AR6H3B01WJ1FQ
1033,78,,1.0,58.0,highway_359.jpg,,,,AR6H3B01WJ1FQ
1034,79,,1.0,59.0,highway_209.jpg,,,,AR6H3B01WJ1FQ
1035,80,,1.0,60.0,bridge_172.jpg,,,,AR6H3B01WJ1FQ
1036,81,,1.0,61.0,mountain_293.jpg,,,,AR6H3B01WJ1FQ
1037,82,,1.0,62.0,highway_273.jpg,,,,AR6H3B01WJ1FQ
1038,83,,1.0,63.0,badlands_184.jpg,,,,AR6H3B01WJ1FQ
1039,84,,1.0,64.0,badlands_221.jpg,,,,AR6H3B01WJ1FQ
1040,20,,1.0,0.0,badlands_221.jpg,,,,A2F48NO7AD9VKK
1041,21,,1.0,1.0,badlands_52.jpg,,,,A2F48NO7AD9VKK
1042,22,,1.0,2.0,bridge_128.jpg,,,,A2F48NO7AD9VKK
1043,23,,1.0,3.0,golf_course_331.jpg,,,,A2F48NO7AD9VKK
1044,24,,1.0,4.0,mountain_57.jpg,,,,A2F48NO7AD9VKK
1045,25,,1.0,5.0,playground_240.jpg,,,,A2F48NO7AD9VKK
1046,26,,1.0,6.0,mountain_156.jpg,,,,A2F48NO7AD9VKK
1047,27,right,1.0,7.0,right.jpg,right,0.6228,,A2F48NO7AD9VKK
1048,28,,1.0,8.0,mountain_232.jpg,,,,A2F48NO7AD9VKK
1049,29,,1.0,9.0,playground_144.jpg,,,,A2F48NO7AD9VKK
1050,30,,1.0,10.0,highway_394.jpg,,,,A2F48NO7AD9VKK
1051,31,,1.0,11.0,highway_177.jpg,,,,A2F48NO7AD9VKK
1052,32,,1.0,12.0,playground_76.jpg,,,,A2F48NO7AD9VKK
1053,33,,1.0,13.0,playground_145.jpg,,,,A2F48NO7AD9VKK
1054,34,,1.0,14.0,bridge_202.jpg,,,,A2F48NO7AD9VKK
1055,35,,1.0,15.0,highway_245.jpg,,,,A2F48NO7AD9VKK
1056,36,,1.0,16.0,playground_10.jpg,,,,A2F48NO7AD9VKK
1057,37,left,1.0,17.0,left.jpg,left,0.4102,,A2F48NO7AD9VKK
1058,38,,1.0,18.0,highway_93.jpg,,,,A2F48NO7AD9VKK
1059,39,,1.0,19.0,playground_117.jpg,,,,A2F48NO7AD9VKK
1060,40,,1.0,20.0,golf_course_87.jpg,,,,A2F48NO7AD9VKK
1061,41,,1.0,21.0,bridge_108.jpg,,,,A2F48NO7AD9VKK
1062,42,,1.0,22.0,bridge_191.jpg,,,,A2F48NO7AD9VKK
1063,43,,1.0,23.0,golf_course_195.jpg,,,,A2F48NO7AD9VKK
1064,44,,1.0,24.0,golf_course_188.jpg,,,,A2F48NO7AD9VKK
1065,45,,1.0,25.0,badlands_70.jpg,,,,A2F48NO7AD9VKK
1066,46,,1.0,26.0,highway_294.jpg,,,,A2F48NO7AD9VKK
1067,47,,1.0,27.0,bridge_65.jpg,,,,A2F48NO7AD9VKK
1068,48,,1.0,28.0,badlands_137.jpg,,,,A2F48NO7AD9VKK
1069,49,,1.0,29.0,playground_257.jpg,,,,A2F48NO7AD9VKK
1070,50,left,1.0,30.0,left.jpg,left,0.5493,,A2F48NO7AD9VKK
1071,51,,1.0,31.0,mountain_110.jpg,,,,A2F48NO7AD9VKK
1072,52,,1.0,32.0,golf_course_217.jpg,,,,A2F48NO7AD9VKK
1073,53,,1.0,33.0,bridge_250.jpg,,,,A2F48NO7AD9VKK
1074,54,,1.0,34.0,highway_273.jpg,,,,A2F48NO7AD9VKK
1075,55,,1.0,35.0,badlands_184.jpg,,,,A2F48NO7AD9VKK
1076,56,,1.0,36.0,mountain_222.jpg,,,,A2F48NO7AD9VKK
1077,57,,1.0,37.0,bridge_91.jpg,,,,A2F48NO7AD9VKK
1078,58,,1.0,38.0,badlands_21.jpg,,,,A2F48NO7AD9VKK
1079,59,,1.0,39.0,highway_415.jpg,,,,A2F48NO7AD9VKK
1080,60,,1.0,40.0,highway_359.jpg,,,,A2F48NO7AD9VKK
1081,61,,1.0,41.0,golf_course_15.jpg,,,,A2F48NO7AD9VKK
1082,62,,1.0,42.0,golf_course_193.jpg,,,,A2F48NO7AD9VKK
1083,63,left,1.0,43.0,left.jpg,left,0.5491,,A2F48NO7AD9VKK
1084,64,,1.0,44.0,highway_209.jpg,,,,A2F48NO7AD9VKK
1085,65,,1.0,45.0,golf_course_78.jpg,,,,A2F48NO7AD9VKK
1086,66,,1.0,46.0,badlands_222.jpg,,,,A2F48NO7AD9VKK
1087,67,,1.0,47.0,mountain_101.jpg,,,,A2F48NO7AD9VKK
1088,68,,1.0,48.0,bridge_146.jpg,,,,A2F48NO7AD9VKK
1089,69,,1.0,49.0,bridge_256.jpg,,,,A2F48NO7AD9VKK
1090,70,,1.0,50.0,mountain_154.jpg,,,,A2F48NO7AD9VKK
1091,71,,1.0,51.0,badlands_23.jpg,,,,A2F48NO7AD9VKK
1092,72,right,1.0,52.0,right.jpg,right,0.5846,,A2F48NO7AD9VKK
1093,73,,1.0,53.0,playground_60.jpg,,,,A2F48NO7AD9VKK
1094,74,,1.0,54.0,badlands_24.jpg,,,,A2F48NO7AD9VKK
1095,75,,1.0,55.0,badlands_113.jpg,,,,A2F48NO7AD9VKK
1096,76,,1.0,56.0,mountain_293.jpg,,,,A2F48NO7AD9VKK
1097,77,,1.0,57.0,golf_course_214.jpg,,,,A2F48NO7AD9VKK
1098,78,,1.0,58.0,playground_131.jpg,,,,A2F48NO7AD9VKK
1099,79,,1.0,59.0,mountain_123.jpg,,,,A2F48NO7AD9VKK
1100,80,,1.0,60.0,golf_course_309.jpg,,,,A2F48NO7AD9VKK
1101,81,,1.0,61.0,highway_156.jpg,,,,A2F48NO7AD9VKK
1102,82,,1.0,62.0,playground_219.jpg,,,,A2F48NO7AD9VKK
1103,83,,1.0,63.0,bridge_172.jpg,,,,A2F48NO7AD9VKK
1104,84,,1.0,64.0,mountain_230.jpg,,,,A2F48NO7AD9VKK
1105,20,,1.0,0.0,mountain_232.jpg,,,,AKDW1CODLYVYG
1106,21,,1.0,1.0,highway_177.jpg,,,,AKDW1CODLYVYG
1107,22,,1.0,2.0,mountain_123.jpg,,,,AKDW1CODLYVYG
1108,23,,1.0,3.0,bridge_108.jpg,,,,AKDW1CODLYVYG
1109,24,,1.0,4.0,mountain_154.jpg,,,,AKDW1CODLYVYG
1110,25,,1.0,5.0,golf_course_195.jpg,,,,AKDW1CODLYVYG
1111,26,,1.0,6.0,badlands_23.jpg,,,,AKDW1CODLYVYG
1112,27,,1.0,7.0,golf_course_217.jpg,,,,AKDW1CODLYVYG
1113,28,,1.0,8.0,badlands_184.jpg,,,,AKDW1CODLYVYG
1114,29,,1.0,9.0,highway_294.jpg,,,,AKDW1CODLYVYG
1115,30,,1.0,10.0,highway_273.jpg,,,,AKDW1CODLYVYG
1116,31,,1.0,11.0,bridge_128.jpg,,,,AKDW1CODLYVYG
1117,32,right,1.0,12.0,right.jpg,right,1.4752,,AKDW1CODLYVYG
1118,33,,1.0,13.0,highway_156.jpg,,,,AKDW1CODLYVYG
1119,34,,1.0,14.0,playground_76.jpg,,,,AKDW1CODLYVYG
1120,35,,1.0,15.0,bridge_65.jpg,,,,AKDW1CODLYVYG
1121,36,,1.0,16.0,badlands_70.jpg,,,,AKDW1CODLYVYG
1122,37,,1.0,17.0,golf_course_309.jpg,,,,AKDW1CODLYVYG
1123,38,,1.0,18.0,playground_144.jpg,,,,AKDW1CODLYVYG
1124,39,,1.0,19.0,bridge_250.jpg,,,,AKDW1CODLYVYG
1125,40,,1.0,20.0,mountain_222.jpg,,,,AKDW1CODLYVYG
1126,41,left,1.0,21.0,left.jpg,left,1.1308,,AKDW1CODLYVYG
1127,42,,1.0,22.0,golf_course_78.jpg,,,,AKDW1CODLYVYG
1128,43,,1.0,23.0,golf_course_188.jpg,,,,AKDW1CODLYVYG
1129,44,,1.0,24.0,mountain_293.jpg,,,,AKDW1CODLYVYG
1130,45,,1.0,25.0,badlands_52.jpg,,,,AKDW1CODLYVYG
1131,46,,1.0,26.0,bridge_202.jpg,,,,AKDW1CODLYVYG
1132,47,,1.0,27.0,golf_course_193.jpg,,,,AKDW1CODLYVYG
1133,48,left,1.0,28.0,left.jpg,left,0.9212,,AKDW1CODLYVYG
1134,49,,1.0,29.0,badlands_24.jpg,,,,AKDW1CODLYVYG
1135,50,,1.0,30.0,highway_245.jpg,,,,AKDW1CODLYVYG
1136,51,,1.0,31.0,highway_209.jpg,,,,AKDW1CODLYVYG
1137,52,,1.0,32.0,mountain_57.jpg,,,,AKDW1CODLYVYG
1138,53,,1.0,33.0,badlands_113.jpg,,,,AKDW1CODLYVYG
1139,54,,1.0,34.0,highway_93.jpg,,,,AKDW1CODLYVYG
1140,55,,1.0,35.0,bridge_172.jpg,,,,AKDW1CODLYVYG
1141,56,,1.0,36.0,golf_course_331.jpg,,,,AKDW1CODLYVYG
1142,57,,1.0,37.0,badlands_21.jpg,,,,AKDW1CODLYVYG
1143,58,,1.0,38.0,mountain_110.jpg,,,,AKDW1CODLYVYG
1144,59,,1.0,39.0,playground_219.jpg,,,,AKDW1CODLYVYG
1145,60,,1.0,40.0,bridge_146.jpg,,,,AKDW1CODLYVYG
1146,61,,1.0,41.0,highway_415.jpg,,,,AKDW1CODLYVYG
1147,62,,1.0,42.0,mountain_156.jpg,,,,AKDW1CODLYVYG
1148,63,left,1.0,43.0,left.jpg,left,1.0906,,AKDW1CODLYVYG
1149,64,,1.0,44.0,mountain_101.jpg,,,,AKDW1CODLYVYG
1150,65,,1.0,45.0,playground_240.jpg,,,,AKDW1CODLYVYG
1151,66,,1.0,46.0,bridge_91.jpg,,,,AKDW1CODLYVYG
1152,67,right,1.0,47.0,right.jpg,right,1.6997,,AKDW1CODLYVYG
1153,68,,1.0,48.0,bridge_256.jpg,,,,AKDW1CODLYVYG
1154,69,,1.0,49.0,mountain_230.jpg,,,,AKDW1CODLYVYG
1155,70,,1.0,50.0,highway_394.jpg,,,,AKDW1CODLYVYG
1156,71,,1.0,51.0,playground_131.jpg,,,,AKDW1CODLYVYG
1157,72,,1.0,52.0,playground_10.jpg,,,,AKDW1CODLYVYG
1158,73,,1.0,53.0,golf_course_15.jpg,,,,AKDW1CODLYVYG
1159,74,,1.0,54.0,highway_359.jpg,,,,AKDW1CODLYVYG
1160,75,,1.0,55.0,bridge_191.jpg,,,,AKDW1CODLYVYG
1161,76,,1.0,56.0,badlands_137.jpg,,,,AKDW1CODLYVYG
1162,77,,1.0,57.0,playground_145.jpg,,,,AKDW1CODLYVYG
1163,78,,1.0,58.0,playground_117.jpg,,,,AKDW1CODLYVYG
1164,79,,1.0,59.0,golf_course_214.jpg,,,,AKDW1CODLYVYG
1165,80,,1.0,60.0,playground_257.jpg,,,,AKDW1CODLYVYG
1166,81,,1.0,61.0,badlands_222.jpg,,,,AKDW1CODLYVYG
1167,82,,1.0,62.0,badlands_221.jpg,,,,AKDW1CODLYVYG
1168,83,,1.0,63.0,golf_course_87.jpg,,,,AKDW1CODLYVYG
1169,84,,1.0,64.0,playground_60.jpg,,,,AKDW1CODLYVYG
1170,20,,1.0,0.0,playground_60.jpg,,,,A19AYB3M3IIP51
1171,21,,1.0,1.0,playground_240.jpg,,,,A19AYB3M3IIP51
1172,22,,1.0,2.0,mountain_123.jpg,,,,A19AYB3M3IIP51
1173,23,,1.0,3.0,highway_359.jpg,,,,A19AYB3M3IIP51
1174,24,,1.0,4.0,bridge_256.jpg,,,,A19AYB3M3IIP51
1175,25,,1.0,5.0,playground_257.jpg,,,,A19AYB3M3IIP51
1176,26,,1.0,6.0,badlands_21.jpg,,,,A19AYB3M3IIP51
1177,27,left,1.0,7.0,left.jpg,left,2.0988,,A19AYB3M3IIP51
1178,28,,1.0,8.0,mountain_57.jpg,,,,A19AYB3M3IIP51
1179,29,,1.0,9.0,highway_177.jpg,,,,A19AYB3M3IIP51
1180,30,,1.0,10.0,golf_course_214.jpg,,,,A19AYB3M3IIP51
1181,31,,1.0,11.0,highway_294.jpg,,,,A19AYB3M3IIP51
1182,32,,1.0,12.0,badlands_221.jpg,,,,A19AYB3M3IIP51
1183,33,,1.0,13.0,highway_209.jpg,,,,A19AYB3M3IIP51
1184,34,,1.0,14.0,mountain_232.jpg,,,,A19AYB3M3IIP51
1185,35,,1.0,15.0,bridge_250.jpg,,,,A19AYB3M3IIP51
1186,36,left,1.0,16.0,left.jpg,left,1.8102,,A19AYB3M3IIP51
1187,37,,1.0,17.0,mountain_156.jpg,,,,A19AYB3M3IIP51
1188,38,,1.0,18.0,playground_131.jpg,,,,A19AYB3M3IIP51
1189,39,,1.0,19.0,bridge_191.jpg,,,,A19AYB3M3IIP51
1190,40,,1.0,20.0,playground_219.jpg,,,,A19AYB3M3IIP51
1191,41,,1.0,21.0,golf_course_217.jpg,,,,A19AYB3M3IIP51
1192,42,,1.0,22.0,bridge_108.jpg,,,,A19AYB3M3IIP51
1193,43,,1.0,23.0,golf_course_309.jpg,,,,A19AYB3M3IIP51
1194,44,,1.0,24.0,playground_144.jpg,,,,A19AYB3M3IIP51
1195,45,,1.0,25.0,highway_273.jpg,,,,A19AYB3M3IIP51
1196,46,,1.0,26.0,highway_156.jpg,,,,A19AYB3M3IIP51
1197,47,,1.0,27.0,golf_course_193.jpg,,,,A19AYB3M3IIP51
1198,48,,1.0,28.0,highway_394.jpg,,,,A19AYB3M3IIP51
1199,49,,1.0,29.0,playground_76.jpg,,,,A19AYB3M3IIP51
1200,50,,1.0,30.0,bridge_128.jpg,,,,A19AYB3M3IIP51
1201,51,,1.0,31.0,golf_course_78.jpg,,,,A19AYB3M3IIP51
1202,52,right,1.0,32.0,right.jpg,right,1.9907,,A19AYB3M3IIP51
1203,53,,1.0,33.0,mountain_230.jpg,,,,A19AYB3M3IIP51
1204,54,,1.0,34.0,mountain_110.jpg,,,,A19AYB3M3IIP51
1205,55,,1.0,35.0,playground_10.jpg,,,,A19AYB3M3IIP51
1206,56,left,1.0,36.0,left.jpg,left,2.5203,,A19AYB3M3IIP51
1207,57,,1.0,37.0,badlands_70.jpg,,,,A19AYB3M3IIP51
1208,58,,1.0,38.0,golf_course_331.jpg,,,,A19AYB3M3IIP51
1209,59,,1.0,39.0,bridge_172.jpg,,,,A19AYB3M3IIP51
1210,60,,1.0,40.0,badlands_113.jpg,,,,A19AYB3M3IIP51
1211,61,,1.0,41.0,bridge_146.jpg,,,,A19AYB3M3IIP51
1212,62,,1.0,42.0,badlands_222.jpg,,,,A19AYB3M3IIP51
1213,63,,1.0,43.0,badlands_184.jpg,,,,A19AYB3M3IIP51
1214,64,,1.0,44.0,mountain_222.jpg,,,,A19AYB3M3IIP51
1215,65,,1.0,45.0,badlands_24.jpg,,,,A19AYB3M3IIP51
1216,66,,1.0,46.0,bridge_202.jpg,,,,A19AYB3M3IIP51
1217,67,,1.0,47.0,highway_415.jpg,,,,A19AYB3M3IIP51
1218,68,,1.0,48.0,mountain_154.jpg,,,,A19AYB3M3IIP51
1219,69,,1.0,49.0,playground_145.jpg,,,,A19AYB3M3IIP51
1220,70,left,1.0,50.0,left.jpg,left,1.8779,,A19AYB3M3IIP51
1221,71,,1.0,51.0,golf_course_188.jpg,,,,A19AYB3M3IIP51
1222,72,,1.0,52.0,highway_93.jpg,,,,A19AYB3M3IIP51
1223,73,,1.0,53.0,playground_117.jpg,,,,A19AYB3M3IIP51
1224,74,,1.0,54.0,golf_course_87.jpg,,,,A19AYB3M3IIP51
1225,75,,1.0,55.0,highway_245.jpg,,,,A19AYB3M3IIP51
1226,76,,1.0,56.0,badlands_52.jpg,,,,A19AYB3M3IIP51
1227,77,,1.0,57.0,bridge_91.jpg,,,,A19AYB3M3IIP51
1228,78,,1.0,58.0,mountain_101.jpg,,,,A19AYB3M3IIP51
1229,79,,1.0,59.0,golf_course_15.jpg,,,,A19AYB3M3IIP51
1230,80,,1.0,60.0,bridge_65.jpg,,,,A19AYB3M3IIP51
1231,81,,1.0,61.0,golf_course_195.jpg,,,,A19AYB3M3IIP51
1232,82,,1.0,62.0,badlands_23.jpg,,,,A19AYB3M3IIP51
1233,83,,1.0,63.0,mountain_293.jpg,,,,A19AYB3M3IIP51
1234,84,,1.0,64.0,badlands_137.jpg,,,,A19AYB3M3IIP51
1235,20,,1.0,0.0,golf_course_309.jpg,,,,A1BQLX0A4W8A8
1236,21,,1.0,1.0,playground_144.jpg,,,,A1BQLX0A4W8A8
1237,22,,1.0,2.0,bridge_256.jpg,,,,A1BQLX0A4W8A8
1238,23,,1.0,3.0,badlands_52.jpg,,,,A1BQLX0A4W8A8
1239,24,,1.0,4.0,mountain_57.jpg,,,,A1BQLX0A4W8A8
1240,25,,1.0,5.0,badlands_113.jpg,,,,A1BQLX0A4W8A8
1241,26,,1.0,6.0,highway_93.jpg,,,,A1BQLX0A4W8A8
1242,27,,1.0,7.0,badlands_70.jpg,,,,A1BQLX0A4W8A8
1243,28,,1.0,8.0,badlands_24.jpg,,,,A1BQLX0A4W8A8
1244,29,,1.0,9.0,playground_257.jpg,,,,A1BQLX0A4W8A8
1245,30,,1.0,10.0,highway_294.jpg,,,,A1BQLX0A4W8A8
1246,31,,1.0,11.0,golf_course_87.jpg,,,,A1BQLX0A4W8A8
1247,32,,1.0,12.0,playground_131.jpg,,,,A1BQLX0A4W8A8
1248,33,right,1.0,13.0,right.jpg,right,0.9095,,A1BQLX0A4W8A8
1249,34,,1.0,14.0,highway_273.jpg,,,,A1BQLX0A4W8A8
1250,35,,1.0,15.0,highway_359.jpg,,,,A1BQLX0A4W8A8
1251,36,,1.0,16.0,playground_240.jpg,,,,A1BQLX0A4W8A8
1252,37,,1.0,17.0,bridge_128.jpg,,,,A1BQLX0A4W8A8
1253,38,,1.0,18.0,golf_course_217.jpg,,,,A1BQLX0A4W8A8
1254,39,,1.0,19.0,bridge_191.jpg,,,,A1BQLX0A4W8A8
1255,40,left,1.0,20.0,left.jpg,left,0.8508,,A1BQLX0A4W8A8
1256,41,,1.0,21.0,highway_156.jpg,,,,A1BQLX0A4W8A8
1257,42,,1.0,22.0,bridge_146.jpg,,,,A1BQLX0A4W8A8
1258,43,,1.0,23.0,playground_219.jpg,,,,A1BQLX0A4W8A8
1259,44,,1.0,24.0,mountain_154.jpg,,,,A1BQLX0A4W8A8
1260,45,,1.0,25.0,playground_60.jpg,,,,A1BQLX0A4W8A8
1261,46,,1.0,26.0,golf_course_195.jpg,,,,A1BQLX0A4W8A8
1262,47,,1.0,27.0,bridge_172.jpg,,,,A1BQLX0A4W8A8
1263,48,,1.0,28.0,mountain_230.jpg,,,,A1BQLX0A4W8A8
1264,49,,1.0,29.0,golf_course_193.jpg,,,,A1BQLX0A4W8A8
1265,50,,1.0,30.0,bridge_91.jpg,,,,A1BQLX0A4W8A8
1266,51,,1.0,31.0,badlands_137.jpg,,,,A1BQLX0A4W8A8
1267,52,,1.0,32.0,highway_394.jpg,,,,A1BQLX0A4W8A8
1268,53,,1.0,33.0,highway_209.jpg,,,,A1BQLX0A4W8A8
1269,54,right,1.0,34.0,right.jpg,right,0.8827,,A1BQLX0A4W8A8
1270,55,,1.0,35.0,bridge_108.jpg,,,,A1BQLX0A4W8A8
1271,56,,1.0,36.0,mountain_293.jpg,,,,A1BQLX0A4W8A8
1272,57,,1.0,37.0,badlands_21.jpg,,,,A1BQLX0A4W8A8
1273,58,,1.0,38.0,playground_117.jpg,,,,A1BQLX0A4W8A8
1274,59,,1.0,39.0,bridge_202.jpg,,,,A1BQLX0A4W8A8
1275,60,,1.0,40.0,golf_course_15.jpg,,,,A1BQLX0A4W8A8
1276,61,right,1.0,41.0,right.jpg,right,0.9603,,A1BQLX0A4W8A8
1277,62,,1.0,42.0,badlands_23.jpg,,,,A1BQLX0A4W8A8
1278,63,,1.0,43.0,golf_course_188.jpg,,,,A1BQLX0A4W8A8
1279,64,,1.0,44.0,badlands_184.jpg,,,,A1BQLX0A4W8A8
1280,65,,1.0,45.0,golf_course_331.jpg,,,,A1BQLX0A4W8A8
1281,66,,1.0,46.0,mountain_222.jpg,,,,A1BQLX0A4W8A8
1282,67,,1.0,47.0,highway_415.jpg,,,,A1BQLX0A4W8A8
1283,68,,1.0,48.0,golf_course_214.jpg,,,,A1BQLX0A4W8A8
1284,69,,1.0,49.0,mountain_110.jpg,,,,A1BQLX0A4W8A8
1285,70,,1.0,50.0,bridge_65.jpg,,,,A1BQLX0A4W8A8
1286,71,,1.0,51.0,mountain_232.jpg,,,,A1BQLX0A4W8A8
1287,72,,1.0,52.0,mountain_101.jpg,,,,A1BQLX0A4W8A8
1288,73,left,1.0,53.0,left.jpg,left,0.8636,,A1BQLX0A4W8A8
1289,74,,1.0,54.0,bridge_250.jpg,,,,A1BQLX0A4W8A8
1290,75,,1.0,55.0,badlands_221.jpg,,,,A1BQLX0A4W8A8
1291,76,,1.0,56.0,playground_10.jpg,,,,A1BQLX0A4W8A8
1292,77,,1.0,57.0,golf_course_78.jpg,,,,A1BQLX0A4W8A8
1293,78,,1.0,58.0,playground_76.jpg,,,,A1BQLX0A4W8A8
1294,79,,1.0,59.0,playground_145.jpg,,,,A1BQLX0A4W8A8
1295,80,,1.0,60.0,highway_177.jpg,,,,A1BQLX0A4W8A8
1296,81,,1.0,61.0,highway_245.jpg,,,,A1BQLX0A4W8A8
1297,82,,1.0,62.0,mountain_123.jpg,,,,A1BQLX0A4W8A8
1298,83,,1.0,63.0,badlands_222.jpg,,,,A1BQLX0A4W8A8
1299,84,,1.0,64.0,mountain_156.jpg,,,,A1BQLX0A4W8A8
1300,20,,1.0,0.0,playground_60.jpg,,,,A1ABRVTR49OA73
1301,21,,1.0,1.0,mountain_230.jpg,,,,A1ABRVTR49OA73
1302,22,,1.0,2.0,highway_245.jpg,,,,A1ABRVTR49OA73
1303,23,,1.0,3.0,golf_course_309.jpg,,,,A1ABRVTR49OA73
1304,24,,1.0,4.0,playground_240.jpg,,,,A1ABRVTR49OA73
1305,25,,1.0,5.0,highway_359.jpg,,,,A1ABRVTR49OA73
1306,26,,1.0,6.0,badlands_21.jpg,,,,A1ABRVTR49OA73
1307,27,,1.0,7.0,highway_394.jpg,,,,A1ABRVTR49OA73
1308,28,,1.0,8.0,highway_209.jpg,,,,A1ABRVTR49OA73
1309,29,,1.0,9.0,badlands_23.jpg,,,,A1ABRVTR49OA73
1310,30,,1.0,10.0,playground_219.jpg,,,,A1ABRVTR49OA73
1311,31,,1.0,11.0,bridge_191.jpg,,,,A1ABRVTR49OA73
1312,32,,1.0,12.0,badlands_137.jpg,,,,A1ABRVTR49OA73
1313,33,,1.0,13.0,bridge_91.jpg,,,,A1ABRVTR49OA73
1314,34,,0.0,14.0,right.jpg,right,,,A1ABRVTR49OA73
1315,35,,1.0,15.0,highway_156.jpg,,,,A1ABRVTR49OA73
1316,36,,1.0,16.0,badlands_70.jpg,,,,A1ABRVTR49OA73
1317,37,,1.0,17.0,highway_93.jpg,,,,A1ABRVTR49OA73
1318,38,,1.0,18.0,mountain_232.jpg,,,,A1ABRVTR49OA73
1319,39,,1.0,19.0,bridge_256.jpg,,,,A1ABRVTR49OA73
1320,40,right,1.0,20.0,right.jpg,right,0.9781,,A1ABRVTR49OA73
1321,41,,1.0,21.0,badlands_24.jpg,,,,A1ABRVTR49OA73
1322,42,,1.0,22.0,playground_257.jpg,,,,A1ABRVTR49OA73
1323,43,,1.0,23.0,bridge_128.jpg,,,,A1ABRVTR49OA73
1324,44,,1.0,24.0,highway_294.jpg,,,,A1ABRVTR49OA73
1325,45,,1.0,25.0,bridge_108.jpg,,,,A1ABRVTR49OA73
1326,46,,1.0,26.0,badlands_222.jpg,,,,A1ABRVTR49OA73
1327,47,left,1.0,27.0,left.jpg,left,1.0127,,A1ABRVTR49OA73
1328,48,,1.0,28.0,playground_145.jpg,,,,A1ABRVTR49OA73
1329,49,,1.0,29.0,bridge_202.jpg,,,,A1ABRVTR49OA73
1330,50,,1.0,30.0,golf_course_188.jpg,,,,A1ABRVTR49OA73
1331,51,,1.0,31.0,mountain_101.jpg,,,,A1ABRVTR49OA73
1332,52,,1.0,32.0,highway_177.jpg,,,,A1ABRVTR49OA73
1333,53,,1.0,33.0,highway_415.jpg,,,,A1ABRVTR49OA73
1334,54,,1.0,34.0,mountain_57.jpg,,,,A1ABRVTR49OA73
1335,55,,1.0,35.0,mountain_154.jpg,,,,A1ABRVTR49OA73
1336,56,,1.0,36.0,mountain_110.jpg,,,,A1ABRVTR49OA73
1337,57,,1.0,37.0,mountain_293.jpg,,,,A1ABRVTR49OA73
1338,58,left,1.0,38.0,left.jpg,left,0.9792,,A1ABRVTR49OA73
1339,59,,1.0,39.0,golf_course_331.jpg,,,,A1ABRVTR49OA73
1340,60,,1.0,40.0,golf_course_217.jpg,,,,A1ABRVTR49OA73
1341,61,,1.0,41.0,mountain_222.jpg,,,,A1ABRVTR49OA73
1342,62,,1.0,42.0,highway_273.jpg,,,,A1ABRVTR49OA73
1343,63,,1.0,43.0,playground_144.jpg,,,,A1ABRVTR49OA73
1344,64,,1.0,44.0,mountain_123.jpg,,,,A1ABRVTR49OA73
1345,65,,1.0,45.0,badlands_52.jpg,,,,A1ABRVTR49OA73
1346,66,,1.0,46.0,golf_course_193.jpg,,,,A1ABRVTR49OA73
1347,67,,1.0,47.0,playground_76.jpg,,,,A1ABRVTR49OA73
1348,68,,1.0,48.0,golf_course_214.jpg,,,,A1ABRVTR49OA73
1349,69,,1.0,49.0,bridge_146.jpg,,,,A1ABRVTR49OA73
1350,70,,1.0,50.0,playground_10.jpg,,,,A1ABRVTR49OA73
1351,71,,1.0,51.0,playground_131.jpg,,,,A1ABRVTR49OA73
1352,72,,1.0,52.0,bridge_172.jpg,,,,A1ABRVTR49OA73
1353,73,left,1.0,53.0,left.jpg,left,1.0224,,A1ABRVTR49OA73
1354,74,,1.0,54.0,playground_117.jpg,,,,A1ABRVTR49OA73
1355,75,,1.0,55.0,golf_course_78.jpg,,,,A1ABRVTR49OA73
1356,76,,1.0,56.0,badlands_184.jpg,,,,A1ABRVTR49OA73
1357,77,,1.0,57.0,golf_course_195.jpg,,,,A1ABRVTR49OA73
1358,78,,1.0,58.0,bridge_250.jpg,,,,A1ABRVTR49OA73
1359,79,,1.0,59.0,golf_course_15.jpg,,,,A1ABRVTR49OA73
1360,80,,1.0,60.0,badlands_221.jpg,,,,A1ABRVTR49OA73
1361,81,,1.0,61.0,golf_course_87.jpg,,,,A1ABRVTR49OA73
1362,82,,1.0,62.0,mountain_156.jpg,,,,A1ABRVTR49OA73
1363,83,,1.0,63.0,bridge_65.jpg,,,,A1ABRVTR49OA73
1364,84,,1.0,64.0,badlands_113.jpg,,,,A1ABRVTR49OA73
1365,20,,1.0,0.0,bridge_65.jpg,,,,A39KMTFHRJJASK
1366,21,,1.0,1.0,mountain_110.jpg,,,,A39KMTFHRJJASK
1367,22,,1.0,2.0,badlands_184.jpg,,,,A39KMTFHRJJASK
1368,23,,1.0,3.0,bridge_202.jpg,,,,A39KMTFHRJJASK
1369,24,,1.0,4.0,mountain_57.jpg,,,,A39KMTFHRJJASK
1370,25,,1.0,5.0,highway_394.jpg,,,,A39KMTFHRJJASK
1371,26,,1.0,6.0,bridge_108.jpg,,,,A39KMTFHRJJASK
1372,27,,1.0,7.0,highway_415.jpg,,,,A39KMTFHRJJASK
1373,28,,1.0,8.0,badlands_221.jpg,,,,A39KMTFHRJJASK
1374,29,,1.0,9.0,mountain_154.jpg,,,,A39KMTFHRJJASK
1375,30,,1.0,10.0,bridge_191.jpg,,,,A39KMTFHRJJASK
1376,31,right,1.0,11.0,right.jpg,right,1.3056,,A39KMTFHRJJASK
1377,32,,1.0,12.0,highway_177.jpg,,,,A39KMTFHRJJASK
1378,33,,1.0,13.0,golf_course_78.jpg,,,,A39KMTFHRJJASK
1379,34,,1.0,14.0,playground_60.jpg,,,,A39KMTFHRJJASK
1380,35,,1.0,15.0,mountain_123.jpg,,,,A39KMTFHRJJASK
1381,36,,1.0,16.0,playground_219.jpg,,,,A39KMTFHRJJASK
1382,37,,1.0,17.0,highway_273.jpg,,,,A39KMTFHRJJASK
1383,38,,1.0,18.0,mountain_156.jpg,,,,A39KMTFHRJJASK
1384,39,left,1.0,19.0,left.jpg,left,1.1501,,A39KMTFHRJJASK
1385,40,,1.0,20.0,highway_156.jpg,,,,A39KMTFHRJJASK
1386,41,,1.0,21.0,bridge_172.jpg,,,,A39KMTFHRJJASK
1387,42,,1.0,22.0,bridge_256.jpg,,,,A39KMTFHRJJASK
1388,43,,1.0,23.0,golf_course_15.jpg,,,,A39KMTFHRJJASK
1389,44,,1.0,24.0,golf_course_195.jpg,,,,A39KMTFHRJJASK
1390,45,,1.0,25.0,highway_245.jpg,,,,A39KMTFHRJJASK
1391,46,,1.0,26.0,golf_course_309.jpg,,,,A39KMTFHRJJASK
1392,47,,1.0,27.0,badlands_137.jpg,,,,A39KMTFHRJJASK
1393,48,,1.0,28.0,badlands_113.jpg,,,,A39KMTFHRJJASK
1394,49,,1.0,29.0,bridge_91.jpg,,,,A39KMTFHRJJASK
1395,50,left,1.0,30.0,left.jpg,left,1.2089,,A39KMTFHRJJASK
1396,51,,1.0,31.0,badlands_21.jpg,,,,A39KMTFHRJJASK
1397,52,,1.0,32.0,playground_144.jpg,,,,A39KMTFHRJJASK
1398,53,,1.0,33.0,highway_93.jpg,,,,A39KMTFHRJJASK
1399,54,,1.0,34.0,mountain_293.jpg,,,,A39KMTFHRJJASK
1400,55,,1.0,35.0,playground_76.jpg,,,,A39KMTFHRJJASK
1401,56,,1.0,36.0,golf_course_331.jpg,,,,A39KMTFHRJJASK
1402,57,,1.0,37.0,bridge_146.jpg,,,,A39KMTFHRJJASK
1403,58,right,1.0,38.0,right.jpg,right,1.2064,,A39KMTFHRJJASK
1404,59,,1.0,39.0,mountain_101.jpg,,,,A39KMTFHRJJASK
1405,60,,1.0,40.0,playground_117.jpg,,,,A39KMTFHRJJASK
1406,61,,1.0,41.0,golf_course_87.jpg,,,,A39KMTFHRJJASK
1407,62,,1.0,42.0,golf_course_193.jpg,,,,A39KMTFHRJJASK
1408,63,,1.0,43.0,badlands_222.jpg,,,,A39KMTFHRJJASK
1409,64,,1.0,44.0,highway_359.jpg,,,,A39KMTFHRJJASK
1410,65,,1.0,45.0,badlands_52.jpg,,,,A39KMTFHRJJASK
1411,66,,1.0,46.0,playground_131.jpg,,,,A39KMTFHRJJASK
1412,67,right,1.0,47.0,right.jpg,right,1.193,,A39KMTFHRJJASK
1413,68,,1.0,48.0,mountain_232.jpg,,,,A39KMTFHRJJASK
1414,69,,1.0,49.0,highway_209.jpg,,,,A39KMTFHRJJASK
1415,70,,1.0,50.0,playground_10.jpg,,,,A39KMTFHRJJASK
1416,71,,1.0,51.0,badlands_24.jpg,,,,A39KMTFHRJJASK
1417,72,,1.0,52.0,bridge_250.jpg,,,,A39KMTFHRJJASK
1418,73,,1.0,53.0,playground_240.jpg,,,,A39KMTFHRJJASK
1419,74,,1.0,54.0,golf_course_217.jpg,,,,A39KMTFHRJJASK
1420,75,,1.0,55.0,playground_257.jpg,,,,A39KMTFHRJJASK
1421,76,,1.0,56.0,bridge_128.jpg,,,,A39KMTFHRJJASK
1422,77,,1.0,57.0,badlands_23.jpg,,,,A39KMTFHRJJASK
1423,78,,1.0,58.0,highway_294.jpg,,,,A39KMTFHRJJASK
1424,79,,1.0,59.0,mountain_230.jpg,,,,A39KMTFHRJJASK
1425,80,,1.0,60.0,golf_course_214.jpg,,,,A39KMTFHRJJASK
1426,81,,1.0,61.0,badlands_70.jpg,,,,A39KMTFHRJJASK
1427,82,,1.0,62.0,golf_course_188.jpg,,,,A39KMTFHRJJASK
1428,83,,1.0,63.0,mountain_222.jpg,,,,A39KMTFHRJJASK
1429,84,,1.0,64.0,playground_145.jpg,,,,A39KMTFHRJJASK
1430,20,,1.0,0.0,badlands_70.jpg,,,,A1Q3GKUJF8EWHG
1431,21,,1.0,1.0,golf_course_78.jpg,,,,A1Q3GKUJF8EWHG
1432,22,,1.0,2.0,bridge_91.jpg,,,,A1Q3GKUJF8EWHG
1433,23,,1.0,3.0,badlands_21.jpg,,,,A1Q3GKUJF8EWHG
1434,24,,1.0,4.0,playground_257.jpg,,,,A1Q3GKUJF8EWHG
1435,25,,1.0,5.0,playground_60.jpg,,,,A1Q3GKUJF8EWHG
1436,26,,1.0,6.0,mountain_293.jpg,,,,A1Q3GKUJF8EWHG
1437,27,,1.0,7.0,badlands_137.jpg,,,,A1Q3GKUJF8EWHG
1438,28,,1.0,8.0,mountain_123.jpg,,,,A1Q3GKUJF8EWHG
1439,29,,1.0,9.0,bridge_256.jpg,,,,A1Q3GKUJF8EWHG
1440,30,right,1.0,10.0,right.jpg,right,2.2576,,A1Q3GKUJF8EWHG
1441,31,,1.0,11.0,mountain_232.jpg,,,,A1Q3GKUJF8EWHG
1442,32,,1.0,12.0,golf_course_214.jpg,,,,A1Q3GKUJF8EWHG
1443,33,,1.0,13.0,bridge_250.jpg,,,,A1Q3GKUJF8EWHG
1444,34,,1.0,14.0,badlands_52.jpg,,,,A1Q3GKUJF8EWHG
1445,35,,1.0,15.0,playground_145.jpg,,,,A1Q3GKUJF8EWHG
1446,36,,1.0,16.0,mountain_156.jpg,,,,A1Q3GKUJF8EWHG
1447,37,,1.0,17.0,playground_10.jpg,,,,A1Q3GKUJF8EWHG
1448,38,left,1.0,18.0,left.jpg,left,1.7575,,A1Q3GKUJF8EWHG
1449,39,,1.0,19.0,golf_course_15.jpg,,,,A1Q3GKUJF8EWHG
1450,40,,1.0,20.0,badlands_113.jpg,,,,A1Q3GKUJF8EWHG
1451,41,,1.0,21.0,highway_359.jpg,,,,A1Q3GKUJF8EWHG
1452,42,,1.0,22.0,highway_177.jpg,,,,A1Q3GKUJF8EWHG
1453,43,,1.0,23.0,highway_273.jpg,,,,A1Q3GKUJF8EWHG
1454,44,,1.0,24.0,mountain_154.jpg,,,,A1Q3GKUJF8EWHG
1455,45,,1.0,25.0,golf_course_193.jpg,,,,A1Q3GKUJF8EWHG
1456,46,,1.0,26.0,bridge_146.jpg,,,,A1Q3GKUJF8EWHG
1457,47,,1.0,27.0,mountain_230.jpg,,,,A1Q3GKUJF8EWHG
1458,48,,1.0,28.0,badlands_184.jpg,,,,A1Q3GKUJF8EWHG
1459,49,,1.0,29.0,golf_course_195.jpg,,,,A1Q3GKUJF8EWHG
1460,50,,1.0,30.0,mountain_57.jpg,,,,A1Q3GKUJF8EWHG
1461,51,,1.0,31.0,playground_219.jpg,,,,A1Q3GKUJF8EWHG
1462,52,,1.0,32.0,playground_131.jpg,,,,A1Q3GKUJF8EWHG
1463,53,,1.0,33.0,bridge_172.jpg,,,,A1Q3GKUJF8EWHG
1464,54,left,1.0,34.0,left.jpg,left,2.1625,,A1Q3GKUJF8EWHG
1465,55,,1.0,35.0,bridge_128.jpg,,,,A1Q3GKUJF8EWHG
1466,56,,1.0,36.0,highway_156.jpg,,,,A1Q3GKUJF8EWHG
1467,57,,1.0,37.0,badlands_23.jpg,,,,A1Q3GKUJF8EWHG
1468,58,,1.0,38.0,playground_117.jpg,,,,A1Q3GKUJF8EWHG
1469,59,left,1.0,39.0,left.jpg,left,2.6859,,A1Q3GKUJF8EWHG
1470,60,,1.0,40.0,golf_course_87.jpg,,,,A1Q3GKUJF8EWHG
1471,61,,1.0,41.0,golf_course_188.jpg,,,,A1Q3GKUJF8EWHG
1472,62,,1.0,42.0,badlands_221.jpg,,,,A1Q3GKUJF8EWHG
1473,63,,1.0,43.0,golf_course_331.jpg,,,,A1Q3GKUJF8EWHG
1474,64,,1.0,44.0,highway_93.jpg,,,,A1Q3GKUJF8EWHG
1475,65,,1.0,45.0,bridge_191.jpg,,,,A1Q3GKUJF8EWHG
1476,66,,1.0,46.0,badlands_24.jpg,,,,A1Q3GKUJF8EWHG
1477,67,,1.0,47.0,highway_245.jpg,,,,A1Q3GKUJF8EWHG
1478,68,,1.0,48.0,highway_415.jpg,,,,A1Q3GKUJF8EWHG
1479,69,,1.0,49.0,highway_394.jpg,,,,A1Q3GKUJF8EWHG
1480,70,,1.0,50.0,playground_144.jpg,,,,A1Q3GKUJF8EWHG
1481,71,,1.0,51.0,mountain_222.jpg,,,,A1Q3GKUJF8EWHG
1482,72,right,1.0,52.0,right.jpg,right,2.1462,,A1Q3GKUJF8EWHG
1483,73,,1.0,53.0,bridge_202.jpg,,,,A1Q3GKUJF8EWHG
1484,74,,1.0,54.0,mountain_110.jpg,,,,A1Q3GKUJF8EWHG
1485,75,,1.0,55.0,mountain_101.jpg,,,,A1Q3GKUJF8EWHG
1486,76,,1.0,56.0,playground_240.jpg,,,,A1Q3GKUJF8EWHG
1487,77,,1.0,57.0,badlands_222.jpg,,,,A1Q3GKUJF8EWHG
1488,78,,1.0,58.0,highway_209.jpg,,,,A1Q3GKUJF8EWHG
1489,79,,1.0,59.0,highway_294.jpg,,,,A1Q3GKUJF8EWHG
1490,80,,1.0,60.0,golf_course_217.jpg,,,,A1Q3GKUJF8EWHG
1491,81,,1.0,61.0,playground_76.jpg,,,,A1Q3GKUJF8EWHG
1492,82,,1.0,62.0,bridge_108.jpg,,,,A1Q3GKUJF8EWHG
1493,83,,1.0,63.0,bridge_65.jpg,,,,A1Q3GKUJF8EWHG
1494,84,,1.0,64.0,golf_course_309.jpg,,,,A1Q3GKUJF8EWHG
1495,20,,1.0,0.0,bridge_128.jpg,,,,A3EWBTHYFI4I6Q
1496,21,,1.0,1.0,badlands_221.jpg,,,,A3EWBTHYFI4I6Q
1497,22,,1.0,2.0,playground_60.jpg,,,,A3EWBTHYFI4I6Q
1498,23,,1.0,3.0,badlands_70.jpg,,,,A3EWBTHYFI4I6Q
1499,24,,1.0,4.0,bridge_172.jpg,,,,A3EWBTHYFI4I6Q
1500,25,,1.0,5.0,bridge_256.jpg,,,,A3EWBTHYFI4I6Q
1501,26,,1.0,6.0,playground_144.jpg,,,,A3EWBTHYFI4I6Q
1502,27,,1.0,7.0,badlands_137.jpg,,,,A3EWBTHYFI4I6Q
1503,28,left,1.0,8.0,left.jpg,left,1.0359,,A3EWBTHYFI4I6Q
1504,29,,1.0,9.0,golf_course_78.jpg,,,,A3EWBTHYFI4I6Q
1505,30,,1.0,10.0,playground_240.jpg,,,,A3EWBTHYFI4I6Q
1506,31,,1.0,11.0,highway_273.jpg,,,,A3EWBTHYFI4I6Q
1507,32,,1.0,12.0,mountain_222.jpg,,,,A3EWBTHYFI4I6Q
1508,33,,1.0,13.0,highway_209.jpg,,,,A3EWBTHYFI4I6Q
1509,34,,1.0,14.0,golf_course_188.jpg,,,,A3EWBTHYFI4I6Q
1510,35,,1.0,15.0,highway_245.jpg,,,,A3EWBTHYFI4I6Q
1511,36,left,1.0,16.0,left.jpg,left,0.9631,,A3EWBTHYFI4I6Q
1512,37,,1.0,17.0,mountain_110.jpg,,,,A3EWBTHYFI4I6Q
1513,38,,1.0,18.0,bridge_146.jpg,,,,A3EWBTHYFI4I6Q
1514,39,,1.0,19.0,mountain_230.jpg,,,,A3EWBTHYFI4I6Q
1515,40,,1.0,20.0,bridge_250.jpg,,,,A3EWBTHYFI4I6Q
1516,41,,1.0,21.0,badlands_113.jpg,,,,A3EWBTHYFI4I6Q
1517,42,,1.0,22.0,golf_course_309.jpg,,,,A3EWBTHYFI4I6Q
1518,43,,1.0,23.0,playground_131.jpg,,,,A3EWBTHYFI4I6Q
1519,44,,1.0,24.0,playground_145.jpg,,,,A3EWBTHYFI4I6Q
1520,45,,1.0,25.0,mountain_156.jpg,,,,A3EWBTHYFI4I6Q
1521,46,,1.0,26.0,highway_93.jpg,,,,A3EWBTHYFI4I6Q
1522,47,,1.0,27.0,bridge_202.jpg,,,,A3EWBTHYFI4I6Q
1523,48,left,1.0,28.0,left.jpg,left,1.131,,A3EWBTHYFI4I6Q
1524,49,,1.0,29.0,highway_394.jpg,,,,A3EWBTHYFI4I6Q
1525,50,,1.0,30.0,highway_415.jpg,,,,A3EWBTHYFI4I6Q
1526,51,,1.0,31.0,mountain_101.jpg,,,,A3EWBTHYFI4I6Q
1527,52,,1.0,32.0,mountain_232.jpg,,,,A3EWBTHYFI4I6Q
1528,53,,1.0,33.0,badlands_184.jpg,,,,A3EWBTHYFI4I6Q
1529,54,,1.0,34.0,highway_156.jpg,,,,A3EWBTHYFI4I6Q
1530,55,,1.0,35.0,bridge_108.jpg,,,,A3EWBTHYFI4I6Q
1531,56,,1.0,36.0,mountain_57.jpg,,,,A3EWBTHYFI4I6Q
1532,57,,1.0,37.0,playground_219.jpg,,,,A3EWBTHYFI4I6Q
1533,58,,1.0,38.0,golf_course_15.jpg,,,,A3EWBTHYFI4I6Q
1534,59,,1.0,39.0,badlands_24.jpg,,,,A3EWBTHYFI4I6Q
1535,60,,1.0,40.0,highway_177.jpg,,,,A3EWBTHYFI4I6Q
1536,61,,1.0,41.0,badlands_23.jpg,,,,A3EWBTHYFI4I6Q
1537,62,right,1.0,42.0,right.jpg,right,1.2173,,A3EWBTHYFI4I6Q
1538,63,,1.0,43.0,mountain_154.jpg,,,,A3EWBTHYFI4I6Q
1539,64,,1.0,44.0,mountain_123.jpg,,,,A3EWBTHYFI4I6Q
1540,65,,1.0,45.0,playground_257.jpg,,,,A3EWBTHYFI4I6Q
1541,66,,1.0,46.0,golf_course_331.jpg,,,,A3EWBTHYFI4I6Q
1542,67,,1.0,47.0,playground_76.jpg,,,,A3EWBTHYFI4I6Q
1543,68,,1.0,48.0,badlands_52.jpg,,,,A3EWBTHYFI4I6Q
1544,69,,1.0,49.0,badlands_21.jpg,,,,A3EWBTHYFI4I6Q
1545,70,,1.0,50.0,highway_294.jpg,,,,A3EWBTHYFI4I6Q
1546,71,,1.0,51.0,badlands_222.jpg,,,,A3EWBTHYFI4I6Q
1547,72,,1.0,52.0,golf_course_217.jpg,,,,A3EWBTHYFI4I6Q
1548,73,,1.0,53.0,golf_course_193.jpg,,,,A3EWBTHYFI4I6Q
1549,74,right,1.0,54.0,right.jpg,right,1.0255,,A3EWBTHYFI4I6Q
1550,75,,1.0,55.0,highway_359.jpg,,,,A3EWBTHYFI4I6Q
1551,76,,1.0,56.0,golf_course_87.jpg,,,,A3EWBTHYFI4I6Q
1552,77,,1.0,57.0,bridge_65.jpg,,,,A3EWBTHYFI4I6Q
1553,78,,1.0,58.0,golf_course_195.jpg,,,,A3EWBTHYFI4I6Q
1554,79,,1.0,59.0,playground_117.jpg,,,,A3EWBTHYFI4I6Q
1555,80,,1.0,60.0,playground_10.jpg,,,,A3EWBTHYFI4I6Q
1556,81,,1.0,61.0,golf_course_214.jpg,,,,A3EWBTHYFI4I6Q
1557,82,,1.0,62.0,bridge_91.jpg,,,,A3EWBTHYFI4I6Q
1558,83,,1.0,63.0,bridge_191.jpg,,,,A3EWBTHYFI4I6Q
1559,84,,1.0,64.0,mountain_293.jpg,,,,A3EWBTHYFI4I6Q
1560,20,,1.0,0.0,highway_359.jpg,,,,A2J9NFY45NKR2N
1561,21,,1.0,1.0,badlands_222.jpg,,,,A2J9NFY45NKR2N
1562,22,,1.0,2.0,playground_76.jpg,,,,A2J9NFY45NKR2N
1563,23,,1.0,3.0,mountain_57.jpg,,,,A2J9NFY45NKR2N
1564,24,,1.0,4.0,mountain_154.jpg,,,,A2J9NFY45NKR2N
1565,25,,1.0,5.0,playground_144.jpg,,,,A2J9NFY45NKR2N
1566,26,,1.0,6.0,mountain_156.jpg,,,,A2J9NFY45NKR2N
1567,27,,1.0,7.0,badlands_137.jpg,,,,A2J9NFY45NKR2N
1568,28,,1.0,8.0,playground_240.jpg,,,,A2J9NFY45NKR2N
1569,29,,1.0,9.0,bridge_108.jpg,,,,A2J9NFY45NKR2N
1570,30,,1.0,10.0,golf_course_193.jpg,,,,A2J9NFY45NKR2N
1571,31,,1.0,11.0,highway_273.jpg,,,,A2J9NFY45NKR2N
1572,32,,1.0,12.0,bridge_191.jpg,,,,A2J9NFY45NKR2N
1573,33,right,1.0,13.0,right.jpg,right,1.3372,,A2J9NFY45NKR2N
1574,34,,1.0,14.0,golf_course_217.jpg,,,,A2J9NFY45NKR2N
1575,35,,1.0,15.0,badlands_221.jpg,,,,A2J9NFY45NKR2N
1576,36,,1.0,16.0,golf_course_195.jpg,,,,A2J9NFY45NKR2N
1577,37,left,1.0,17.0,left.jpg,left,0.7758,,A2J9NFY45NKR2N
1578,38,,1.0,18.0,badlands_24.jpg,,,,A2J9NFY45NKR2N
1579,39,,1.0,19.0,badlands_23.jpg,,,,A2J9NFY45NKR2N
1580,40,,1.0,20.0,highway_245.jpg,,,,A2J9NFY45NKR2N
1581,41,,1.0,21.0,golf_course_331.jpg,,,,A2J9NFY45NKR2N
1582,42,,1.0,22.0,mountain_123.jpg,,,,A2J9NFY45NKR2N
1583,43,,1.0,23.0,golf_course_214.jpg,,,,A2J9NFY45NKR2N
1584,44,,1.0,24.0,mountain_293.jpg,,,,A2J9NFY45NKR2N
1585,45,,1.0,25.0,playground_131.jpg,,,,A2J9NFY45NKR2N
1586,46,right,1.0,26.0,right.jpg,right,0.6912,,A2J9NFY45NKR2N
1587,47,,1.0,27.0,playground_60.jpg,,,,A2J9NFY45NKR2N
1588,48,,1.0,28.0,highway_177.jpg,,,,A2J9NFY45NKR2N
1589,49,,1.0,29.0,badlands_21.jpg,,,,A2J9NFY45NKR2N
1590,50,,1.0,30.0,badlands_52.jpg,,,,A2J9NFY45NKR2N
1591,51,,1.0,31.0,mountain_101.jpg,,,,A2J9NFY45NKR2N
1592,52,,1.0,32.0,highway_294.jpg,,,,A2J9NFY45NKR2N
1593,53,,1.0,33.0,golf_course_78.jpg,,,,A2J9NFY45NKR2N
1594,54,,1.0,34.0,mountain_222.jpg,,,,A2J9NFY45NKR2N
1595,55,,1.0,35.0,playground_117.jpg,,,,A2J9NFY45NKR2N
1596,56,,1.0,36.0,highway_415.jpg,,,,A2J9NFY45NKR2N
1597,57,,1.0,37.0,playground_219.jpg,,,,A2J9NFY45NKR2N
1598,58,,1.0,38.0,golf_course_15.jpg,,,,A2J9NFY45NKR2N
1599,59,right,1.0,39.0,right.jpg,right,0.7203,,A2J9NFY45NKR2N
1600,60,,1.0,40.0,playground_10.jpg,,,,A2J9NFY45NKR2N
1601,61,,1.0,41.0,bridge_250.jpg,,,,A2J9NFY45NKR2N
1602,62,,1.0,42.0,mountain_232.jpg,,,,A2J9NFY45NKR2N
1603,63,,1.0,43.0,golf_course_188.jpg,,,,A2J9NFY45NKR2N
1604,64,,1.0,44.0,playground_145.jpg,,,,A2J9NFY45NKR2N
1605,65,,1.0,45.0,playground_257.jpg,,,,A2J9NFY45NKR2N
1606,66,,1.0,46.0,bridge_146.jpg,,,,A2J9NFY45NKR2N
1607,67,,1.0,47.0,mountain_230.jpg,,,,A2J9NFY45NKR2N
1608,68,,1.0,48.0,mountain_110.jpg,,,,A2J9NFY45NKR2N
1609,69,,1.0,49.0,bridge_65.jpg,,,,A2J9NFY45NKR2N
1610,70,,1.0,50.0,golf_course_309.jpg,,,,A2J9NFY45NKR2N
1611,71,left,1.0,51.0,left.jpg,left,0.986,,A2J9NFY45NKR2N
1612,72,,1.0,52.0,badlands_70.jpg,,,,A2J9NFY45NKR2N
1613,73,,1.0,53.0,highway_394.jpg,,,,A2J9NFY45NKR2N
1614,74,,1.0,54.0,highway_156.jpg,,,,A2J9NFY45NKR2N
1615,75,,1.0,55.0,badlands_184.jpg,,,,A2J9NFY45NKR2N
1616,76,,1.0,56.0,bridge_202.jpg,,,,A2J9NFY45NKR2N
1617,77,,1.0,57.0,highway_209.jpg,,,,A2J9NFY45NKR2N
1618,78,,1.0,58.0,bridge_128.jpg,,,,A2J9NFY45NKR2N
1619,79,,1.0,59.0,bridge_256.jpg,,,,A2J9NFY45NKR2N
1620,80,,1.0,60.0,highway_93.jpg,,,,A2J9NFY45NKR2N
1621,81,,1.0,61.0,golf_course_87.jpg,,,,A2J9NFY45NKR2N
1622,82,,1.0,62.0,bridge_91.jpg,,,,A2J9NFY45NKR2N
1623,83,,1.0,63.0,badlands_113.jpg,,,,A2J9NFY45NKR2N
1624,84,,1.0,64.0,bridge_172.jpg,,,,A2J9NFY45NKR2N
