,workID,Age,Gender,target,image1,image2,correct,background_0,background_1,background_2,background_3,background_4,background_5,target_index,test_key_resp.keys,test_key_resp.rt,distractor_level,category,selected_dist,slider_part2.response,slider_part2.rt,subject
0,AFOEARBOY26DU,35,Male,mountain_123.jpg,mountain_189.jpg,mountain_123.jpg,right,bridge_4.jpg,highway_354.jpg,mountain_123.jpg,badlands_125.jpg,playground_184.jpg,golf_course_176.jpg,2.0,left,2.2627,1.0,mountain,mountain_189.jpg,6.923896499,2.9245,AFOEARBOY26DU
1,AFOEARBOY26DU,35,Male,playground_117.jpg,playground_127.jpg,playground_117.jpg,right,badlands_171.jpg,playground_117.jpg,mountain_88.jpg,highway_102.jpg,golf_course_300.jpg,bridge_179.jpg,1.0,left,1.7507,1.0,playground,playground_127.jpg,5.99847793,1.8057,AFOEARBOY26DU
2,AFOEARBOY26DU,35,Male,mountain_222.jpg,mountain_222.jpg,mountain_93.jpg,left,mountain_222.jpg,highway_226.jpg,badlands_97.jpg,playground_233.jpg,bridge_225.jpg,golf_course_219.jpg,0.0,right,1.9347,1.0,mountain,mountain_93.jpg,5.99847793,1.7301,AFOEARBOY26DU
3,AFOEARBOY26DU,35,Male,badlands_113.jpg,badlands_113.jpg,badlands_225.jpg,left,highway_148.jpg,bridge_64.jpg,playground_140.jpg,mountain_135.jpg,badlands_113.jpg,golf_course_105.jpg,4.0,right,2.1244,0.0,badlands,badlands_225.jpg,6.9847793,1.5945,AFOEARBOY26DU
4,AFOEARBOY26DU,35,Male,badlands_137.jpg,badlands_139.jpg,badlands_137.jpg,right,bridge_143.jpg,highway_290.jpg,mountain_169.jpg,badlands_137.jpg,golf_course_144.jpg,playground_120.jpg,3.0,left,1.4248,1.0,badlands,badlands_139.jpg,5.949771689,2.9845,AFOEARBOY26DU
5,AFOEARBOY26DU,35,Male,golf_course_195.jpg,golf_course_25.jpg,golf_course_195.jpg,right,highway_269.jpg,mountain_137.jpg,golf_course_195.jpg,badlands_174.jpg,bridge_136.jpg,playground_132.jpg,2.0,left,1.5626,0.0,golf,golf_course_25.jpg,6.923896499,1.3546,AFOEARBOY26DU
6,AFOEARBOY26DU,35,Male,golf_course_188.jpg,golf_course_188.jpg,golf_course_157.jpg,left,bridge_190.jpg,highway_295.jpg,golf_course_188.jpg,mountain_22.jpg,badlands_121.jpg,playground_204.jpg,2.0,left,1.7422,0.0,golf,golf_course_157.jpg,6.96042618,0.9421,AFOEARBOY26DU
7,AFOEARBOY26DU,35,Male,mountain_156.jpg,mountain_156.jpg,mountain_128.jpg,left,golf_course_166.jpg,mountain_156.jpg,playground_191.jpg,badlands_227.jpg,bridge_152.jpg,highway_83.jpg,1.0,right,1.2136,0.0,mountain,mountain_128.jpg,5.96194825,1.4719,AFOEARBOY26DU
8,AFOEARBOY26DU,35,Male,bridge_191.jpg,bridge_75.jpg,bridge_191.jpg,right,bridge_191.jpg,golf_course_127.jpg,badlands_129.jpg,highway_17.jpg,playground_227.jpg,mountain_120.jpg,0.0,left,2.2365,1.0,bridge,bridge_75.jpg,5.97412481,0.9707,AFOEARBOY26DU
9,AFOEARBOY26DU,35,Male,bridge_146.jpg,bridge_27.jpg,bridge_146.jpg,right,badlands_215.jpg,bridge_146.jpg,playground_256.jpg,highway_141.jpg,golf_course_288.jpg,mountain_251.jpg,1.0,right,1.121,0.0,bridge,bridge_27.jpg,6.01065449,1.5187,AFOEARBOY26DU
10,AFOEARBOY26DU,35,Male,badlands_222.jpg,badlands_222.jpg,badlands_62.jpg,left,golf_course_72.jpg,bridge_120.jpg,playground_39.jpg,badlands_222.jpg,highway_9.jpg,mountain_76.jpg,3.0,left,1.6181,1.0,badlands,badlands_62.jpg,6.97260274,1.5035,AFOEARBOY26DU
11,AFOEARBOY26DU,35,Male,badlands_52.jpg,badlands_52.jpg,badlands_94.jpg,left,highway_15.jpg,playground_83.jpg,golf_course_333.jpg,mountain_309.jpg,badlands_52.jpg,bridge_72.jpg,4.0,right,1.1942,0.0,badlands,badlands_94.jpg,6.02283105,2.3784,AFOEARBOY26DU
12,AFOEARBOY26DU,35,Male,playground_145.jpg,playground_242.jpg,playground_145.jpg,right,highway_53.jpg,golf_course_179.jpg,badlands_72.jpg,playground_145.jpg,bridge_158.jpg,mountain_166.jpg,3.0,right,2.2377,1.0,playground,playground_242.jpg,6.948249619,1.4482,AFOEARBOY26DU
13,AFOEARBOY26DU,35,Male,mountain_57.jpg,mountain_57.jpg,mountain_193.jpg,left,mountain_57.jpg,bridge_180.jpg,highway_50.jpg,badlands_200.jpg,playground_153.jpg,golf_course_120.jpg,0.0,right,2.7163,0.0,mountain,mountain_193.jpg,5.96194825,1.4978,AFOEARBOY26DU
14,AFOEARBOY26DU,35,Male,golf_course_309.jpg,golf_course_209.jpg,golf_course_309.jpg,right,highway_33.jpg,playground_74.jpg,badlands_213.jpg,bridge_87.jpg,golf_course_309.jpg,mountain_43.jpg,4.0,right,2.3955,1.0,golf,golf_course_209.jpg,6.936073059,1.5417,AFOEARBOY26DU
15,AFOEARBOY26DU,35,Male,highway_415.jpg,highway_60.jpg,highway_415.jpg,right,golf_course_162.jpg,badlands_16.jpg,bridge_197.jpg,playground_173.jpg,highway_415.jpg,mountain_268.jpg,4.0,left,1.1341,0.0,highway,highway_60.jpg,5.937595129,1.094,AFOEARBOY26DU
16,AFOEARBOY26DU,35,Male,badlands_70.jpg,badlands_119.jpg,badlands_70.jpg,right,highway_28.jpg,playground_15.jpg,bridge_144.jpg,badlands_70.jpg,golf_course_59.jpg,mountain_204.jpg,3.0,left,5.524,1.0,badlands,badlands_119.jpg,7.143074581,1.549,AFOEARBOY26DU
17,AFOEARBOY26DU,35,Male,badlands_221.jpg,badlands_115.jpg,badlands_221.jpg,right,badlands_221.jpg,golf_course_313.jpg,highway_58.jpg,mountain_33.jpg,bridge_117.jpg,playground_181.jpg,0.0,right,11.0356,0.0,badlands,badlands_115.jpg,7.070015221,1.2148,AFOEARBOY26DU
18,AFOEARBOY26DU,35,Male,highway_156.jpg,highway_160.jpg,highway_156.jpg,right,mountain_233.jpg,playground_42.jpg,highway_156.jpg,bridge_86.jpg,badlands_128.jpg,golf_course_269.jpg,2.0,left,4.1315,0.0,highway,highway_160.jpg,6.108066971,1.5204,AFOEARBOY26DU
19,AFOEARBOY26DU,35,Male,highway_245.jpg,highway_206.jpg,highway_245.jpg,right,bridge_96.jpg,highway_245.jpg,mountain_212.jpg,playground_248.jpg,badlands_59.jpg,golf_course_3.jpg,1.0,right,1.6973,1.0,highway,highway_206.jpg,6.108066971,1.0984,AFOEARBOY26DU
20,AFOEARBOY26DU,35,Male,playground_240.jpg,playground_240.jpg,playground_40.jpg,left,bridge_254.jpg,mountain_89.jpg,playground_240.jpg,badlands_150.jpg,golf_course_33.jpg,highway_251.jpg,2.0,left,1.2574,1.0,playground,playground_40.jpg,6.923896499,1.3463,AFOEARBOY26DU
21,AFOEARBOY26DU,35,Male,bridge_256.jpg,bridge_54.jpg,bridge_256.jpg,right,highway_313.jpg,bridge_256.jpg,mountain_92.jpg,golf_course_71.jpg,badlands_156.jpg,playground_68.jpg,1.0,right,3.0526,0.0,bridge,bridge_54.jpg,5.937595129,1.7336,AFOEARBOY26DU
22,AFOEARBOY26DU,35,Male,highway_294.jpg,highway_294.jpg,highway_368.jpg,left,playground_165.jpg,highway_294.jpg,bridge_204.jpg,badlands_185.jpg,golf_course_202.jpg,mountain_51.jpg,1.0,right,4.5167,1.0,highway,highway_368.jpg,6.911719939,1.4105,AFOEARBOY26DU
23,AFOEARBOY26DU,35,Male,playground_257.jpg,playground_257.jpg,playground_214.jpg,left,badlands_120.jpg,playground_257.jpg,golf_course_328.jpg,bridge_234.jpg,mountain_206.jpg,highway_268.jpg,1.0,left,4.7363,0.0,playground,playground_214.jpg,6.911719939,1.4313,AFOEARBOY26DU
24,AFOEARBOY26DU,35,Male,badlands_23.jpg,badlands_23.jpg,badlands_114.jpg,left,badlands_23.jpg,highway_154.jpg,mountain_190.jpg,bridge_63.jpg,playground_49.jpg,golf_course_221.jpg,0.0,right,10.2191,0.0,badlands,badlands_114.jpg,6.911719939,1.0579,AFOEARBOY26DU
25,AFOEARBOY26DU,35,Male,highway_177.jpg,highway_87.jpg,highway_177.jpg,right,badlands_152.jpg,bridge_169.jpg,playground_176.jpg,mountain_199.jpg,highway_177.jpg,golf_course_67.jpg,4.0,left,2.6088,0.0,highway,highway_87.jpg,6.01065449,0.9808,AFOEARBOY26DU
26,AFOEARBOY26DU,35,Male,bridge_108.jpg,bridge_108.jpg,bridge_116.jpg,left,mountain_180.jpg,golf_course_305.jpg,playground_85.jpg,bridge_108.jpg,badlands_106.jpg,highway_172.jpg,3.0,right,6.0729,0.0,bridge,bridge_116.jpg,6.911719939,1.4743,AFOEARBOY26DU
27,AFOEARBOY26DU,35,Male,bridge_172.jpg,bridge_172.jpg,bridge_17.jpg,left,playground_141.jpg,golf_course_133.jpg,bridge_172.jpg,badlands_122.jpg,highway_274.jpg,mountain_62.jpg,2.0,left,1.391,0.0,bridge,bridge_17.jpg,6.899543379,2.6236,AFOEARBOY26DU
28,AFOEARBOY26DU,35,Male,golf_course_331.jpg,golf_course_26.jpg,golf_course_331.jpg,right,highway_36.jpg,playground_249.jpg,badlands_217.jpg,golf_course_331.jpg,mountain_102.jpg,bridge_193.jpg,3.0,left,4.2632,1.0,golf,golf_course_26.jpg,6.02283105,1.2394,AFOEARBOY26DU
29,AFOEARBOY26DU,35,Male,golf_course_15.jpg,golf_course_15.jpg,golf_course_97.jpg,left,playground_63.jpg,bridge_52.jpg,golf_course_15.jpg,highway_30.jpg,mountain_126.jpg,badlands_36.jpg,2.0,right,1.3852,1.0,golf,golf_course_97.jpg,6.03500761,1.4065,AFOEARBOY26DU
30,AFOEARBOY26DU,35,Male,badlands_24.jpg,badlands_53.jpg,badlands_24.jpg,right,mountain_192.jpg,bridge_20.jpg,badlands_24.jpg,highway_315.jpg,playground_237.jpg,golf_course_241.jpg,2.0,left,2.3134,1.0,badlands,badlands_53.jpg,5.98630137,1.2534,AFOEARBOY26DU
31,AFOEARBOY26DU,35,Male,mountain_293.jpg,mountain_72.jpg,mountain_293.jpg,right,highway_413.jpg,golf_course_0.jpg,playground_50.jpg,mountain_293.jpg,bridge_126.jpg,badlands_81.jpg,3.0,right,2.6854,0.0,mountain,mountain_72.jpg,6.97260274,0.8608,AFOEARBOY26DU
32,AFOEARBOY26DU,35,Male,playground_219.jpg,playground_219.jpg,playground_205.jpg,left,golf_course_56.jpg,mountain_249.jpg,playground_219.jpg,bridge_228.jpg,highway_288.jpg,badlands_183.jpg,2.0,left,2.2877,1.0,playground,playground_205.jpg,6.97260274,1.2682,AFOEARBOY26DU
33,AFOEARBOY26DU,35,Male,badlands_184.jpg,badlands_184.jpg,badlands_103.jpg,left,badlands_184.jpg,playground_126.jpg,mountain_290.jpg,bridge_212.jpg,highway_81.jpg,golf_course_265.jpg,0.0,right,1.7452,1.0,badlands,badlands_103.jpg,6.04718417,0.9456,AFOEARBOY26DU
34,AFOEARBOY26DU,35,Male,bridge_202.jpg,bridge_38.jpg,bridge_202.jpg,right,highway_319.jpg,golf_course_252.jpg,playground_26.jpg,badlands_20.jpg,bridge_202.jpg,mountain_250.jpg,4.0,right,4.8996,1.0,bridge,bridge_38.jpg,6.948249619,1.725,AFOEARBOY26DU
35,AFOEARBOY26DU,35,Male,highway_209.jpg,highway_314.jpg,highway_209.jpg,right,badlands_216.jpg,playground_7.jpg,mountain_306.jpg,bridge_110.jpg,highway_209.jpg,golf_course_291.jpg,4.0,left,4.1114,0.0,highway,highway_314.jpg,5.99847793,2.1153,AFOEARBOY26DU
36,AFOEARBOY26DU,35,Male,mountain_101.jpg,mountain_221.jpg,mountain_101.jpg,right,mountain_101.jpg,bridge_173.jpg,badlands_211.jpg,playground_54.jpg,golf_course_253.jpg,highway_107.jpg,0.0,right,3.3259,1.0,mountain,mountain_221.jpg,6.99695586,1.6005,AFOEARBOY26DU
37,AFOEARBOY26DU,35,Male,bridge_91.jpg,bridge_82.jpg,bridge_91.jpg,right,mountain_256.jpg,badlands_157.jpg,golf_course_282.jpg,bridge_91.jpg,playground_47.jpg,highway_246.jpg,3.0,right,11.251,1.0,bridge,bridge_82.jpg,6.97260274,1.1587,AFOEARBOY26DU
38,AFOEARBOY26DU,35,Male,golf_course_214.jpg,golf_course_317.jpg,golf_course_214.jpg,right,bridge_102.jpg,highway_147.jpg,playground_30.jpg,mountain_39.jpg,golf_course_214.jpg,badlands_180.jpg,4.0,left,2.9595,1.0,golf,golf_course_317.jpg,5.96194825,1.5069,AFOEARBOY26DU
39,AFOEARBOY26DU,35,Male,playground_60.jpg,playground_60.jpg,playground_268.jpg,left,golf_course_128.jpg,playground_60.jpg,highway_399.jpg,bridge_156.jpg,mountain_146.jpg,badlands_138.jpg,1.0,right,8.0982,0.0,playground,playground_268.jpg,6.936073059,2.0719,AFOEARBOY26DU
40,AFOEARBOY26DU,35,Male,golf_course_193.jpg,golf_course_193.jpg,golf_course_123.jpg,left,golf_course_193.jpg,playground_33.jpg,highway_31.jpg,mountain_143.jpg,badlands_30.jpg,bridge_35.jpg,0.0,left,3.351,1.0,golf,golf_course_123.jpg,6.99695586,0.9809,AFOEARBOY26DU
41,AFOEARBOY26DU,35,Male,golf_course_87.jpg,golf_course_161.jpg,golf_course_87.jpg,right,playground_16.jpg,highway_3.jpg,badlands_9.jpg,bridge_224.jpg,golf_course_87.jpg,mountain_302.jpg,4.0,right,1.7061,1.0,golf,golf_course_161.jpg,6.04718417,2.2207,AFOEARBOY26DU
42,AFOEARBOY26DU,35,Male,golf_course_217.jpg,golf_course_35.jpg,golf_course_217.jpg,right,bridge_39.jpg,highway_78.jpg,golf_course_217.jpg,playground_246.jpg,badlands_219.jpg,mountain_87.jpg,2.0,right,2.3594,0.0,golf,golf_course_35.jpg,6.071537291,1.7302,AFOEARBOY26DU
43,AFOEARBOY26DU,35,Male,mountain_230.jpg,mountain_97.jpg,mountain_230.jpg,right,bridge_155.jpg,golf_course_338.jpg,playground_241.jpg,mountain_230.jpg,highway_404.jpg,badlands_85.jpg,3.0,left,3.1817,1.0,mountain,mountain_97.jpg,6.899543379,1.5151,AFOEARBOY26DU
44,AFOEARBOY26DU,35,Male,highway_394.jpg,highway_394.jpg,highway_406.jpg,left,mountain_91.jpg,highway_394.jpg,badlands_104.jpg,playground_162.jpg,bridge_106.jpg,golf_course_164.jpg,1.0,right,1.5614,1.0,highway,highway_406.jpg,6.96042618,0.9594,AFOEARBOY26DU
45,AFOEARBOY26DU,35,Male,playground_10.jpg,playground_12.jpg,playground_10.jpg,right,bridge_79.jpg,golf_course_342.jpg,playground_10.jpg,mountain_160.jpg,badlands_44.jpg,highway_257.jpg,2.0,right,2.9053,1.0,playground,playground_12.jpg,5.913242009,1.3352,AFOEARBOY26DU
46,AFOEARBOY26DU,35,Male,playground_76.jpg,playground_72.jpg,playground_76.jpg,right,playground_76.jpg,mountain_202.jpg,golf_course_316.jpg,badlands_201.jpg,bridge_238.jpg,highway_42.jpg,0.0,left,2.6786,1.0,playground,playground_72.jpg,6.936073059,2.0971,AFOEARBOY26DU
47,AFOEARBOY26DU,35,Male,bridge_250.jpg,bridge_134.jpg,bridge_250.jpg,right,badlands_33.jpg,mountain_38.jpg,golf_course_212.jpg,playground_37.jpg,bridge_250.jpg,highway_305.jpg,4.0,right,3.3721,0.0,bridge,bridge_134.jpg,6.936073059,1.2402,AFOEARBOY26DU
48,AFOEARBOY26DU,35,Male,bridge_128.jpg,bridge_61.jpg,bridge_128.jpg,right,mountain_34.jpg,highway_365.jpg,bridge_128.jpg,badlands_6.jpg,golf_course_308.jpg,playground_6.jpg,2.0,right,2.0626,0.0,bridge,bridge_61.jpg,6.04718417,1.4988,AFOEARBOY26DU
49,AFOEARBOY26DU,35,Male,highway_93.jpg,highway_93.jpg,highway_85.jpg,left,highway_93.jpg,bridge_68.jpg,badlands_27.jpg,playground_258.jpg,mountain_32.jpg,golf_course_238.jpg,0.0,left,15.3236,0.0,highway,highway_85.jpg,6.03500761,1.8012,AFOEARBOY26DU
50,AFOEARBOY26DU,35,Male,playground_144.jpg,playground_144.jpg,playground_65.jpg,left,badlands_173.jpg,playground_144.jpg,golf_course_194.jpg,mountain_151.jpg,highway_178.jpg,bridge_164.jpg,1.0,right,1.7741,1.0,playground,playground_65.jpg,6.863013699,1.1653,AFOEARBOY26DU
51,AFOEARBOY26DU,35,Male,mountain_154.jpg,mountain_154.jpg,mountain_131.jpg,left,playground_110.jpg,bridge_118.jpg,mountain_154.jpg,badlands_105.jpg,highway_90.jpg,golf_course_181.jpg,2.0,right,14.344,0.0,mountain,mountain_131.jpg,5.913242009,4.7046,AFOEARBOY26DU
52,AFOEARBOY26DU,35,Male,highway_359.jpg,highway_389.jpg,highway_359.jpg,right,playground_64.jpg,golf_course_42.jpg,badlands_80.jpg,mountain_228.jpg,highway_359.jpg,bridge_140.jpg,4.0,right,2.3153,0.0,highway,highway_389.jpg,5.98630137,0.4287,AFOEARBOY26DU
53,AFOEARBOY26DU,35,Male,mountain_110.jpg,mountain_157.jpg,mountain_110.jpg,right,badlands_35.jpg,mountain_110.jpg,highway_138.jpg,bridge_24.jpg,playground_235.jpg,golf_course_137.jpg,1.0,left,1.9234,0.0,mountain,mountain_157.jpg,6.97260274,1.5864,AFOEARBOY26DU
54,AFOEARBOY26DU,35,Male,badlands_21.jpg,badlands_21.jpg,badlands_1.jpg,left,badlands_21.jpg,playground_14.jpg,highway_383.jpg,golf_course_226.jpg,mountain_19.jpg,bridge_133.jpg,0.0,right,1.97,0.0,badlands,badlands_1.jpg,6.97260274,1.3762,AFOEARBOY26DU
55,AFOEARBOY26DU,35,Male,highway_273.jpg,highway_171.jpg,highway_273.jpg,right,playground_61.jpg,highway_273.jpg,mountain_198.jpg,golf_course_116.jpg,bridge_142.jpg,badlands_175.jpg,1.0,left,1.6285,1.0,highway,highway_171.jpg,6.97260274,0.973,AFOEARBOY26DU
56,AFOEARBOY26DU,35,Male,mountain_232.jpg,mountain_232.jpg,mountain_3.jpg,left,bridge_124.jpg,highway_308.jpg,badlands_79.jpg,playground_222.jpg,mountain_232.jpg,golf_course_307.jpg,4.0,right,1.6962,0.0,mountain,mountain_3.jpg,5.99847793,1.2544,AFOEARBOY26DU
57,AFOEARBOY26DU,35,Male,bridge_65.jpg,bridge_65.jpg,bridge_60.jpg,left,highway_29.jpg,playground_78.jpg,bridge_65.jpg,golf_course_196.jpg,badlands_54.jpg,mountain_176.jpg,2.0,left,1.6995,1.0,bridge,bridge_60.jpg,7.02130898,9.1674,AFOEARBOY26DU
58,AFOEARBOY26DU,35,Male,golf_course_78.jpg,golf_course_78.jpg,golf_course_101.jpg,left,badlands_60.jpg,bridge_62.jpg,mountain_307.jpg,golf_course_78.jpg,highway_193.jpg,playground_154.jpg,3.0,right,4.1111,1.0,golf,golf_course_101.jpg,7.02130898,1.5415,AFOEARBOY26DU
59,AFOEARBOY26DU,35,Male,playground_131.jpg,playground_43.jpg,playground_131.jpg,right,badlands_170.jpg,bridge_76.jpg,playground_131.jpg,highway_76.jpg,mountain_152.jpg,golf_course_171.jpg,2.0,left,6.9337,0.0,playground,playground_43.jpg,6.02283105,2.1955,AFOEARBOY26DU
60,ATW1TNWB1PVDQ,25,Male,bridge_108.jpg,bridge_108.jpg,bridge_116.jpg,left,highway_81.jpg,playground_49.jpg,mountain_202.jpg,bridge_108.jpg,golf_course_181.jpg,badlands_97.jpg,3.0,left,1.246,0.0,bridge,bridge_116.jpg,5.0,4.7376,ATW1TNWB1PVDQ
61,ATW1TNWB1PVDQ,25,Male,mountain_293.jpg,mountain_293.jpg,mountain_72.jpg,left,mountain_293.jpg,bridge_76.jpg,highway_58.jpg,badlands_200.jpg,golf_course_138.jpg,playground_120.jpg,0.0,right,1.5917,0.0,mountain,mountain_72.jpg,8.0078125,4.2836,ATW1TNWB1PVDQ
62,ATW1TNWB1PVDQ,25,Male,highway_245.jpg,highway_206.jpg,highway_245.jpg,right,mountain_233.jpg,badlands_180.jpg,playground_15.jpg,golf_course_282.jpg,highway_245.jpg,bridge_197.jpg,4.0,left,3.8886,1.0,highway,highway_206.jpg,8.0078125,1.9815,ATW1TNWB1PVDQ
63,ATW1TNWB1PVDQ,25,Male,badlands_52.jpg,badlands_63.jpg,badlands_52.jpg,right,mountain_206.jpg,badlands_52.jpg,playground_154.jpg,golf_course_269.jpg,bridge_124.jpg,highway_15.jpg,1.0,right,2.8493,1.0,badlands,badlands_63.jpg,5.984375,2.9799,ATW1TNWB1PVDQ
64,ATW1TNWB1PVDQ,25,Male,badlands_70.jpg,badlands_102.jpg,badlands_70.jpg,right,playground_184.jpg,bridge_167.jpg,highway_274.jpg,mountain_38.jpg,badlands_70.jpg,golf_course_196.jpg,4.0,right,1.7004,0.0,badlands,badlands_102.jpg,5.984375,1.6097,ATW1TNWB1PVDQ
65,ATW1TNWB1PVDQ,25,Male,highway_93.jpg,highway_93.jpg,highway_85.jpg,left,highway_93.jpg,playground_204.jpg,golf_course_305.jpg,bridge_66.jpg,badlands_16.jpg,mountain_43.jpg,0.0,right,2.0054,0.0,highway,highway_85.jpg,7.0234375,2.6917,ATW1TNWB1PVDQ
66,ATW1TNWB1PVDQ,25,Male,golf_course_87.jpg,golf_course_130.jpg,golf_course_87.jpg,right,bridge_228.jpg,golf_course_87.jpg,highway_354.jpg,playground_26.jpg,badlands_170.jpg,mountain_41.jpg,1.0,right,1.0963,0.0,golf,golf_course_130.jpg,7.9921875,3.9598,ATW1TNWB1PVDQ
67,ATW1TNWB1PVDQ,25,Male,golf_course_193.jpg,golf_course_235.jpg,golf_course_193.jpg,right,playground_196.jpg,bridge_234.jpg,badlands_138.jpg,golf_course_193.jpg,highway_101.jpg,mountain_187.jpg,3.0,right,1.4286,0.0,golf,golf_course_235.jpg,7.8515625,2.1404,ATW1TNWB1PVDQ
68,ATW1TNWB1PVDQ,25,Male,golf_course_309.jpg,golf_course_309.jpg,golf_course_209.jpg,left,highway_30.jpg,playground_181.jpg,bridge_133.jpg,mountain_169.jpg,golf_course_309.jpg,badlands_125.jpg,4.0,left,2.6878,1.0,golf,golf_course_209.jpg,6.984375,1.436,ATW1TNWB1PVDQ
69,ATW1TNWB1PVDQ,25,Male,badlands_221.jpg,badlands_207.jpg,badlands_221.jpg,right,playground_78.jpg,badlands_221.jpg,mountain_228.jpg,bridge_266.jpg,golf_course_338.jpg,highway_83.jpg,1.0,right,1.2914,1.0,badlands,badlands_207.jpg,8.0,3.9778,ATW1TNWB1PVDQ
70,ATW1TNWB1PVDQ,25,Male,highway_177.jpg,highway_177.jpg,highway_278.jpg,left,badlands_166.jpg,highway_177.jpg,mountain_91.jpg,playground_103.jpg,golf_course_219.jpg,bridge_4.jpg,1.0,left,1.4767,1.0,highway,highway_278.jpg,8.0234375,1.9177,ATW1TNWB1PVDQ
71,ATW1TNWB1PVDQ,25,Male,golf_course_195.jpg,golf_course_195.jpg,golf_course_25.jpg,left,golf_course_195.jpg,badlands_211.jpg,playground_55.jpg,mountain_268.jpg,bridge_72.jpg,highway_50.jpg,0.0,right,3.4651,0.0,golf,golf_course_25.jpg,4.9765625,3.4046,ATW1TNWB1PVDQ
72,ATW1TNWB1PVDQ,25,Male,mountain_230.jpg,mountain_97.jpg,mountain_230.jpg,right,mountain_230.jpg,bridge_87.jpg,highway_257.jpg,playground_140.jpg,golf_course_307.jpg,badlands_36.jpg,0.0,right,1.7298,1.0,mountain,mountain_97.jpg,4.984375,1.7008,ATW1TNWB1PVDQ
73,ATW1TNWB1PVDQ,25,Male,playground_240.jpg,playground_240.jpg,playground_2.jpg,left,highway_193.jpg,playground_240.jpg,badlands_80.jpg,golf_course_333.jpg,bridge_120.jpg,mountain_62.jpg,1.0,left,1.4789,0.0,playground,playground_2.jpg,3.9765625,2.7187,ATW1TNWB1PVDQ
74,ATW1TNWB1PVDQ,25,Male,badlands_184.jpg,badlands_184.jpg,badlands_228.jpg,left,mountain_190.jpg,bridge_136.jpg,highway_172.jpg,badlands_184.jpg,playground_222.jpg,golf_course_120.jpg,3.0,left,1.8775,0.0,badlands,badlands_228.jpg,4.9453125,4.1842,ATW1TNWB1PVDQ
75,ATW1TNWB1PVDQ,25,Male,mountain_110.jpg,mountain_110.jpg,mountain_223.jpg,left,mountain_110.jpg,golf_course_59.jpg,bridge_52.jpg,highway_288.jpg,playground_176.jpg,badlands_6.jpg,0.0,right,2.3122,1.0,mountain,mountain_223.jpg,7.015625,3.8357,ATW1TNWB1PVDQ
76,ATW1TNWB1PVDQ,25,Male,bridge_202.jpg,bridge_202.jpg,bridge_38.jpg,left,bridge_202.jpg,badlands_216.jpg,playground_162.jpg,highway_305.jpg,mountain_126.jpg,golf_course_137.jpg,0.0,left,1.94,1.0,bridge,bridge_38.jpg,5.9921875,4.3359,ATW1TNWB1PVDQ
77,ATW1TNWB1PVDQ,25,Male,playground_257.jpg,playground_257.jpg,playground_214.jpg,left,playground_257.jpg,badlands_47.jpg,mountain_92.jpg,highway_178.jpg,bridge_254.jpg,golf_course_128.jpg,0.0,right,3.4262,0.0,playground,playground_214.jpg,4.9765625,2.4261,ATW1TNWB1PVDQ
78,ATW1TNWB1PVDQ,25,Male,playground_117.jpg,playground_117.jpg,playground_167.jpg,left,playground_117.jpg,golf_course_127.jpg,mountain_204.jpg,badlands_213.jpg,highway_295.jpg,bridge_106.jpg,0.0,left,2.0647,0.0,playground,playground_167.jpg,3.9921875,2.656,ATW1TNWB1PVDQ
79,ATW1TNWB1PVDQ,25,Male,mountain_232.jpg,mountain_232.jpg,mountain_3.jpg,left,playground_191.jpg,bridge_79.jpg,badlands_55.jpg,golf_course_218.jpg,mountain_232.jpg,highway_17.jpg,4.0,left,1.8413,0.0,mountain,mountain_3.jpg,3.9921875,2.286,ATW1TNWB1PVDQ
80,ATW1TNWB1PVDQ,25,Male,highway_359.jpg,highway_359.jpg,highway_389.jpg,left,playground_227.jpg,mountain_29.jpg,highway_359.jpg,golf_course_55.jpg,bridge_155.jpg,badlands_106.jpg,2.0,right,2.2534,0.0,highway,highway_389.jpg,5.0078125,3.2383,ATW1TNWB1PVDQ
81,ATW1TNWB1PVDQ,25,Male,highway_273.jpg,highway_273.jpg,highway_171.jpg,left,golf_course_3.jpg,badlands_157.jpg,bridge_180.jpg,mountain_146.jpg,highway_273.jpg,playground_258.jpg,4.0,left,17.4264,1.0,highway,highway_171.jpg,8.0,3.5287,ATW1TNWB1PVDQ
82,ATW1TNWB1PVDQ,25,Male,golf_course_214.jpg,golf_course_312.jpg,golf_course_214.jpg,right,golf_course_214.jpg,badlands_10.jpg,bridge_20.jpg,highway_18.jpg,playground_47.jpg,mountain_253.jpg,0.0,right,2.5181,0.0,golf,golf_course_312.jpg,8.0,1.3815,ATW1TNWB1PVDQ
83,ATW1TNWB1PVDQ,25,Male,bridge_91.jpg,bridge_91.jpg,bridge_82.jpg,left,badlands_72.jpg,highway_247.jpg,mountain_294.jpg,bridge_91.jpg,golf_course_308.jpg,playground_42.jpg,3.0,left,3.1328,1.0,bridge,bridge_82.jpg,3.9921875,4.1723,ATW1TNWB1PVDQ
84,ATW1TNWB1PVDQ,25,Male,highway_156.jpg,highway_156.jpg,highway_293.jpg,left,mountain_302.jpg,badlands_67.jpg,highway_156.jpg,golf_course_171.jpg,playground_74.jpg,bridge_238.jpg,2.0,left,1.5011,1.0,highway,highway_293.jpg,7.96875,3.4086,ATW1TNWB1PVDQ
85,ATW1TNWB1PVDQ,25,Male,bridge_172.jpg,bridge_17.jpg,bridge_172.jpg,right,golf_course_33.jpg,badlands_88.jpg,highway_290.jpg,bridge_172.jpg,playground_195.jpg,mountain_151.jpg,3.0,right,2.0151,0.0,bridge,bridge_17.jpg,5.9765625,2.6286,ATW1TNWB1PVDQ
86,ATW1TNWB1PVDQ,25,Male,playground_219.jpg,playground_21.jpg,playground_219.jpg,right,highway_265.jpg,golf_course_71.jpg,badlands_81.jpg,playground_219.jpg,bridge_118.jpg,mountain_160.jpg,3.0,left,1.6682,0.0,playground,playground_21.jpg,5.96875,2.8042,ATW1TNWB1PVDQ
87,ATW1TNWB1PVDQ,25,Male,highway_394.jpg,highway_204.jpg,highway_394.jpg,right,badlands_121.jpg,bridge_218.jpg,highway_394.jpg,golf_course_194.jpg,playground_30.jpg,mountain_166.jpg,2.0,right,2.1485,0.0,highway,highway_204.jpg,6.9453125,2.4986,ATW1TNWB1PVDQ
88,ATW1TNWB1PVDQ,25,Male,golf_course_15.jpg,golf_course_15.jpg,golf_course_113.jpg,left,mountain_198.jpg,golf_course_15.jpg,playground_68.jpg,highway_269.jpg,bridge_96.jpg,badlands_227.jpg,1.0,left,1.4128,0.0,golf,golf_course_113.jpg,6.96875,1.8109,ATW1TNWB1PVDQ
89,ATW1TNWB1PVDQ,25,Male,golf_course_188.jpg,golf_course_160.jpg,golf_course_188.jpg,right,mountain_199.jpg,playground_98.jpg,badlands_164.jpg,golf_course_188.jpg,highway_399.jpg,bridge_152.jpg,3.0,right,2.0849,1.0,golf,golf_course_160.jpg,7.875,2.2477,ATW1TNWB1PVDQ
90,ATW1TNWB1PVDQ,25,Male,bridge_146.jpg,bridge_146.jpg,bridge_121.jpg,left,playground_248.jpg,highway_147.jpg,golf_course_102.jpg,bridge_146.jpg,badlands_59.jpg,mountain_40.jpg,3.0,left,1.3618,1.0,bridge,bridge_121.jpg,3.015625,4.8274,ATW1TNWB1PVDQ
91,ATW1TNWB1PVDQ,25,Male,golf_course_217.jpg,golf_course_262.jpg,golf_course_217.jpg,right,playground_165.jpg,highway_138.jpg,badlands_54.jpg,golf_course_217.jpg,mountain_87.jpg,bridge_169.jpg,3.0,left,1.8946,1.0,golf,golf_course_262.jpg,3.984375,4.1086,ATW1TNWB1PVDQ
92,ATW1TNWB1PVDQ,25,Male,highway_209.jpg,highway_209.jpg,highway_314.jpg,left,highway_209.jpg,golf_course_0.jpg,badlands_122.jpg,mountain_51.jpg,playground_33.jpg,bridge_74.jpg,0.0,left,1.2652,0.0,highway,highway_314.jpg,4.9765625,2.2477,ATW1TNWB1PVDQ
93,ATW1TNWB1PVDQ,25,Male,golf_course_331.jpg,golf_course_26.jpg,golf_course_331.jpg,right,golf_course_331.jpg,bridge_158.jpg,badlands_120.jpg,playground_50.jpg,mountain_176.jpg,highway_141.jpg,0.0,left,2.8573,1.0,golf,golf_course_26.jpg,7.9609375,2.7439,ATW1TNWB1PVDQ
94,ATW1TNWB1PVDQ,25,Male,playground_144.jpg,playground_137.jpg,playground_144.jpg,right,badlands_201.jpg,golf_course_291.jpg,playground_144.jpg,highway_413.jpg,bridge_63.jpg,mountain_309.jpg,2.0,right,1.3852,0.0,playground,playground_137.jpg,8.0078125,3.5904,ATW1TNWB1PVDQ
95,ATW1TNWB1PVDQ,25,Male,mountain_101.jpg,mountain_171.jpg,mountain_101.jpg,right,playground_39.jpg,badlands_79.jpg,mountain_101.jpg,bridge_193.jpg,golf_course_133.jpg,highway_404.jpg,2.0,right,1.7766,0.0,mountain,mountain_171.jpg,8.0078125,1.5347,ATW1TNWB1PVDQ
96,ATW1TNWB1PVDQ,25,Male,playground_60.jpg,playground_268.jpg,playground_60.jpg,right,mountain_180.jpg,golf_course_297.jpg,badlands_152.jpg,playground_60.jpg,bridge_64.jpg,highway_313.jpg,3.0,left,1.5172,0.0,playground,playground_268.jpg,8.0078125,2.7411,ATW1TNWB1PVDQ
97,ATW1TNWB1PVDQ,25,Male,highway_415.jpg,highway_415.jpg,highway_174.jpg,left,mountain_137.jpg,bridge_173.jpg,badlands_150.jpg,playground_16.jpg,highway_415.jpg,golf_course_226.jpg,4.0,right,2.01,1.0,highway,highway_174.jpg,8.0078125,1.4081,ATW1TNWB1PVDQ
98,ATW1TNWB1PVDQ,25,Male,highway_294.jpg,highway_294.jpg,highway_368.jpg,left,bridge_225.jpg,golf_course_300.jpg,highway_294.jpg,playground_6.jpg,mountain_212.jpg,badlands_9.jpg,2.0,left,18.1755,1.0,highway,highway_368.jpg,7.015625,2.2178,ATW1TNWB1PVDQ
99,ATW1TNWB1PVDQ,25,Male,playground_76.jpg,playground_22.jpg,playground_76.jpg,right,golf_course_221.jpg,playground_76.jpg,badlands_30.jpg,mountain_307.jpg,highway_42.jpg,bridge_144.jpg,1.0,right,1.1113,0.0,playground,playground_22.jpg,7.0078125,1.5112,ATW1TNWB1PVDQ
100,ATW1TNWB1PVDQ,25,Male,badlands_21.jpg,badlands_1.jpg,badlands_21.jpg,right,bridge_190.jpg,mountain_135.jpg,golf_course_179.jpg,badlands_21.jpg,playground_237.jpg,highway_365.jpg,3.0,right,2.3048,0.0,badlands,badlands_1.jpg,7.0078125,1.7609,ATW1TNWB1PVDQ
101,ATW1TNWB1PVDQ,25,Male,mountain_57.jpg,mountain_138.jpg,mountain_57.jpg,right,mountain_57.jpg,bridge_164.jpg,highway_287.jpg,golf_course_265.jpg,playground_233.jpg,badlands_128.jpg,0.0,right,1.4302,1.0,mountain,mountain_138.jpg,2.9921875,4.2022,ATW1TNWB1PVDQ
102,ATW1TNWB1PVDQ,25,Male,badlands_24.jpg,badlands_3.jpg,badlands_24.jpg,right,highway_383.jpg,mountain_19.jpg,badlands_24.jpg,bridge_22.jpg,golf_course_252.jpg,playground_246.jpg,2.0,right,3.4264,0.0,badlands,badlands_3.jpg,5.0078125,2.2934,ATW1TNWB1PVDQ
103,ATW1TNWB1PVDQ,25,Male,badlands_23.jpg,badlands_114.jpg,badlands_23.jpg,right,highway_76.jpg,badlands_23.jpg,golf_course_105.jpg,playground_63.jpg,mountain_45.jpg,bridge_147.jpg,1.0,right,2.5738,0.0,badlands,badlands_114.jpg,5.0078125,1.3139,ATW1TNWB1PVDQ
104,ATW1TNWB1PVDQ,25,Male,badlands_137.jpg,badlands_194.jpg,badlands_137.jpg,right,mountain_88.jpg,badlands_137.jpg,bridge_39.jpg,golf_course_342.jpg,highway_3.jpg,playground_256.jpg,1.0,right,5.7083,0.0,badlands,badlands_194.jpg,5.0078125,0.2333,ATW1TNWB1PVDQ
105,ATW1TNWB1PVDQ,25,Male,playground_131.jpg,playground_131.jpg,playground_43.jpg,left,golf_course_42.jpg,mountain_226.jpg,playground_131.jpg,badlands_85.jpg,bridge_45.jpg,highway_36.jpg,2.0,left,2.0424,0.0,playground,playground_43.jpg,7.0,2.8796,ATW1TNWB1PVDQ
106,ATW1TNWB1PVDQ,25,Male,playground_145.jpg,playground_145.jpg,playground_229.jpg,left,mountain_256.jpg,playground_145.jpg,highway_342.jpg,golf_course_61.jpg,bridge_62.jpg,badlands_171.jpg,1.0,left,5.9004,0.0,playground,playground_229.jpg,7.0,1.325,ATW1TNWB1PVDQ
107,ATW1TNWB1PVDQ,25,Male,mountain_222.jpg,mountain_244.jpg,mountain_222.jpg,right,bridge_140.jpg,highway_28.jpg,badlands_26.jpg,mountain_222.jpg,playground_14.jpg,golf_course_116.jpg,3.0,left,2.6587,0.0,mountain,mountain_244.jpg,8.0078125,2.8634,ATW1TNWB1PVDQ
108,ATW1TNWB1PVDQ,25,Male,mountain_154.jpg,mountain_154.jpg,mountain_131.jpg,left,bridge_212.jpg,mountain_154.jpg,golf_course_164.jpg,badlands_215.jpg,playground_124.jpg,highway_191.jpg,1.0,left,1.9029,0.0,mountain,mountain_131.jpg,8.0078125,1.3553,ATW1TNWB1PVDQ
109,ATW1TNWB1PVDQ,25,Male,bridge_128.jpg,bridge_128.jpg,bridge_61.jpg,left,bridge_128.jpg,highway_308.jpg,golf_course_174.jpg,mountain_35.jpg,badlands_46.jpg,playground_36.jpg,0.0,left,1.713,0.0,bridge,bridge_61.jpg,3.09375,3.5148,ATW1TNWB1PVDQ
110,ATW1TNWB1PVDQ,25,Male,badlands_222.jpg,badlands_34.jpg,badlands_222.jpg,right,badlands_222.jpg,playground_61.jpg,golf_course_176.jpg,mountain_249.jpg,bridge_142.jpg,highway_29.jpg,0.0,right,2.2714,0.0,badlands,badlands_34.jpg,2.984375,0.7821,ATW1TNWB1PVDQ
111,ATW1TNWB1PVDQ,25,Male,mountain_156.jpg,mountain_295.jpg,mountain_156.jpg,right,bridge_110.jpg,playground_64.jpg,mountain_156.jpg,highway_53.jpg,golf_course_238.jpg,badlands_174.jpg,2.0,left,2.5493,1.0,mountain,mountain_295.jpg,4.96875,3.727,ATW1TNWB1PVDQ
112,ATW1TNWB1PVDQ,25,Male,golf_course_78.jpg,golf_course_78.jpg,golf_course_101.jpg,left,bridge_86.jpg,golf_course_78.jpg,badlands_173.jpg,playground_37.jpg,highway_102.jpg,mountain_32.jpg,1.0,left,2.6725,1.0,golf,golf_course_101.jpg,3.9140625,2.1636,ATW1TNWB1PVDQ
113,ATW1TNWB1PVDQ,25,Male,badlands_113.jpg,badlands_225.jpg,badlands_113.jpg,right,playground_85.jpg,golf_course_144.jpg,highway_148.jpg,bridge_224.jpg,badlands_113.jpg,mountain_34.jpg,4.0,right,3.0571,0.0,badlands,badlands_225.jpg,3.9765625,0.9078,ATW1TNWB1PVDQ
114,ATW1TNWB1PVDQ,25,Male,bridge_65.jpg,bridge_60.jpg,bridge_65.jpg,right,bridge_65.jpg,badlands_217.jpg,playground_126.jpg,golf_course_241.jpg,mountain_102.jpg,highway_268.jpg,0.0,right,2.0525,1.0,bridge,bridge_60.jpg,5.0,3.1963,ATW1TNWB1PVDQ
115,ATW1TNWB1PVDQ,25,Male,bridge_191.jpg,bridge_191.jpg,bridge_75.jpg,left,mountain_120.jpg,highway_37.jpg,badlands_129.jpg,bridge_191.jpg,golf_course_328.jpg,playground_83.jpg,3.0,left,2.1168,1.0,bridge,bridge_75.jpg,5.9375,1.8099,ATW1TNWB1PVDQ
116,ATW1TNWB1PVDQ,25,Male,playground_10.jpg,playground_10.jpg,playground_122.jpg,left,bridge_1.jpg,mountain_33.jpg,golf_course_212.jpg,playground_10.jpg,badlands_156.jpg,highway_335.jpg,3.0,left,2.5155,0.0,playground,playground_122.jpg,8.1015625,2.7931,ATW1TNWB1PVDQ
117,ATW1TNWB1PVDQ,25,Male,bridge_250.jpg,bridge_134.jpg,bridge_250.jpg,right,bridge_250.jpg,highway_33.jpg,mountain_143.jpg,badlands_105.jpg,playground_141.jpg,golf_course_313.jpg,0.0,right,3.8998,0.0,bridge,bridge_134.jpg,8.078125,1.2855,ATW1TNWB1PVDQ
118,ATW1TNWB1PVDQ,25,Male,mountain_123.jpg,mountain_123.jpg,mountain_94.jpg,left,playground_132.jpg,bridge_126.jpg,badlands_35.jpg,highway_319.jpg,mountain_123.jpg,golf_course_253.jpg,4.0,right,2.8653,0.0,mountain,mountain_94.jpg,6.046875,3.1728,ATW1TNWB1PVDQ
119,ATW1TNWB1PVDQ,25,Male,bridge_256.jpg,bridge_54.jpg,bridge_256.jpg,right,golf_course_288.jpg,bridge_256.jpg,playground_110.jpg,badlands_20.jpg,highway_226.jpg,mountain_250.jpg,1.0,right,2.2925,0.0,bridge,bridge_54.jpg,5.3046875,2.5214,ATW1TNWB1PVDQ
120,A2JDYN6QM8M5UN,29,Male,highway_177.jpg,highway_278.jpg,highway_177.jpg,right,highway_177.jpg,golf_course_202.jpg,badlands_227.jpg,mountain_251.jpg,playground_103.jpg,bridge_238.jpg,0.0,right,1.8077,1.0,highway,highway_278.jpg,8.052083333,7.9135,A2JDYN6QM8M5UN
121,A2JDYN6QM8M5UN,29,Male,playground_257.jpg,playground_257.jpg,playground_215.jpg,left,playground_257.jpg,golf_course_269.jpg,mountain_268.jpg,highway_31.jpg,bridge_147.jpg,badlands_201.jpg,0.0,left,3.3593,1.0,playground,playground_215.jpg,4.979166667,2.5477,A2JDYN6QM8M5UN
122,A2JDYN6QM8M5UN,29,Male,badlands_221.jpg,badlands_115.jpg,badlands_221.jpg,right,badlands_221.jpg,playground_241.jpg,golf_course_194.jpg,mountain_198.jpg,highway_29.jpg,bridge_112.jpg,0.0,right,1.8295,0.0,badlands,badlands_115.jpg,7.041666667,1.4743,A2JDYN6QM8M5UN
123,A2JDYN6QM8M5UN,29,Male,playground_144.jpg,playground_144.jpg,playground_65.jpg,left,golf_course_3.jpg,bridge_120.jpg,highway_154.jpg,playground_144.jpg,mountain_22.jpg,badlands_47.jpg,3.0,left,0.987,1.0,playground,playground_65.jpg,6.03125,1.611,A2JDYN6QM8M5UN
124,A2JDYN6QM8M5UN,29,Male,golf_course_331.jpg,golf_course_114.jpg,golf_course_331.jpg,right,mountain_169.jpg,badlands_217.jpg,golf_course_331.jpg,playground_195.jpg,highway_308.jpg,bridge_136.jpg,2.0,right,1.4243,0.0,golf,golf_course_114.jpg,2.875,2.2772,A2JDYN6QM8M5UN
125,A2JDYN6QM8M5UN,29,Male,golf_course_78.jpg,golf_course_78.jpg,golf_course_134.jpg,left,golf_course_78.jpg,badlands_216.jpg,mountain_51.jpg,highway_141.jpg,playground_126.jpg,bridge_193.jpg,0.0,left,2.5979,0.0,golf,golf_course_134.jpg,5.041666667,1.4382,A2JDYN6QM8M5UN
126,A2JDYN6QM8M5UN,29,Male,mountain_57.jpg,mountain_57.jpg,mountain_138.jpg,left,highway_9.jpg,mountain_57.jpg,bridge_102.jpg,badlands_97.jpg,golf_course_305.jpg,playground_191.jpg,1.0,left,1.2539,1.0,mountain,mountain_138.jpg,3.875,1.8058,A2JDYN6QM8M5UN
127,A2JDYN6QM8M5UN,29,Male,highway_156.jpg,highway_160.jpg,highway_156.jpg,right,badlands_219.jpg,golf_course_328.jpg,highway_156.jpg,bridge_79.jpg,mountain_41.jpg,playground_141.jpg,2.0,right,1.6041,0.0,highway,highway_160.jpg,3.145833333,1.8472,A2JDYN6QM8M5UN
128,A2JDYN6QM8M5UN,29,Male,mountain_154.jpg,mountain_95.jpg,mountain_154.jpg,right,playground_83.jpg,highway_193.jpg,badlands_173.jpg,golf_course_0.jpg,mountain_154.jpg,bridge_133.jpg,4.0,right,1.4782,1.0,mountain,mountain_95.jpg,5.958333333,1.9038,A2JDYN6QM8M5UN
129,A2JDYN6QM8M5UN,29,Male,bridge_146.jpg,bridge_121.jpg,bridge_146.jpg,right,badlands_138.jpg,golf_course_174.jpg,highway_191.jpg,bridge_146.jpg,mountain_43.jpg,playground_14.jpg,3.0,right,1.1907,1.0,bridge,bridge_121.jpg,4.979166667,1.6202,A2JDYN6QM8M5UN
130,A2JDYN6QM8M5UN,29,Male,mountain_110.jpg,mountain_110.jpg,mountain_223.jpg,left,playground_74.jpg,bridge_124.jpg,golf_course_241.jpg,mountain_110.jpg,badlands_79.jpg,highway_290.jpg,3.0,left,1.6346,1.0,mountain,mountain_223.jpg,7.083333333,1.422,A2JDYN6QM8M5UN
131,A2JDYN6QM8M5UN,29,Male,golf_course_188.jpg,golf_course_188.jpg,golf_course_157.jpg,left,badlands_10.jpg,highway_265.jpg,playground_237.jpg,bridge_39.jpg,golf_course_188.jpg,mountain_212.jpg,4.0,left,1.8968,0.0,golf,golf_course_157.jpg,3.114583333,1.7607,A2JDYN6QM8M5UN
132,A2JDYN6QM8M5UN,29,Male,playground_145.jpg,playground_242.jpg,playground_145.jpg,right,badlands_59.jpg,mountain_166.jpg,highway_36.jpg,bridge_20.jpg,playground_145.jpg,golf_course_218.jpg,4.0,right,2.7554,1.0,playground,playground_242.jpg,6.114583333,1.9707,A2JDYN6QM8M5UN
133,A2JDYN6QM8M5UN,29,Male,golf_course_15.jpg,golf_course_113.jpg,golf_course_15.jpg,right,badlands_128.jpg,playground_124.jpg,bridge_118.jpg,highway_3.jpg,golf_course_15.jpg,mountain_146.jpg,4.0,left,2.5458,0.0,golf,golf_course_113.jpg,3.072916667,1.8598,A2JDYN6QM8M5UN
134,A2JDYN6QM8M5UN,29,Male,highway_245.jpg,highway_206.jpg,highway_245.jpg,right,mountain_40.jpg,playground_184.jpg,badlands_35.jpg,highway_245.jpg,golf_course_212.jpg,bridge_76.jpg,3.0,left,1.263,1.0,highway,highway_206.jpg,3.979166667,2.0701,A2JDYN6QM8M5UN
135,A2JDYN6QM8M5UN,29,Male,highway_294.jpg,highway_294.jpg,highway_203.jpg,left,golf_course_72.jpg,playground_181.jpg,mountain_152.jpg,bridge_212.jpg,highway_294.jpg,badlands_129.jpg,4.0,left,2.1068,0.0,highway,highway_203.jpg,3.010416667,1.7793,A2JDYN6QM8M5UN
136,A2JDYN6QM8M5UN,29,Male,highway_415.jpg,highway_415.jpg,highway_60.jpg,left,mountain_32.jpg,bridge_68.jpg,badlands_166.jpg,highway_415.jpg,golf_course_128.jpg,playground_68.jpg,3.0,left,0.8565,0.0,highway,highway_60.jpg,1.96875,1.4709,A2JDYN6QM8M5UN
137,A2JDYN6QM8M5UN,29,Male,highway_394.jpg,highway_394.jpg,highway_204.jpg,left,badlands_27.jpg,highway_394.jpg,golf_course_138.jpg,playground_64.jpg,bridge_64.jpg,mountain_180.jpg,1.0,left,1.1413,0.0,highway,highway_204.jpg,3.0,1.4691,A2JDYN6QM8M5UN
138,A2JDYN6QM8M5UN,29,Male,badlands_52.jpg,badlands_52.jpg,badlands_94.jpg,left,mountain_290.jpg,badlands_52.jpg,playground_204.jpg,golf_course_308.jpg,bridge_86.jpg,highway_28.jpg,1.0,left,1.4205,0.0,badlands,badlands_94.jpg,5.010416667,1.854,A2JDYN6QM8M5UN
139,A2JDYN6QM8M5UN,29,Male,golf_course_309.jpg,golf_course_309.jpg,golf_course_209.jpg,left,badlands_213.jpg,golf_course_309.jpg,bridge_197.jpg,mountain_202.jpg,highway_42.jpg,playground_233.jpg,1.0,left,1.8068,1.0,golf,golf_course_209.jpg,4.989583333,2.4624,A2JDYN6QM8M5UN
140,A2JDYN6QM8M5UN,29,Male,badlands_184.jpg,badlands_184.jpg,badlands_103.jpg,left,bridge_45.jpg,mountain_302.jpg,golf_course_342.jpg,highway_17.jpg,badlands_184.jpg,playground_7.jpg,4.0,left,0.8322,1.0,badlands,badlands_103.jpg,2.9375,1.919,A2JDYN6QM8M5UN
141,A2JDYN6QM8M5UN,29,Male,bridge_65.jpg,bridge_65.jpg,bridge_60.jpg,left,bridge_65.jpg,highway_101.jpg,golf_course_102.jpg,playground_37.jpg,badlands_81.jpg,mountain_34.jpg,0.0,left,1.3235,1.0,bridge,bridge_60.jpg,1.875,1.9227,A2JDYN6QM8M5UN
142,A2JDYN6QM8M5UN,29,Male,badlands_24.jpg,badlands_24.jpg,badlands_3.jpg,left,badlands_24.jpg,highway_313.jpg,golf_course_171.jpg,bridge_179.jpg,playground_140.jpg,mountain_187.jpg,0.0,left,1.639,0.0,badlands,badlands_3.jpg,3.03125,1.4901,A2JDYN6QM8M5UN
143,A2JDYN6QM8M5UN,29,Male,highway_273.jpg,highway_273.jpg,highway_384.jpg,left,mountain_45.jpg,badlands_33.jpg,golf_course_199.jpg,playground_33.jpg,highway_273.jpg,bridge_218.jpg,4.0,left,1.6242,0.0,highway,highway_384.jpg,4.052083333,1.8236,A2JDYN6QM8M5UN
144,A2JDYN6QM8M5UN,29,Male,badlands_70.jpg,badlands_70.jpg,badlands_102.jpg,left,playground_246.jpg,golf_course_162.jpg,highway_268.jpg,badlands_70.jpg,mountain_137.jpg,bridge_173.jpg,3.0,left,1.2381,0.0,badlands,badlands_102.jpg,5.0625,1.5247,A2JDYN6QM8M5UN
145,A2JDYN6QM8M5UN,29,Male,badlands_113.jpg,badlands_113.jpg,badlands_225.jpg,left,golf_course_226.jpg,highway_50.jpg,mountain_62.jpg,playground_98.jpg,badlands_113.jpg,bridge_144.jpg,4.0,left,1.3901,0.0,badlands,badlands_225.jpg,6.0,1.7389,A2JDYN6QM8M5UN
146,A2JDYN6QM8M5UN,29,Male,mountain_156.jpg,mountain_156.jpg,mountain_295.jpg,left,bridge_66.jpg,golf_course_338.jpg,highway_287.jpg,mountain_156.jpg,playground_39.jpg,badlands_88.jpg,3.0,left,1.7751,1.0,mountain,mountain_295.jpg,3.010416667,1.8124,A2JDYN6QM8M5UN
147,A2JDYN6QM8M5UN,29,Male,playground_219.jpg,playground_205.jpg,playground_219.jpg,right,mountain_143.jpg,bridge_225.jpg,playground_219.jpg,highway_37.jpg,badlands_46.jpg,golf_course_316.jpg,2.0,right,2.1734,1.0,playground,playground_205.jpg,7.010416667,1.7712,A2JDYN6QM8M5UN
148,A2JDYN6QM8M5UN,29,Male,playground_10.jpg,playground_10.jpg,playground_12.jpg,left,highway_335.jpg,golf_course_55.jpg,badlands_152.jpg,bridge_156.jpg,playground_10.jpg,mountain_306.jpg,4.0,left,1.5211,1.0,playground,playground_12.jpg,5.052083333,1.82,A2JDYN6QM8M5UN
149,A2JDYN6QM8M5UN,29,Male,bridge_108.jpg,bridge_148.jpg,bridge_108.jpg,right,bridge_108.jpg,badlands_54.jpg,mountain_250.jpg,playground_248.jpg,highway_178.jpg,golf_course_164.jpg,0.0,right,1.1074,1.0,bridge,bridge_148.jpg,3.822916667,1.6374,A2JDYN6QM8M5UN
150,A2JDYN6QM8M5UN,29,Male,playground_60.jpg,playground_268.jpg,playground_60.jpg,right,badlands_36.jpg,playground_60.jpg,golf_course_127.jpg,mountain_199.jpg,highway_404.jpg,bridge_110.jpg,1.0,right,2.7642,0.0,playground,playground_268.jpg,2.0,1.7454,A2JDYN6QM8M5UN
151,A2JDYN6QM8M5UN,29,Male,playground_240.jpg,playground_40.jpg,playground_240.jpg,right,playground_240.jpg,badlands_85.jpg,mountain_307.jpg,golf_course_67.jpg,bridge_52.jpg,highway_18.jpg,0.0,right,2.1729,1.0,playground,playground_40.jpg,4.989583333,1.7216,A2JDYN6QM8M5UN
152,A2JDYN6QM8M5UN,29,Male,badlands_21.jpg,badlands_98.jpg,badlands_21.jpg,right,golf_course_166.jpg,mountain_204.jpg,highway_58.jpg,bridge_62.jpg,badlands_21.jpg,playground_251.jpg,4.0,right,1.6519,1.0,badlands,badlands_98.jpg,3.979166667,1.7518,A2JDYN6QM8M5UN
153,A2JDYN6QM8M5UN,29,Male,badlands_222.jpg,badlands_34.jpg,badlands_222.jpg,right,mountain_228.jpg,bridge_22.jpg,badlands_222.jpg,playground_26.jpg,golf_course_105.jpg,highway_147.jpg,2.0,right,0.6924,0.0,badlands,badlands_34.jpg,4.020833333,1.6745,A2JDYN6QM8M5UN
154,A2JDYN6QM8M5UN,29,Male,bridge_128.jpg,bridge_61.jpg,bridge_128.jpg,right,highway_247.jpg,playground_85.jpg,bridge_128.jpg,golf_course_56.jpg,mountain_38.jpg,badlands_60.jpg,2.0,left,1.9373,0.0,bridge,bridge_61.jpg,1.25,2.2521,A2JDYN6QM8M5UN
155,A2JDYN6QM8M5UN,29,Male,bridge_256.jpg,bridge_256.jpg,bridge_211.jpg,left,playground_165.jpg,bridge_256.jpg,mountain_19.jpg,golf_course_33.jpg,badlands_183.jpg,highway_246.jpg,1.0,left,0.7405,1.0,bridge,bridge_211.jpg,1.96875,1.9587,A2JDYN6QM8M5UN
156,A2JDYN6QM8M5UN,29,Male,playground_117.jpg,playground_127.jpg,playground_117.jpg,right,highway_172.jpg,badlands_211.jpg,bridge_266.jpg,golf_course_61.jpg,playground_117.jpg,mountain_92.jpg,4.0,right,1.6402,1.0,playground,playground_127.jpg,3.927083333,1.6009,A2JDYN6QM8M5UN
157,A2JDYN6QM8M5UN,29,Male,bridge_172.jpg,bridge_172.jpg,bridge_17.jpg,left,bridge_172.jpg,highway_83.jpg,mountain_135.jpg,golf_course_307.jpg,playground_227.jpg,badlands_120.jpg,0.0,left,1.4723,0.0,bridge,bridge_17.jpg,1.3125,1.6503,A2JDYN6QM8M5UN
158,A2JDYN6QM8M5UN,29,Male,mountain_101.jpg,mountain_221.jpg,mountain_101.jpg,right,mountain_101.jpg,golf_course_133.jpg,playground_55.jpg,highway_138.jpg,bridge_180.jpg,badlands_106.jpg,0.0,left,1.4513,1.0,mountain,mountain_221.jpg,2.135416667,1.6423,A2JDYN6QM8M5UN
159,A2JDYN6QM8M5UN,29,Male,mountain_222.jpg,mountain_244.jpg,mountain_222.jpg,right,golf_course_300.jpg,playground_54.jpg,mountain_222.jpg,badlands_30.jpg,highway_413.jpg,bridge_254.jpg,2.0,right,0.8066,0.0,mountain,mountain_244.jpg,3.0,1.5445,A2JDYN6QM8M5UN
160,A2JDYN6QM8M5UN,29,Male,mountain_232.jpg,mountain_54.jpg,mountain_232.jpg,right,playground_120.jpg,badlands_20.jpg,mountain_232.jpg,golf_course_23.jpg,highway_315.jpg,bridge_142.jpg,2.0,left,1.1771,1.0,mountain,mountain_54.jpg,4.916666667,1.6685,A2JDYN6QM8M5UN
161,A2JDYN6QM8M5UN,29,Male,highway_209.jpg,highway_314.jpg,highway_209.jpg,right,mountain_120.jpg,playground_176.jpg,highway_209.jpg,golf_course_71.jpg,badlands_214.jpg,bridge_190.jpg,2.0,right,0.7444,0.0,highway,highway_314.jpg,2.020833333,1.6433,A2JDYN6QM8M5UN
162,A2JDYN6QM8M5UN,29,Male,mountain_123.jpg,mountain_123.jpg,mountain_189.jpg,left,highway_81.jpg,mountain_123.jpg,playground_118.jpg,bridge_228.jpg,badlands_175.jpg,golf_course_144.jpg,1.0,right,1.5638,1.0,mountain,mountain_189.jpg,4.979166667,2.0342,A2JDYN6QM8M5UN
163,A2JDYN6QM8M5UN,29,Male,badlands_23.jpg,badlands_114.jpg,badlands_23.jpg,right,golf_course_288.jpg,bridge_234.jpg,highway_78.jpg,badlands_23.jpg,playground_162.jpg,mountain_249.jpg,3.0,left,0.9238,0.0,badlands,badlands_114.jpg,6.052083333,1.3149,A2JDYN6QM8M5UN
164,A2JDYN6QM8M5UN,29,Male,playground_131.jpg,playground_43.jpg,playground_131.jpg,right,playground_131.jpg,bridge_140.jpg,mountain_190.jpg,golf_course_41.jpg,highway_226.jpg,badlands_105.jpg,0.0,right,0.9889,0.0,playground,playground_43.jpg,2.84375,2.1524,A2JDYN6QM8M5UN
165,A2JDYN6QM8M5UN,29,Male,golf_course_193.jpg,golf_course_235.jpg,golf_course_193.jpg,right,playground_153.jpg,bridge_152.jpg,badlands_174.jpg,golf_course_193.jpg,mountain_39.jpg,highway_199.jpg,3.0,right,0.9727,0.0,golf,golf_course_235.jpg,1.979166667,2.6841,A2JDYN6QM8M5UN
166,A2JDYN6QM8M5UN,29,Male,highway_359.jpg,highway_359.jpg,highway_389.jpg,left,badlands_185.jpg,golf_course_219.jpg,bridge_74.jpg,highway_359.jpg,playground_42.jpg,mountain_253.jpg,3.0,left,0.8139,0.0,highway,highway_389.jpg,2.166666667,1.7362,A2JDYN6QM8M5UN
167,A2JDYN6QM8M5UN,29,Male,golf_course_87.jpg,golf_course_130.jpg,golf_course_87.jpg,right,highway_251.jpg,playground_222.jpg,mountain_33.jpg,golf_course_87.jpg,badlands_157.jpg,bridge_143.jpg,3.0,right,1.2566,0.0,golf,golf_course_130.jpg,5.916666667,1.9387,A2JDYN6QM8M5UN
168,A2JDYN6QM8M5UN,29,Male,mountain_230.jpg,mountain_97.jpg,mountain_230.jpg,right,playground_49.jpg,mountain_230.jpg,badlands_200.jpg,highway_257.jpg,bridge_167.jpg,golf_course_333.jpg,1.0,left,1.3839,1.0,mountain,mountain_97.jpg,5.020833333,1.5967,A2JDYN6QM8M5UN
169,A2JDYN6QM8M5UN,29,Male,golf_course_214.jpg,golf_course_317.jpg,golf_course_214.jpg,right,mountain_91.jpg,golf_course_214.jpg,bridge_164.jpg,badlands_16.jpg,playground_132.jpg,highway_269.jpg,1.0,right,1.7769,1.0,golf,golf_course_317.jpg,7.03125,1.5356,A2JDYN6QM8M5UN
170,A2JDYN6QM8M5UN,29,Male,badlands_137.jpg,badlands_137.jpg,badlands_139.jpg,left,highway_30.jpg,playground_84.jpg,badlands_137.jpg,golf_course_116.jpg,mountain_151.jpg,bridge_204.jpg,2.0,right,2.1572,1.0,badlands,badlands_139.jpg,4.854166667,1.3859,A2JDYN6QM8M5UN
171,A2JDYN6QM8M5UN,29,Male,bridge_202.jpg,bridge_202.jpg,bridge_38.jpg,left,highway_53.jpg,playground_16.jpg,bridge_202.jpg,badlands_104.jpg,golf_course_59.jpg,mountain_126.jpg,2.0,left,1.2392,1.0,bridge,bridge_38.jpg,3.083333333,1.7858,A2JDYN6QM8M5UN
172,A2JDYN6QM8M5UN,29,Male,bridge_250.jpg,bridge_205.jpg,bridge_250.jpg,right,playground_30.jpg,highway_383.jpg,bridge_250.jpg,golf_course_196.jpg,mountain_89.jpg,badlands_156.jpg,2.0,right,1.124,1.0,bridge,bridge_205.jpg,4.989583333,1.5271,A2JDYN6QM8M5UN
173,A2JDYN6QM8M5UN,29,Male,highway_93.jpg,highway_93.jpg,highway_369.jpg,left,bridge_4.jpg,golf_course_176.jpg,highway_93.jpg,playground_61.jpg,badlands_125.jpg,mountain_233.jpg,2.0,right,1.2432,1.0,highway,highway_369.jpg,8.072916667,1.8675,A2JDYN6QM8M5UN
174,A2JDYN6QM8M5UN,29,Male,mountain_293.jpg,mountain_293.jpg,mountain_47.jpg,left,mountain_293.jpg,playground_15.jpg,badlands_80.jpg,bridge_24.jpg,highway_76.jpg,golf_course_179.jpg,0.0,right,1.1425,1.0,mountain,mountain_47.jpg,7.052083333,1.5361,A2JDYN6QM8M5UN
175,A2JDYN6QM8M5UN,29,Male,golf_course_217.jpg,golf_course_262.jpg,golf_course_217.jpg,right,golf_course_217.jpg,bridge_96.jpg,playground_6.jpg,badlands_164.jpg,highway_90.jpg,mountain_160.jpg,0.0,right,1.4615,1.0,golf,golf_course_262.jpg,1.385416667,1.7021,A2JDYN6QM8M5UN
176,A2JDYN6QM8M5UN,29,Male,playground_76.jpg,playground_72.jpg,playground_76.jpg,right,playground_76.jpg,highway_288.jpg,badlands_180.jpg,bridge_169.jpg,mountain_35.jpg,golf_course_42.jpg,0.0,right,1.5548,1.0,playground,playground_72.jpg,2.71875,1.8746,A2JDYN6QM8M5UN
177,A2JDYN6QM8M5UN,29,Male,bridge_191.jpg,bridge_191.jpg,bridge_75.jpg,left,mountain_226.jpg,golf_course_181.jpg,badlands_215.jpg,highway_102.jpg,bridge_191.jpg,playground_258.jpg,4.0,left,1.2672,1.0,bridge,bridge_75.jpg,5.010416667,1.569,A2JDYN6QM8M5UN
178,A2JDYN6QM8M5UN,29,Male,bridge_91.jpg,bridge_82.jpg,bridge_91.jpg,right,badlands_9.jpg,bridge_91.jpg,mountain_294.jpg,golf_course_313.jpg,highway_33.jpg,playground_249.jpg,1.0,left,1.8297,1.0,bridge,bridge_82.jpg,2.96875,1.8097,A2JDYN6QM8M5UN
179,A2JDYN6QM8M5UN,29,Male,golf_course_195.jpg,golf_course_195.jpg,golf_course_2.jpg,left,bridge_1.jpg,mountain_176.jpg,badlands_26.jpg,highway_295.jpg,golf_course_195.jpg,playground_256.jpg,4.0,left,1.224,1.0,golf,golf_course_2.jpg,8.0,2.1349,A2JDYN6QM8M5UN
180,A2Y69684WT44XU,40,Female,golf_course_193.jpg,golf_course_193.jpg,golf_course_123.jpg,left,playground_162.jpg,highway_29.jpg,golf_course_193.jpg,badlands_150.jpg,bridge_63.jpg,mountain_251.jpg,2.0,left,20.0474,1.0,golf,golf_course_123.jpg,5.940554822,2.4716,A2Y69684WT44XU
181,A2Y69684WT44XU,40,Female,highway_209.jpg,highway_209.jpg,highway_122.jpg,left,golf_course_127.jpg,playground_63.jpg,badlands_219.jpg,mountain_169.jpg,highway_209.jpg,bridge_224.jpg,4.0,left,2.9898,1.0,highway,highway_122.jpg,5.982826948,1.7796,A2Y69684WT44XU
182,A2Y69684WT44XU,40,Female,mountain_57.jpg,mountain_193.jpg,mountain_57.jpg,right,highway_102.jpg,bridge_45.jpg,badlands_106.jpg,mountain_57.jpg,playground_181.jpg,golf_course_162.jpg,3.0,left,2.1673,0.0,mountain,mountain_193.jpg,6.976221929,1.2182,A2Y69684WT44XU
183,A2Y69684WT44XU,40,Female,golf_course_331.jpg,golf_course_331.jpg,golf_course_26.jpg,left,badlands_175.jpg,playground_103.jpg,highway_3.jpg,golf_course_331.jpg,bridge_155.jpg,mountain_62.jpg,3.0,right,1.7554,1.0,golf,golf_course_26.jpg,4.968295905,1.0957,A2Y69684WT44XU
184,A2Y69684WT44XU,40,Female,badlands_184.jpg,badlands_184.jpg,badlands_103.jpg,left,highway_413.jpg,badlands_184.jpg,golf_course_291.jpg,playground_237.jpg,bridge_143.jpg,mountain_199.jpg,1.0,right,37.5179,1.0,badlands,badlands_103.jpg,7.948480845,0.8711,A2Y69684WT44XU
185,A2Y69684WT44XU,40,Female,bridge_172.jpg,bridge_172.jpg,bridge_17.jpg,left,highway_246.jpg,mountain_306.jpg,playground_120.jpg,badlands_164.jpg,bridge_172.jpg,golf_course_238.jpg,4.0,left,1.329,0.0,bridge,bridge_17.jpg,6.046235139,0.9952,A2Y69684WT44XU
186,A2Y69684WT44XU,40,Female,playground_131.jpg,playground_131.jpg,playground_43.jpg,left,playground_131.jpg,bridge_24.jpg,mountain_226.jpg,badlands_72.jpg,highway_193.jpg,golf_course_164.jpg,0.0,left,1.5461,0.0,playground,playground_43.jpg,2.886393659,1.2562,A2Y69684WT44XU
187,A2Y69684WT44XU,40,Female,mountain_232.jpg,mountain_3.jpg,mountain_232.jpg,right,highway_335.jpg,playground_55.jpg,mountain_232.jpg,bridge_173.jpg,golf_course_67.jpg,badlands_60.jpg,2.0,right,2.5527,0.0,mountain,mountain_3.jpg,5.982826948,1.3015,A2Y69684WT44XU
188,A2Y69684WT44XU,40,Female,highway_245.jpg,highway_245.jpg,highway_134.jpg,left,bridge_126.jpg,playground_195.jpg,golf_course_179.jpg,highway_245.jpg,badlands_26.jpg,mountain_180.jpg,3.0,left,1.2018,0.0,highway,highway_134.jpg,4.915455746,1.5222,A2Y69684WT44XU
189,A2Y69684WT44XU,40,Female,playground_219.jpg,playground_21.jpg,playground_219.jpg,right,mountain_228.jpg,highway_342.jpg,golf_course_166.jpg,playground_219.jpg,badlands_173.jpg,bridge_266.jpg,3.0,right,1.042,0.0,playground,playground_21.jpg,7.494055482,1.3121,A2Y69684WT44XU
190,A2Y69684WT44XU,40,Female,highway_156.jpg,highway_293.jpg,highway_156.jpg,right,golf_course_55.jpg,mountain_160.jpg,badlands_200.jpg,playground_16.jpg,highway_156.jpg,bridge_68.jpg,4.0,right,1.3879,1.0,highway,highway_293.jpg,2.886393659,1.0974,A2Y69684WT44XU
191,A2Y69684WT44XU,40,Female,bridge_146.jpg,bridge_121.jpg,bridge_146.jpg,right,mountain_204.jpg,highway_288.jpg,badlands_185.jpg,playground_61.jpg,bridge_146.jpg,golf_course_174.jpg,4.0,right,1.2038,1.0,bridge,bridge_121.jpg,7.377807133,0.992,A2Y69684WT44XU
192,A2Y69684WT44XU,40,Female,highway_93.jpg,highway_93.jpg,highway_369.jpg,left,bridge_87.jpg,highway_93.jpg,mountain_294.jpg,badlands_67.jpg,playground_256.jpg,golf_course_219.jpg,1.0,right,1.4039,1.0,highway,highway_369.jpg,7.335535007,0.6917,A2Y69684WT44XU
193,A2Y69684WT44XU,40,Female,mountain_156.jpg,mountain_156.jpg,mountain_128.jpg,left,highway_53.jpg,bridge_180.jpg,mountain_156.jpg,golf_course_202.jpg,playground_14.jpg,badlands_59.jpg,2.0,right,42.823,0.0,mountain,mountain_128.jpg,2.749009247,1.0484,A2Y69684WT44XU
194,A2Y69684WT44XU,40,Female,playground_76.jpg,playground_76.jpg,playground_22.jpg,left,playground_76.jpg,golf_course_176.jpg,bridge_118.jpg,mountain_256.jpg,badlands_36.jpg,highway_154.jpg,0.0,right,1.5071,0.0,playground,playground_22.jpg,6.881109643,1.036,A2Y69684WT44XU
195,A2Y69684WT44XU,40,Female,badlands_137.jpg,badlands_137.jpg,badlands_194.jpg,left,mountain_135.jpg,bridge_225.jpg,highway_147.jpg,badlands_137.jpg,playground_36.jpg,golf_course_137.jpg,3.0,right,2.2457,0.0,badlands,badlands_194.jpg,6.817701453,1.357,A2Y69684WT44XU
196,A2Y69684WT44XU,40,Female,playground_257.jpg,playground_215.jpg,playground_257.jpg,right,playground_257.jpg,highway_404.jpg,bridge_35.jpg,badlands_85.jpg,mountain_250.jpg,golf_course_181.jpg,0.0,right,1.538,1.0,playground,playground_215.jpg,3.478203435,1.6887,A2Y69684WT44XU
197,A2Y69684WT44XU,40,Female,mountain_230.jpg,mountain_184.jpg,mountain_230.jpg,right,mountain_230.jpg,golf_course_0.jpg,badlands_54.jpg,bridge_204.jpg,playground_85.jpg,highway_290.jpg,0.0,left,2.854,0.0,mountain,mountain_184.jpg,7.081902246,1.0379,A2Y69684WT44XU
198,A2Y69684WT44XU,40,Female,playground_145.jpg,playground_229.jpg,playground_145.jpg,right,playground_145.jpg,golf_course_42.jpg,badlands_171.jpg,mountain_38.jpg,bridge_102.jpg,highway_199.jpg,0.0,right,1.7629,0.0,playground,playground_229.jpg,3.57331572,1.8786,A2Y69684WT44XU
199,A2Y69684WT44XU,40,Female,highway_394.jpg,highway_394.jpg,highway_406.jpg,left,golf_course_72.jpg,playground_83.jpg,badlands_44.jpg,mountain_268.jpg,highway_394.jpg,bridge_238.jpg,4.0,left,2.011,1.0,highway,highway_406.jpg,6.912813738,1.0816,A2Y69684WT44XU
200,A2Y69684WT44XU,40,Female,bridge_65.jpg,bridge_181.jpg,bridge_65.jpg,right,highway_28.jpg,badlands_10.jpg,golf_course_269.jpg,playground_246.jpg,bridge_65.jpg,mountain_40.jpg,4.0,right,0.562,0.0,bridge,bridge_181.jpg,6.933949802,1.2151,A2Y69684WT44XU
201,A2Y69684WT44XU,40,Female,golf_course_78.jpg,golf_course_134.jpg,golf_course_78.jpg,right,playground_153.jpg,golf_course_78.jpg,highway_78.jpg,badlands_120.jpg,mountain_151.jpg,bridge_136.jpg,1.0,left,0.457,0.0,golf,golf_course_134.jpg,3.657859974,1.1808,A2Y69684WT44XU
202,A2Y69684WT44XU,40,Female,mountain_154.jpg,mountain_154.jpg,mountain_95.jpg,left,bridge_234.jpg,mountain_154.jpg,badlands_183.jpg,golf_course_333.jpg,highway_148.jpg,playground_33.jpg,1.0,right,1.1042,1.0,mountain,mountain_95.jpg,7.673712021,1.6924,A2Y69684WT44XU
203,A2Y69684WT44XU,40,Female,mountain_293.jpg,mountain_47.jpg,mountain_293.jpg,right,badlands_170.jpg,bridge_158.jpg,mountain_293.jpg,playground_15.jpg,highway_247.jpg,golf_course_138.jpg,2.0,left,2.0063,1.0,mountain,mountain_47.jpg,2.08322325,1.7402,A2Y69684WT44XU
204,A2Y69684WT44XU,40,Female,bridge_202.jpg,bridge_31.jpg,bridge_202.jpg,right,bridge_202.jpg,golf_course_199.jpg,playground_30.jpg,highway_295.jpg,badlands_20.jpg,mountain_190.jpg,0.0,right,0.754,0.0,bridge,bridge_31.jpg,6.638044914,1.9183,A2Y69684WT44XU
205,A2Y69684WT44XU,40,Female,playground_144.jpg,playground_137.jpg,playground_144.jpg,right,playground_144.jpg,golf_course_33.jpg,bridge_144.jpg,highway_313.jpg,mountain_198.jpg,badlands_9.jpg,0.0,right,0.4017,0.0,playground,playground_137.jpg,3.361955086,1.5912,A2Y69684WT44XU
206,A2Y69684WT44XU,40,Female,bridge_250.jpg,bridge_134.jpg,bridge_250.jpg,right,highway_226.jpg,mountain_88.jpg,bridge_250.jpg,golf_course_3.jpg,playground_251.jpg,badlands_213.jpg,2.0,right,1.3137,0.0,bridge,bridge_134.jpg,8.15984148,1.1677,A2Y69684WT44XU
207,A2Y69684WT44XU,40,Female,highway_273.jpg,highway_273.jpg,highway_171.jpg,left,playground_249.jpg,golf_course_241.jpg,bridge_64.jpg,highway_273.jpg,mountain_43.jpg,badlands_217.jpg,3.0,right,18.9678,1.0,highway,highway_171.jpg,3.002642008,0.9157,A2Y69684WT44XU
208,A2Y69684WT44XU,40,Female,golf_course_87.jpg,golf_course_130.jpg,golf_course_87.jpg,right,mountain_152.jpg,playground_110.jpg,badlands_216.jpg,golf_course_87.jpg,highway_274.jpg,bridge_156.jpg,3.0,right,1.1284,0.0,golf,golf_course_130.jpg,7.155878468,1.0514,A2Y69684WT44XU
209,A2Y69684WT44XU,40,Female,mountain_123.jpg,mountain_94.jpg,mountain_123.jpg,right,bridge_117.jpg,badlands_88.jpg,mountain_123.jpg,playground_204.jpg,highway_33.jpg,golf_course_116.jpg,2.0,right,20.7392,0.0,mountain,mountain_94.jpg,7.050198151,323.0327,A2Y69684WT44XU
210,A2Y69684WT44XU,40,Female,badlands_52.jpg,badlands_94.jpg,badlands_52.jpg,right,golf_course_120.jpg,mountain_137.jpg,bridge_20.jpg,playground_98.jpg,badlands_52.jpg,highway_399.jpg,4.0,right,1.6949,0.0,badlands,badlands_94.jpg,5.221928666,1.0472,A2Y69684WT44XU
211,A2Y69684WT44XU,40,Female,playground_117.jpg,playground_167.jpg,playground_117.jpg,right,highway_83.jpg,playground_117.jpg,badlands_46.jpg,mountain_277.jpg,bridge_79.jpg,golf_course_71.jpg,1.0,right,1.7044,0.0,playground,playground_167.jpg,6.500660502,0.7427,A2Y69684WT44XU
212,A2Y69684WT44XU,40,Female,golf_course_214.jpg,golf_course_312.jpg,golf_course_214.jpg,right,mountain_22.jpg,golf_course_214.jpg,bridge_147.jpg,playground_74.jpg,highway_31.jpg,badlands_79.jpg,1.0,right,1.3571,0.0,golf,golf_course_312.jpg,3.50990753,0.927,A2Y69684WT44XU
213,A2Y69684WT44XU,40,Female,badlands_70.jpg,badlands_70.jpg,badlands_119.jpg,left,bridge_120.jpg,badlands_70.jpg,highway_9.jpg,golf_course_196.jpg,mountain_89.jpg,playground_54.jpg,1.0,right,1.243,1.0,badlands,badlands_119.jpg,3.50990753,0.775,A2Y69684WT44XU
214,A2Y69684WT44XU,40,Female,highway_359.jpg,highway_379.jpg,highway_359.jpg,right,highway_359.jpg,badlands_129.jpg,playground_165.jpg,bridge_72.jpg,golf_course_218.jpg,mountain_76.jpg,0.0,right,48.3932,1.0,highway,highway_379.jpg,5.042272127,0.8004,A2Y69684WT44XU
215,A2Y69684WT44XU,40,Female,bridge_128.jpg,bridge_128.jpg,bridge_61.jpg,left,playground_140.jpg,mountain_302.jpg,bridge_128.jpg,golf_course_128.jpg,highway_138.jpg,badlands_122.jpg,2.0,left,1.2741,0.0,bridge,bridge_61.jpg,3.478203435,0.6878,A2Y69684WT44XU
216,A2Y69684WT44XU,40,Female,playground_240.jpg,playground_40.jpg,playground_240.jpg,right,badlands_138.jpg,highway_257.jpg,mountain_33.jpg,playground_240.jpg,bridge_212.jpg,golf_course_300.jpg,3.0,right,2.0409,1.0,playground,playground_40.jpg,6.447820343,1.3036,A2Y69684WT44XU
217,A2Y69684WT44XU,40,Female,badlands_21.jpg,badlands_21.jpg,badlands_1.jpg,left,golf_course_226.jpg,highway_90.jpg,mountain_41.jpg,bridge_152.jpg,badlands_21.jpg,playground_50.jpg,4.0,right,1.4239,0.0,badlands,badlands_1.jpg,3.161162483,0.7029,A2Y69684WT44XU
218,A2Y69684WT44XU,40,Female,golf_course_195.jpg,golf_course_195.jpg,golf_course_2.jpg,left,mountain_51.jpg,highway_191.jpg,golf_course_195.jpg,bridge_124.jpg,badlands_27.jpg,playground_78.jpg,2.0,right,1.1483,1.0,golf,golf_course_2.jpg,6.247027741,1.7171,A2Y69684WT44XU
219,A2Y69684WT44XU,40,Female,badlands_222.jpg,badlands_222.jpg,badlands_62.jpg,left,golf_course_41.jpg,highway_81.jpg,badlands_222.jpg,mountain_290.jpg,bridge_4.jpg,playground_227.jpg,2.0,left,1.6456,1.0,badlands,badlands_62.jpg,4.00660502,1.1761,A2Y69684WT44XU
220,A2Y69684WT44XU,40,Female,badlands_23.jpg,badlands_114.jpg,badlands_23.jpg,right,golf_course_316.jpg,bridge_86.jpg,highway_365.jpg,playground_64.jpg,badlands_23.jpg,mountain_176.jpg,4.0,right,1.2542,0.0,badlands,badlands_114.jpg,6.976221929,0.9936,A2Y69684WT44XU
221,A2Y69684WT44XU,40,Female,highway_177.jpg,highway_87.jpg,highway_177.jpg,right,highway_177.jpg,golf_course_194.jpg,bridge_228.jpg,playground_184.jpg,mountain_249.jpg,badlands_157.jpg,0.0,left,1.4352,0.0,highway,highway_87.jpg,3.953764861,0.8352,A2Y69684WT44XU
222,A2Y69684WT44XU,40,Female,playground_10.jpg,playground_10.jpg,playground_12.jpg,left,playground_10.jpg,bridge_22.jpg,badlands_105.jpg,highway_50.jpg,mountain_233.jpg,golf_course_342.jpg,0.0,right,2.3232,1.0,playground,playground_12.jpg,7.589167768,0.8619,A2Y69684WT44XU
223,A2Y69684WT44XU,40,Female,bridge_191.jpg,bridge_75.jpg,bridge_191.jpg,right,playground_154.jpg,mountain_120.jpg,bridge_191.jpg,golf_course_253.jpg,badlands_33.jpg,highway_354.jpg,2.0,right,1.3604,1.0,bridge,bridge_75.jpg,3.161162483,0.6302,A2Y69684WT44XU
224,A2Y69684WT44XU,40,Female,highway_415.jpg,highway_174.jpg,highway_415.jpg,right,bridge_197.jpg,golf_course_328.jpg,playground_241.jpg,highway_415.jpg,mountain_34.jpg,badlands_214.jpg,3.0,right,1.6961,1.0,highway,highway_174.jpg,4.93659181,0.872,A2Y69684WT44XU
225,A2Y69684WT44XU,40,Female,bridge_108.jpg,bridge_108.jpg,bridge_148.jpg,left,highway_178.jpg,mountain_45.jpg,golf_course_338.jpg,playground_191.jpg,bridge_108.jpg,badlands_227.jpg,4.0,right,1.4859,1.0,bridge,bridge_148.jpg,6.035667107,0.8276,A2Y69684WT44XU
226,A2Y69684WT44XU,40,Female,golf_course_217.jpg,golf_course_217.jpg,golf_course_262.jpg,left,badlands_30.jpg,highway_308.jpg,mountain_19.jpg,bridge_142.jpg,golf_course_217.jpg,playground_42.jpg,4.0,right,1.0608,1.0,golf,golf_course_262.jpg,3.192866579,0.9015,A2Y69684WT44XU
227,A2Y69684WT44XU,40,Female,playground_60.jpg,playground_60.jpg,playground_268.jpg,left,mountain_166.jpg,badlands_97.jpg,bridge_169.jpg,playground_60.jpg,golf_course_171.jpg,highway_265.jpg,3.0,right,45.0137,0.0,playground,playground_268.jpg,6.944517834,1.1124,A2Y69684WT44XU
228,A2Y69684WT44XU,40,Female,golf_course_309.jpg,golf_course_309.jpg,golf_course_16.jpg,left,badlands_80.jpg,highway_269.jpg,playground_222.jpg,golf_course_309.jpg,bridge_62.jpg,mountain_202.jpg,3.0,right,1.6856,0.0,golf,golf_course_16.jpg,4.619550859,1.7543,A2Y69684WT44XU
229,A2Y69684WT44XU,40,Female,badlands_113.jpg,badlands_225.jpg,badlands_113.jpg,right,mountain_146.jpg,playground_132.jpg,highway_172.jpg,badlands_113.jpg,bridge_66.jpg,golf_course_307.jpg,3.0,right,50.8641,0.0,badlands,badlands_225.jpg,6.416116248,0.8276,A2Y69684WT44XU
230,A2Y69684WT44XU,40,Female,badlands_24.jpg,badlands_3.jpg,badlands_24.jpg,right,golf_course_61.jpg,badlands_24.jpg,highway_76.jpg,mountain_212.jpg,bridge_254.jpg,playground_68.jpg,1.0,right,0.8198,0.0,badlands,badlands_3.jpg,7.145310436,3.9018,A2Y69684WT44XU
231,A2Y69684WT44XU,40,Female,golf_course_15.jpg,golf_course_15.jpg,golf_course_97.jpg,left,mountain_29.jpg,highway_107.jpg,playground_126.jpg,golf_course_15.jpg,badlands_128.jpg,bridge_193.jpg,3.0,right,1.1463,1.0,golf,golf_course_97.jpg,4.228533686,1.376,A2Y69684WT44XU
232,A2Y69684WT44XU,40,Female,mountain_222.jpg,mountain_244.jpg,mountain_222.jpg,right,bridge_112.jpg,highway_42.jpg,badlands_156.jpg,playground_6.jpg,mountain_222.jpg,golf_course_212.jpg,4.0,right,1.034,0.0,mountain,mountain_244.jpg,7.303830911,0.885,A2Y69684WT44XU
233,A2Y69684WT44XU,40,Female,mountain_101.jpg,mountain_221.jpg,mountain_101.jpg,right,bridge_133.jpg,mountain_101.jpg,badlands_6.jpg,golf_course_133.jpg,playground_26.jpg,highway_287.jpg,1.0,right,96.6964,1.0,mountain,mountain_221.jpg,3.742404227,1.0368,A2Y69684WT44XU
234,A2Y69684WT44XU,40,Female,mountain_110.jpg,mountain_223.jpg,mountain_110.jpg,right,golf_course_105.jpg,badlands_35.jpg,mountain_110.jpg,bridge_218.jpg,highway_18.jpg,playground_39.jpg,2.0,right,104.8919,1.0,mountain,mountain_223.jpg,6.479524439,0.9989,A2Y69684WT44XU
235,A2Y69684WT44XU,40,Female,badlands_221.jpg,badlands_221.jpg,badlands_207.jpg,left,highway_268.jpg,golf_course_297.jpg,bridge_106.jpg,badlands_221.jpg,playground_141.jpg,mountain_39.jpg,3.0,left,4.1848,1.0,badlands,badlands_207.jpg,3.467635403,1.2796,A2Y69684WT44XU
236,A2Y69684WT44XU,40,Female,highway_294.jpg,highway_294.jpg,highway_368.jpg,left,bridge_1.jpg,golf_course_313.jpg,badlands_166.jpg,mountain_253.jpg,highway_294.jpg,playground_176.jpg,4.0,right,1.0106,1.0,highway,highway_368.jpg,6.838837517,1.0713,A2Y69684WT44XU
237,A2Y69684WT44XU,40,Female,bridge_91.jpg,bridge_82.jpg,bridge_91.jpg,right,golf_course_288.jpg,playground_7.jpg,mountain_92.jpg,bridge_91.jpg,highway_305.jpg,badlands_81.jpg,3.0,left,1.2296,1.0,bridge,bridge_82.jpg,3.900924703,1.0319,A2Y69684WT44XU
238,A2Y69684WT44XU,40,Female,golf_course_188.jpg,golf_course_188.jpg,golf_course_160.jpg,left,badlands_174.jpg,mountain_91.jpg,highway_383.jpg,golf_course_188.jpg,playground_37.jpg,bridge_179.jpg,3.0,left,1.32,1.0,golf,golf_course_160.jpg,5.782034346,1.0025,A2Y69684WT44XU
239,A2Y69684WT44XU,40,Female,bridge_256.jpg,bridge_54.jpg,bridge_256.jpg,right,badlands_104.jpg,highway_37.jpg,bridge_256.jpg,golf_course_56.jpg,mountain_126.jpg,playground_118.jpg,2.0,right,0.9679,0.0,bridge,bridge_54.jpg,3.731836196,0.92,A2Y69684WT44XU
240,A3DW6KSQPG6GVQ,35,female,badlands_70.jpg,badlands_102.jpg,badlands_70.jpg,right,golf_course_219.jpg,mountain_33.jpg,badlands_70.jpg,bridge_136.jpg,highway_102.jpg,playground_191.jpg,2.0,right,4.5738,0.0,badlands,badlands_102.jpg,4.010416667,5.4044,A3DW6KSQPG6GVQ
241,A3DW6KSQPG6GVQ,35,female,bridge_91.jpg,bridge_253.jpg,bridge_91.jpg,right,mountain_87.jpg,playground_78.jpg,bridge_91.jpg,badlands_47.jpg,highway_365.jpg,golf_course_288.jpg,2.0,right,4.5798,0.0,bridge,bridge_253.jpg,2.927083333,3.2525,A3DW6KSQPG6GVQ
242,A3DW6KSQPG6GVQ,35,female,badlands_221.jpg,badlands_221.jpg,badlands_115.jpg,left,bridge_102.jpg,highway_315.jpg,badlands_221.jpg,mountain_91.jpg,golf_course_328.jpg,playground_54.jpg,2.0,left,3.5238,0.0,badlands,badlands_115.jpg,4.895833333,2.8355,A3DW6KSQPG6GVQ
243,A3DW6KSQPG6GVQ,35,female,golf_course_309.jpg,golf_course_209.jpg,golf_course_309.jpg,right,bridge_106.jpg,golf_course_309.jpg,playground_68.jpg,badlands_152.jpg,mountain_166.jpg,highway_33.jpg,1.0,right,3.3841,1.0,golf,golf_course_209.jpg,3.947916667,4.2689,A3DW6KSQPG6GVQ
244,A3DW6KSQPG6GVQ,35,female,highway_177.jpg,highway_177.jpg,highway_278.jpg,left,highway_177.jpg,mountain_290.jpg,golf_course_128.jpg,bridge_52.jpg,playground_83.jpg,badlands_217.jpg,0.0,left,4.0961,1.0,highway,highway_278.jpg,6.03125,3.4714,A3DW6KSQPG6GVQ
245,A3DW6KSQPG6GVQ,35,female,bridge_250.jpg,bridge_250.jpg,bridge_205.jpg,left,mountain_302.jpg,badlands_122.jpg,bridge_250.jpg,highway_148.jpg,golf_course_181.jpg,playground_30.jpg,2.0,right,2.0489,1.0,bridge,bridge_205.jpg,6.875,2.5897,A3DW6KSQPG6GVQ
246,A3DW6KSQPG6GVQ,35,female,playground_240.jpg,playground_2.jpg,playground_240.jpg,right,bridge_212.jpg,playground_240.jpg,badlands_79.jpg,highway_305.jpg,golf_course_338.jpg,mountain_233.jpg,1.0,left,2.3105,0.0,playground,playground_2.jpg,4.197916667,6.8026,A3DW6KSQPG6GVQ
247,A3DW6KSQPG6GVQ,35,female,golf_course_331.jpg,golf_course_26.jpg,golf_course_331.jpg,right,badlands_211.jpg,playground_248.jpg,bridge_68.jpg,mountain_306.jpg,golf_course_331.jpg,highway_31.jpg,4.0,right,2.1389,1.0,golf,golf_course_26.jpg,3.9375,13.192,A3DW6KSQPG6GVQ
248,A3DW6KSQPG6GVQ,35,female,bridge_172.jpg,bridge_172.jpg,bridge_163.jpg,left,golf_course_55.jpg,highway_287.jpg,mountain_226.jpg,badlands_97.jpg,bridge_172.jpg,playground_64.jpg,4.0,left,2.6403,1.0,bridge,bridge_163.jpg,5.34375,5.2207,A3DW6KSQPG6GVQ
249,A3DW6KSQPG6GVQ,35,female,playground_145.jpg,playground_145.jpg,playground_242.jpg,left,bridge_228.jpg,mountain_88.jpg,highway_269.jpg,playground_145.jpg,golf_course_116.jpg,badlands_170.jpg,3.0,left,2.9236,1.0,playground,playground_242.jpg,7.28125,3.6083,A3DW6KSQPG6GVQ
250,A3DW6KSQPG6GVQ,35,female,badlands_184.jpg,badlands_184.jpg,badlands_228.jpg,left,bridge_254.jpg,highway_90.jpg,playground_39.jpg,badlands_184.jpg,golf_course_56.jpg,mountain_39.jpg,3.0,right,1.9754,0.0,badlands,badlands_228.jpg,7.46875,3.4694,A3DW6KSQPG6GVQ
251,A3DW6KSQPG6GVQ,35,female,golf_course_214.jpg,golf_course_214.jpg,golf_course_317.jpg,left,golf_course_214.jpg,badlands_30.jpg,bridge_218.jpg,mountain_277.jpg,playground_6.jpg,highway_199.jpg,0.0,left,2.3553,1.0,golf,golf_course_317.jpg,7.4375,3.3068,A3DW6KSQPG6GVQ
252,A3DW6KSQPG6GVQ,35,female,golf_course_195.jpg,golf_course_2.jpg,golf_course_195.jpg,right,badlands_128.jpg,golf_course_195.jpg,bridge_266.jpg,mountain_190.jpg,playground_84.jpg,highway_37.jpg,1.0,right,9.886,1.0,golf,golf_course_2.jpg,6.302083333,2.4361,A3DW6KSQPG6GVQ
253,A3DW6KSQPG6GVQ,35,female,highway_245.jpg,highway_206.jpg,highway_245.jpg,right,badlands_106.jpg,bridge_234.jpg,mountain_22.jpg,golf_course_67.jpg,highway_245.jpg,playground_49.jpg,4.0,left,2.7984,1.0,highway,highway_206.jpg,5.875,4.0373,A3DW6KSQPG6GVQ
254,A3DW6KSQPG6GVQ,35,female,highway_93.jpg,highway_85.jpg,highway_93.jpg,right,badlands_9.jpg,mountain_206.jpg,highway_93.jpg,golf_course_120.jpg,bridge_169.jpg,playground_126.jpg,2.0,right,2.6065,0.0,highway,highway_85.jpg,4.791666667,2.8052,A3DW6KSQPG6GVQ
255,A3DW6KSQPG6GVQ,35,female,bridge_256.jpg,bridge_256.jpg,bridge_211.jpg,left,playground_141.jpg,bridge_256.jpg,golf_course_162.jpg,highway_268.jpg,mountain_151.jpg,badlands_175.jpg,1.0,left,2.7069,1.0,bridge,bridge_211.jpg,6.020833333,2.9513,A3DW6KSQPG6GVQ
256,A3DW6KSQPG6GVQ,35,female,highway_359.jpg,highway_359.jpg,highway_389.jpg,left,badlands_60.jpg,bridge_173.jpg,playground_181.jpg,highway_359.jpg,mountain_137.jpg,golf_course_42.jpg,3.0,left,1.0396,0.0,highway,highway_389.jpg,3.9375,3.9033,A3DW6KSQPG6GVQ
257,A3DW6KSQPG6GVQ,35,female,bridge_191.jpg,bridge_75.jpg,bridge_191.jpg,right,bridge_191.jpg,mountain_32.jpg,highway_335.jpg,playground_120.jpg,golf_course_265.jpg,badlands_16.jpg,0.0,left,2.9619,1.0,bridge,bridge_75.jpg,6.291666667,5.5675,A3DW6KSQPG6GVQ
258,A3DW6KSQPG6GVQ,35,female,badlands_113.jpg,badlands_113.jpg,badlands_225.jpg,left,playground_256.jpg,highway_141.jpg,badlands_113.jpg,bridge_238.jpg,golf_course_196.jpg,mountain_251.jpg,2.0,left,3.3773,0.0,badlands,badlands_225.jpg,7.114583333,2.2529,A3DW6KSQPG6GVQ
259,A3DW6KSQPG6GVQ,35,female,mountain_293.jpg,mountain_47.jpg,mountain_293.jpg,right,highway_308.jpg,golf_course_202.jpg,bridge_45.jpg,badlands_120.jpg,mountain_293.jpg,playground_140.jpg,4.0,right,3.4891,1.0,mountain,mountain_47.jpg,5.4375,5.7526,A3DW6KSQPG6GVQ
260,A3DW6KSQPG6GVQ,35,female,highway_209.jpg,highway_209.jpg,highway_314.jpg,left,mountain_40.jpg,bridge_164.jpg,badlands_20.jpg,highway_209.jpg,playground_176.jpg,golf_course_241.jpg,3.0,left,1.8035,0.0,highway,highway_314.jpg,4.208333333,3.52,A3DW6KSQPG6GVQ
261,A3DW6KSQPG6GVQ,35,female,playground_10.jpg,playground_10.jpg,playground_12.jpg,left,bridge_152.jpg,highway_15.jpg,badlands_185.jpg,playground_10.jpg,golf_course_176.jpg,mountain_294.jpg,3.0,left,2.4737,1.0,playground,playground_12.jpg,6.166666667,2.9577,A3DW6KSQPG6GVQ
262,A3DW6KSQPG6GVQ,35,female,highway_273.jpg,highway_384.jpg,highway_273.jpg,right,playground_154.jpg,highway_273.jpg,golf_course_102.jpg,badlands_44.jpg,bridge_35.jpg,mountain_199.jpg,1.0,left,2.325,0.0,highway,highway_384.jpg,3.791666667,3.4454,A3DW6KSQPG6GVQ
263,A3DW6KSQPG6GVQ,35,female,playground_76.jpg,playground_76.jpg,playground_22.jpg,left,bridge_155.jpg,mountain_187.jpg,badlands_80.jpg,playground_76.jpg,highway_226.jpg,golf_course_221.jpg,3.0,left,3.8488,0.0,playground,playground_22.jpg,5.354166667,13.5744,A3DW6KSQPG6GVQ
264,A3DW6KSQPG6GVQ,35,female,mountain_222.jpg,mountain_93.jpg,mountain_222.jpg,right,highway_288.jpg,bridge_225.jpg,badlands_67.jpg,golf_course_166.jpg,mountain_222.jpg,playground_14.jpg,4.0,right,3.3812,1.0,mountain,mountain_93.jpg,4.427083333,8.6373,A3DW6KSQPG6GVQ
265,A3DW6KSQPG6GVQ,35,female,highway_415.jpg,highway_60.jpg,highway_415.jpg,right,mountain_176.jpg,golf_course_291.jpg,highway_415.jpg,badlands_166.jpg,playground_184.jpg,bridge_66.jpg,2.0,right,1.6253,0.0,highway,highway_60.jpg,4.854166667,5.6701,A3DW6KSQPG6GVQ
266,A3DW6KSQPG6GVQ,35,female,mountain_101.jpg,mountain_221.jpg,mountain_101.jpg,right,highway_295.jpg,golf_course_199.jpg,bridge_62.jpg,playground_36.jpg,mountain_101.jpg,badlands_105.jpg,4.0,right,4.0813,1.0,mountain,mountain_221.jpg,4.09375,4.3189,A3DW6KSQPG6GVQ
267,A3DW6KSQPG6GVQ,35,female,bridge_202.jpg,bridge_202.jpg,bridge_31.jpg,left,golf_course_297.jpg,highway_18.jpg,playground_204.jpg,bridge_202.jpg,badlands_183.jpg,mountain_126.jpg,3.0,left,1.624,0.0,bridge,bridge_31.jpg,3.28125,2.5861,A3DW6KSQPG6GVQ
268,A3DW6KSQPG6GVQ,35,female,badlands_222.jpg,badlands_62.jpg,badlands_222.jpg,right,golf_course_138.jpg,badlands_222.jpg,bridge_197.jpg,playground_63.jpg,highway_17.jpg,mountain_29.jpg,1.0,right,2.4902,1.0,badlands,badlands_62.jpg,6.958333333,4.8192,A3DW6KSQPG6GVQ
269,A3DW6KSQPG6GVQ,35,female,mountain_232.jpg,mountain_232.jpg,mountain_54.jpg,left,mountain_232.jpg,bridge_76.jpg,highway_81.jpg,golf_course_171.jpg,playground_222.jpg,badlands_59.jpg,0.0,left,2.9862,1.0,mountain,mountain_54.jpg,6.260416667,2.6694,A3DW6KSQPG6GVQ
270,A3DW6KSQPG6GVQ,35,female,playground_131.jpg,playground_131.jpg,playground_164.jpg,left,playground_131.jpg,highway_138.jpg,badlands_138.jpg,mountain_102.jpg,bridge_79.jpg,golf_course_133.jpg,0.0,left,4.9367,1.0,playground,playground_164.jpg,7.854166667,2.1154,A3DW6KSQPG6GVQ
271,A3DW6KSQPG6GVQ,35,female,mountain_123.jpg,mountain_94.jpg,mountain_123.jpg,right,badlands_180.jpg,highway_247.jpg,playground_55.jpg,mountain_123.jpg,bridge_167.jpg,golf_course_342.jpg,3.0,right,2.558,0.0,mountain,mountain_94.jpg,3.5625,11.6661,A3DW6KSQPG6GVQ
272,A3DW6KSQPG6GVQ,35,female,bridge_146.jpg,bridge_121.jpg,bridge_146.jpg,right,bridge_146.jpg,mountain_146.jpg,highway_251.jpg,badlands_157.jpg,golf_course_238.jpg,playground_173.jpg,0.0,right,3.8923,1.0,bridge,bridge_121.jpg,5.885416667,4.0526,A3DW6KSQPG6GVQ
273,A3DW6KSQPG6GVQ,35,female,mountain_156.jpg,mountain_128.jpg,mountain_156.jpg,right,highway_76.jpg,mountain_156.jpg,golf_course_194.jpg,playground_233.jpg,badlands_219.jpg,bridge_140.jpg,1.0,right,3.4056,0.0,mountain,mountain_128.jpg,5.541666667,3.5431,A3DW6KSQPG6GVQ
274,A3DW6KSQPG6GVQ,35,female,playground_60.jpg,playground_268.jpg,playground_60.jpg,right,highway_265.jpg,bridge_1.jpg,golf_course_218.jpg,badlands_216.jpg,playground_60.jpg,mountain_34.jpg,4.0,right,2.7375,0.0,playground,playground_268.jpg,6.041666667,5.3753,A3DW6KSQPG6GVQ
275,A3DW6KSQPG6GVQ,35,female,highway_156.jpg,highway_156.jpg,highway_293.jpg,left,mountain_152.jpg,playground_162.jpg,golf_course_269.jpg,highway_156.jpg,badlands_214.jpg,bridge_133.jpg,3.0,left,4.7524,1.0,highway,highway_293.jpg,6.59375,2.0911,A3DW6KSQPG6GVQ
276,A3DW6KSQPG6GVQ,35,female,mountain_230.jpg,mountain_184.jpg,mountain_230.jpg,right,golf_course_144.jpg,bridge_204.jpg,badlands_35.jpg,mountain_230.jpg,playground_37.jpg,highway_154.jpg,3.0,left,2.6001,0.0,mountain,mountain_184.jpg,5.114583333,3.1365,A3DW6KSQPG6GVQ
277,A3DW6KSQPG6GVQ,35,female,playground_117.jpg,playground_117.jpg,playground_127.jpg,left,mountain_62.jpg,playground_117.jpg,badlands_46.jpg,golf_course_105.jpg,highway_178.jpg,bridge_110.jpg,1.0,left,3.7958,1.0,playground,playground_127.jpg,6.46875,1.6369,A3DW6KSQPG6GVQ
278,A3DW6KSQPG6GVQ,35,female,playground_219.jpg,playground_21.jpg,playground_219.jpg,right,highway_191.jpg,mountain_43.jpg,golf_course_316.jpg,bridge_193.jpg,playground_219.jpg,badlands_174.jpg,4.0,right,1.5201,0.0,playground,playground_21.jpg,6.166666667,1.6537,A3DW6KSQPG6GVQ
279,A3DW6KSQPG6GVQ,35,female,bridge_108.jpg,bridge_108.jpg,bridge_116.jpg,left,badlands_173.jpg,mountain_51.jpg,golf_course_3.jpg,bridge_108.jpg,playground_132.jpg,highway_107.jpg,3.0,right,3.8421,0.0,bridge,bridge_116.jpg,5.135416667,3.5718,A3DW6KSQPG6GVQ
280,A3DW6KSQPG6GVQ,35,female,mountain_154.jpg,mountain_154.jpg,mountain_95.jpg,left,mountain_154.jpg,highway_29.jpg,badlands_36.jpg,golf_course_61.jpg,playground_165.jpg,bridge_124.jpg,0.0,left,2.7564,1.0,mountain,mountain_95.jpg,6.427083333,7.2415,A3DW6KSQPG6GVQ
281,A3DW6KSQPG6GVQ,35,female,highway_394.jpg,highway_394.jpg,highway_204.jpg,left,badlands_33.jpg,playground_196.jpg,highway_394.jpg,mountain_307.jpg,golf_course_226.jpg,bridge_22.jpg,2.0,left,2.4709,0.0,highway,highway_204.jpg,4.677083333,2.6788,A3DW6KSQPG6GVQ
282,A3DW6KSQPG6GVQ,35,female,badlands_21.jpg,badlands_98.jpg,badlands_21.jpg,right,playground_153.jpg,badlands_21.jpg,highway_399.jpg,bridge_180.jpg,mountain_309.jpg,golf_course_300.jpg,1.0,right,3.1557,1.0,badlands,badlands_98.jpg,5.270833333,3.4582,A3DW6KSQPG6GVQ
283,A3DW6KSQPG6GVQ,35,female,badlands_24.jpg,badlands_3.jpg,badlands_24.jpg,right,playground_124.jpg,mountain_120.jpg,badlands_24.jpg,highway_28.jpg,golf_course_33.jpg,bridge_112.jpg,2.0,left,2.6076,0.0,badlands,badlands_3.jpg,6.510416667,2.8955,A3DW6KSQPG6GVQ
284,A3DW6KSQPG6GVQ,35,female,bridge_65.jpg,bridge_65.jpg,bridge_181.jpg,left,highway_257.jpg,mountain_249.jpg,playground_110.jpg,bridge_65.jpg,golf_course_305.jpg,badlands_150.jpg,3.0,left,3.2436,0.0,bridge,bridge_181.jpg,6.739583333,2.441,A3DW6KSQPG6GVQ
285,A3DW6KSQPG6GVQ,35,female,highway_294.jpg,highway_294.jpg,highway_368.jpg,left,mountain_250.jpg,badlands_55.jpg,highway_294.jpg,golf_course_71.jpg,playground_195.jpg,bridge_156.jpg,2.0,right,3.425,1.0,highway,highway_368.jpg,6.947916667,4.6504,A3DW6KSQPG6GVQ
286,A3DW6KSQPG6GVQ,35,female,playground_257.jpg,playground_257.jpg,playground_215.jpg,left,playground_257.jpg,highway_53.jpg,bridge_117.jpg,mountain_204.jpg,badlands_213.jpg,golf_course_0.jpg,0.0,left,3.5366,1.0,playground,playground_215.jpg,5.885416667,3.5387,A3DW6KSQPG6GVQ
287,A3DW6KSQPG6GVQ,35,female,mountain_110.jpg,mountain_110.jpg,mountain_223.jpg,left,playground_118.jpg,golf_course_308.jpg,bridge_96.jpg,highway_290.jpg,mountain_110.jpg,badlands_88.jpg,4.0,left,3.1974,1.0,mountain,mountain_223.jpg,5.479166667,3.3179,A3DW6KSQPG6GVQ
288,A3DW6KSQPG6GVQ,35,female,badlands_23.jpg,badlands_101.jpg,badlands_23.jpg,right,badlands_23.jpg,mountain_76.jpg,highway_383.jpg,playground_251.jpg,bridge_179.jpg,golf_course_127.jpg,0.0,right,2.3556,1.0,badlands,badlands_101.jpg,5.479166667,0.0397,A3DW6KSQPG6GVQ
289,A3DW6KSQPG6GVQ,35,female,golf_course_87.jpg,golf_course_87.jpg,golf_course_130.jpg,left,playground_16.jpg,golf_course_87.jpg,bridge_39.jpg,mountain_92.jpg,badlands_215.jpg,highway_3.jpg,1.0,left,3.7255,0.0,golf,golf_course_130.jpg,6.916666667,2.7422,A3DW6KSQPG6GVQ
290,A3DW6KSQPG6GVQ,35,female,golf_course_193.jpg,golf_course_193.jpg,golf_course_235.jpg,left,bridge_190.jpg,badlands_6.jpg,highway_83.jpg,playground_235.jpg,golf_course_193.jpg,mountain_180.jpg,4.0,left,1.4745,0.0,golf,golf_course_235.jpg,5.989583333,2.372,A3DW6KSQPG6GVQ
291,A3DW6KSQPG6GVQ,35,female,mountain_57.jpg,mountain_138.jpg,mountain_57.jpg,right,highway_36.jpg,mountain_57.jpg,badlands_125.jpg,playground_249.jpg,golf_course_333.jpg,bridge_64.jpg,1.0,right,3.1745,1.0,mountain,mountain_138.jpg,4.697916667,6.6688,A3DW6KSQPG6GVQ
292,A3DW6KSQPG6GVQ,35,female,golf_course_188.jpg,golf_course_157.jpg,golf_course_188.jpg,right,badlands_72.jpg,bridge_120.jpg,highway_193.jpg,mountain_135.jpg,golf_course_188.jpg,playground_237.jpg,4.0,right,3.0958,0.0,golf,golf_course_157.jpg,4.541666667,5.1886,A3DW6KSQPG6GVQ
293,A3DW6KSQPG6GVQ,35,female,bridge_128.jpg,bridge_128.jpg,bridge_61.jpg,left,mountain_228.jpg,badlands_227.jpg,bridge_128.jpg,playground_103.jpg,golf_course_212.jpg,highway_9.jpg,2.0,left,2.6913,0.0,bridge,bridge_61.jpg,4.947916667,3.9026,A3DW6KSQPG6GVQ
294,A3DW6KSQPG6GVQ,35,female,golf_course_217.jpg,golf_course_262.jpg,golf_course_217.jpg,right,badlands_26.jpg,mountain_169.jpg,golf_course_217.jpg,bridge_147.jpg,playground_85.jpg,highway_246.jpg,2.0,right,8.8384,1.0,golf,golf_course_262.jpg,7.270833333,3.951,A3DW6KSQPG6GVQ
295,A3DW6KSQPG6GVQ,35,female,playground_144.jpg,playground_65.jpg,playground_144.jpg,right,playground_144.jpg,highway_147.jpg,mountain_19.jpg,bridge_4.jpg,badlands_104.jpg,golf_course_253.jpg,0.0,right,3.4236,1.0,playground,playground_65.jpg,7.979166667,2.4898,A3DW6KSQPG6GVQ
296,A3DW6KSQPG6GVQ,35,female,golf_course_78.jpg,golf_course_78.jpg,golf_course_101.jpg,left,mountain_268.jpg,badlands_10.jpg,highway_319.jpg,bridge_63.jpg,golf_course_78.jpg,playground_98.jpg,4.0,left,2.2626,1.0,golf,golf_course_101.jpg,5.979166667,2.4399,A3DW6KSQPG6GVQ
297,A3DW6KSQPG6GVQ,35,female,golf_course_15.jpg,golf_course_97.jpg,golf_course_15.jpg,right,playground_241.jpg,highway_313.jpg,bridge_158.jpg,golf_course_15.jpg,badlands_171.jpg,mountain_192.jpg,3.0,right,3.1262,1.0,golf,golf_course_97.jpg,5.395833333,4.8342,A3DW6KSQPG6GVQ
298,A3DW6KSQPG6GVQ,35,female,badlands_137.jpg,badlands_137.jpg,badlands_139.jpg,left,golf_course_313.jpg,bridge_86.jpg,highway_274.jpg,badlands_137.jpg,mountain_253.jpg,playground_74.jpg,3.0,left,2.7576,1.0,badlands,badlands_139.jpg,5.916666667,4.2048,A3DW6KSQPG6GVQ
299,A3DW6KSQPG6GVQ,35,female,badlands_52.jpg,badlands_63.jpg,badlands_52.jpg,right,playground_50.jpg,mountain_35.jpg,highway_172.jpg,badlands_52.jpg,golf_course_137.jpg,bridge_24.jpg,3.0,right,5.874,1.0,badlands,badlands_63.jpg,5.6875,38.1508,A3DW6KSQPG6GVQ
300,A1LI3JQS2VBOXC,50,female,bridge_256.jpg,bridge_54.jpg,bridge_256.jpg,right,playground_162.jpg,bridge_256.jpg,badlands_152.jpg,golf_course_218.jpg,highway_15.jpg,mountain_202.jpg,1.0,right,1.2087,0.0,bridge,bridge_54.jpg,5.981367188,5.525,A1LI3JQS2VBOXC
301,A1LI3JQS2VBOXC,50,female,bridge_65.jpg,bridge_65.jpg,bridge_60.jpg,left,bridge_65.jpg,badlands_104.jpg,mountain_22.jpg,highway_199.jpg,playground_54.jpg,golf_course_179.jpg,0.0,right,1.8951,1.0,bridge,bridge_60.jpg,1.948359375,5.5562,A1LI3JQS2VBOXC
302,A1LI3JQS2VBOXC,50,female,playground_240.jpg,playground_2.jpg,playground_240.jpg,right,bridge_62.jpg,playground_240.jpg,badlands_85.jpg,mountain_212.jpg,golf_course_241.jpg,highway_305.jpg,1.0,right,1.3013,0.0,playground,playground_2.jpg,4.006015625,2.5259,A1LI3JQS2VBOXC
303,A1LI3JQS2VBOXC,50,female,playground_219.jpg,playground_219.jpg,playground_205.jpg,left,highway_17.jpg,mountain_199.jpg,playground_219.jpg,golf_course_265.jpg,bridge_197.jpg,badlands_227.jpg,2.0,left,0.8085,1.0,playground,playground_205.jpg,8.878710937,2.5396,A1LI3JQS2VBOXC
304,A1LI3JQS2VBOXC,50,female,badlands_52.jpg,badlands_94.jpg,badlands_52.jpg,right,badlands_52.jpg,playground_256.jpg,bridge_126.jpg,golf_course_288.jpg,mountain_39.jpg,highway_42.jpg,0.0,right,0.941,0.0,badlands,badlands_94.jpg,6.022890625,2.4868,A1LI3JQS2VBOXC
305,A1LI3JQS2VBOXC,50,female,badlands_137.jpg,badlands_137.jpg,badlands_139.jpg,left,bridge_52.jpg,playground_196.jpg,golf_course_316.jpg,highway_28.jpg,badlands_137.jpg,mountain_294.jpg,4.0,left,1.0453,1.0,badlands,badlands_139.jpg,4.926171875,2.4718,A1LI3JQS2VBOXC
306,A1LI3JQS2VBOXC,50,female,playground_131.jpg,playground_164.jpg,playground_131.jpg,right,badlands_138.jpg,highway_268.jpg,mountain_306.jpg,golf_course_252.jpg,playground_131.jpg,bridge_152.jpg,4.0,left,1.0285,1.0,playground,playground_164.jpg,8.993164063,2.8922,A1LI3JQS2VBOXC
307,A1LI3JQS2VBOXC,50,female,badlands_24.jpg,badlands_24.jpg,badlands_53.jpg,left,golf_course_171.jpg,highway_148.jpg,playground_176.jpg,badlands_24.jpg,mountain_34.jpg,bridge_193.jpg,3.0,right,1.1446,1.0,badlands,badlands_53.jpg,8.98390625,1.3556,A1LI3JQS2VBOXC
308,A1LI3JQS2VBOXC,50,female,playground_144.jpg,playground_137.jpg,playground_144.jpg,right,mountain_32.jpg,playground_144.jpg,highway_33.jpg,bridge_96.jpg,golf_course_297.jpg,badlands_211.jpg,1.0,right,0.7906,0.0,playground,playground_137.jpg,1.07015625,2.2565,A1LI3JQS2VBOXC
309,A1LI3JQS2VBOXC,50,female,mountain_156.jpg,mountain_128.jpg,mountain_156.jpg,right,badlands_6.jpg,mountain_156.jpg,bridge_106.jpg,golf_course_164.jpg,playground_15.jpg,highway_313.jpg,1.0,right,0.9792,0.0,mountain,mountain_128.jpg,3.848242187,2.9012,A1LI3JQS2VBOXC
310,A1LI3JQS2VBOXC,50,female,highway_209.jpg,highway_122.jpg,highway_209.jpg,right,mountain_226.jpg,playground_248.jpg,bridge_68.jpg,highway_209.jpg,golf_course_308.jpg,badlands_173.jpg,3.0,right,0.835,1.0,highway,highway_122.jpg,7.021875,2.123,A1LI3JQS2VBOXC
311,A1LI3JQS2VBOXC,50,female,mountain_123.jpg,mountain_123.jpg,mountain_94.jpg,left,bridge_66.jpg,highway_154.jpg,golf_course_199.jpg,badlands_185.jpg,mountain_123.jpg,playground_26.jpg,4.0,left,2.7851,0.0,mountain,mountain_94.jpg,1.100546875,2.2255,A1LI3JQS2VBOXC
312,A1LI3JQS2VBOXC,50,female,highway_394.jpg,highway_394.jpg,highway_204.jpg,left,bridge_136.jpg,playground_47.jpg,mountain_307.jpg,badlands_128.jpg,highway_394.jpg,golf_course_226.jpg,4.0,left,1.0104,0.0,highway,highway_204.jpg,1.053164063,1.689,A1LI3JQS2VBOXC
313,A1LI3JQS2VBOXC,50,female,bridge_108.jpg,bridge_108.jpg,bridge_116.jpg,left,bridge_108.jpg,mountain_76.jpg,playground_227.jpg,badlands_215.jpg,highway_29.jpg,golf_course_176.jpg,0.0,left,0.8138,0.0,bridge,bridge_116.jpg,2.013515625,2.9035,A1LI3JQS2VBOXC
314,A1LI3JQS2VBOXC,50,female,highway_359.jpg,highway_359.jpg,highway_379.jpg,left,golf_course_127.jpg,badlands_105.jpg,bridge_4.jpg,highway_359.jpg,mountain_302.jpg,playground_63.jpg,3.0,left,0.935,1.0,highway,highway_379.jpg,7.088945312,2.2561,A1LI3JQS2VBOXC
315,A1LI3JQS2VBOXC,50,female,highway_156.jpg,highway_160.jpg,highway_156.jpg,right,playground_165.jpg,highway_156.jpg,golf_course_282.jpg,badlands_46.jpg,bridge_45.jpg,mountain_180.jpg,1.0,right,1.563,0.0,highway,highway_160.jpg,1.126796875,3.221,A1LI3JQS2VBOXC
316,A1LI3JQS2VBOXC,50,female,golf_course_195.jpg,golf_course_195.jpg,golf_course_2.jpg,left,mountain_62.jpg,bridge_35.jpg,playground_37.jpg,golf_course_195.jpg,badlands_80.jpg,highway_247.jpg,3.0,right,1.1949,1.0,golf,golf_course_2.jpg,8.966132812,2.7872,A1LI3JQS2VBOXC
317,A1LI3JQS2VBOXC,50,female,golf_course_78.jpg,golf_course_134.jpg,golf_course_78.jpg,right,bridge_212.jpg,badlands_27.jpg,playground_118.jpg,highway_147.jpg,golf_course_78.jpg,mountain_166.jpg,4.0,left,1.4805,0.0,golf,golf_course_134.jpg,8.976992188,1.5071,A1LI3JQS2VBOXC
318,A1LI3JQS2VBOXC,50,female,playground_76.jpg,playground_76.jpg,playground_72.jpg,left,mountain_176.jpg,playground_76.jpg,bridge_147.jpg,highway_399.jpg,badlands_10.jpg,golf_course_72.jpg,1.0,left,1.2778,1.0,playground,playground_72.jpg,8.976992188,1.123,A1LI3JQS2VBOXC
319,A1LI3JQS2VBOXC,50,female,playground_60.jpg,playground_244.jpg,playground_60.jpg,right,golf_course_128.jpg,highway_50.jpg,bridge_117.jpg,playground_60.jpg,badlands_156.jpg,mountain_89.jpg,3.0,left,0.998,1.0,playground,playground_244.jpg,7.875234375,2.4088,A1LI3JQS2VBOXC
320,A1LI3JQS2VBOXC,50,female,mountain_222.jpg,mountain_222.jpg,mountain_244.jpg,left,golf_course_105.jpg,badlands_106.jpg,bridge_179.jpg,mountain_222.jpg,highway_342.jpg,playground_181.jpg,3.0,left,1.1276,0.0,mountain,mountain_244.jpg,3.995078125,2.0051,A1LI3JQS2VBOXC
321,A1LI3JQS2VBOXC,50,female,badlands_113.jpg,badlands_225.jpg,badlands_113.jpg,right,bridge_238.jpg,playground_235.jpg,highway_288.jpg,badlands_113.jpg,golf_course_67.jpg,mountain_43.jpg,3.0,right,1.1182,0.0,badlands,badlands_225.jpg,7.055976562,2.2565,A1LI3JQS2VBOXC
322,A1LI3JQS2VBOXC,50,female,mountain_57.jpg,mountain_138.jpg,mountain_57.jpg,right,bridge_39.jpg,highway_76.jpg,golf_course_181.jpg,mountain_57.jpg,playground_33.jpg,badlands_171.jpg,3.0,right,1.5091,1.0,mountain,mountain_138.jpg,3.03359375,2.3927,A1LI3JQS2VBOXC
323,A1LI3JQS2VBOXC,50,female,mountain_293.jpg,mountain_72.jpg,mountain_293.jpg,right,playground_222.jpg,mountain_293.jpg,highway_78.jpg,bridge_164.jpg,golf_course_328.jpg,badlands_219.jpg,1.0,left,2.311,0.0,mountain,mountain_72.jpg,8.956171875,1.9057,A1LI3JQS2VBOXC
324,A1LI3JQS2VBOXC,50,female,bridge_128.jpg,bridge_128.jpg,bridge_61.jpg,left,golf_course_253.jpg,bridge_128.jpg,mountain_19.jpg,playground_42.jpg,badlands_16.jpg,highway_335.jpg,1.0,left,1.058,0.0,bridge,bridge_61.jpg,1.16890625,2.1775,A1LI3JQS2VBOXC
325,A1LI3JQS2VBOXC,50,female,highway_93.jpg,highway_369.jpg,highway_93.jpg,right,badlands_214.jpg,playground_251.jpg,golf_course_102.jpg,mountain_198.jpg,highway_93.jpg,bridge_180.jpg,4.0,right,2.0834,1.0,highway,highway_369.jpg,8.906875,3.1386,A1LI3JQS2VBOXC
326,A1LI3JQS2VBOXC,50,female,golf_course_309.jpg,golf_course_309.jpg,golf_course_209.jpg,left,bridge_140.jpg,highway_269.jpg,golf_course_309.jpg,playground_246.jpg,badlands_201.jpg,mountain_253.jpg,2.0,left,1.0432,1.0,golf,golf_course_209.jpg,1.06375,2.155,A1LI3JQS2VBOXC
327,A1LI3JQS2VBOXC,50,female,bridge_202.jpg,bridge_202.jpg,bridge_31.jpg,left,golf_course_333.jpg,playground_50.jpg,badlands_67.jpg,highway_319.jpg,bridge_202.jpg,mountain_45.jpg,4.0,left,0.9769,0.0,bridge,bridge_31.jpg,1.161679687,2.4572,A1LI3JQS2VBOXC
328,A1LI3JQS2VBOXC,50,female,playground_117.jpg,playground_167.jpg,playground_117.jpg,right,highway_193.jpg,badlands_36.jpg,mountain_152.jpg,playground_117.jpg,golf_course_307.jpg,bridge_218.jpg,3.0,left,1.0264,0.0,playground,playground_167.jpg,4.035117188,2.288,A1LI3JQS2VBOXC
329,A1LI3JQS2VBOXC,50,female,golf_course_87.jpg,golf_course_87.jpg,golf_course_161.jpg,left,highway_265.jpg,golf_course_87.jpg,playground_68.jpg,bridge_144.jpg,mountain_87.jpg,badlands_122.jpg,1.0,left,2.1773,1.0,golf,golf_course_161.jpg,2.13796875,2.0228,A1LI3JQS2VBOXC
330,A1LI3JQS2VBOXC,50,female,golf_course_188.jpg,golf_course_157.jpg,golf_course_188.jpg,right,badlands_200.jpg,golf_course_188.jpg,bridge_24.jpg,mountain_169.jpg,playground_140.jpg,highway_18.jpg,1.0,right,1.0833,0.0,golf,golf_course_157.jpg,1.007734375,1.4895,A1LI3JQS2VBOXC
331,A1LI3JQS2VBOXC,50,female,bridge_91.jpg,bridge_253.jpg,bridge_91.jpg,right,bridge_91.jpg,badlands_88.jpg,golf_course_196.jpg,mountain_102.jpg,playground_7.jpg,highway_308.jpg,0.0,right,0.8937,0.0,bridge,bridge_253.jpg,1.007734375,1.5237,A1LI3JQS2VBOXC
332,A1LI3JQS2VBOXC,50,female,bridge_191.jpg,bridge_191.jpg,bridge_184.jpg,left,bridge_191.jpg,highway_172.jpg,badlands_47.jpg,mountain_88.jpg,golf_course_238.jpg,playground_74.jpg,0.0,left,1.4379,0.0,bridge,bridge_184.jpg,1.007734375,1.2723,A1LI3JQS2VBOXC
333,A1LI3JQS2VBOXC,50,female,mountain_230.jpg,mountain_230.jpg,mountain_184.jpg,left,golf_course_194.jpg,highway_138.jpg,badlands_72.jpg,mountain_230.jpg,playground_30.jpg,bridge_204.jpg,3.0,left,1.3838,0.0,mountain,mountain_184.jpg,1.021210937,3.8254,A1LI3JQS2VBOXC
334,A1LI3JQS2VBOXC,50,female,golf_course_15.jpg,golf_course_97.jpg,golf_course_15.jpg,right,badlands_174.jpg,mountain_251.jpg,highway_226.jpg,bridge_224.jpg,golf_course_15.jpg,playground_204.jpg,4.0,right,0.9157,1.0,golf,golf_course_97.jpg,8.1540625,2.3055,A1LI3JQS2VBOXC
335,A1LI3JQS2VBOXC,50,female,playground_257.jpg,playground_257.jpg,playground_215.jpg,left,golf_course_23.jpg,bridge_102.jpg,badlands_157.jpg,playground_257.jpg,mountain_277.jpg,highway_58.jpg,3.0,right,1.3009,1.0,playground,playground_215.jpg,2.079570313,2.3553,A1LI3JQS2VBOXC
336,A1LI3JQS2VBOXC,50,female,highway_245.jpg,highway_245.jpg,highway_206.jpg,left,golf_course_221.jpg,bridge_156.jpg,badlands_164.jpg,playground_6.jpg,highway_245.jpg,mountain_290.jpg,4.0,left,0.6283,1.0,highway,highway_206.jpg,6.208398437,1.7882,A1LI3JQS2VBOXC
337,A1LI3JQS2VBOXC,50,female,golf_course_193.jpg,golf_course_235.jpg,golf_course_193.jpg,right,bridge_143.jpg,mountain_35.jpg,badlands_97.jpg,highway_3.jpg,golf_course_193.jpg,playground_36.jpg,4.0,right,0.7135,0.0,golf,golf_course_235.jpg,1.060546875,3.5358,A1LI3JQS2VBOXC
338,A1LI3JQS2VBOXC,50,female,bridge_146.jpg,bridge_146.jpg,bridge_121.jpg,left,badlands_125.jpg,playground_249.jpg,bridge_146.jpg,golf_course_269.jpg,highway_37.jpg,mountain_29.jpg,2.0,left,1.0796,1.0,bridge,bridge_121.jpg,8.9775,1.7035,A1LI3JQS2VBOXC
339,A1LI3JQS2VBOXC,50,female,bridge_172.jpg,bridge_172.jpg,bridge_163.jpg,left,playground_110.jpg,bridge_172.jpg,mountain_137.jpg,highway_383.jpg,golf_course_138.jpg,badlands_217.jpg,1.0,right,1.2121,1.0,bridge,bridge_163.jpg,8.9825,0.9717,A1LI3JQS2VBOXC
340,A1LI3JQS2VBOXC,50,female,badlands_222.jpg,badlands_222.jpg,badlands_34.jpg,left,bridge_110.jpg,badlands_222.jpg,mountain_126.jpg,golf_course_42.jpg,highway_315.jpg,playground_98.jpg,1.0,right,1.0456,0.0,badlands,badlands_34.jpg,7.089335937,1.874,A1LI3JQS2VBOXC
341,A1LI3JQS2VBOXC,50,female,bridge_250.jpg,bridge_134.jpg,bridge_250.jpg,right,golf_course_3.jpg,playground_241.jpg,badlands_81.jpg,highway_365.jpg,bridge_250.jpg,mountain_249.jpg,4.0,right,0.8955,0.0,bridge,bridge_134.jpg,6.997539062,2.3205,A1LI3JQS2VBOXC
342,A1LI3JQS2VBOXC,50,female,playground_10.jpg,playground_10.jpg,playground_12.jpg,left,badlands_175.jpg,playground_10.jpg,golf_course_202.jpg,mountain_120.jpg,bridge_124.jpg,highway_83.jpg,1.0,right,1.3809,1.0,playground,playground_12.jpg,8.85640625,1.5896,A1LI3JQS2VBOXC
343,A1LI3JQS2VBOXC,50,female,golf_course_217.jpg,golf_course_35.jpg,golf_course_217.jpg,right,golf_course_217.jpg,highway_36.jpg,playground_195.jpg,bridge_158.jpg,mountain_204.jpg,badlands_26.jpg,0.0,left,0.7809,0.0,golf,golf_course_35.jpg,7.039335938,1.8212,A1LI3JQS2VBOXC
344,A1LI3JQS2VBOXC,50,female,mountain_101.jpg,mountain_101.jpg,mountain_221.jpg,left,badlands_59.jpg,bridge_74.jpg,highway_354.jpg,playground_124.jpg,mountain_101.jpg,golf_course_59.jpg,4.0,left,1.2096,1.0,mountain,mountain_221.jpg,5.921484375,1.5917,A1LI3JQS2VBOXC
345,A1LI3JQS2VBOXC,50,female,highway_294.jpg,highway_294.jpg,highway_368.jpg,left,highway_294.jpg,mountain_187.jpg,badlands_213.jpg,bridge_266.jpg,playground_173.jpg,golf_course_56.jpg,0.0,left,2.0792,1.0,highway,highway_368.jpg,8.129296875,2.2385,A1LI3JQS2VBOXC
346,A1LI3JQS2VBOXC,50,female,badlands_23.jpg,badlands_23.jpg,badlands_114.jpg,left,badlands_23.jpg,highway_101.jpg,bridge_87.jpg,golf_course_219.jpg,playground_55.jpg,mountain_309.jpg,0.0,left,1.4146,0.0,badlands,badlands_114.jpg,8.981171875,2.7391,A1LI3JQS2VBOXC
347,A1LI3JQS2VBOXC,50,female,mountain_154.jpg,mountain_154.jpg,mountain_95.jpg,left,bridge_167.jpg,mountain_154.jpg,playground_83.jpg,golf_course_61.jpg,badlands_20.jpg,highway_246.jpg,1.0,left,1.618,1.0,mountain,mountain_95.jpg,8.981171875,1.6097,A1LI3JQS2VBOXC
348,A1LI3JQS2VBOXC,50,female,mountain_232.jpg,mountain_232.jpg,mountain_3.jpg,left,highway_81.jpg,mountain_232.jpg,bridge_20.jpg,badlands_54.jpg,golf_course_300.jpg,playground_103.jpg,1.0,right,1.1299,0.0,mountain,mountain_3.jpg,8.981171875,1.3057,A1LI3JQS2VBOXC
349,A1LI3JQS2VBOXC,50,female,badlands_21.jpg,badlands_98.jpg,badlands_21.jpg,right,golf_course_55.jpg,bridge_225.jpg,mountain_146.jpg,playground_14.jpg,badlands_21.jpg,highway_31.jpg,4.0,right,0.829,1.0,badlands,badlands_98.jpg,5.070390625,1.7916,A1LI3JQS2VBOXC
350,A1LI3JQS2VBOXC,50,female,highway_273.jpg,highway_273.jpg,highway_171.jpg,left,bridge_1.jpg,mountain_250.jpg,highway_273.jpg,golf_course_291.jpg,badlands_120.jpg,playground_154.jpg,2.0,right,1.6462,1.0,highway,highway_171.jpg,8.075742187,2.3906,A1LI3JQS2VBOXC
351,A1LI3JQS2VBOXC,50,female,golf_course_331.jpg,golf_course_331.jpg,golf_course_114.jpg,left,playground_64.jpg,golf_course_331.jpg,badlands_166.jpg,highway_178.jpg,bridge_173.jpg,mountain_135.jpg,1.0,right,1.7146,0.0,golf,golf_course_114.jpg,7.978671875,1.4399,A1LI3JQS2VBOXC
352,A1LI3JQS2VBOXC,50,female,highway_177.jpg,highway_87.jpg,highway_177.jpg,right,golf_course_0.jpg,badlands_79.jpg,mountain_91.jpg,highway_177.jpg,bridge_118.jpg,playground_120.jpg,3.0,left,2.0277,0.0,highway,highway_87.jpg,1.01796875,2.7903,A1LI3JQS2VBOXC
353,A1LI3JQS2VBOXC,50,female,golf_course_214.jpg,golf_course_214.jpg,golf_course_317.jpg,left,playground_49.jpg,badlands_60.jpg,golf_course_214.jpg,mountain_92.jpg,highway_257.jpg,bridge_86.jpg,2.0,left,1.7774,1.0,golf,golf_course_317.jpg,8.915742187,2.8067,A1LI3JQS2VBOXC
354,A1LI3JQS2VBOXC,50,female,badlands_184.jpg,badlands_184.jpg,badlands_103.jpg,left,badlands_184.jpg,mountain_206.jpg,golf_course_144.jpg,bridge_234.jpg,highway_53.jpg,playground_126.jpg,0.0,right,1.126,1.0,badlands,badlands_103.jpg,8.915742187,1.1893,A1LI3JQS2VBOXC
355,A1LI3JQS2VBOXC,50,female,highway_415.jpg,highway_415.jpg,highway_60.jpg,left,playground_16.jpg,mountain_143.jpg,golf_course_33.jpg,bridge_112.jpg,highway_415.jpg,badlands_35.jpg,4.0,right,1.2961,0.0,highway,highway_60.jpg,3.017109375,2.1733,A1LI3JQS2VBOXC
356,A1LI3JQS2VBOXC,50,female,badlands_70.jpg,badlands_70.jpg,badlands_102.jpg,left,playground_191.jpg,badlands_70.jpg,bridge_228.jpg,golf_course_116.jpg,highway_90.jpg,mountain_41.jpg,1.0,right,1.4792,0.0,badlands,badlands_102.jpg,1.999335938,1.7419,A1LI3JQS2VBOXC
357,A1LI3JQS2VBOXC,50,female,badlands_221.jpg,badlands_221.jpg,badlands_207.jpg,left,bridge_169.jpg,playground_78.jpg,golf_course_133.jpg,badlands_221.jpg,highway_9.jpg,mountain_190.jpg,3.0,left,1.3309,1.0,badlands,badlands_207.jpg,1.01640625,2.8388,A1LI3JQS2VBOXC
358,A1LI3JQS2VBOXC,50,female,playground_145.jpg,playground_145.jpg,playground_242.jpg,left,playground_145.jpg,golf_course_342.jpg,badlands_180.jpg,bridge_254.jpg,highway_413.jpg,mountain_192.jpg,0.0,left,1.0469,1.0,playground,playground_242.jpg,8.902148437,2.6582,A1LI3JQS2VBOXC
359,A1LI3JQS2VBOXC,50,female,mountain_110.jpg,mountain_110.jpg,mountain_157.jpg,left,badlands_129.jpg,playground_184.jpg,bridge_63.jpg,golf_course_137.jpg,mountain_110.jpg,highway_251.jpg,4.0,left,1.3921,0.0,mountain,mountain_157.jpg,6.099414063,1.84,A1LI3JQS2VBOXC
360,AUZP4FPD6UTNU,35,Female,mountain_156.jpg,mountain_156.jpg,mountain_128.jpg,left,badlands_215.jpg,mountain_156.jpg,golf_course_67.jpg,bridge_63.jpg,highway_247.jpg,playground_195.jpg,1.0,left,1.3341,0.0,mountain,mountain_128.jpg,5.066666667,3.6978,AUZP4FPD6UTNU
361,AUZP4FPD6UTNU,35,Female,badlands_21.jpg,badlands_1.jpg,badlands_21.jpg,right,playground_30.jpg,bridge_156.jpg,golf_course_196.jpg,badlands_21.jpg,mountain_249.jpg,highway_3.jpg,3.0,right,1.5412,0.0,badlands,badlands_1.jpg,4.985185185,0.8279,AUZP4FPD6UTNU
362,AUZP4FPD6UTNU,35,Female,badlands_23.jpg,badlands_23.jpg,badlands_101.jpg,left,playground_173.jpg,highway_28.jpg,badlands_23.jpg,bridge_158.jpg,mountain_250.jpg,golf_course_313.jpg,2.0,left,1.7496,1.0,badlands,badlands_101.jpg,3.022222222,3.2558,AUZP4FPD6UTNU
363,AUZP4FPD6UTNU,35,Female,mountain_57.jpg,mountain_57.jpg,mountain_138.jpg,left,badlands_121.jpg,mountain_57.jpg,playground_126.jpg,bridge_143.jpg,golf_course_202.jpg,highway_37.jpg,1.0,left,2.8273,1.0,mountain,mountain_138.jpg,3.511111111,5.9051,AUZP4FPD6UTNU
364,AUZP4FPD6UTNU,35,Female,bridge_202.jpg,bridge_202.jpg,bridge_38.jpg,left,playground_184.jpg,bridge_202.jpg,golf_course_226.jpg,highway_30.jpg,badlands_214.jpg,mountain_102.jpg,1.0,right,1.3114,1.0,bridge,bridge_38.jpg,8.8,2.3479,AUZP4FPD6UTNU
365,AUZP4FPD6UTNU,35,Female,bridge_146.jpg,bridge_27.jpg,bridge_146.jpg,right,highway_18.jpg,mountain_256.jpg,bridge_146.jpg,golf_course_241.jpg,badlands_88.jpg,playground_153.jpg,2.0,right,2.205,0.0,bridge,bridge_27.jpg,7.718518519,2.1756,AUZP4FPD6UTNU
366,AUZP4FPD6UTNU,35,Female,playground_219.jpg,playground_219.jpg,playground_21.jpg,left,bridge_197.jpg,golf_course_316.jpg,mountain_29.jpg,badlands_122.jpg,playground_219.jpg,highway_399.jpg,4.0,right,19.9208,0.0,playground,playground_21.jpg,8.525925926,2.2625,AUZP4FPD6UTNU
367,AUZP4FPD6UTNU,35,Female,highway_93.jpg,highway_369.jpg,highway_93.jpg,right,highway_93.jpg,playground_68.jpg,golf_course_116.jpg,badlands_60.jpg,bridge_20.jpg,mountain_33.jpg,0.0,right,31.0962,1.0,highway,highway_369.jpg,8.133333333,1.5725,AUZP4FPD6UTNU
368,AUZP4FPD6UTNU,35,Female,playground_240.jpg,playground_40.jpg,playground_240.jpg,right,mountain_253.jpg,bridge_106.jpg,playground_240.jpg,highway_81.jpg,badlands_47.jpg,golf_course_199.jpg,2.0,right,4.6523,1.0,playground,playground_40.jpg,8.540740741,2.5512,AUZP4FPD6UTNU
369,AUZP4FPD6UTNU,35,Female,playground_145.jpg,playground_145.jpg,playground_229.jpg,left,playground_145.jpg,bridge_204.jpg,badlands_183.jpg,golf_course_127.jpg,mountain_137.jpg,highway_138.jpg,0.0,left,3.2961,0.0,playground,playground_229.jpg,5.925925926,2.2451,AUZP4FPD6UTNU
370,AUZP4FPD6UTNU,35,Female,badlands_184.jpg,badlands_184.jpg,badlands_228.jpg,left,playground_36.jpg,badlands_184.jpg,bridge_79.jpg,highway_295.jpg,mountain_228.jpg,golf_course_59.jpg,1.0,right,3.692,0.0,badlands,badlands_228.jpg,8.007407407,2.0849,AUZP4FPD6UTNU
371,AUZP4FPD6UTNU,35,Female,mountain_110.jpg,mountain_110.jpg,mountain_157.jpg,left,highway_290.jpg,bridge_112.jpg,badlands_175.jpg,golf_course_166.jpg,mountain_110.jpg,playground_227.jpg,4.0,left,1.7379,0.0,mountain,mountain_157.jpg,8.007407407,1.3944,AUZP4FPD6UTNU
372,AUZP4FPD6UTNU,35,Female,badlands_222.jpg,badlands_62.jpg,badlands_222.jpg,right,playground_181.jpg,badlands_222.jpg,highway_413.jpg,bridge_76.jpg,mountain_160.jpg,golf_course_297.jpg,1.0,left,2.9719,1.0,badlands,badlands_62.jpg,8.007407407,1.6774,AUZP4FPD6UTNU
373,AUZP4FPD6UTNU,35,Female,highway_273.jpg,highway_171.jpg,highway_273.jpg,right,badlands_46.jpg,golf_course_181.jpg,playground_235.jpg,bridge_96.jpg,highway_273.jpg,mountain_91.jpg,4.0,right,4.1409,1.0,highway,highway_171.jpg,6.474074074,1.6069,AUZP4FPD6UTNU
374,AUZP4FPD6UTNU,35,Female,bridge_250.jpg,bridge_250.jpg,bridge_205.jpg,left,bridge_250.jpg,mountain_120.jpg,badlands_55.jpg,playground_49.jpg,golf_course_342.jpg,highway_154.jpg,0.0,right,2.9559,1.0,bridge,bridge_205.jpg,8.177777778,2.6554,AUZP4FPD6UTNU
375,AUZP4FPD6UTNU,35,Female,highway_359.jpg,highway_379.jpg,highway_359.jpg,right,bridge_39.jpg,playground_16.jpg,badlands_217.jpg,golf_course_128.jpg,highway_359.jpg,mountain_268.jpg,4.0,left,2.247,1.0,highway,highway_379.jpg,8.133333333,1.6495,AUZP4FPD6UTNU
376,AUZP4FPD6UTNU,35,Female,playground_10.jpg,playground_10.jpg,playground_122.jpg,left,mountain_302.jpg,golf_course_133.jpg,badlands_166.jpg,playground_10.jpg,highway_76.jpg,bridge_228.jpg,3.0,left,1.4265,0.0,playground,playground_122.jpg,5.192592593,3.1118,AUZP4FPD6UTNU
377,AUZP4FPD6UTNU,35,Female,playground_76.jpg,playground_76.jpg,playground_72.jpg,left,mountain_166.jpg,badlands_80.jpg,golf_course_218.jpg,bridge_86.jpg,playground_76.jpg,highway_269.jpg,4.0,right,2.6445,1.0,playground,playground_72.jpg,6.666666667,1.9217,AUZP4FPD6UTNU
