key_resp.keys,key_resp_2.keys,key_resp_2.rt,demo_test_key_resp.keys,demo_test_key_resp.rt,demo_loops.thisRepN,demo_loops.thisTrialN,demo_loops.thisN,demo_loops.thisIndex,demo_loops.ran,target,image1,image2,correct,background_0,background_1,background_2,background_3,background_4,background_5,target_index,workID,Age,Gender,Hours slept (last night),date,expName,psychopyVersion,OS,frameRate,key_resp_after_demo.keys,key_resp_after_demo.rt,test_key_resp.keys,test_key_resp.rt,exp_loops.thisRepN,exp_loops.thisTrialN,exp_loops.thisN,exp_loops.thisIndex,exp_loops.ran,selected_dist,distractor_level,category,key_resp_4.keys,key_resp_4.rt,slider_part2.response,slider_part2.rt,exp_loops_part2.thisRepN,exp_loops_part2.thisTrialN,exp_loops_part2.thisN,exp_loops_part2.thisIndex,exp_loops_part2.ran,key_resp_last_slide.keys,key_resp_last_slide.rt
,space,27.673,left,28.9937,0,0,0,0,1,flower1.jpg,flower1.jpg,flower1_pair.jpg,left,leaf3.jpg,trail1.jpg,flower1.jpg,bird1.jpg,tree3.jpg,fence4.jpg,2,A11246G6L1GMQB,28,male,8,2023-07-18_12h20.35.096,working,2022.2.4,Win32,8.185047555,,,,,,,,,,,,,,,,,,,,,,,
,,,left,3.8102,0,1,1,1,1,leaf2.jpg,leaf1.jpg,leaf2.jpg,right,trail2.jpg,leaf2.jpg,bird2.jpg,tree2.jpg,fence3.jpg,flower2.jpg,1,A11246G6L1GMQB,28,male,8,2023-07-18_12h20.35.096,working,2022.2.4,Win32,8.185047555,,,,,,,,,,,,,,,,,,,,,,,
,,,left,17.1901,0,2,2,2,1,fence1.jpg,fence1.jpg,fence2.jpg,left,tree1.jpg,bird3.jpg,trail3.jpg,fence1.jpg,leaf4.jpg,flower3.jpg,3,A11246G6L1GMQB,28,male,8,2023-07-18_12h20.35.096,working,2022.2.4,Win32,8.185047555,,,,,,,,,,,,,,,,,,,,,,,
,,,,,,,,,,playground_60.jpg,playground_60.jpg,playground_268.jpg,left,highway_333.jpg,playground_60.jpg,bridge_49.jpg,golf_course_223.jpg,golf_course_223.jpg,golf_course_223.jpg,1,A11246G6L1GMQB,28,male,8,2023-07-18_12h20.35.096,working,2022.2.4,Win32,8.185047555,space,6.4655,left,57.0605,0,0,0,0,1,playground_268.jpg,0,playground,,,,,,,,,,,
,,,,,,,,,,playground_144.jpg,playground_137.jpg,playground_144.jpg,right,bridge_120.jpg,playground_144.jpg,badlands_54.jpg,mountain_66.jpg,mountain_66.jpg,mountain_66.jpg,1,A11246G6L1GMQB,28,male,8,2023-07-18_12h20.35.096,working,2022.2.4,Win32,8.185047555,,,right,5.1117,0,1,1,1,1,playground_137.jpg,0,playground,,,,,,,,,,,
,,,,,,,,,,highway_209.jpg,highway_314.jpg,highway_209.jpg,right,bridge_251.jpg,highway_209.jpg,badlands_176.jpg,playground_241.jpg,playground_241.jpg,playground_241.jpg,1,A11246G6L1GMQB,28,male,8,2023-07-18_12h20.35.096,working,2022.2.4,Win32,8.185047555,,,right,5.1081,0,2,2,2,1,highway_314.jpg,0,highway,,,,,,,,,,,
,,,,,,,,,,highway_273.jpg,highway_273.jpg,highway_171.jpg,left,playground_193.jpg,badlands_58.jpg,highway_273.jpg,bridge_9.jpg,bridge_9.jpg,bridge_9.jpg,2,A11246G6L1GMQB,28,male,8,2023-07-18_12h20.35.096,working,2022.2.4,Win32,8.185047555,,,left,2.2225,0,3,3,3,1,highway_171.jpg,1,highway,,,,,,,,,,,
,,,,,,,,,,mountain_154.jpg,mountain_154.jpg,mountain_95.jpg,left,playground_46.jpg,mountain_154.jpg,highway_114.jpg,bridge_177.jpg,bridge_177.jpg,bridge_177.jpg,1,A11246G6L1GMQB,28,male,8,2023-07-18_12h20.35.096,working,2022.2.4,Win32,8.185047555,,,left,3.2618,0,4,4,4,1,mountain_95.jpg,1,mountain,,,,,,,,,,,
,,,,,,,,,,bridge_250.jpg,bridge_134.jpg,bridge_250.jpg,right,highway_99.jpg,badlands_200.jpg,bridge_250.jpg,golf_course_43.jpg,golf_course_43.jpg,golf_course_43.jpg,2,A11246G6L1GMQB,28,male,8,2023-07-18_12h20.35.096,working,2022.2.4,Win32,8.185047555,,,right,2.0914,0,5,5,5,1,bridge_134.jpg,0,bridge,,,,,,,,,,,
,,,,,,,,,,bridge_65.jpg,bridge_60.jpg,bridge_65.jpg,right,mountain_166.jpg,golf_course_198.jpg,bridge_65.jpg,highway_175.jpg,highway_175.jpg,highway_175.jpg,2,A11246G6L1GMQB,28,male,8,2023-07-18_12h20.35.096,working,2022.2.4,Win32,8.185047555,,,left,1.9579,0,6,6,6,1,bridge_60.jpg,1,bridge,,,,,,,,,,,
,,,,,,,,,,golf_course_331.jpg,golf_course_114.jpg,golf_course_331.jpg,right,golf_course_331.jpg,playground_158.jpg,highway_336.jpg,badlands_166.jpg,badlands_166.jpg,badlands_166.jpg,0,A11246G6L1GMQB,28,male,8,2023-07-18_12h20.35.096,working,2022.2.4,Win32,8.185047555,,,left,1.6574,0,7,7,7,1,golf_course_114.jpg,0,golf,,,,,,,,,,,
,,,,,,,,,,bridge_91.jpg,bridge_253.jpg,bridge_91.jpg,right,bridge_91.jpg,golf_course_42.jpg,playground_42.jpg,badlands_193.jpg,badlands_193.jpg,badlands_193.jpg,0,A11246G6L1GMQB,28,male,8,2023-07-18_12h20.35.096,working,2022.2.4,Win32,8.185047555,,,right,3.4686,0,8,8,8,1,bridge_253.jpg,0,bridge,,,,,,,,,,,
,,,,,,,,,,highway_294.jpg,highway_294.jpg,highway_368.jpg,left,playground_95.jpg,highway_294.jpg,mountain_15.jpg,golf_course_52.jpg,golf_course_52.jpg,golf_course_52.jpg,1,A11246G6L1GMQB,28,male,8,2023-07-18_12h20.35.096,working,2022.2.4,Win32,8.185047555,,,left,1.8362,0,9,9,9,1,highway_368.jpg,1,highway,,,,,,,,,,,
,,,,,,,,,,playground_145.jpg,playground_145.jpg,playground_229.jpg,left,golf_course_321.jpg,playground_145.jpg,bridge_78.jpg,badlands_142.jpg,badlands_142.jpg,badlands_142.jpg,1,A11246G6L1GMQB,28,male,8,2023-07-18_12h20.35.096,working,2022.2.4,Win32,8.185047555,,,left,4.955,0,10,10,10,1,playground_229.jpg,0,playground,,,,,,,,,,,
,,,,,,,,,,highway_156.jpg,highway_156.jpg,highway_293.jpg,left,highway_156.jpg,playground_54.jpg,bridge_158.jpg,golf_course_302.jpg,golf_course_302.jpg,golf_course_302.jpg,0,A11246G6L1GMQB,28,male,8,2023-07-18_12h20.35.096,working,2022.2.4,Win32,8.185047555,,,left,2.3309,0,11,11,11,1,highway_293.jpg,1,highway,,,,,,,,,,,
,,,,,,,,,,golf_course_188.jpg,golf_course_188.jpg,golf_course_157.jpg,left,mountain_12.jpg,golf_course_188.jpg,bridge_124.jpg,highway_12.jpg,highway_12.jpg,highway_12.jpg,1,A11246G6L1GMQB,28,male,8,2023-07-18_12h20.35.096,working,2022.2.4,Win32,8.185047555,,,left,2.8404,0,12,12,12,1,golf_course_157.jpg,0,golf,,,,,,,,,,,
,,,,,,,,,,mountain_123.jpg,mountain_189.jpg,mountain_123.jpg,right,highway_402.jpg,golf_course_290.jpg,mountain_123.jpg,bridge_182.jpg,bridge_182.jpg,bridge_182.jpg,2,A11246G6L1GMQB,28,male,8,2023-07-18_12h20.35.096,working,2022.2.4,Win32,8.185047555,,,left,2.1139,0,13,13,13,1,mountain_189.jpg,1,mountain,,,,,,,,,,,
,,,,,,,,,,badlands_137.jpg,badlands_139.jpg,badlands_137.jpg,right,badlands_137.jpg,highway_227.jpg,playground_77.jpg,bridge_26.jpg,bridge_26.jpg,bridge_26.jpg,0,A11246G6L1GMQB,28,male,8,2023-07-18_12h20.35.096,working,2022.2.4,Win32,8.185047555,,,right,2.5362,0,14,14,14,1,badlands_139.jpg,1,badlands,,,,,,,,,,,
,,,,,,,,,,mountain_230.jpg,mountain_97.jpg,mountain_230.jpg,right,mountain_230.jpg,highway_179.jpg,playground_183.jpg,bridge_10.jpg,bridge_10.jpg,bridge_10.jpg,0,A11246G6L1GMQB,28,male,8,2023-07-18_12h20.35.096,working,2022.2.4,Win32,8.185047555,,,right,1.9713,0,15,15,15,1,mountain_97.jpg,1,mountain,,,,,,,,,,,
,,,,,,,,,,badlands_184.jpg,badlands_184.jpg,badlands_228.jpg,left,golf_course_57.jpg,bridge_132.jpg,badlands_184.jpg,playground_80.jpg,playground_80.jpg,playground_80.jpg,2,A11246G6L1GMQB,28,male,8,2023-07-18_12h20.35.096,working,2022.2.4,Win32,8.185047555,,,left,2.0992,0,16,16,16,1,badlands_228.jpg,0,badlands,,,,,,,,,,,
,,,,,,,,,,badlands_221.jpg,badlands_221.jpg,badlands_207.jpg,left,golf_course_204.jpg,badlands_221.jpg,mountain_235.jpg,bridge_19.jpg,bridge_19.jpg,bridge_19.jpg,1,A11246G6L1GMQB,28,male,8,2023-07-18_12h20.35.096,working,2022.2.4,Win32,8.185047555,,,left,2.6923,0,17,17,17,1,badlands_207.jpg,1,badlands,,,,,,,,,,,
,,,,,,,,,,bridge_256.jpg,bridge_54.jpg,bridge_256.jpg,right,playground_66.jpg,golf_course_60.jpg,bridge_256.jpg,highway_325.jpg,highway_325.jpg,highway_325.jpg,2,A11246G6L1GMQB,28,male,8,2023-07-18_12h20.35.096,working,2022.2.4,Win32,8.185047555,,,right,1.1877,0,18,18,18,1,bridge_54.jpg,0,bridge,,,,,,,,,,,
,,,,,,,,,,badlands_113.jpg,badlands_225.jpg,badlands_113.jpg,right,golf_course_173.jpg,badlands_113.jpg,playground_90.jpg,highway_146.jpg,highway_146.jpg,highway_146.jpg,1,A11246G6L1GMQB,28,male,8,2023-07-18_12h20.35.096,working,2022.2.4,Win32,8.185047555,,,right,6.908,0,19,19,19,1,badlands_225.jpg,0,badlands,,,,,,,,,,,
,,,,,,,,,,playground_219.jpg,playground_219.jpg,playground_21.jpg,left,bridge_169.jpg,playground_219.jpg,highway_319.jpg,badlands_210.jpg,badlands_210.jpg,badlands_210.jpg,1,A11246G6L1GMQB,28,male,8,2023-07-18_12h20.35.096,working,2022.2.4,Win32,8.185047555,,,right,2.2821,0,20,20,20,1,playground_21.jpg,0,playground,,,,,,,,,,,
,,,,,,,,,,highway_177.jpg,highway_278.jpg,highway_177.jpg,right,golf_course_316.jpg,highway_177.jpg,playground_41.jpg,bridge_162.jpg,bridge_162.jpg,bridge_162.jpg,1,A11246G6L1GMQB,28,male,8,2023-07-18_12h20.35.096,working,2022.2.4,Win32,8.185047555,,,right,2.4108,0,21,21,21,1,highway_278.jpg,1,highway,,,,,,,,,,,
,,,,,,,,,,golf_course_15.jpg,golf_course_113.jpg,golf_course_15.jpg,right,badlands_31.jpg,golf_course_15.jpg,bridge_257.jpg,mountain_199.jpg,mountain_199.jpg,mountain_199.jpg,1,A11246G6L1GMQB,28,male,8,2023-07-18_12h20.35.096,working,2022.2.4,Win32,8.185047555,,,right,1.8289,0,22,22,22,1,golf_course_113.jpg,0,golf,,,,,,,,,,,
,,,,,,,,,,bridge_191.jpg,bridge_75.jpg,bridge_191.jpg,right,playground_181.jpg,bridge_191.jpg,golf_course_152.jpg,mountain_104.jpg,mountain_104.jpg,mountain_104.jpg,1,A11246G6L1GMQB,28,male,8,2023-07-18_12h20.35.096,working,2022.2.4,Win32,8.185047555,,,right,1.6682,0,23,23,23,1,bridge_75.jpg,1,bridge,,,,,,,,,,,
,,,,,,,,,,mountain_293.jpg,mountain_47.jpg,mountain_293.jpg,right,golf_course_258.jpg,mountain_293.jpg,badlands_95.jpg,bridge_130.jpg,bridge_130.jpg,bridge_130.jpg,1,A11246G6L1GMQB,28,male,8,2023-07-18_12h20.35.096,working,2022.2.4,Win32,8.185047555,,,right,1.8135,0,24,24,24,1,mountain_47.jpg,1,mountain,,,,,,,,,,,
,,,,,,,,,,highway_359.jpg,highway_389.jpg,highway_359.jpg,right,badlands_174.jpg,playground_168.jpg,highway_359.jpg,mountain_115.jpg,mountain_115.jpg,mountain_115.jpg,2,A11246G6L1GMQB,28,male,8,2023-07-18_12h20.35.096,working,2022.2.4,Win32,8.185047555,,,left,2.4447,0,25,25,25,1,highway_389.jpg,0,highway,,,,,,,,,,,
,,,,,,,,,,badlands_70.jpg,badlands_119.jpg,badlands_70.jpg,right,bridge_218.jpg,badlands_70.jpg,golf_course_21.jpg,mountain_214.jpg,mountain_214.jpg,mountain_214.jpg,1,A11246G6L1GMQB,28,male,8,2023-07-18_12h20.35.096,working,2022.2.4,Win32,8.185047555,,,right,1.0853,0,26,26,26,1,badlands_119.jpg,1,badlands,,,,,,,,,,,
,,,,,,,,,,bridge_172.jpg,bridge_17.jpg,bridge_172.jpg,right,badlands_180.jpg,mountain_224.jpg,bridge_172.jpg,playground_13.jpg,playground_13.jpg,playground_13.jpg,2,A11246G6L1GMQB,28,male,8,2023-07-18_12h20.35.096,working,2022.2.4,Win32,8.185047555,,,right,0.9171,0,27,27,27,1,bridge_17.jpg,0,bridge,,,,,,,,,,,
,,,,,,,,,,badlands_24.jpg,badlands_3.jpg,badlands_24.jpg,right,playground_200.jpg,golf_course_320.jpg,badlands_24.jpg,mountain_91.jpg,mountain_91.jpg,mountain_91.jpg,2,A11246G6L1GMQB,28,male,8,2023-07-18_12h20.35.096,working,2022.2.4,Win32,8.185047555,,,right,3.4164,0,28,28,28,1,badlands_3.jpg,0,badlands,,,,,,,,,,,
,,,,,,,,,,highway_394.jpg,highway_394.jpg,highway_406.jpg,left,mountain_228.jpg,highway_394.jpg,bridge_80.jpg,badlands_226.jpg,badlands_226.jpg,badlands_226.jpg,1,A11246G6L1GMQB,28,male,8,2023-07-18_12h20.35.096,working,2022.2.4,Win32,8.185047555,,,left,1.6987,0,29,29,29,1,highway_406.jpg,1,highway,,,,,,,,,,,
,,,,,,,,,,playground_76.jpg,playground_22.jpg,playground_76.jpg,right,badlands_45.jpg,highway_117.jpg,playground_76.jpg,mountain_160.jpg,mountain_160.jpg,mountain_160.jpg,2,A11246G6L1GMQB,28,male,8,2023-07-18_12h20.35.096,working,2022.2.4,Win32,8.185047555,,,right,2.711,0,30,30,30,1,playground_22.jpg,0,playground,,,,,,,,,,,
,,,,,,,,,,golf_course_214.jpg,golf_course_317.jpg,golf_course_214.jpg,right,golf_course_214.jpg,playground_172.jpg,bridge_204.jpg,highway_11.jpg,highway_11.jpg,highway_11.jpg,0,A11246G6L1GMQB,28,male,8,2023-07-18_12h20.35.096,working,2022.2.4,Win32,8.185047555,,,right,1.8036,0,31,31,31,1,golf_course_317.jpg,1,golf,,,,,,,,,,,
,,,,,,,,,,playground_257.jpg,playground_257.jpg,playground_214.jpg,left,mountain_84.jpg,playground_257.jpg,badlands_13.jpg,golf_course_337.jpg,golf_course_337.jpg,golf_course_337.jpg,1,A11246G6L1GMQB,28,male,8,2023-07-18_12h20.35.096,working,2022.2.4,Win32,8.185047555,,,right,2.8248,0,32,32,32,1,playground_214.jpg,0,playground,,,,,,,,,,,
,,,,,,,,,,golf_course_217.jpg,golf_course_262.jpg,golf_course_217.jpg,right,playground_5.jpg,golf_course_217.jpg,highway_263.jpg,mountain_162.jpg,mountain_162.jpg,mountain_162.jpg,1,A11246G6L1GMQB,28,male,8,2023-07-18_12h20.35.096,working,2022.2.4,Win32,8.185047555,,,right,1.9911,0,33,33,33,1,golf_course_262.jpg,1,golf,,,,,,,,,,,
,,,,,,,,,,badlands_52.jpg,badlands_63.jpg,badlands_52.jpg,right,mountain_111.jpg,badlands_52.jpg,bridge_21.jpg,golf_course_185.jpg,golf_course_185.jpg,golf_course_185.jpg,1,A11246G6L1GMQB,28,male,8,2023-07-18_12h20.35.096,working,2022.2.4,Win32,8.185047555,,,left,2.4595,0,34,34,34,1,badlands_63.jpg,1,badlands,,,,,,,,,,,
,,,,,,,,,,mountain_101.jpg,mountain_171.jpg,mountain_101.jpg,right,mountain_101.jpg,golf_course_156.jpg,playground_264.jpg,highway_261.jpg,highway_261.jpg,highway_261.jpg,0,A11246G6L1GMQB,28,male,8,2023-07-18_12h20.35.096,working,2022.2.4,Win32,8.185047555,,,right,1.5678,0,35,35,35,1,mountain_171.jpg,0,mountain,,,,,,,,,,,
,,,,,,,,,,playground_117.jpg,playground_127.jpg,playground_117.jpg,right,playground_117.jpg,bridge_239.jpg,badlands_27.jpg,highway_331.jpg,highway_331.jpg,highway_331.jpg,0,A11246G6L1GMQB,28,male,8,2023-07-18_12h20.35.096,working,2022.2.4,Win32,8.185047555,,,right,2.1313,0,36,36,36,1,playground_127.jpg,1,playground,,,,,,,,,,,
,,,,,,,,,,playground_131.jpg,playground_43.jpg,playground_131.jpg,right,golf_course_1.jpg,mountain_233.jpg,playground_131.jpg,highway_147.jpg,highway_147.jpg,highway_147.jpg,2,A11246G6L1GMQB,28,male,8,2023-07-18_12h20.35.096,working,2022.2.4,Win32,8.185047555,,,right,1.0712,0,37,37,37,1,playground_43.jpg,0,playground,,,,,,,,,,,
,,,,,,,,,,golf_course_78.jpg,golf_course_134.jpg,golf_course_78.jpg,right,highway_342.jpg,badlands_104.jpg,golf_course_78.jpg,playground_70.jpg,playground_70.jpg,playground_70.jpg,2,A11246G6L1GMQB,28,male,8,2023-07-18_12h20.35.096,working,2022.2.4,Win32,8.185047555,,,left,2.2443,0,38,38,38,1,golf_course_134.jpg,0,golf,,,,,,,,,,,
,,,,,,,,,,golf_course_195.jpg,golf_course_25.jpg,golf_course_195.jpg,right,highway_149.jpg,bridge_18.jpg,golf_course_195.jpg,playground_124.jpg,playground_124.jpg,playground_124.jpg,2,A11246G6L1GMQB,28,male,8,2023-07-18_12h20.35.096,working,2022.2.4,Win32,8.185047555,,,right,1.9497,0,39,39,39,1,golf_course_25.jpg,0,golf,,,,,,,,,,,
,,,,,,,,,,bridge_146.jpg,bridge_121.jpg,bridge_146.jpg,right,bridge_146.jpg,mountain_107.jpg,badlands_99.jpg,golf_course_319.jpg,golf_course_319.jpg,golf_course_319.jpg,0,A11246G6L1GMQB,28,male,8,2023-07-18_12h20.35.096,working,2022.2.4,Win32,8.185047555,,,right,2.097,0,40,40,40,1,bridge_121.jpg,1,bridge,,,,,,,,,,,
,,,,,,,,,,highway_245.jpg,highway_245.jpg,highway_206.jpg,left,bridge_263.jpg,highway_245.jpg,mountain_21.jpg,playground_123.jpg,playground_123.jpg,playground_123.jpg,1,A11246G6L1GMQB,28,male,8,2023-07-18_12h20.35.096,working,2022.2.4,Win32,8.185047555,,,right,1.6061,0,41,41,41,1,highway_206.jpg,1,highway,,,,,,,,,,,
,,,,,,,,,,golf_course_193.jpg,golf_course_193.jpg,golf_course_123.jpg,left,golf_course_193.jpg,highway_13.jpg,bridge_123.jpg,mountain_202.jpg,mountain_202.jpg,mountain_202.jpg,0,A11246G6L1GMQB,28,male,8,2023-07-18_12h20.35.096,working,2022.2.4,Win32,8.185047555,,,right,1.5038,0,42,42,42,1,golf_course_123.jpg,1,golf,,,,,,,,,,,
,,,,,,,,,,playground_240.jpg,playground_40.jpg,playground_240.jpg,right,playground_240.jpg,highway_166.jpg,badlands_130.jpg,bridge_259.jpg,bridge_259.jpg,bridge_259.jpg,0,A11246G6L1GMQB,28,male,8,2023-07-18_12h20.35.096,working,2022.2.4,Win32,8.185047555,,,right,1.2002,0,43,43,43,1,playground_40.jpg,1,playground,,,,,,,,,,,
,,,,,,,,,,badlands_23.jpg,badlands_101.jpg,badlands_23.jpg,right,bridge_238.jpg,badlands_23.jpg,mountain_179.jpg,golf_course_325.jpg,golf_course_325.jpg,golf_course_325.jpg,1,A11246G6L1GMQB,28,male,8,2023-07-18_12h20.35.096,working,2022.2.4,Win32,8.185047555,,,right,1.7874,0,44,44,44,1,badlands_101.jpg,1,badlands,,,,,,,,,,,
,,,,,,,,,,badlands_222.jpg,badlands_34.jpg,badlands_222.jpg,right,badlands_222.jpg,bridge_103.jpg,playground_6.jpg,mountain_4.jpg,mountain_4.jpg,mountain_4.jpg,0,A11246G6L1GMQB,28,male,8,2023-07-18_12h20.35.096,working,2022.2.4,Win32,8.185047555,,,left,2.79,0,45,45,45,1,badlands_34.jpg,0,badlands,,,,,,,,,,,
,,,,,,,,,,highway_415.jpg,highway_415.jpg,highway_60.jpg,left,mountain_296.jpg,highway_415.jpg,golf_course_206.jpg,badlands_38.jpg,badlands_38.jpg,badlands_38.jpg,1,A11246G6L1GMQB,28,male,8,2023-07-18_12h20.35.096,working,2022.2.4,Win32,8.185047555,,,right,1.5153,0,46,46,46,1,highway_60.jpg,0,highway,,,,,,,,,,,
,,,,,,,,,,mountain_57.jpg,mountain_138.jpg,mountain_57.jpg,right,playground_209.jpg,bridge_230.jpg,mountain_57.jpg,golf_course_122.jpg,golf_course_122.jpg,golf_course_122.jpg,2,A11246G6L1GMQB,28,male,8,2023-07-18_12h20.35.096,working,2022.2.4,Win32,8.185047555,,,right,1.0842,0,47,47,47,1,mountain_138.jpg,1,mountain,,,,,,,,,,,
,,,,,,,,,,mountain_110.jpg,mountain_110.jpg,mountain_223.jpg,left,golf_course_46.jpg,playground_235.jpg,mountain_110.jpg,badlands_186.jpg,badlands_186.jpg,badlands_186.jpg,2,A11246G6L1GMQB,28,male,8,2023-07-18_12h20.35.096,working,2022.2.4,Win32,8.185047555,,,right,2.9975,0,48,48,48,1,mountain_223.jpg,1,mountain,,,,,,,,,,,
,,,,,,,,,,golf_course_87.jpg,golf_course_87.jpg,golf_course_161.jpg,left,golf_course_87.jpg,badlands_59.jpg,highway_234.jpg,mountain_292.jpg,mountain_292.jpg,mountain_292.jpg,0,A11246G6L1GMQB,28,male,8,2023-07-18_12h20.35.096,working,2022.2.4,Win32,8.185047555,,,left,3.3259,0,49,49,49,1,golf_course_161.jpg,1,golf,,,,,,,,,,,
,,,,,,,,,,mountain_156.jpg,mountain_156.jpg,mountain_295.jpg,left,badlands_108.jpg,mountain_156.jpg,bridge_179.jpg,highway_23.jpg,highway_23.jpg,highway_23.jpg,1,A11246G6L1GMQB,28,male,8,2023-07-18_12h20.35.096,working,2022.2.4,Win32,8.185047555,,,right,1.2042,0,50,50,50,1,mountain_295.jpg,1,mountain,,,,,,,,,,,
,,,,,,,,,,playground_10.jpg,playground_122.jpg,playground_10.jpg,right,badlands_30.jpg,playground_10.jpg,highway_398.jpg,mountain_44.jpg,mountain_44.jpg,mountain_44.jpg,1,A11246G6L1GMQB,28,male,8,2023-07-18_12h20.35.096,working,2022.2.4,Win32,8.185047555,,,left,1.6471,0,51,51,51,1,playground_122.jpg,0,playground,,,,,,,,,,,
,,,,,,,,,,badlands_21.jpg,badlands_21.jpg,badlands_1.jpg,left,highway_249.jpg,badlands_21.jpg,playground_7.jpg,mountain_68.jpg,mountain_68.jpg,mountain_68.jpg,1,A11246G6L1GMQB,28,male,8,2023-07-18_12h20.35.096,working,2022.2.4,Win32,8.185047555,,,right,1.9695,0,52,52,52,1,badlands_1.jpg,0,badlands,,,,,,,,,,,
,,,,,,,,,,golf_course_309.jpg,golf_course_16.jpg,golf_course_309.jpg,right,mountain_212.jpg,highway_357.jpg,golf_course_309.jpg,badlands_149.jpg,badlands_149.jpg,badlands_149.jpg,2,A11246G6L1GMQB,28,male,8,2023-07-18_12h20.35.096,working,2022.2.4,Win32,8.185047555,,,right,4.0165,0,53,53,53,1,golf_course_16.jpg,0,golf,,,,,,,,,,,
,,,,,,,,,,bridge_108.jpg,bridge_148.jpg,bridge_108.jpg,right,highway_75.jpg,mountain_301.jpg,bridge_108.jpg,badlands_177.jpg,badlands_177.jpg,badlands_177.jpg,2,A11246G6L1GMQB,28,male,8,2023-07-18_12h20.35.096,working,2022.2.4,Win32,8.185047555,,,right,1.1999,0,54,54,54,1,bridge_148.jpg,1,bridge,,,,,,,,,,,
,,,,,,,,,,highway_93.jpg,highway_369.jpg,highway_93.jpg,right,playground_178.jpg,highway_93.jpg,mountain_71.jpg,bridge_264.jpg,bridge_264.jpg,bridge_264.jpg,1,A11246G6L1GMQB,28,male,8,2023-07-18_12h20.35.096,working,2022.2.4,Win32,8.185047555,,,right,1.4862,0,55,55,55,1,highway_369.jpg,1,highway,,,,,,,,,,,
,,,,,,,,,,mountain_222.jpg,mountain_244.jpg,mountain_222.jpg,right,golf_course_229.jpg,mountain_222.jpg,badlands_100.jpg,bridge_64.jpg,bridge_64.jpg,bridge_64.jpg,1,A11246G6L1GMQB,28,male,8,2023-07-18_12h20.35.096,working,2022.2.4,Win32,8.185047555,,,left,1.6263,0,56,56,56,1,mountain_244.jpg,0,mountain,,,,,,,,,,,
,,,,,,,,,,bridge_202.jpg,bridge_202.jpg,bridge_38.jpg,left,golf_course_33.jpg,bridge_202.jpg,mountain_34.jpg,playground_173.jpg,playground_173.jpg,playground_173.jpg,1,A11246G6L1GMQB,28,male,8,2023-07-18_12h20.35.096,working,2022.2.4,Win32,8.185047555,,,left,3.5342,0,57,57,57,1,bridge_38.jpg,1,bridge,,,,,,,,,,,
,,,,,,,,,,mountain_232.jpg,mountain_232.jpg,mountain_3.jpg,left,golf_course_88.jpg,badlands_220.jpg,mountain_232.jpg,highway_37.jpg,highway_37.jpg,highway_37.jpg,2,A11246G6L1GMQB,28,male,8,2023-07-18_12h20.35.096,working,2022.2.4,Win32,8.185047555,,,left,1.9237,0,58,58,58,1,mountain_3.jpg,0,mountain,,,,,,,,,,,
,,,,,,,,,,bridge_128.jpg,bridge_61.jpg,bridge_128.jpg,right,bridge_128.jpg,playground_3.jpg,badlands_153.jpg,mountain_307.jpg,mountain_307.jpg,mountain_307.jpg,0,A11246G6L1GMQB,28,male,8,2023-07-18_12h20.35.096,working,2022.2.4,Win32,8.185047555,,,right,2.0446,0,59,59,59,1,bridge_61.jpg,0,bridge,,,,,,,,,,,
,,,,,,,,,,playground_60.jpg,playground_60.jpg,playground_268.jpg,left,highway_333.jpg,playground_60.jpg,bridge_49.jpg,golf_course_223.jpg,golf_course_223.jpg,golf_course_223.jpg,1,A11246G6L1GMQB,28,male,8,2023-07-18_12h20.35.096,working,2022.2.4,Win32,8.185047555,,,,,,,,,,playground_268.jpg,0,playground,space,6.5697,1.005284016,13.4511,0,0,0,0,1,,
,,,,,,,,,,playground_144.jpg,playground_137.jpg,playground_144.jpg,right,bridge_120.jpg,playground_144.jpg,badlands_54.jpg,mountain_66.jpg,mountain_66.jpg,mountain_66.jpg,1,A11246G6L1GMQB,28,male,8,2023-07-18_12h20.35.096,working,2022.2.4,Win32,8.185047555,,,,,,,,,,playground_137.jpg,0,playground,,,1.322324967,14.271,0,1,1,1,1,,
,,,,,,,,,,highway_209.jpg,highway_314.jpg,highway_209.jpg,right,bridge_251.jpg,highway_209.jpg,badlands_176.jpg,playground_241.jpg,playground_241.jpg,playground_241.jpg,1,A11246G6L1GMQB,28,male,8,2023-07-18_12h20.35.096,working,2022.2.4,Win32,8.185047555,,,,,,,,,,highway_314.jpg,0,highway,,,1.332892999,0.3158,0,2,2,2,1,,
,,,,,,,,,,highway_273.jpg,highway_273.jpg,highway_171.jpg,left,playground_193.jpg,badlands_58.jpg,highway_273.jpg,bridge_9.jpg,bridge_9.jpg,bridge_9.jpg,2,A11246G6L1GMQB,28,male,8,2023-07-18_12h20.35.096,working,2022.2.4,Win32,8.185047555,,,,,,,,,,highway_171.jpg,1,highway,,,1.597093791,5.9283,0,3,3,3,1,,
,,,,,,,,,,mountain_154.jpg,mountain_154.jpg,mountain_95.jpg,left,playground_46.jpg,mountain_154.jpg,highway_114.jpg,bridge_177.jpg,bridge_177.jpg,bridge_177.jpg,1,A11246G6L1GMQB,28,male,8,2023-07-18_12h20.35.096,working,2022.2.4,Win32,8.185047555,,,,,,,,,,mountain_95.jpg,1,mountain,,,4.5667107,5.401,0,4,4,4,1,,
,,,,,,,,,,bridge_250.jpg,bridge_134.jpg,bridge_250.jpg,right,highway_99.jpg,badlands_200.jpg,bridge_250.jpg,golf_course_43.jpg,golf_course_43.jpg,golf_course_43.jpg,2,A11246G6L1GMQB,28,male,8,2023-07-18_12h20.35.096,working,2022.2.4,Win32,8.185047555,,,,,,,,,,bridge_134.jpg,0,bridge,,,4.1334214,5.0633,0,5,5,5,1,,
,,,,,,,,,,bridge_65.jpg,bridge_60.jpg,bridge_65.jpg,right,mountain_166.jpg,golf_course_198.jpg,bridge_65.jpg,highway_175.jpg,highway_175.jpg,highway_175.jpg,2,A11246G6L1GMQB,28,male,8,2023-07-18_12h20.35.096,working,2022.2.4,Win32,8.185047555,,,,,,,,,,bridge_60.jpg,1,bridge,,,4.249669749,3.2479,0,6,6,6,1,,
,,,,,,,,,,golf_course_331.jpg,golf_course_114.jpg,golf_course_331.jpg,right,golf_course_331.jpg,playground_158.jpg,highway_336.jpg,badlands_166.jpg,badlands_166.jpg,badlands_166.jpg,0,A11246G6L1GMQB,28,male,8,2023-07-18_12h20.35.096,working,2022.2.4,Win32,8.185047555,,,,,,,,,,golf_course_114.jpg,0,golf,,,6.849405548,3.1784,0,7,7,7,1,,
,,,,,,,,,,bridge_91.jpg,bridge_253.jpg,bridge_91.jpg,right,bridge_91.jpg,golf_course_42.jpg,playground_42.jpg,badlands_193.jpg,badlands_193.jpg,badlands_193.jpg,0,A11246G6L1GMQB,28,male,8,2023-07-18_12h20.35.096,working,2022.2.4,Win32,8.185047555,,,,,,,,,,bridge_253.jpg,0,bridge,,,3.20343461,3.5756,0,8,8,8,1,,
,,,,,,,,,,highway_294.jpg,highway_294.jpg,highway_368.jpg,left,playground_95.jpg,highway_294.jpg,mountain_15.jpg,golf_course_52.jpg,golf_course_52.jpg,golf_course_52.jpg,1,A11246G6L1GMQB,28,male,8,2023-07-18_12h20.35.096,working,2022.2.4,Win32,8.185047555,,,,,,,,,,highway_368.jpg,1,highway,,,6.500660502,3.4502,0,9,9,9,1,,
,,,,,,,,,,playground_145.jpg,playground_145.jpg,playground_229.jpg,left,golf_course_321.jpg,playground_145.jpg,bridge_78.jpg,badlands_142.jpg,badlands_142.jpg,badlands_142.jpg,1,A11246G6L1GMQB,28,male,8,2023-07-18_12h20.35.096,working,2022.2.4,Win32,8.185047555,,,,,,,,,,playground_229.jpg,0,playground,,,3.372523118,7.356,0,10,10,10,1,,
,,,,,,,,,,highway_156.jpg,highway_156.jpg,highway_293.jpg,left,highway_156.jpg,playground_54.jpg,bridge_158.jpg,golf_course_302.jpg,golf_course_302.jpg,golf_course_302.jpg,0,A11246G6L1GMQB,28,male,8,2023-07-18_12h20.35.096,working,2022.2.4,Win32,8.185047555,,,,,,,,,,highway_293.jpg,1,highway,,,6.236459709,3.7449,0,11,11,11,1,,
,,,,,,,,,,golf_course_188.jpg,golf_course_188.jpg,golf_course_157.jpg,left,mountain_12.jpg,golf_course_188.jpg,bridge_124.jpg,highway_12.jpg,highway_12.jpg,highway_12.jpg,1,A11246G6L1GMQB,28,male,8,2023-07-18_12h20.35.096,working,2022.2.4,Win32,8.185047555,,,,,,,,,,golf_course_157.jpg,0,golf,,,2.590488771,5.643,0,12,12,12,1,,
,,,,,,,,,,mountain_123.jpg,mountain_189.jpg,mountain_123.jpg,right,highway_402.jpg,golf_course_290.jpg,mountain_123.jpg,bridge_182.jpg,bridge_182.jpg,bridge_182.jpg,2,A11246G6L1GMQB,28,male,8,2023-07-18_12h20.35.096,working,2022.2.4,Win32,8.185047555,,,,,,,,,,mountain_189.jpg,1,mountain,,,7.303830911,3.1782,0,13,13,13,1,,
,,,,,,,,,,badlands_137.jpg,badlands_139.jpg,badlands_137.jpg,right,badlands_137.jpg,highway_227.jpg,playground_77.jpg,bridge_26.jpg,bridge_26.jpg,bridge_26.jpg,0,A11246G6L1GMQB,28,male,8,2023-07-18_12h20.35.096,working,2022.2.4,Win32,8.185047555,,,,,,,,,,badlands_139.jpg,1,badlands,,,3.50990753,3.5368,0,14,14,14,1,,
,,,,,,,,,,mountain_230.jpg,mountain_97.jpg,mountain_230.jpg,right,mountain_230.jpg,highway_179.jpg,playground_183.jpg,bridge_10.jpg,bridge_10.jpg,bridge_10.jpg,0,A11246G6L1GMQB,28,male,8,2023-07-18_12h20.35.096,working,2022.2.4,Win32,8.185047555,,,,,,,,,,mountain_97.jpg,1,mountain,,,7.642007926,2.8172,0,15,15,15,1,,
,,,,,,,,,,badlands_184.jpg,badlands_184.jpg,badlands_228.jpg,left,golf_course_57.jpg,bridge_132.jpg,badlands_184.jpg,playground_80.jpg,playground_80.jpg,playground_80.jpg,2,A11246G6L1GMQB,28,male,8,2023-07-18_12h20.35.096,working,2022.2.4,Win32,8.185047555,,,,,,,,,,badlands_228.jpg,0,badlands,,,8.476882431,3.4865,0,16,16,16,1,,
,,,,,,,,,,badlands_221.jpg,badlands_221.jpg,badlands_207.jpg,left,golf_course_204.jpg,badlands_221.jpg,mountain_235.jpg,bridge_19.jpg,bridge_19.jpg,bridge_19.jpg,1,A11246G6L1GMQB,28,male,8,2023-07-18_12h20.35.096,working,2022.2.4,Win32,8.185047555,,,,,,,,,,badlands_207.jpg,1,badlands,,,1.089828269,4.3261,0,17,17,17,1,,
,,,,,,,,,,bridge_256.jpg,bridge_54.jpg,bridge_256.jpg,right,playground_66.jpg,golf_course_60.jpg,bridge_256.jpg,highway_325.jpg,highway_325.jpg,highway_325.jpg,2,A11246G6L1GMQB,28,male,8,2023-07-18_12h20.35.096,working,2022.2.4,Win32,8.185047555,,,,,,,,,,bridge_54.jpg,0,bridge,,,4.513870542,8.4263,0,18,18,18,1,,
,,,,,,,,,,badlands_113.jpg,badlands_225.jpg,badlands_113.jpg,right,golf_course_173.jpg,badlands_113.jpg,playground_90.jpg,highway_146.jpg,highway_146.jpg,highway_146.jpg,1,A11246G6L1GMQB,28,male,8,2023-07-18_12h20.35.096,working,2022.2.4,Win32,8.185047555,,,,,,,,,,badlands_225.jpg,0,badlands,,,7.29326288,2.5315,0,19,19,19,1,,
,,,,,,,,,,playground_219.jpg,playground_219.jpg,playground_21.jpg,left,bridge_169.jpg,playground_219.jpg,highway_319.jpg,badlands_210.jpg,badlands_210.jpg,badlands_210.jpg,1,A11246G6L1GMQB,28,male,8,2023-07-18_12h20.35.096,working,2022.2.4,Win32,8.185047555,,,,,,,,,,playground_21.jpg,0,playground,,,4.323645971,7.2481,0,20,20,20,1,,
,,,,,,,,,,highway_177.jpg,highway_278.jpg,highway_177.jpg,right,golf_course_316.jpg,highway_177.jpg,playground_41.jpg,bridge_162.jpg,bridge_162.jpg,bridge_162.jpg,1,A11246G6L1GMQB,28,male,8,2023-07-18_12h20.35.096,working,2022.2.4,Win32,8.185047555,,,,,,,,,,highway_278.jpg,1,highway,,,5.4332893,4.4973,0,21,21,21,1,,
,,,,,,,,,,golf_course_15.jpg,golf_course_113.jpg,golf_course_15.jpg,right,badlands_31.jpg,golf_course_15.jpg,bridge_257.jpg,mountain_199.jpg,mountain_199.jpg,mountain_199.jpg,1,A11246G6L1GMQB,28,male,8,2023-07-18_12h20.35.096,working,2022.2.4,Win32,8.185047555,,,,,,,,,,golf_course_113.jpg,0,golf,,,2.833553501,3.8668,0,22,22,22,1,,
,,,,,,,,,,bridge_191.jpg,bridge_75.jpg,bridge_191.jpg,right,playground_181.jpg,bridge_191.jpg,golf_course_152.jpg,mountain_104.jpg,mountain_104.jpg,mountain_104.jpg,1,A11246G6L1GMQB,28,male,8,2023-07-18_12h20.35.096,working,2022.2.4,Win32,8.185047555,,,,,,,,,,bridge_75.jpg,1,bridge,,,2.928665786,0.6078,0,23,23,23,1,,
,,,,,,,,,,mountain_293.jpg,mountain_47.jpg,mountain_293.jpg,right,golf_course_258.jpg,mountain_293.jpg,badlands_95.jpg,bridge_130.jpg,bridge_130.jpg,bridge_130.jpg,1,A11246G6L1GMQB,28,male,8,2023-07-18_12h20.35.096,working,2022.2.4,Win32,8.185047555,,,,,,,,,,mountain_47.jpg,1,mountain,,,7.568031704,2.8246,0,24,24,24,1,,
,,,,,,,,,,highway_359.jpg,highway_389.jpg,highway_359.jpg,right,badlands_174.jpg,playground_168.jpg,highway_359.jpg,mountain_115.jpg,mountain_115.jpg,mountain_115.jpg,2,A11246G6L1GMQB,28,male,8,2023-07-18_12h20.35.096,working,2022.2.4,Win32,8.185047555,,,,,,,,,,highway_389.jpg,0,highway,,,7.568031704,0.7614,0,25,25,25,1,,
,,,,,,,,,,badlands_70.jpg,badlands_119.jpg,badlands_70.jpg,right,bridge_218.jpg,badlands_70.jpg,golf_course_21.jpg,mountain_214.jpg,mountain_214.jpg,mountain_214.jpg,1,A11246G6L1GMQB,28,male,8,2023-07-18_12h20.35.096,working,2022.2.4,Win32,8.185047555,,,,,,,,,,badlands_119.jpg,1,badlands,,,6.616908851,1.9425,0,26,26,26,1,,
,,,,,,,,,,bridge_172.jpg,bridge_17.jpg,bridge_172.jpg,right,badlands_180.jpg,mountain_224.jpg,bridge_172.jpg,playground_13.jpg,playground_13.jpg,playground_13.jpg,2,A11246G6L1GMQB,28,male,8,2023-07-18_12h20.35.096,working,2022.2.4,Win32,8.185047555,,,,,,,,,,bridge_17.jpg,0,bridge,,,1.142668428,4.1635,0,27,27,27,1,,
,,,,,,,,,,badlands_24.jpg,badlands_3.jpg,badlands_24.jpg,right,playground_200.jpg,golf_course_320.jpg,badlands_24.jpg,mountain_91.jpg,mountain_91.jpg,mountain_91.jpg,2,A11246G6L1GMQB,28,male,8,2023-07-18_12h20.35.096,working,2022.2.4,Win32,8.185047555,,,,,,,,,,badlands_3.jpg,0,badlands,,,1.089828269,4.041,0,28,28,28,1,,
,,,,,,,,,,highway_394.jpg,highway_394.jpg,highway_406.jpg,left,mountain_228.jpg,highway_394.jpg,bridge_80.jpg,badlands_226.jpg,badlands_226.jpg,badlands_226.jpg,1,A11246G6L1GMQB,28,male,8,2023-07-18_12h20.35.096,working,2022.2.4,Win32,8.185047555,,,,,,,,,,highway_406.jpg,1,highway,,,6.479524439,3.15,0,29,29,29,1,,
,,,,,,,,,,playground_76.jpg,playground_22.jpg,playground_76.jpg,right,badlands_45.jpg,highway_117.jpg,playground_76.jpg,mountain_160.jpg,mountain_160.jpg,mountain_160.jpg,2,A11246G6L1GMQB,28,male,8,2023-07-18_12h20.35.096,working,2022.2.4,Win32,8.185047555,,,,,,,,,,playground_22.jpg,0,playground,,,4.714663144,4.2728,0,30,30,30,1,,
,,,,,,,,,,golf_course_214.jpg,golf_course_317.jpg,golf_course_214.jpg,right,golf_course_214.jpg,playground_172.jpg,bridge_204.jpg,highway_11.jpg,highway_11.jpg,highway_11.jpg,0,A11246G6L1GMQB,28,male,8,2023-07-18_12h20.35.096,working,2022.2.4,Win32,8.185047555,,,,,,,,,,golf_course_317.jpg,1,golf,,,8.28665786,2.8734,0,31,31,31,1,,
,,,,,,,,,,playground_257.jpg,playground_257.jpg,playground_214.jpg,left,mountain_84.jpg,playground_257.jpg,badlands_13.jpg,golf_course_337.jpg,golf_course_337.jpg,golf_course_337.jpg,1,A11246G6L1GMQB,28,male,8,2023-07-18_12h20.35.096,working,2022.2.4,Win32,8.185047555,,,,,,,,,,playground_214.jpg,0,playground,,,3.182298547,3.2688,0,32,32,32,1,,
,,,,,,,,,,golf_course_217.jpg,golf_course_262.jpg,golf_course_217.jpg,right,playground_5.jpg,golf_course_217.jpg,highway_263.jpg,mountain_162.jpg,mountain_162.jpg,mountain_162.jpg,1,A11246G6L1GMQB,28,male,8,2023-07-18_12h20.35.096,working,2022.2.4,Win32,8.185047555,,,,,,,,,,golf_course_262.jpg,1,golf,,,3.235138705,3.7558,0,33,33,33,1,,
,,,,,,,,,,badlands_52.jpg,badlands_63.jpg,badlands_52.jpg,right,mountain_111.jpg,badlands_52.jpg,bridge_21.jpg,golf_course_185.jpg,golf_course_185.jpg,golf_course_185.jpg,1,A11246G6L1GMQB,28,male,8,2023-07-18_12h20.35.096,working,2022.2.4,Win32,8.185047555,,,,,,,,,,badlands_63.jpg,1,badlands,,,7.29326288,2.5784,0,34,34,34,1,,
,,,,,,,,,,mountain_101.jpg,mountain_171.jpg,mountain_101.jpg,right,mountain_101.jpg,golf_course_156.jpg,playground_264.jpg,highway_261.jpg,highway_261.jpg,highway_261.jpg,0,A11246G6L1GMQB,28,male,8,2023-07-18_12h20.35.096,working,2022.2.4,Win32,8.185047555,,,,,,,,,,mountain_171.jpg,0,mountain,,,6.722589168,2.1214,0,35,35,35,1,,
,,,,,,,,,,playground_117.jpg,playground_127.jpg,playground_117.jpg,right,playground_117.jpg,bridge_239.jpg,badlands_27.jpg,highway_331.jpg,highway_331.jpg,highway_331.jpg,0,A11246G6L1GMQB,28,male,8,2023-07-18_12h20.35.096,working,2022.2.4,Win32,8.185047555,,,,,,,,,,playground_127.jpg,1,playground,,,3.340819022,2.6827,0,36,36,36,1,,
,,,,,,,,,,playground_131.jpg,playground_43.jpg,playground_131.jpg,right,golf_course_1.jpg,mountain_233.jpg,playground_131.jpg,highway_147.jpg,highway_147.jpg,highway_147.jpg,2,A11246G6L1GMQB,28,male,8,2023-07-18_12h20.35.096,working,2022.2.4,Win32,8.185047555,,,,,,,,,,playground_43.jpg,0,playground,,,3.467635403,3.169,0,37,37,37,1,,
,,,,,,,,,,golf_course_78.jpg,golf_course_134.jpg,golf_course_78.jpg,right,highway_342.jpg,badlands_104.jpg,golf_course_78.jpg,playground_70.jpg,playground_70.jpg,playground_70.jpg,2,A11246G6L1GMQB,28,male,8,2023-07-18_12h20.35.096,working,2022.2.4,Win32,8.185047555,,,,,,,,,,golf_course_134.jpg,0,golf,,,7.35667107,3.4343,0,38,38,38,1,,
,,,,,,,,,,golf_course_195.jpg,golf_course_25.jpg,golf_course_195.jpg,right,highway_149.jpg,bridge_18.jpg,golf_course_195.jpg,playground_124.jpg,playground_124.jpg,playground_124.jpg,2,A11246G6L1GMQB,28,male,8,2023-07-18_12h20.35.096,working,2022.2.4,Win32,8.185047555,,,,,,,,,,golf_course_25.jpg,0,golf,,,3.002642008,4.0244,0,39,39,39,1,,
,,,,,,,,,,bridge_146.jpg,bridge_121.jpg,bridge_146.jpg,right,bridge_146.jpg,mountain_107.jpg,badlands_99.jpg,golf_course_319.jpg,golf_course_319.jpg,golf_course_319.jpg,0,A11246G6L1GMQB,28,male,8,2023-07-18_12h20.35.096,working,2022.2.4,Win32,8.185047555,,,,,,,,,,bridge_121.jpg,1,bridge,,,5.010568032,3.3233,0,40,40,40,1,,
,,,,,,,,,,highway_245.jpg,highway_245.jpg,highway_206.jpg,left,bridge_263.jpg,highway_245.jpg,mountain_21.jpg,playground_123.jpg,playground_123.jpg,playground_123.jpg,1,A11246G6L1GMQB,28,male,8,2023-07-18_12h20.35.096,working,2022.2.4,Win32,8.185047555,,,,,,,,,,highway_206.jpg,1,highway,,,2.759577279,5.7768,0,41,41,41,1,,
,,,,,,,,,,golf_course_193.jpg,golf_course_193.jpg,golf_course_123.jpg,left,golf_course_193.jpg,highway_13.jpg,bridge_123.jpg,mountain_202.jpg,mountain_202.jpg,mountain_202.jpg,0,A11246G6L1GMQB,28,male,8,2023-07-18_12h20.35.096,working,2022.2.4,Win32,8.185047555,,,,,,,,,,golf_course_123.jpg,1,golf,,,6.616908851,3.6118,0,42,42,42,1,,
,,,,,,,,,,playground_240.jpg,playground_40.jpg,playground_240.jpg,right,playground_240.jpg,highway_166.jpg,badlands_130.jpg,bridge_259.jpg,bridge_259.jpg,bridge_259.jpg,0,A11246G6L1GMQB,28,male,8,2023-07-18_12h20.35.096,working,2022.2.4,Win32,8.185047555,,,,,,,,,,playground_40.jpg,1,playground,,,3.7001321,2.2879,0,43,43,43,1,,
,,,,,,,,,,badlands_23.jpg,badlands_101.jpg,badlands_23.jpg,right,bridge_238.jpg,badlands_23.jpg,mountain_179.jpg,golf_course_325.jpg,golf_course_325.jpg,golf_course_325.jpg,1,A11246G6L1GMQB,28,male,8,2023-07-18_12h20.35.096,working,2022.2.4,Win32,8.185047555,,,,,,,,,,badlands_101.jpg,1,badlands,,,4.249669749,4.6697,0,44,44,44,1,,
,,,,,,,,,,badlands_222.jpg,badlands_34.jpg,badlands_222.jpg,right,badlands_222.jpg,bridge_103.jpg,playground_6.jpg,mountain_4.jpg,mountain_4.jpg,mountain_4.jpg,0,A11246G6L1GMQB,28,male,8,2023-07-18_12h20.35.096,working,2022.2.4,Win32,8.185047555,,,,,,,,,,badlands_34.jpg,0,badlands,,,6.2998679,2.2679,0,45,45,45,1,,
,,,,,,,,,,highway_415.jpg,highway_415.jpg,highway_60.jpg,left,mountain_296.jpg,highway_415.jpg,golf_course_206.jpg,badlands_38.jpg,badlands_38.jpg,badlands_38.jpg,1,A11246G6L1GMQB,28,male,8,2023-07-18_12h20.35.096,working,2022.2.4,Win32,8.185047555,,,,,,,,,,highway_60.jpg,0,highway,,,5.116248349,2.079,0,46,46,46,1,,
,,,,,,,,,,mountain_57.jpg,mountain_138.jpg,mountain_57.jpg,right,playground_209.jpg,bridge_230.jpg,mountain_57.jpg,golf_course_122.jpg,golf_course_122.jpg,golf_course_122.jpg,2,A11246G6L1GMQB,28,male,8,2023-07-18_12h20.35.096,working,2022.2.4,Win32,8.185047555,,,,,,,,,,mountain_138.jpg,1,mountain,,,4.122853369,3.4817,0,47,47,47,1,,
,,,,,,,,,,mountain_110.jpg,mountain_110.jpg,mountain_223.jpg,left,golf_course_46.jpg,playground_235.jpg,mountain_110.jpg,badlands_186.jpg,badlands_186.jpg,badlands_186.jpg,2,A11246G6L1GMQB,28,male,8,2023-07-18_12h20.35.096,working,2022.2.4,Win32,8.185047555,,,,,,,,,,mountain_223.jpg,1,mountain,,,7.546895641,4.0501,0,48,48,48,1,,
,,,,,,,,,,golf_course_87.jpg,golf_course_87.jpg,golf_course_161.jpg,left,golf_course_87.jpg,badlands_59.jpg,highway_234.jpg,mountain_292.jpg,mountain_292.jpg,mountain_292.jpg,0,A11246G6L1GMQB,28,male,8,2023-07-18_12h20.35.096,working,2022.2.4,Win32,8.185047555,,,,,,,,,,golf_course_161.jpg,1,golf,,,4.524438573,3.0196,0,49,49,49,1,,
,,,,,,,,,,mountain_156.jpg,mountain_156.jpg,mountain_295.jpg,left,badlands_108.jpg,mountain_156.jpg,bridge_179.jpg,highway_23.jpg,highway_23.jpg,highway_23.jpg,1,A11246G6L1GMQB,28,male,8,2023-07-18_12h20.35.096,working,2022.2.4,Win32,8.185047555,,,,,,,,,,mountain_295.jpg,1,mountain,,,5.4332893,3.3725,0,50,50,50,1,,
,,,,,,,,,,playground_10.jpg,playground_122.jpg,playground_10.jpg,right,badlands_30.jpg,playground_10.jpg,highway_398.jpg,mountain_44.jpg,mountain_44.jpg,mountain_44.jpg,1,A11246G6L1GMQB,28,male,8,2023-07-18_12h20.35.096,working,2022.2.4,Win32,8.185047555,,,,,,,,,,playground_122.jpg,0,playground,,,3.235138705,3.0784,0,51,51,51,1,,
,,,,,,,,,,badlands_21.jpg,badlands_21.jpg,badlands_1.jpg,left,highway_249.jpg,badlands_21.jpg,playground_7.jpg,mountain_68.jpg,mountain_68.jpg,mountain_68.jpg,1,A11246G6L1GMQB,28,male,8,2023-07-18_12h20.35.096,working,2022.2.4,Win32,8.185047555,,,,,,,,,,badlands_1.jpg,0,badlands,,,5.908850727,1.8209,0,52,52,52,1,,
,,,,,,,,,,golf_course_309.jpg,golf_course_16.jpg,golf_course_309.jpg,right,mountain_212.jpg,highway_357.jpg,golf_course_309.jpg,badlands_149.jpg,badlands_149.jpg,badlands_149.jpg,2,A11246G6L1GMQB,28,male,8,2023-07-18_12h20.35.096,working,2022.2.4,Win32,8.185047555,,,,,,,,,,golf_course_16.jpg,0,golf,,,4.608982827,3.5619,0,53,53,53,1,,
,,,,,,,,,,bridge_108.jpg,bridge_148.jpg,bridge_108.jpg,right,highway_75.jpg,mountain_301.jpg,bridge_108.jpg,badlands_177.jpg,badlands_177.jpg,badlands_177.jpg,2,A11246G6L1GMQB,28,male,8,2023-07-18_12h20.35.096,working,2022.2.4,Win32,8.185047555,,,,,,,,,,bridge_148.jpg,1,bridge,,,7.747688243,3.341,0,54,54,54,1,,
,,,,,,,,,,highway_93.jpg,highway_369.jpg,highway_93.jpg,right,playground_178.jpg,highway_93.jpg,mountain_71.jpg,bridge_264.jpg,bridge_264.jpg,bridge_264.jpg,1,A11246G6L1GMQB,28,male,8,2023-07-18_12h20.35.096,working,2022.2.4,Win32,8.185047555,,,,,,,,,,highway_369.jpg,1,highway,,,6.659180978,2.7128,0,55,55,55,1,,
,,,,,,,,,,mountain_222.jpg,mountain_244.jpg,mountain_222.jpg,right,golf_course_229.jpg,mountain_222.jpg,badlands_100.jpg,bridge_64.jpg,bridge_64.jpg,bridge_64.jpg,1,A11246G6L1GMQB,28,male,8,2023-07-18_12h20.35.096,working,2022.2.4,Win32,8.185047555,,,,,,,,,,mountain_244.jpg,0,mountain,,,3.097754293,2.7957,0,56,56,56,1,,
,,,,,,,,,,bridge_202.jpg,bridge_202.jpg,bridge_38.jpg,left,golf_course_33.jpg,bridge_202.jpg,mountain_34.jpg,playground_173.jpg,playground_173.jpg,playground_173.jpg,1,A11246G6L1GMQB,28,male,8,2023-07-18_12h20.35.096,working,2022.2.4,Win32,8.185047555,,,,,,,,,,bridge_38.jpg,1,bridge,,,3.63672391,2.9849,0,57,57,57,1,,
,,,,,,,,,,mountain_232.jpg,mountain_232.jpg,mountain_3.jpg,left,golf_course_88.jpg,badlands_220.jpg,mountain_232.jpg,highway_37.jpg,highway_37.jpg,highway_37.jpg,2,A11246G6L1GMQB,28,male,8,2023-07-18_12h20.35.096,working,2022.2.4,Win32,8.185047555,,,,,,,,,,mountain_3.jpg,0,mountain,,,7.124174373,2.248,0,58,58,58,1,,
,,,,,,,,,,bridge_128.jpg,bridge_61.jpg,bridge_128.jpg,right,bridge_128.jpg,playground_3.jpg,badlands_153.jpg,mountain_307.jpg,mountain_307.jpg,mountain_307.jpg,0,A11246G6L1GMQB,28,male,8,2023-07-18_12h20.35.096,working,2022.2.4,Win32,8.185047555,,,,,,,,,,bridge_61.jpg,0,bridge,,,2.907529723,3.4823,0,59,59,59,1,,
,,,,,,,,,,,,,,,,,,,,,A11246G6L1GMQB,28,male,8,2023-07-18_12h20.35.096,working,2022.2.4,Win32,8.185047555,,,,,,,,,,,,,,,,,,,,,,space,4.7596
