key_resp.keys,key_resp_2.keys,key_resp_2.rt,demo_test_key_resp.keys,demo_test_key_resp.rt,demo_loops.thisRepN,demo_loops.thisTrialN,demo_loops.thisN,demo_loops.thisIndex,demo_loops.ran,target,image1,image2,correct,background_0,background_1,background_2,background_3,background_4,background_5,target_index,workID,Age,Gender,Hours slept (last night),date,expName,psychopyVersion,OS,frameRate,key_resp_after_demo.keys,key_resp_after_demo.rt,test_key_resp.keys,test_key_resp.rt,exp_loops.thisRepN,exp_loops.thisTrialN,exp_loops.thisN,exp_loops.thisIndex,exp_loops.ran,selected_dist,distractor_level,category,key_resp_4.keys,key_resp_4.rt,slider_part2.response,slider_part2.rt,exp_loops_part2.thisRepN,exp_loops_part2.thisTrialN,exp_loops_part2.thisN,exp_loops_part2.thisIndex,exp_loops_part2.ran,key_resp_last_slide.keys,key_resp_last_slide.rt
,space,101.5399,left,6.5039,0,0,0,0,1,flower1.jpg,flower1.jpg,flower1_pair.jpg,left,leaf3.jpg,trail1.jpg,flower1.jpg,bird1.jpg,tree3.jpg,fence4.jpg,2,A1GD9JRU44WE8P,49,Female,8,2023-07-19_01h31.28.147,working,2022.2.4,Win32,60.0528465,,,,,,,,,,,,,,,,,,,,,,,
,,,right,1.9428,0,1,1,1,1,leaf2.jpg,leaf1.jpg,leaf2.jpg,right,trail2.jpg,leaf2.jpg,bird2.jpg,tree2.jpg,fence3.jpg,flower2.jpg,1,A1GD9JRU44WE8P,49,Female,8,2023-07-19_01h31.28.147,working,2022.2.4,Win32,60.0528465,,,,,,,,,,,,,,,,,,,,,,,
,,,right,3.6143,0,2,2,2,1,fence1.jpg,fence1.jpg,fence2.jpg,left,tree1.jpg,bird3.jpg,trail3.jpg,fence1.jpg,leaf4.jpg,flower3.jpg,3,A1GD9JRU44WE8P,49,Female,8,2023-07-19_01h31.28.147,working,2022.2.4,Win32,60.0528465,,,,,,,,,,,,,,,,,,,,,,,
,,,,,,,,,,badlands_137.jpg,badlands_139.jpg,badlands_137.jpg,right,playground_41.jpg,badlands_137.jpg,bridge_25.jpg,golf_course_21.jpg,golf_course_21.jpg,golf_course_21.jpg,1,A1GD9JRU44WE8P,49,Female,8,2023-07-19_01h31.28.147,working,2022.2.4,Win32,60.0528465,space,299.9418,right,1.5061,0,0,0,0,1,badlands_139.jpg,1,badlands,,,,,,,,,,,
,,,,,,,,,,badlands_184.jpg,badlands_184.jpg,badlands_103.jpg,left,playground_52.jpg,highway_325.jpg,badlands_184.jpg,bridge_9.jpg,bridge_9.jpg,bridge_9.jpg,2,A1GD9JRU44WE8P,49,Female,8,2023-07-19_01h31.28.147,working,2022.2.4,Win32,60.0528465,,,left,1.9715,0,1,1,1,1,badlands_103.jpg,1,badlands,,,,,,,,,,,
,,,,,,,,,,mountain_154.jpg,mountain_131.jpg,mountain_154.jpg,right,highway_357.jpg,mountain_154.jpg,bridge_132.jpg,playground_173.jpg,playground_173.jpg,playground_173.jpg,1,A1GD9JRU44WE8P,49,Female,8,2023-07-19_01h31.28.147,working,2022.2.4,Win32,60.0528465,,,right,1.5386,0,2,2,2,1,mountain_131.jpg,0,mountain,,,,,,,,,,,
,,,,,,,,,,mountain_293.jpg,mountain_47.jpg,mountain_293.jpg,right,highway_159.jpg,mountain_293.jpg,bridge_179.jpg,playground_70.jpg,playground_70.jpg,playground_70.jpg,1,A1GD9JRU44WE8P,49,Female,8,2023-07-19_01h31.28.147,working,2022.2.4,Win32,60.0528465,,,left,1.9529,0,3,3,3,1,mountain_47.jpg,1,mountain,,,,,,,,,,,
,,,,,,,,,,bridge_202.jpg,bridge_38.jpg,bridge_202.jpg,right,golf_course_321.jpg,playground_209.jpg,bridge_202.jpg,highway_12.jpg,highway_12.jpg,highway_12.jpg,2,A1GD9JRU44WE8P,49,Female,8,2023-07-19_01h31.28.147,working,2022.2.4,Win32,60.0528465,,,right,1.6379,0,4,4,4,1,bridge_38.jpg,1,bridge,,,,,,,,,,,
,,,,,,,,,,bridge_256.jpg,bridge_256.jpg,bridge_211.jpg,left,badlands_13.jpg,bridge_256.jpg,highway_114.jpg,mountain_214.jpg,mountain_214.jpg,mountain_214.jpg,1,A1GD9JRU44WE8P,49,Female,8,2023-07-19_01h31.28.147,working,2022.2.4,Win32,60.0528465,,,left,1.681,0,5,5,5,1,bridge_211.jpg,1,bridge,,,,,,,,,,,
,,,,,,,,,,badlands_221.jpg,badlands_221.jpg,badlands_207.jpg,left,golf_course_290.jpg,badlands_221.jpg,highway_301.jpg,playground_30.jpg,playground_30.jpg,playground_30.jpg,1,A1GD9JRU44WE8P,49,Female,8,2023-07-19_01h31.28.147,working,2022.2.4,Win32,60.0528465,,,left,3.1161,0,6,6,6,1,badlands_207.jpg,1,badlands,,,,,,,,,,,
,,,,,,,,,,bridge_250.jpg,bridge_134.jpg,bridge_250.jpg,right,mountain_132.jpg,bridge_250.jpg,golf_course_102.jpg,badlands_200.jpg,badlands_200.jpg,badlands_200.jpg,1,A1GD9JRU44WE8P,49,Female,8,2023-07-19_01h31.28.147,working,2022.2.4,Win32,60.0528465,,,right,1.775,0,7,7,7,1,bridge_134.jpg,0,bridge,,,,,,,,,,,
,,,,,,,,,,bridge_172.jpg,bridge_17.jpg,bridge_172.jpg,right,golf_course_57.jpg,bridge_172.jpg,highway_398.jpg,mountain_4.jpg,mountain_4.jpg,mountain_4.jpg,1,A1GD9JRU44WE8P,49,Female,8,2023-07-19_01h31.28.147,working,2022.2.4,Win32,60.0528465,,,right,2.1066,0,8,8,8,1,bridge_17.jpg,0,bridge,,,,,,,,,,,
,,,,,,,,,,highway_93.jpg,highway_93.jpg,highway_85.jpg,left,highway_93.jpg,mountain_228.jpg,badlands_130.jpg,golf_course_325.jpg,golf_course_325.jpg,golf_course_325.jpg,0,A1GD9JRU44WE8P,49,Female,8,2023-07-19_01h31.28.147,working,2022.2.4,Win32,60.0528465,,,right,7.2024,0,9,9,9,1,highway_85.jpg,0,highway,,,,,,,,,,,
,,,,,,,,,,badlands_222.jpg,badlands_62.jpg,badlands_222.jpg,right,bridge_78.jpg,playground_235.jpg,badlands_222.jpg,golf_course_264.jpg,golf_course_264.jpg,golf_course_264.jpg,2,A1GD9JRU44WE8P,49,Female,8,2023-07-19_01h31.28.147,working,2022.2.4,Win32,60.0528465,,,right,6.9944,0,10,10,10,1,badlands_62.jpg,1,badlands,,,,,,,,,,,
,,,,,,,,,,badlands_113.jpg,badlands_113.jpg,badlands_225.jpg,left,badlands_113.jpg,golf_course_337.jpg,bridge_48.jpg,playground_3.jpg,playground_3.jpg,playground_3.jpg,0,A1GD9JRU44WE8P,49,Female,8,2023-07-19_01h31.28.147,working,2022.2.4,Win32,60.0528465,,,left,1.3415,0,11,11,11,1,badlands_225.jpg,0,badlands,,,,,,,,,,,
,,,,,,,,,,golf_course_78.jpg,golf_course_78.jpg,golf_course_134.jpg,left,golf_course_78.jpg,badlands_142.jpg,mountain_21.jpg,playground_181.jpg,playground_181.jpg,playground_181.jpg,0,A1GD9JRU44WE8P,49,Female,8,2023-07-19_01h31.28.147,working,2022.2.4,Win32,60.0528465,,,right,2.6155,0,12,12,12,1,golf_course_134.jpg,0,golf,,,,,,,,,,,
,,,,,,,,,,highway_394.jpg,highway_394.jpg,highway_406.jpg,left,highway_394.jpg,badlands_2.jpg,mountain_66.jpg,playground_191.jpg,playground_191.jpg,playground_191.jpg,0,A1GD9JRU44WE8P,49,Female,8,2023-07-19_01h31.28.147,working,2022.2.4,Win32,60.0528465,,,left,1.4657,0,13,13,13,1,highway_406.jpg,1,highway,,,,,,,,,,,
,,,,,,,,,,highway_415.jpg,highway_415.jpg,highway_174.jpg,left,playground_46.jpg,golf_course_206.jpg,highway_415.jpg,bridge_47.jpg,bridge_47.jpg,bridge_47.jpg,2,A1GD9JRU44WE8P,49,Female,8,2023-07-19_01h31.28.147,working,2022.2.4,Win32,60.0528465,,,right,2.4227,0,14,14,14,1,highway_174.jpg,1,highway,,,,,,,,,,,
,,,,,,,,,,mountain_57.jpg,mountain_57.jpg,mountain_138.jpg,left,mountain_57.jpg,badlands_58.jpg,bridge_106.jpg,highway_149.jpg,highway_149.jpg,highway_149.jpg,0,A1GD9JRU44WE8P,49,Female,8,2023-07-19_01h31.28.147,working,2022.2.4,Win32,60.0528465,,,left,1.6462,0,15,15,15,1,mountain_138.jpg,1,mountain,,,,,,,,,,,
,,,,,,,,,,playground_257.jpg,playground_257.jpg,playground_214.jpg,left,playground_257.jpg,bridge_230.jpg,badlands_59.jpg,mountain_105.jpg,mountain_105.jpg,mountain_105.jpg,0,A1GD9JRU44WE8P,49,Female,8,2023-07-19_01h31.28.147,working,2022.2.4,Win32,60.0528465,,,right,3.0506,0,16,16,16,1,playground_214.jpg,0,playground,,,,,,,,,,,
,,,,,,,,,,playground_131.jpg,playground_43.jpg,playground_131.jpg,right,bridge_26.jpg,playground_131.jpg,golf_course_223.jpg,mountain_12.jpg,mountain_12.jpg,mountain_12.jpg,1,A1GD9JRU44WE8P,49,Female,8,2023-07-19_01h31.28.147,working,2022.2.4,Win32,60.0528465,,,right,1.81,0,17,17,17,1,playground_43.jpg,0,playground,,,,,,,,,,,
,,,,,,,,,,mountain_123.jpg,mountain_123.jpg,mountain_94.jpg,left,highway_249.jpg,mountain_123.jpg,golf_course_122.jpg,playground_183.jpg,playground_183.jpg,playground_183.jpg,1,A1GD9JRU44WE8P,49,Female,8,2023-07-19_01h31.28.147,working,2022.2.4,Win32,60.0528465,,,left,1.426,0,18,18,18,1,mountain_94.jpg,0,mountain,,,,,,,,,,,
,,,,,,,,,,mountain_101.jpg,mountain_171.jpg,mountain_101.jpg,right,mountain_101.jpg,badlands_136.jpg,highway_402.jpg,golf_course_43.jpg,golf_course_43.jpg,golf_course_43.jpg,0,A1GD9JRU44WE8P,49,Female,8,2023-07-19_01h31.28.147,working,2022.2.4,Win32,60.0528465,,,left,1.8051,0,19,19,19,1,mountain_171.jpg,0,mountain,,,,,,,,,,,
,,,,,,,,,,highway_359.jpg,highway_359.jpg,highway_379.jpg,left,mountain_233.jpg,bridge_206.jpg,highway_359.jpg,badlands_152.jpg,badlands_152.jpg,badlands_152.jpg,2,A1GD9JRU44WE8P,49,Female,8,2023-07-19_01h31.28.147,working,2022.2.4,Win32,60.0528465,,,left,2.3059,0,20,20,20,1,highway_379.jpg,1,highway,,,,,,,,,,,
,,,,,,,,,,playground_144.jpg,playground_144.jpg,playground_65.jpg,left,highway_99.jpg,playground_144.jpg,mountain_292.jpg,golf_course_198.jpg,golf_course_198.jpg,golf_course_198.jpg,1,A1GD9JRU44WE8P,49,Female,8,2023-07-19_01h31.28.147,working,2022.2.4,Win32,60.0528465,,,right,1.7973,0,21,21,21,1,playground_65.jpg,1,playground,,,,,,,,,,,
,,,,,,,,,,highway_294.jpg,highway_294.jpg,highway_203.jpg,left,golf_course_302.jpg,playground_200.jpg,highway_294.jpg,badlands_218.jpg,badlands_218.jpg,badlands_218.jpg,2,A1GD9JRU44WE8P,49,Female,8,2023-07-19_01h31.28.147,working,2022.2.4,Win32,60.0528465,,,left,2.7887,0,22,22,22,1,highway_203.jpg,0,highway,,,,,,,,,,,
,,,,,,,,,,bridge_91.jpg,bridge_91.jpg,bridge_253.jpg,left,bridge_91.jpg,highway_13.jpg,badlands_143.jpg,golf_course_229.jpg,golf_course_229.jpg,golf_course_229.jpg,0,A1GD9JRU44WE8P,49,Female,8,2023-07-19_01h31.28.147,working,2022.2.4,Win32,60.0528465,,,right,1.9535,0,23,23,23,1,bridge_253.jpg,0,bridge,,,,,,,,,,,
,,,,,,,,,,playground_219.jpg,playground_219.jpg,playground_205.jpg,left,badlands_166.jpg,highway_147.jpg,playground_219.jpg,bridge_257.jpg,bridge_257.jpg,bridge_257.jpg,2,A1GD9JRU44WE8P,49,Female,8,2023-07-19_01h31.28.147,working,2022.2.4,Win32,60.0528465,,,left,0.9619,0,24,24,24,1,playground_205.jpg,1,playground,,,,,,,,,,,
,,,,,,,,,,playground_145.jpg,playground_229.jpg,playground_145.jpg,right,mountain_296.jpg,playground_145.jpg,badlands_193.jpg,bridge_204.jpg,bridge_204.jpg,bridge_204.jpg,1,A1GD9JRU44WE8P,49,Female,8,2023-07-19_01h31.28.147,working,2022.2.4,Win32,60.0528465,,,left,1.3106,0,25,25,25,1,playground_229.jpg,0,playground,,,,,,,,,,,
,,,,,,,,,,playground_76.jpg,playground_76.jpg,playground_22.jpg,left,badlands_64.jpg,bridge_239.jpg,playground_76.jpg,highway_146.jpg,highway_146.jpg,highway_146.jpg,2,A1GD9JRU44WE8P,49,Female,8,2023-07-19_01h31.28.147,working,2022.2.4,Win32,60.0528465,,,left,2.008,0,26,26,26,1,playground_22.jpg,0,playground,,,,,,,,,,,
,,,,,,,,,,playground_60.jpg,playground_268.jpg,playground_60.jpg,right,playground_60.jpg,bridge_158.jpg,golf_course_156.jpg,mountain_91.jpg,mountain_91.jpg,mountain_91.jpg,0,A1GD9JRU44WE8P,49,Female,8,2023-07-19_01h31.28.147,working,2022.2.4,Win32,60.0528465,,,left,4.5445,0,27,27,27,1,playground_268.jpg,0,playground,,,,,,,,,,,
,,,,,,,,,,bridge_146.jpg,bridge_146.jpg,bridge_121.jpg,left,playground_36.jpg,golf_course_1.jpg,bridge_146.jpg,highway_18.jpg,highway_18.jpg,highway_18.jpg,2,A1GD9JRU44WE8P,49,Female,8,2023-07-19_01h31.28.147,working,2022.2.4,Win32,60.0528465,,,right,2.0119,0,28,28,28,1,bridge_121.jpg,1,bridge,,,,,,,,,,,
,,,,,,,,,,highway_177.jpg,highway_87.jpg,highway_177.jpg,right,mountain_71.jpg,highway_177.jpg,golf_course_60.jpg,playground_77.jpg,playground_77.jpg,playground_77.jpg,1,A1GD9JRU44WE8P,49,Female,8,2023-07-19_01h31.28.147,working,2022.2.4,Win32,60.0528465,,,right,1.3678,0,29,29,29,1,highway_87.jpg,0,highway,,,,,,,,,,,
,,,,,,,,,,mountain_156.jpg,mountain_295.jpg,mountain_156.jpg,right,mountain_156.jpg,badlands_177.jpg,highway_263.jpg,playground_178.jpg,playground_178.jpg,playground_178.jpg,0,A1GD9JRU44WE8P,49,Female,8,2023-07-19_01h31.28.147,working,2022.2.4,Win32,60.0528465,,,left,2.6994,0,30,30,30,1,mountain_295.jpg,1,mountain,,,,,,,,,,,
,,,,,,,,,,golf_course_188.jpg,golf_course_160.jpg,golf_course_188.jpg,right,golf_course_188.jpg,highway_75.jpg,bridge_18.jpg,playground_108.jpg,playground_108.jpg,playground_108.jpg,0,A1GD9JRU44WE8P,49,Female,8,2023-07-19_01h31.28.147,working,2022.2.4,Win32,60.0528465,,,right,1.379,0,31,31,31,1,golf_course_160.jpg,1,golf,,,,,,,,,,,
,,,,,,,,,,highway_209.jpg,highway_314.jpg,highway_209.jpg,right,highway_209.jpg,badlands_176.jpg,golf_course_319.jpg,mountain_253.jpg,mountain_253.jpg,mountain_253.jpg,0,A1GD9JRU44WE8P,49,Female,8,2023-07-19_01h31.28.147,working,2022.2.4,Win32,60.0528465,,,right,1.5237,0,32,32,32,1,highway_314.jpg,0,highway,,,,,,,,,,,
,,,,,,,,,,badlands_24.jpg,badlands_24.jpg,badlands_53.jpg,left,highway_219.jpg,badlands_24.jpg,playground_168.jpg,golf_course_260.jpg,golf_course_260.jpg,golf_course_260.jpg,1,A1GD9JRU44WE8P,49,Female,8,2023-07-19_01h31.28.147,working,2022.2.4,Win32,60.0528465,,,right,1.702,0,33,33,33,1,badlands_53.jpg,1,badlands,,,,,,,,,,,
,,,,,,,,,,mountain_222.jpg,mountain_244.jpg,mountain_222.jpg,right,mountain_222.jpg,highway_88.jpg,golf_course_128.jpg,badlands_216.jpg,badlands_216.jpg,badlands_216.jpg,0,A1GD9JRU44WE8P,49,Female,8,2023-07-19_01h31.28.147,working,2022.2.4,Win32,60.0528465,,,right,3.2079,0,34,34,34,1,mountain_244.jpg,0,mountain,,,,,,,,,,,
,,,,,,,,,,badlands_21.jpg,badlands_21.jpg,badlands_1.jpg,left,bridge_169.jpg,golf_course_46.jpg,badlands_21.jpg,playground_241.jpg,playground_241.jpg,playground_241.jpg,2,A1GD9JRU44WE8P,49,Female,8,2023-07-19_01h31.28.147,working,2022.2.4,Win32,60.0528465,,,left,1.3489,0,35,35,35,1,badlands_1.jpg,0,badlands,,,,,,,,,,,
,,,,,,,,,,playground_10.jpg,playground_10.jpg,playground_12.jpg,left,golf_course_27.jpg,playground_10.jpg,highway_342.jpg,bridge_2.jpg,bridge_2.jpg,bridge_2.jpg,1,A1GD9JRU44WE8P,49,Female,8,2023-07-19_01h31.28.147,working,2022.2.4,Win32,60.0528465,,,right,0.7931,0,36,36,36,1,playground_12.jpg,1,playground,,,,,,,,,,,
,,,,,,,,,,badlands_52.jpg,badlands_94.jpg,badlands_52.jpg,right,mountain_161.jpg,badlands_52.jpg,highway_333.jpg,bridge_182.jpg,bridge_182.jpg,bridge_182.jpg,1,A1GD9JRU44WE8P,49,Female,8,2023-07-19_01h31.28.147,working,2022.2.4,Win32,60.0528465,,,right,1.357,0,37,37,37,1,badlands_94.jpg,0,badlands,,,,,,,,,,,
,,,,,,,,,,bridge_65.jpg,bridge_181.jpg,bridge_65.jpg,right,playground_124.jpg,highway_179.jpg,bridge_65.jpg,golf_course_258.jpg,golf_course_258.jpg,golf_course_258.jpg,2,A1GD9JRU44WE8P,49,Female,8,2023-07-19_01h31.28.147,working,2022.2.4,Win32,60.0528465,,,right,3.2292,0,38,38,38,1,bridge_181.jpg,0,bridge,,,,,,,,,,,
,,,,,,,,,,golf_course_87.jpg,golf_course_87.jpg,golf_course_130.jpg,left,mountain_24.jpg,golf_course_87.jpg,bridge_80.jpg,playground_5.jpg,playground_5.jpg,playground_5.jpg,1,A1GD9JRU44WE8P,49,Female,8,2023-07-19_01h31.28.147,working,2022.2.4,Win32,60.0528465,,,left,1.0591,0,39,39,39,1,golf_course_130.jpg,0,golf,,,,,,,,,,,
,,,,,,,,,,golf_course_331.jpg,golf_course_331.jpg,golf_course_26.jpg,left,bridge_52.jpg,golf_course_331.jpg,playground_25.jpg,badlands_75.jpg,badlands_75.jpg,badlands_75.jpg,1,A1GD9JRU44WE8P,49,Female,8,2023-07-19_01h31.28.147,working,2022.2.4,Win32,60.0528465,,,right,1.1207,0,40,40,40,1,golf_course_26.jpg,1,golf,,,,,,,,,,,
,,,,,,,,,,highway_245.jpg,highway_206.jpg,highway_245.jpg,right,highway_245.jpg,bridge_124.jpg,playground_193.jpg,badlands_180.jpg,badlands_180.jpg,badlands_180.jpg,0,A1GD9JRU44WE8P,49,Female,8,2023-07-19_01h31.28.147,working,2022.2.4,Win32,60.0528465,,,left,1.4799,0,41,41,41,1,highway_206.jpg,1,highway,,,,,,,,,,,
,,,,,,,,,,playground_240.jpg,playground_240.jpg,playground_40.jpg,left,badlands_220.jpg,playground_240.jpg,bridge_251.jpg,highway_244.jpg,highway_244.jpg,highway_244.jpg,1,A1GD9JRU44WE8P,49,Female,8,2023-07-19_01h31.28.147,working,2022.2.4,Win32,60.0528465,,,left,2.4928,0,42,42,42,1,playground_40.jpg,1,playground,,,,,,,,,,,
,,,,,,,,,,golf_course_195.jpg,golf_course_2.jpg,golf_course_195.jpg,right,golf_course_195.jpg,mountain_179.jpg,bridge_34.jpg,badlands_226.jpg,badlands_226.jpg,badlands_226.jpg,0,A1GD9JRU44WE8P,49,Female,8,2023-07-19_01h31.28.147,working,2022.2.4,Win32,60.0528465,,,right,1.6432,0,43,43,43,1,golf_course_2.jpg,1,golf,,,,,,,,,,,
,,,,,,,,,,bridge_191.jpg,bridge_191.jpg,bridge_184.jpg,left,playground_259.jpg,bridge_191.jpg,badlands_45.jpg,highway_227.jpg,highway_227.jpg,highway_227.jpg,1,A1GD9JRU44WE8P,49,Female,8,2023-07-19_01h31.28.147,working,2022.2.4,Win32,60.0528465,,,left,1.464,0,44,44,44,1,bridge_184.jpg,0,bridge,,,,,,,,,,,
,,,,,,,,,,golf_course_309.jpg,golf_course_209.jpg,golf_course_309.jpg,right,bridge_162.jpg,highway_23.jpg,golf_course_309.jpg,mountain_44.jpg,mountain_44.jpg,mountain_44.jpg,2,A1GD9JRU44WE8P,49,Female,8,2023-07-19_01h31.28.147,working,2022.2.4,Win32,60.0528465,,,right,1.2568,0,45,45,45,1,golf_course_209.jpg,1,golf,,,,,,,,,,,
,,,,,,,,,,highway_156.jpg,highway_156.jpg,highway_160.jpg,left,badlands_31.jpg,highway_156.jpg,bridge_10.jpg,golf_course_185.jpg,golf_course_185.jpg,golf_course_185.jpg,1,A1GD9JRU44WE8P,49,Female,8,2023-07-19_01h31.28.147,working,2022.2.4,Win32,60.0528465,,,right,1.3533,0,46,46,46,1,highway_160.jpg,0,highway,,,,,,,,,,,
,,,,,,,,,,golf_course_214.jpg,golf_course_214.jpg,golf_course_312.jpg,left,golf_course_214.jpg,mountain_34.jpg,badlands_210.jpg,highway_196.jpg,highway_196.jpg,highway_196.jpg,0,A1GD9JRU44WE8P,49,Female,8,2023-07-19_01h31.28.147,working,2022.2.4,Win32,60.0528465,,,right,2.2936,0,47,47,47,1,golf_course_312.jpg,0,golf,,,,,,,,,,,
,,,,,,,,,,highway_273.jpg,highway_273.jpg,highway_384.jpg,left,bridge_238.jpg,highway_273.jpg,golf_course_334.jpg,badlands_54.jpg,badlands_54.jpg,badlands_54.jpg,1,A1GD9JRU44WE8P,49,Female,8,2023-07-19_01h31.28.147,working,2022.2.4,Win32,60.0528465,,,left,1.7865,0,48,48,48,1,highway_384.jpg,0,highway,,,,,,,,,,,
,,,,,,,,,,badlands_70.jpg,badlands_119.jpg,badlands_70.jpg,right,badlands_70.jpg,playground_123.jpg,bridge_263.jpg,mountain_235.jpg,mountain_235.jpg,mountain_235.jpg,0,A1GD9JRU44WE8P,49,Female,8,2023-07-19_01h31.28.147,working,2022.2.4,Win32,60.0528465,,,right,2.1211,0,49,49,49,1,badlands_119.jpg,1,badlands,,,,,,,,,,,
,,,,,,,,,,golf_course_15.jpg,golf_course_113.jpg,golf_course_15.jpg,right,golf_course_15.jpg,playground_66.jpg,bridge_177.jpg,mountain_68.jpg,mountain_68.jpg,mountain_68.jpg,0,A1GD9JRU44WE8P,49,Female,8,2023-07-19_01h31.28.147,working,2022.2.4,Win32,60.0528465,,,left,1.3081,0,50,50,50,1,golf_course_113.jpg,0,golf,,,,,,,,,,,
,,,,,,,,,,bridge_128.jpg,bridge_128.jpg,bridge_244.jpg,left,highway_166.jpg,bridge_128.jpg,playground_13.jpg,badlands_27.jpg,badlands_27.jpg,badlands_27.jpg,1,A1GD9JRU44WE8P,49,Female,8,2023-07-19_01h31.28.147,working,2022.2.4,Win32,60.0528465,,,left,1.461,0,51,51,51,1,bridge_244.jpg,1,bridge,,,,,,,,,,,
,,,,,,,,,,golf_course_217.jpg,golf_course_217.jpg,golf_course_35.jpg,left,playground_116.jpg,badlands_104.jpg,golf_course_217.jpg,mountain_15.jpg,mountain_15.jpg,mountain_15.jpg,2,A1GD9JRU44WE8P,49,Female,8,2023-07-19_01h31.28.147,working,2022.2.4,Win32,60.0528465,,,right,1.5085,0,52,52,52,1,golf_course_35.jpg,0,golf,,,,,,,,,,,
,,,,,,,,,,mountain_110.jpg,mountain_223.jpg,mountain_110.jpg,right,highway_234.jpg,mountain_110.jpg,golf_course_329.jpg,bridge_218.jpg,bridge_218.jpg,bridge_218.jpg,1,A1GD9JRU44WE8P,49,Female,8,2023-07-19_01h31.28.147,working,2022.2.4,Win32,60.0528465,,,left,2.4933,0,53,53,53,1,mountain_223.jpg,1,mountain,,,,,,,,,,,
,,,,,,,,,,badlands_23.jpg,badlands_23.jpg,badlands_114.jpg,left,badlands_23.jpg,mountain_280.jpg,golf_course_316.jpg,bridge_103.jpg,bridge_103.jpg,bridge_103.jpg,0,A1GD9JRU44WE8P,49,Female,8,2023-07-19_01h31.28.147,working,2022.2.4,Win32,60.0528465,,,right,2.0281,0,54,54,54,1,badlands_114.jpg,0,badlands,,,,,,,,,,,
,,,,,,,,,,bridge_108.jpg,bridge_108.jpg,bridge_148.jpg,left,playground_264.jpg,bridge_108.jpg,highway_261.jpg,mountain_104.jpg,mountain_104.jpg,mountain_104.jpg,1,A1GD9JRU44WE8P,49,Female,8,2023-07-19_01h31.28.147,working,2022.2.4,Win32,60.0528465,,,right,1.4386,0,55,55,55,1,bridge_148.jpg,1,bridge,,,,,,,,,,,
,,,,,,,,,,mountain_232.jpg,mountain_54.jpg,mountain_232.jpg,right,golf_course_166.jpg,highway_319.jpg,mountain_232.jpg,badlands_30.jpg,badlands_30.jpg,badlands_30.jpg,2,A1GD9JRU44WE8P,49,Female,8,2023-07-19_01h31.28.147,working,2022.2.4,Win32,60.0528465,,,left,1.6036,0,56,56,56,1,mountain_54.jpg,1,mountain,,,,,,,,,,,
,,,,,,,,,,playground_117.jpg,playground_167.jpg,playground_117.jpg,right,golf_course_159.jpg,playground_117.jpg,badlands_100.jpg,mountain_160.jpg,mountain_160.jpg,mountain_160.jpg,1,A1GD9JRU44WE8P,49,Female,8,2023-07-19_01h31.28.147,working,2022.2.4,Win32,60.0528465,,,left,1.7519,0,57,57,57,1,playground_167.jpg,0,playground,,,,,,,,,,,
,,,,,,,,,,mountain_230.jpg,mountain_97.jpg,mountain_230.jpg,right,highway_117.jpg,golf_course_204.jpg,mountain_230.jpg,playground_158.jpg,playground_158.jpg,playground_158.jpg,2,A1GD9JRU44WE8P,49,Female,8,2023-07-19_01h31.28.147,working,2022.2.4,Win32,60.0528465,,,right,1.4032,0,58,58,58,1,mountain_97.jpg,1,mountain,,,,,,,,,,,
,,,,,,,,,,golf_course_193.jpg,golf_course_193.jpg,golf_course_123.jpg,left,golf_course_193.jpg,mountain_224.jpg,bridge_130.jpg,highway_336.jpg,highway_336.jpg,highway_336.jpg,0,A1GD9JRU44WE8P,49,Female,8,2023-07-19_01h31.28.147,working,2022.2.4,Win32,60.0528465,,,right,1.9591,0,59,59,59,1,golf_course_123.jpg,1,golf,,,,,,,,,,,
,,,,,,,,,,badlands_137.jpg,badlands_139.jpg,badlands_137.jpg,right,playground_41.jpg,badlands_137.jpg,bridge_25.jpg,golf_course_21.jpg,golf_course_21.jpg,golf_course_21.jpg,1,A1GD9JRU44WE8P,49,Female,8,2023-07-19_01h31.28.147,working,2022.2.4,Win32,60.0528465,,,,,,,,,,badlands_139.jpg,1,badlands,space,18.7265,7.9952,5.2101,0,0,0,0,1,,
,,,,,,,,,,badlands_184.jpg,badlands_184.jpg,badlands_103.jpg,left,playground_52.jpg,highway_325.jpg,badlands_184.jpg,bridge_9.jpg,bridge_9.jpg,bridge_9.jpg,2,A1GD9JRU44WE8P,49,Female,8,2023-07-19_01h31.28.147,working,2022.2.4,Win32,60.0528465,,,,,,,,,,badlands_103.jpg,1,badlands,,,6.9968,2.4915,0,1,1,1,1,,
,,,,,,,,,,mountain_154.jpg,mountain_131.jpg,mountain_154.jpg,right,highway_357.jpg,mountain_154.jpg,bridge_132.jpg,playground_173.jpg,playground_173.jpg,playground_173.jpg,1,A1GD9JRU44WE8P,49,Female,8,2023-07-19_01h31.28.147,working,2022.2.4,Win32,60.0528465,,,,,,,,,,mountain_131.jpg,0,mountain,,,8.9424,2.0534,0,2,2,2,1,,
,,,,,,,,,,mountain_293.jpg,mountain_47.jpg,mountain_293.jpg,right,highway_159.jpg,mountain_293.jpg,bridge_179.jpg,playground_70.jpg,playground_70.jpg,playground_70.jpg,1,A1GD9JRU44WE8P,49,Female,8,2023-07-19_01h31.28.147,working,2022.2.4,Win32,60.0528465,,,,,,,,,,mountain_47.jpg,1,mountain,,,8.9424,1.361,0,3,3,3,1,,
,,,,,,,,,,bridge_202.jpg,bridge_38.jpg,bridge_202.jpg,right,golf_course_321.jpg,playground_209.jpg,bridge_202.jpg,highway_12.jpg,highway_12.jpg,highway_12.jpg,2,A1GD9JRU44WE8P,49,Female,8,2023-07-19_01h31.28.147,working,2022.2.4,Win32,60.0528465,,,,,,,,,,bridge_38.jpg,1,bridge,,,6.9712,1.7205,0,4,4,4,1,,
,,,,,,,,,,bridge_256.jpg,bridge_256.jpg,bridge_211.jpg,left,badlands_13.jpg,bridge_256.jpg,highway_114.jpg,mountain_214.jpg,mountain_214.jpg,mountain_214.jpg,1,A1GD9JRU44WE8P,49,Female,8,2023-07-19_01h31.28.147,working,2022.2.4,Win32,60.0528465,,,,,,,,,,bridge_211.jpg,1,bridge,,,8.968,1.7593,0,5,5,5,1,,
,,,,,,,,,,badlands_221.jpg,badlands_221.jpg,badlands_207.jpg,left,golf_course_290.jpg,badlands_221.jpg,highway_301.jpg,playground_30.jpg,playground_30.jpg,playground_30.jpg,1,A1GD9JRU44WE8P,49,Female,8,2023-07-19_01h31.28.147,working,2022.2.4,Win32,60.0528465,,,,,,,,,,badlands_207.jpg,1,badlands,,,4.0016,2.1069,0,6,6,6,1,,
,,,,,,,,,,bridge_250.jpg,bridge_134.jpg,bridge_250.jpg,right,mountain_132.jpg,bridge_250.jpg,golf_course_102.jpg,badlands_200.jpg,badlands_200.jpg,badlands_200.jpg,1,A1GD9JRU44WE8P,49,Female,8,2023-07-19_01h31.28.147,working,2022.2.4,Win32,60.0528465,,,,,,,,,,bridge_134.jpg,0,bridge,,,6.9456,1.8206,0,7,7,7,1,,
,,,,,,,,,,bridge_172.jpg,bridge_17.jpg,bridge_172.jpg,right,golf_course_57.jpg,bridge_172.jpg,highway_398.jpg,mountain_4.jpg,mountain_4.jpg,mountain_4.jpg,1,A1GD9JRU44WE8P,49,Female,8,2023-07-19_01h31.28.147,working,2022.2.4,Win32,60.0528465,,,,,,,,,,bridge_17.jpg,0,bridge,,,2.0176,2.7364,0,8,8,8,1,,
,,,,,,,,,,highway_93.jpg,highway_93.jpg,highway_85.jpg,left,highway_93.jpg,mountain_228.jpg,badlands_130.jpg,golf_course_325.jpg,golf_course_325.jpg,golf_course_325.jpg,0,A1GD9JRU44WE8P,49,Female,8,2023-07-19_01h31.28.147,working,2022.2.4,Win32,60.0528465,,,,,,,,,,highway_85.jpg,0,highway,,,8.0464,1.6051,0,9,9,9,1,,
,,,,,,,,,,badlands_222.jpg,badlands_62.jpg,badlands_222.jpg,right,bridge_78.jpg,playground_235.jpg,badlands_222.jpg,golf_course_264.jpg,golf_course_264.jpg,golf_course_264.jpg,2,A1GD9JRU44WE8P,49,Female,8,2023-07-19_01h31.28.147,working,2022.2.4,Win32,60.0528465,,,,,,,,,,badlands_62.jpg,1,badlands,,,7.9312,2.5697,0,10,10,10,1,,
,,,,,,,,,,badlands_113.jpg,badlands_113.jpg,badlands_225.jpg,left,badlands_113.jpg,golf_course_337.jpg,bridge_48.jpg,playground_3.jpg,playground_3.jpg,playground_3.jpg,0,A1GD9JRU44WE8P,49,Female,8,2023-07-19_01h31.28.147,working,2022.2.4,Win32,60.0528465,,,,,,,,,,badlands_225.jpg,0,badlands,,,6.0496,1.5916,0,11,11,11,1,,
,,,,,,,,,,golf_course_78.jpg,golf_course_78.jpg,golf_course_134.jpg,left,golf_course_78.jpg,badlands_142.jpg,mountain_21.jpg,playground_181.jpg,playground_181.jpg,playground_181.jpg,0,A1GD9JRU44WE8P,49,Female,8,2023-07-19_01h31.28.147,working,2022.2.4,Win32,60.0528465,,,,,,,,,,golf_course_134.jpg,0,golf,,,4.9616,2.9934,0,12,12,12,1,,
,,,,,,,,,,highway_394.jpg,highway_394.jpg,highway_406.jpg,left,highway_394.jpg,badlands_2.jpg,mountain_66.jpg,playground_191.jpg,playground_191.jpg,playground_191.jpg,0,A1GD9JRU44WE8P,49,Female,8,2023-07-19_01h31.28.147,working,2022.2.4,Win32,60.0528465,,,,,,,,,,highway_406.jpg,1,highway,,,8.0592,1.9888,0,13,13,13,1,,
,,,,,,,,,,highway_415.jpg,highway_415.jpg,highway_174.jpg,left,playground_46.jpg,golf_course_206.jpg,highway_415.jpg,bridge_47.jpg,bridge_47.jpg,bridge_47.jpg,2,A1GD9JRU44WE8P,49,Female,8,2023-07-19_01h31.28.147,working,2022.2.4,Win32,60.0528465,,,,,,,,,,highway_174.jpg,1,highway,,,8.8016,1.6389,0,14,14,14,1,,
,,,,,,,,,,mountain_57.jpg,mountain_57.jpg,mountain_138.jpg,left,mountain_57.jpg,badlands_58.jpg,bridge_106.jpg,highway_149.jpg,highway_149.jpg,highway_149.jpg,0,A1GD9JRU44WE8P,49,Female,8,2023-07-19_01h31.28.147,working,2022.2.4,Win32,60.0528465,,,,,,,,,,mountain_138.jpg,1,mountain,,,7.2144,1.494,0,15,15,15,1,,
,,,,,,,,,,playground_257.jpg,playground_257.jpg,playground_214.jpg,left,playground_257.jpg,bridge_230.jpg,badlands_59.jpg,mountain_105.jpg,mountain_105.jpg,mountain_105.jpg,0,A1GD9JRU44WE8P,49,Female,8,2023-07-19_01h31.28.147,working,2022.2.4,Win32,60.0528465,,,,,,,,,,playground_214.jpg,0,playground,,,8.5328,2.3372,0,16,16,16,1,,
,,,,,,,,,,playground_131.jpg,playground_43.jpg,playground_131.jpg,right,bridge_26.jpg,playground_131.jpg,golf_course_223.jpg,mountain_12.jpg,mountain_12.jpg,mountain_12.jpg,1,A1GD9JRU44WE8P,49,Female,8,2023-07-19_01h31.28.147,working,2022.2.4,Win32,60.0528465,,,,,,,,,,playground_43.jpg,0,playground,,,8.1744,2.2694,0,17,17,17,1,,
,,,,,,,,,,mountain_123.jpg,mountain_123.jpg,mountain_94.jpg,left,highway_249.jpg,mountain_123.jpg,golf_course_122.jpg,playground_183.jpg,playground_183.jpg,playground_183.jpg,1,A1GD9JRU44WE8P,49,Female,8,2023-07-19_01h31.28.147,working,2022.2.4,Win32,60.0528465,,,,,,,,,,mountain_94.jpg,0,mountain,,,4.0016,2.2004,0,18,18,18,1,,
,,,,,,,,,,mountain_101.jpg,mountain_171.jpg,mountain_101.jpg,right,mountain_101.jpg,badlands_136.jpg,highway_402.jpg,golf_course_43.jpg,golf_course_43.jpg,golf_course_43.jpg,0,A1GD9JRU44WE8P,49,Female,8,2023-07-19_01h31.28.147,working,2022.2.4,Win32,60.0528465,,,,,,,,,,mountain_171.jpg,0,mountain,,,8.264,1.56,0,19,19,19,1,,
,,,,,,,,,,highway_359.jpg,highway_359.jpg,highway_379.jpg,left,mountain_233.jpg,bridge_206.jpg,highway_359.jpg,badlands_152.jpg,badlands_152.jpg,badlands_152.jpg,2,A1GD9JRU44WE8P,49,Female,8,2023-07-19_01h31.28.147,working,2022.2.4,Win32,60.0528465,,,,,,,,,,highway_379.jpg,1,highway,,,8.2512,2.6869,0,20,20,20,1,,
,,,,,,,,,,playground_144.jpg,playground_144.jpg,playground_65.jpg,left,highway_99.jpg,playground_144.jpg,mountain_292.jpg,golf_course_198.jpg,golf_course_198.jpg,golf_course_198.jpg,1,A1GD9JRU44WE8P,49,Female,8,2023-07-19_01h31.28.147,working,2022.2.4,Win32,60.0528465,,,,,,,,,,playground_65.jpg,1,playground,,,8.9424,2.1535,0,21,21,21,1,,
,,,,,,,,,,highway_294.jpg,highway_294.jpg,highway_203.jpg,left,golf_course_302.jpg,playground_200.jpg,highway_294.jpg,badlands_218.jpg,badlands_218.jpg,badlands_218.jpg,2,A1GD9JRU44WE8P,49,Female,8,2023-07-19_01h31.28.147,working,2022.2.4,Win32,60.0528465,,,,,,,,,,highway_203.jpg,0,highway,,,7.9952,2.6812,0,22,22,22,1,,
,,,,,,,,,,bridge_91.jpg,bridge_91.jpg,bridge_253.jpg,left,bridge_91.jpg,highway_13.jpg,badlands_143.jpg,golf_course_229.jpg,golf_course_229.jpg,golf_course_229.jpg,0,A1GD9JRU44WE8P,49,Female,8,2023-07-19_01h31.28.147,working,2022.2.4,Win32,60.0528465,,,,,,,,,,bridge_253.jpg,0,bridge,,,4.0016,3.7861,0,23,23,23,1,,
,,,,,,,,,,playground_219.jpg,playground_219.jpg,playground_205.jpg,left,badlands_166.jpg,highway_147.jpg,playground_219.jpg,bridge_257.jpg,bridge_257.jpg,bridge_257.jpg,2,A1GD9JRU44WE8P,49,Female,8,2023-07-19_01h31.28.147,working,2022.2.4,Win32,60.0528465,,,,,,,,,,playground_205.jpg,1,playground,,,7.9952,2.4371,0,24,24,24,1,,
,,,,,,,,,,playground_145.jpg,playground_229.jpg,playground_145.jpg,right,mountain_296.jpg,playground_145.jpg,badlands_193.jpg,bridge_204.jpg,bridge_204.jpg,bridge_204.jpg,1,A1GD9JRU44WE8P,49,Female,8,2023-07-19_01h31.28.147,working,2022.2.4,Win32,60.0528465,,,,,,,,,,playground_229.jpg,0,playground,,,7.0096,3.2067,0,25,25,25,1,,
,,,,,,,,,,playground_76.jpg,playground_76.jpg,playground_22.jpg,left,badlands_64.jpg,bridge_239.jpg,playground_76.jpg,highway_146.jpg,highway_146.jpg,highway_146.jpg,2,A1GD9JRU44WE8P,49,Female,8,2023-07-19_01h31.28.147,working,2022.2.4,Win32,60.0528465,,,,,,,,,,playground_22.jpg,0,playground,,,8.7888,2.4859,0,26,26,26,1,,
,,,,,,,,,,playground_60.jpg,playground_268.jpg,playground_60.jpg,right,playground_60.jpg,bridge_158.jpg,golf_course_156.jpg,mountain_91.jpg,mountain_91.jpg,mountain_91.jpg,0,A1GD9JRU44WE8P,49,Female,8,2023-07-19_01h31.28.147,working,2022.2.4,Win32,60.0528465,,,,,,,,,,playground_268.jpg,0,playground,,,7.9056,2.6145,0,27,27,27,1,,
,,,,,,,,,,bridge_146.jpg,bridge_146.jpg,bridge_121.jpg,left,playground_36.jpg,golf_course_1.jpg,bridge_146.jpg,highway_18.jpg,highway_18.jpg,highway_18.jpg,2,A1GD9JRU44WE8P,49,Female,8,2023-07-19_01h31.28.147,working,2022.2.4,Win32,60.0528465,,,,,,,,,,bridge_121.jpg,1,bridge,,,6.8688,2.5753,0,28,28,28,1,,
,,,,,,,,,,highway_177.jpg,highway_87.jpg,highway_177.jpg,right,mountain_71.jpg,highway_177.jpg,golf_course_60.jpg,playground_77.jpg,playground_77.jpg,playground_77.jpg,1,A1GD9JRU44WE8P,49,Female,8,2023-07-19_01h31.28.147,working,2022.2.4,Win32,60.0528465,,,,,,,,,,highway_87.jpg,0,highway,,,7.8416,2.8189,0,29,29,29,1,,
,,,,,,,,,,mountain_156.jpg,mountain_295.jpg,mountain_156.jpg,right,mountain_156.jpg,badlands_177.jpg,highway_263.jpg,playground_178.jpg,playground_178.jpg,playground_178.jpg,0,A1GD9JRU44WE8P,49,Female,8,2023-07-19_01h31.28.147,working,2022.2.4,Win32,60.0528465,,,,,,,,,,mountain_295.jpg,1,mountain,,,8.3664,2.8639,0,30,30,30,1,,
,,,,,,,,,,golf_course_188.jpg,golf_course_160.jpg,golf_course_188.jpg,right,golf_course_188.jpg,highway_75.jpg,bridge_18.jpg,playground_108.jpg,playground_108.jpg,playground_108.jpg,0,A1GD9JRU44WE8P,49,Female,8,2023-07-19_01h31.28.147,working,2022.2.4,Win32,60.0528465,,,,,,,,,,golf_course_160.jpg,1,golf,,,7.9696,4.5851,0,31,31,31,1,,
,,,,,,,,,,highway_209.jpg,highway_314.jpg,highway_209.jpg,right,highway_209.jpg,badlands_176.jpg,golf_course_319.jpg,mountain_253.jpg,mountain_253.jpg,mountain_253.jpg,0,A1GD9JRU44WE8P,49,Female,8,2023-07-19_01h31.28.147,working,2022.2.4,Win32,60.0528465,,,,,,,,,,highway_314.jpg,0,highway,,,8.9424,2.5862,0,32,32,32,1,,
,,,,,,,,,,badlands_24.jpg,badlands_24.jpg,badlands_53.jpg,left,highway_219.jpg,badlands_24.jpg,playground_168.jpg,golf_course_260.jpg,golf_course_260.jpg,golf_course_260.jpg,1,A1GD9JRU44WE8P,49,Female,8,2023-07-19_01h31.28.147,working,2022.2.4,Win32,60.0528465,,,,,,,,,,badlands_53.jpg,1,badlands,,,7.0224,1.4702,0,33,33,33,1,,
,,,,,,,,,,mountain_222.jpg,mountain_244.jpg,mountain_222.jpg,right,mountain_222.jpg,highway_88.jpg,golf_course_128.jpg,badlands_216.jpg,badlands_216.jpg,badlands_216.jpg,0,A1GD9JRU44WE8P,49,Female,8,2023-07-19_01h31.28.147,working,2022.2.4,Win32,60.0528465,,,,,,,,,,mountain_244.jpg,0,mountain,,,8.2,2.0996,0,34,34,34,1,,
,,,,,,,,,,badlands_21.jpg,badlands_21.jpg,badlands_1.jpg,left,bridge_169.jpg,golf_course_46.jpg,badlands_21.jpg,playground_241.jpg,playground_241.jpg,playground_241.jpg,2,A1GD9JRU44WE8P,49,Female,8,2023-07-19_01h31.28.147,working,2022.2.4,Win32,60.0528465,,,,,,,,,,badlands_1.jpg,0,badlands,,,5.9728,2.1376,0,35,35,35,1,,
,,,,,,,,,,playground_10.jpg,playground_10.jpg,playground_12.jpg,left,golf_course_27.jpg,playground_10.jpg,highway_342.jpg,bridge_2.jpg,bridge_2.jpg,bridge_2.jpg,1,A1GD9JRU44WE8P,49,Female,8,2023-07-19_01h31.28.147,working,2022.2.4,Win32,60.0528465,,,,,,,,,,playground_12.jpg,1,playground,,,7.24,1.8274,0,36,36,36,1,,
,,,,,,,,,,badlands_52.jpg,badlands_94.jpg,badlands_52.jpg,right,mountain_161.jpg,badlands_52.jpg,highway_333.jpg,bridge_182.jpg,bridge_182.jpg,bridge_182.jpg,1,A1GD9JRU44WE8P,49,Female,8,2023-07-19_01h31.28.147,working,2022.2.4,Win32,60.0528465,,,,,,,,,,badlands_94.jpg,0,badlands,,,8.4816,2.2385,0,37,37,37,1,,
,,,,,,,,,,bridge_65.jpg,bridge_181.jpg,bridge_65.jpg,right,playground_124.jpg,highway_179.jpg,bridge_65.jpg,golf_course_258.jpg,golf_course_258.jpg,golf_course_258.jpg,2,A1GD9JRU44WE8P,49,Female,8,2023-07-19_01h31.28.147,working,2022.2.4,Win32,60.0528465,,,,,,,,,,bridge_181.jpg,0,bridge,,,7.944,1.8042,0,38,38,38,1,,
,,,,,,,,,,golf_course_87.jpg,golf_course_87.jpg,golf_course_130.jpg,left,mountain_24.jpg,golf_course_87.jpg,bridge_80.jpg,playground_5.jpg,playground_5.jpg,playground_5.jpg,1,A1GD9JRU44WE8P,49,Female,8,2023-07-19_01h31.28.147,working,2022.2.4,Win32,60.0528465,,,,,,,,,,golf_course_130.jpg,0,golf,,,6.9072,1.9409,0,39,39,39,1,,
,,,,,,,,,,golf_course_331.jpg,golf_course_331.jpg,golf_course_26.jpg,left,bridge_52.jpg,golf_course_331.jpg,playground_25.jpg,badlands_75.jpg,badlands_75.jpg,badlands_75.jpg,1,A1GD9JRU44WE8P,49,Female,8,2023-07-19_01h31.28.147,working,2022.2.4,Win32,60.0528465,,,,,,,,,,golf_course_26.jpg,1,golf,,,8.6864,1.7871,0,40,40,40,1,,
,,,,,,,,,,highway_245.jpg,highway_206.jpg,highway_245.jpg,right,highway_245.jpg,bridge_124.jpg,playground_193.jpg,badlands_180.jpg,badlands_180.jpg,badlands_180.jpg,0,A1GD9JRU44WE8P,49,Female,8,2023-07-19_01h31.28.147,working,2022.2.4,Win32,60.0528465,,,,,,,,,,highway_206.jpg,1,highway,,,7.8288,1.9929,0,41,41,41,1,,
,,,,,,,,,,playground_240.jpg,playground_240.jpg,playground_40.jpg,left,badlands_220.jpg,playground_240.jpg,bridge_251.jpg,highway_244.jpg,highway_244.jpg,highway_244.jpg,1,A1GD9JRU44WE8P,49,Female,8,2023-07-19_01h31.28.147,working,2022.2.4,Win32,60.0528465,,,,,,,,,,playground_40.jpg,1,playground,,,8.8016,1.988,0,42,42,42,1,,
,,,,,,,,,,golf_course_195.jpg,golf_course_2.jpg,golf_course_195.jpg,right,golf_course_195.jpg,mountain_179.jpg,bridge_34.jpg,badlands_226.jpg,badlands_226.jpg,badlands_226.jpg,0,A1GD9JRU44WE8P,49,Female,8,2023-07-19_01h31.28.147,working,2022.2.4,Win32,60.0528465,,,,,,,,,,golf_course_2.jpg,1,golf,,,8.5968,1.7706,0,43,43,43,1,,
,,,,,,,,,,bridge_191.jpg,bridge_191.jpg,bridge_184.jpg,left,playground_259.jpg,bridge_191.jpg,badlands_45.jpg,highway_227.jpg,highway_227.jpg,highway_227.jpg,1,A1GD9JRU44WE8P,49,Female,8,2023-07-19_01h31.28.147,working,2022.2.4,Win32,60.0528465,,,,,,,,,,bridge_184.jpg,0,bridge,,,6.3184,2.1869,0,44,44,44,1,,
,,,,,,,,,,golf_course_309.jpg,golf_course_209.jpg,golf_course_309.jpg,right,bridge_162.jpg,highway_23.jpg,golf_course_309.jpg,mountain_44.jpg,mountain_44.jpg,mountain_44.jpg,2,A1GD9JRU44WE8P,49,Female,8,2023-07-19_01h31.28.147,working,2022.2.4,Win32,60.0528465,,,,,,,,,,golf_course_209.jpg,1,golf,,,7.0224,2.0209,0,45,45,45,1,,
,,,,,,,,,,highway_156.jpg,highway_156.jpg,highway_160.jpg,left,badlands_31.jpg,highway_156.jpg,bridge_10.jpg,golf_course_185.jpg,golf_course_185.jpg,golf_course_185.jpg,1,A1GD9JRU44WE8P,49,Female,8,2023-07-19_01h31.28.147,working,2022.2.4,Win32,60.0528465,,,,,,,,,,highway_160.jpg,0,highway,,,6.1136,2.4585,0,46,46,46,1,,
,,,,,,,,,,golf_course_214.jpg,golf_course_214.jpg,golf_course_312.jpg,left,golf_course_214.jpg,mountain_34.jpg,badlands_210.jpg,highway_196.jpg,highway_196.jpg,highway_196.jpg,0,A1GD9JRU44WE8P,49,Female,8,2023-07-19_01h31.28.147,working,2022.2.4,Win32,60.0528465,,,,,,,,,,golf_course_312.jpg,0,golf,,,5.96,1.9541,0,47,47,47,1,,
,,,,,,,,,,highway_273.jpg,highway_273.jpg,highway_384.jpg,left,bridge_238.jpg,highway_273.jpg,golf_course_334.jpg,badlands_54.jpg,badlands_54.jpg,badlands_54.jpg,1,A1GD9JRU44WE8P,49,Female,8,2023-07-19_01h31.28.147,working,2022.2.4,Win32,60.0528465,,,,,,,,,,highway_384.jpg,0,highway,,,7.5728,2.0208,0,48,48,48,1,,
,,,,,,,,,,badlands_70.jpg,badlands_119.jpg,badlands_70.jpg,right,badlands_70.jpg,playground_123.jpg,bridge_263.jpg,mountain_235.jpg,mountain_235.jpg,mountain_235.jpg,0,A1GD9JRU44WE8P,49,Female,8,2023-07-19_01h31.28.147,working,2022.2.4,Win32,60.0528465,,,,,,,,,,badlands_119.jpg,1,badlands,,,7.5344,1.2854,0,49,49,49,1,,
,,,,,,,,,,golf_course_15.jpg,golf_course_113.jpg,golf_course_15.jpg,right,golf_course_15.jpg,playground_66.jpg,bridge_177.jpg,mountain_68.jpg,mountain_68.jpg,mountain_68.jpg,0,A1GD9JRU44WE8P,49,Female,8,2023-07-19_01h31.28.147,working,2022.2.4,Win32,60.0528465,,,,,,,,,,golf_course_113.jpg,0,golf,,,7.048,1.8472,0,50,50,50,1,,
,,,,,,,,,,bridge_128.jpg,bridge_128.jpg,bridge_244.jpg,left,highway_166.jpg,bridge_128.jpg,playground_13.jpg,badlands_27.jpg,badlands_27.jpg,badlands_27.jpg,1,A1GD9JRU44WE8P,49,Female,8,2023-07-19_01h31.28.147,working,2022.2.4,Win32,60.0528465,,,,,,,,,,bridge_244.jpg,1,bridge,,,7.8032,5.1863,0,51,51,51,1,,
,,,,,,,,,,golf_course_217.jpg,golf_course_217.jpg,golf_course_35.jpg,left,playground_116.jpg,badlands_104.jpg,golf_course_217.jpg,mountain_15.jpg,mountain_15.jpg,mountain_15.jpg,2,A1GD9JRU44WE8P,49,Female,8,2023-07-19_01h31.28.147,working,2022.2.4,Win32,60.0528465,,,,,,,,,,golf_course_35.jpg,0,golf,,,8.1872,2.8515,0,52,52,52,1,,
,,,,,,,,,,mountain_110.jpg,mountain_223.jpg,mountain_110.jpg,right,highway_234.jpg,mountain_110.jpg,golf_course_329.jpg,bridge_218.jpg,bridge_218.jpg,bridge_218.jpg,1,A1GD9JRU44WE8P,49,Female,8,2023-07-19_01h31.28.147,working,2022.2.4,Win32,60.0528465,,,,,,,,,,mountain_223.jpg,1,mountain,,,7.0096,2.0743,0,53,53,53,1,,
,,,,,,,,,,badlands_23.jpg,badlands_23.jpg,badlands_114.jpg,left,badlands_23.jpg,mountain_280.jpg,golf_course_316.jpg,bridge_103.jpg,bridge_103.jpg,bridge_103.jpg,0,A1GD9JRU44WE8P,49,Female,8,2023-07-19_01h31.28.147,working,2022.2.4,Win32,60.0528465,,,,,,,,,,badlands_114.jpg,0,badlands,,,8.0592,1.8033,0,54,54,54,1,,
,,,,,,,,,,bridge_108.jpg,bridge_108.jpg,bridge_148.jpg,left,playground_264.jpg,bridge_108.jpg,highway_261.jpg,mountain_104.jpg,mountain_104.jpg,mountain_104.jpg,1,A1GD9JRU44WE8P,49,Female,8,2023-07-19_01h31.28.147,working,2022.2.4,Win32,60.0528465,,,,,,,,,,bridge_148.jpg,1,bridge,,,6.9968,2.0229,0,55,55,55,1,,
,,,,,,,,,,mountain_232.jpg,mountain_54.jpg,mountain_232.jpg,right,golf_course_166.jpg,highway_319.jpg,mountain_232.jpg,badlands_30.jpg,badlands_30.jpg,badlands_30.jpg,2,A1GD9JRU44WE8P,49,Female,8,2023-07-19_01h31.28.147,working,2022.2.4,Win32,60.0528465,,,,,,,,,,mountain_54.jpg,1,mountain,,,8.6736,2.5197,0,56,56,56,1,,
,,,,,,,,,,playground_117.jpg,playground_167.jpg,playground_117.jpg,right,golf_course_159.jpg,playground_117.jpg,badlands_100.jpg,mountain_160.jpg,mountain_160.jpg,mountain_160.jpg,1,A1GD9JRU44WE8P,49,Female,8,2023-07-19_01h31.28.147,working,2022.2.4,Win32,60.0528465,,,,,,,,,,playground_167.jpg,0,playground,,,7.8032,1.8033,0,57,57,57,1,,
,,,,,,,,,,mountain_230.jpg,mountain_97.jpg,mountain_230.jpg,right,highway_117.jpg,golf_course_204.jpg,mountain_230.jpg,playground_158.jpg,playground_158.jpg,playground_158.jpg,2,A1GD9JRU44WE8P,49,Female,8,2023-07-19_01h31.28.147,working,2022.2.4,Win32,60.0528465,,,,,,,,,,mountain_97.jpg,1,mountain,,,6.6768,2.3968,0,58,58,58,1,,
,,,,,,,,,,golf_course_193.jpg,golf_course_193.jpg,golf_course_123.jpg,left,golf_course_193.jpg,mountain_224.jpg,bridge_130.jpg,highway_336.jpg,highway_336.jpg,highway_336.jpg,0,A1GD9JRU44WE8P,49,Female,8,2023-07-19_01h31.28.147,working,2022.2.4,Win32,60.0528465,,,,,,,,,,golf_course_123.jpg,1,golf,,,8.6992,2.6091,0,59,59,59,1,,
,,,,,,,,,,,,,,,,,,,,,A1GD9JRU44WE8P,49,Female,8,2023-07-19_01h31.28.147,working,2022.2.4,Win32,60.0528465,,,,,,,,,,,,,,,,,,,,,,space,25.0118
