key_resp.keys,key_resp_2.keys,key_resp_2.rt,demo_test_key_resp.keys,demo_test_key_resp.rt,demo_loops.thisRepN,demo_loops.thisTrialN,demo_loops.thisN,demo_loops.thisIndex,demo_loops.ran,target,image1,image2,correct,background_0,background_1,background_2,background_3,background_4,background_5,target_index,workID,Age,Gender,Hours slept (last night),date,expName,psychopyVersion,OS,frameRate,key_resp_after_demo.keys,key_resp_after_demo.rt,test_key_resp.keys,test_key_resp.rt,exp_loops.thisRepN,exp_loops.thisTrialN,exp_loops.thisN,exp_loops.thisIndex,exp_loops.ran,selected_dist,distractor_level,category,key_resp_4.keys,key_resp_4.rt,slider_part2.response,slider_part2.rt,exp_loops_part2.thisRepN,exp_loops_part2.thisTrialN,exp_loops_part2.thisN,exp_loops_part2.thisIndex,exp_loops_part2.ran,key_resp_last_slide.keys,key_resp_last_slide.rt
,space,1.7371,left,1.3022,0,0,0,0,1,flower1.jpg,flower1.jpg,flower1_pair.jpg,left,leaf3.jpg,trail1.jpg,flower1.jpg,bird1.jpg,tree3.jpg,fence4.jpg,2,A1WD7UTKGWS016,30,Female,7,2023-07-18_15h41.42.766,working,2022.2.4,Win32,16.80870018,,,,,,,,,,,,,,,,,,,,,,,
,,,right,1.1855,0,1,1,1,1,leaf2.jpg,leaf1.jpg,leaf2.jpg,right,trail2.jpg,leaf2.jpg,bird2.jpg,tree2.jpg,fence3.jpg,flower2.jpg,1,A1WD7UTKGWS016,30,Female,7,2023-07-18_15h41.42.766,working,2022.2.4,Win32,16.80870018,,,,,,,,,,,,,,,,,,,,,,,
,,,left,0.8591,0,2,2,2,1,fence1.jpg,fence1.jpg,fence2.jpg,left,tree1.jpg,bird3.jpg,trail3.jpg,fence1.jpg,leaf4.jpg,flower3.jpg,3,A1WD7UTKGWS016,30,Female,7,2023-07-18_15h41.42.766,working,2022.2.4,Win32,16.80870018,,,,,,,,,,,,,,,,,,,,,,,
,,,,,,,,,,bridge_250.jpg,bridge_250.jpg,bridge_205.jpg,left,bridge_250.jpg,mountain_34.jpg,badlands_149.jpg,highway_227.jpg,highway_227.jpg,highway_227.jpg,0,A1WD7UTKGWS016,30,Female,7,2023-07-18_15h41.42.766,working,2022.2.4,Win32,16.80870018,space,2.5474,left,1.5458,0,0,0,0,1,bridge_205.jpg,1,bridge,,,,,,,,,,,
,,,,,,,,,,badlands_23.jpg,badlands_23.jpg,badlands_114.jpg,left,badlands_23.jpg,mountain_66.jpg,highway_37.jpg,golf_course_1.jpg,golf_course_1.jpg,golf_course_1.jpg,0,A1WD7UTKGWS016,30,Female,7,2023-07-18_15h41.42.766,working,2022.2.4,Win32,16.80870018,,,left,1.2461,0,1,1,1,1,badlands_114.jpg,0,badlands,,,,,,,,,,,
,,,,,,,,,,playground_144.jpg,playground_144.jpg,playground_137.jpg,left,playground_144.jpg,bridge_130.jpg,mountain_228.jpg,golf_course_320.jpg,golf_course_320.jpg,golf_course_320.jpg,0,A1WD7UTKGWS016,30,Female,7,2023-07-18_15h41.42.766,working,2022.2.4,Win32,16.80870018,,,left,0.9319,0,2,2,2,1,playground_137.jpg,0,playground,,,,,,,,,,,
,,,,,,,,,,golf_course_214.jpg,golf_course_214.jpg,golf_course_312.jpg,left,golf_course_214.jpg,highway_325.jpg,playground_95.jpg,badlands_176.jpg,badlands_176.jpg,badlands_176.jpg,0,A1WD7UTKGWS016,30,Female,7,2023-07-18_15h41.42.766,working,2022.2.4,Win32,16.80870018,,,left,1.0673,0,3,3,3,1,golf_course_312.jpg,0,golf,,,,,,,,,,,
,,,,,,,,,,bridge_256.jpg,bridge_256.jpg,bridge_54.jpg,left,highway_25.jpg,playground_25.jpg,bridge_256.jpg,badlands_59.jpg,badlands_59.jpg,badlands_59.jpg,2,A1WD7UTKGWS016,30,Female,7,2023-07-18_15h41.42.766,working,2022.2.4,Win32,16.80870018,,,left,1.1963,0,4,4,4,1,bridge_54.jpg,0,bridge,,,,,,,,,,,
,,,,,,,,,,golf_course_78.jpg,golf_course_134.jpg,golf_course_78.jpg,right,mountain_307.jpg,golf_course_78.jpg,highway_147.jpg,bridge_49.jpg,bridge_49.jpg,bridge_49.jpg,1,A1WD7UTKGWS016,30,Female,7,2023-07-18_15h41.42.766,working,2022.2.4,Win32,16.80870018,,,right,1.3068,0,5,5,5,1,golf_course_134.jpg,0,golf,,,,,,,,,,,
,,,,,,,,,,playground_131.jpg,playground_131.jpg,playground_43.jpg,left,playground_131.jpg,golf_course_290.jpg,bridge_264.jpg,highway_261.jpg,highway_261.jpg,highway_261.jpg,0,A1WD7UTKGWS016,30,Female,7,2023-07-18_15h41.42.766,working,2022.2.4,Win32,16.80870018,,,left,1.0748,0,6,6,6,1,playground_43.jpg,0,playground,,,,,,,,,,,
,,,,,,,,,,badlands_21.jpg,badlands_98.jpg,badlands_21.jpg,right,badlands_21.jpg,bridge_239.jpg,golf_course_152.jpg,highway_196.jpg,highway_196.jpg,highway_196.jpg,0,A1WD7UTKGWS016,30,Female,7,2023-07-18_15h41.42.766,working,2022.2.4,Win32,16.80870018,,,right,1.4226,0,7,7,7,1,badlands_98.jpg,1,badlands,,,,,,,,,,,
,,,,,,,,,,bridge_128.jpg,bridge_61.jpg,bridge_128.jpg,right,mountain_199.jpg,golf_course_27.jpg,bridge_128.jpg,playground_3.jpg,playground_3.jpg,playground_3.jpg,2,A1WD7UTKGWS016,30,Female,7,2023-07-18_15h41.42.766,working,2022.2.4,Win32,16.80870018,,,right,1.1478,0,8,8,8,1,bridge_61.jpg,0,bridge,,,,,,,,,,,
,,,,,,,,,,badlands_70.jpg,badlands_70.jpg,badlands_102.jpg,left,bridge_26.jpg,mountain_179.jpg,badlands_70.jpg,golf_course_166.jpg,golf_course_166.jpg,golf_course_166.jpg,2,A1WD7UTKGWS016,30,Female,7,2023-07-18_15h41.42.766,working,2022.2.4,Win32,16.80870018,,,left,1.0151,0,9,9,9,1,badlands_102.jpg,0,badlands,,,,,,,,,,,
,,,,,,,,,,mountain_154.jpg,mountain_95.jpg,mountain_154.jpg,right,bridge_263.jpg,mountain_154.jpg,playground_5.jpg,golf_course_102.jpg,golf_course_102.jpg,golf_course_102.jpg,1,A1WD7UTKGWS016,30,Female,7,2023-07-18_15h41.42.766,working,2022.2.4,Win32,16.80870018,,,left,1.7249,0,10,10,10,1,mountain_95.jpg,1,mountain,,,,,,,,,,,
,,,,,,,,,,badlands_24.jpg,badlands_24.jpg,badlands_53.jpg,left,badlands_24.jpg,playground_80.jpg,mountain_280.jpg,bridge_25.jpg,bridge_25.jpg,bridge_25.jpg,0,A1WD7UTKGWS016,30,Female,7,2023-07-18_15h41.42.766,working,2022.2.4,Win32,16.80870018,,,left,1.6084,0,11,11,11,1,badlands_53.jpg,1,badlands,,,,,,,,,,,
,,,,,,,,,,mountain_230.jpg,mountain_230.jpg,mountain_184.jpg,left,mountain_230.jpg,badlands_27.jpg,highway_319.jpg,playground_249.jpg,playground_249.jpg,playground_249.jpg,0,A1WD7UTKGWS016,30,Female,7,2023-07-18_15h41.42.766,working,2022.2.4,Win32,16.80870018,,,left,1.22,0,12,12,12,1,mountain_184.jpg,0,mountain,,,,,,,,,,,
,,,,,,,,,,highway_415.jpg,highway_174.jpg,highway_415.jpg,right,mountain_91.jpg,highway_415.jpg,badlands_186.jpg,bridge_132.jpg,bridge_132.jpg,bridge_132.jpg,1,A1WD7UTKGWS016,30,Female,7,2023-07-18_15h41.42.766,working,2022.2.4,Win32,16.80870018,,,left,1.6255,0,13,13,13,1,highway_174.jpg,1,highway,,,,,,,,,,,
,,,,,,,,,,playground_10.jpg,playground_12.jpg,playground_10.jpg,right,badlands_30.jpg,playground_10.jpg,mountain_161.jpg,golf_course_33.jpg,golf_course_33.jpg,golf_course_33.jpg,1,A1WD7UTKGWS016,30,Female,7,2023-07-18_15h41.42.766,working,2022.2.4,Win32,16.80870018,,,right,1.0027,0,14,14,14,1,playground_12.jpg,1,playground,,,,,,,,,,,
,,,,,,,,,,highway_177.jpg,highway_177.jpg,highway_87.jpg,left,highway_177.jpg,golf_course_42.jpg,mountain_292.jpg,playground_46.jpg,playground_46.jpg,playground_46.jpg,0,A1WD7UTKGWS016,30,Female,7,2023-07-18_15h41.42.766,working,2022.2.4,Win32,16.80870018,,,left,1.3616,0,15,15,15,1,highway_87.jpg,0,highway,,,,,,,,,,,
,,,,,,,,,,golf_course_195.jpg,golf_course_2.jpg,golf_course_195.jpg,right,playground_6.jpg,golf_course_195.jpg,badlands_174.jpg,bridge_78.jpg,bridge_78.jpg,bridge_78.jpg,1,A1WD7UTKGWS016,30,Female,7,2023-07-18_15h41.42.766,working,2022.2.4,Win32,16.80870018,,,right,1.3697,0,16,16,16,1,golf_course_2.jpg,1,golf,,,,,,,,,,,
,,,,,,,,,,golf_course_331.jpg,golf_course_114.jpg,golf_course_331.jpg,right,mountain_204.jpg,playground_70.jpg,golf_course_331.jpg,highway_18.jpg,highway_18.jpg,highway_18.jpg,2,A1WD7UTKGWS016,30,Female,7,2023-07-18_15h41.42.766,working,2022.2.4,Win32,16.80870018,,,left,1.4627,0,17,17,17,1,golf_course_114.jpg,0,golf,,,,,,,,,,,
,,,,,,,,,,highway_273.jpg,highway_384.jpg,highway_273.jpg,right,mountain_115.jpg,highway_273.jpg,playground_13.jpg,golf_course_258.jpg,golf_course_258.jpg,golf_course_258.jpg,1,A1WD7UTKGWS016,30,Female,7,2023-07-18_15h41.42.766,working,2022.2.4,Win32,16.80870018,,,right,1.2347,0,18,18,18,1,highway_384.jpg,0,highway,,,,,,,,,,,
,,,,,,,,,,golf_course_87.jpg,golf_course_161.jpg,golf_course_87.jpg,right,golf_course_87.jpg,playground_200.jpg,highway_263.jpg,mountain_224.jpg,mountain_224.jpg,mountain_224.jpg,0,A1WD7UTKGWS016,30,Female,7,2023-07-18_15h41.42.766,working,2022.2.4,Win32,16.80870018,,,right,1.2963,0,19,19,19,1,golf_course_161.jpg,1,golf,,,,,,,,,,,
,,,,,,,,,,mountain_123.jpg,mountain_94.jpg,mountain_123.jpg,right,highway_336.jpg,mountain_123.jpg,bridge_204.jpg,badlands_31.jpg,badlands_31.jpg,badlands_31.jpg,1,A1WD7UTKGWS016,30,Female,7,2023-07-18_15h41.42.766,working,2022.2.4,Win32,16.80870018,,,right,1.0957,0,20,20,20,1,mountain_94.jpg,0,mountain,,,,,,,,,,,
,,,,,,,,,,badlands_52.jpg,badlands_52.jpg,badlands_94.jpg,left,playground_52.jpg,badlands_52.jpg,bridge_123.jpg,mountain_24.jpg,mountain_24.jpg,mountain_24.jpg,1,A1WD7UTKGWS016,30,Female,7,2023-07-18_15h41.42.766,working,2022.2.4,Win32,16.80870018,,,right,1.3402,0,21,21,21,1,badlands_94.jpg,0,badlands,,,,,,,,,,,
,,,,,,,,,,golf_course_15.jpg,golf_course_97.jpg,golf_course_15.jpg,right,highway_114.jpg,golf_course_15.jpg,mountain_233.jpg,playground_241.jpg,playground_241.jpg,playground_241.jpg,1,A1WD7UTKGWS016,30,Female,7,2023-07-18_15h41.42.766,working,2022.2.4,Win32,16.80870018,,,right,1.2221,0,22,22,22,1,golf_course_97.jpg,1,golf,,,,,,,,,,,
,,,,,,,,,,playground_240.jpg,playground_40.jpg,playground_240.jpg,right,playground_240.jpg,mountain_26.jpg,golf_course_337.jpg,bridge_48.jpg,bridge_48.jpg,bridge_48.jpg,0,A1WD7UTKGWS016,30,Female,7,2023-07-18_15h41.42.766,working,2022.2.4,Win32,16.80870018,,,right,1.1738,0,23,23,23,1,playground_40.jpg,1,playground,,,,,,,,,,,
,,,,,,,,,,highway_93.jpg,highway_93.jpg,highway_85.jpg,left,bridge_124.jpg,mountain_235.jpg,highway_93.jpg,badlands_220.jpg,badlands_220.jpg,badlands_220.jpg,2,A1WD7UTKGWS016,30,Female,7,2023-07-18_15h41.42.766,working,2022.2.4,Win32,16.80870018,,,left,1.3618,0,24,24,24,1,highway_85.jpg,0,highway,,,,,,,,,,,
,,,,,,,,,,bridge_146.jpg,bridge_121.jpg,bridge_146.jpg,right,mountain_12.jpg,playground_36.jpg,bridge_146.jpg,golf_course_321.jpg,golf_course_321.jpg,golf_course_321.jpg,2,A1WD7UTKGWS016,30,Female,7,2023-07-18_15h41.42.766,working,2022.2.4,Win32,16.80870018,,,left,1.1875,0,25,25,25,1,bridge_121.jpg,1,bridge,,,,,,,,,,,
,,,,,,,,,,playground_117.jpg,playground_117.jpg,playground_127.jpg,left,playground_117.jpg,badlands_99.jpg,bridge_19.jpg,highway_149.jpg,highway_149.jpg,highway_149.jpg,0,A1WD7UTKGWS016,30,Female,7,2023-07-18_15h41.42.766,working,2022.2.4,Win32,16.80870018,,,left,1.7796,0,26,26,26,1,playground_127.jpg,1,playground,,,,,,,,,,,
,,,,,,,,,,badlands_222.jpg,badlands_222.jpg,badlands_34.jpg,left,badlands_222.jpg,highway_75.jpg,playground_108.jpg,bridge_179.jpg,bridge_179.jpg,bridge_179.jpg,0,A1WD7UTKGWS016,30,Female,7,2023-07-18_15h41.42.766,working,2022.2.4,Win32,16.80870018,,,left,1.4984,0,27,27,27,1,badlands_34.jpg,0,badlands,,,,,,,,,,,
,,,,,,,,,,highway_209.jpg,highway_122.jpg,highway_209.jpg,right,highway_209.jpg,playground_42.jpg,badlands_38.jpg,bridge_103.jpg,bridge_103.jpg,bridge_103.jpg,0,A1WD7UTKGWS016,30,Female,7,2023-07-18_15h41.42.766,working,2022.2.4,Win32,16.80870018,,,right,1.7325,0,28,28,28,1,highway_122.jpg,1,highway,,,,,,,,,,,
,,,,,,,,,,mountain_232.jpg,mountain_54.jpg,mountain_232.jpg,right,bridge_34.jpg,mountain_232.jpg,playground_178.jpg,highway_99.jpg,highway_99.jpg,highway_99.jpg,1,A1WD7UTKGWS016,30,Female,7,2023-07-18_15h41.42.766,working,2022.2.4,Win32,16.80870018,,,right,3.4806,0,29,29,29,1,mountain_54.jpg,1,mountain,,,,,,,,,,,
,,,,,,,,,,mountain_101.jpg,mountain_101.jpg,mountain_221.jpg,left,badlands_54.jpg,mountain_101.jpg,playground_30.jpg,highway_11.jpg,highway_11.jpg,highway_11.jpg,1,A1WD7UTKGWS016,30,Female,7,2023-07-18_15h41.42.766,working,2022.2.4,Win32,16.80870018,,,left,2.0915,0,30,30,30,1,mountain_221.jpg,1,mountain,,,,,,,,,,,
,,,,,,,,,,golf_course_193.jpg,golf_course_193.jpg,golf_course_123.jpg,left,playground_173.jpg,badlands_193.jpg,golf_course_193.jpg,highway_144.jpg,highway_144.jpg,highway_144.jpg,2,A1WD7UTKGWS016,30,Female,7,2023-07-18_15h41.42.766,working,2022.2.4,Win32,16.80870018,,,left,2.0145,0,31,31,31,1,golf_course_123.jpg,1,golf,,,,,,,,,,,
,,,,,,,,,,highway_156.jpg,highway_156.jpg,highway_293.jpg,left,mountain_15.jpg,highway_156.jpg,golf_course_46.jpg,badlands_153.jpg,badlands_153.jpg,badlands_153.jpg,1,A1WD7UTKGWS016,30,Female,7,2023-07-18_15h41.42.766,working,2022.2.4,Win32,16.80870018,,,left,2.7011,0,32,32,32,1,highway_293.jpg,1,highway,,,,,,,,,,,
,,,,,,,,,,mountain_293.jpg,mountain_72.jpg,mountain_293.jpg,right,badlands_143.jpg,mountain_293.jpg,highway_301.jpg,playground_235.jpg,playground_235.jpg,playground_235.jpg,1,A1WD7UTKGWS016,30,Female,7,2023-07-18_15h41.42.766,working,2022.2.4,Win32,16.80870018,,,left,1.5906,0,33,33,33,1,mountain_72.jpg,0,mountain,,,,,,,,,,,
,,,,,,,,,,bridge_108.jpg,bridge_116.jpg,bridge_108.jpg,right,playground_259.jpg,bridge_108.jpg,highway_88.jpg,badlands_210.jpg,badlands_210.jpg,badlands_210.jpg,1,A1WD7UTKGWS016,30,Female,7,2023-07-18_15h41.42.766,working,2022.2.4,Win32,16.80870018,,,right,2.141,0,34,34,34,1,bridge_116.jpg,0,bridge,,,,,,,,,,,
,,,,,,,,,,bridge_172.jpg,bridge_163.jpg,bridge_172.jpg,right,bridge_172.jpg,badlands_2.jpg,highway_248.jpg,playground_116.jpg,playground_116.jpg,playground_116.jpg,0,A1WD7UTKGWS016,30,Female,7,2023-07-18_15h41.42.766,working,2022.2.4,Win32,16.80870018,,,right,1.7581,0,35,35,35,1,bridge_163.jpg,1,bridge,,,,,,,,,,,
,,,,,,,,,,badlands_137.jpg,badlands_137.jpg,badlands_139.jpg,left,highway_166.jpg,badlands_137.jpg,golf_course_88.jpg,playground_191.jpg,playground_191.jpg,playground_191.jpg,1,A1WD7UTKGWS016,30,Female,7,2023-07-18_15h41.42.766,working,2022.2.4,Win32,16.80870018,,,right,1.7247,0,36,36,36,1,badlands_139.jpg,1,badlands,,,,,,,,,,,
,,,,,,,,,,bridge_65.jpg,bridge_60.jpg,bridge_65.jpg,right,mountain_44.jpg,bridge_65.jpg,playground_183.jpg,golf_course_83.jpg,golf_course_83.jpg,golf_course_83.jpg,1,A1WD7UTKGWS016,30,Female,7,2023-07-18_15h41.42.766,working,2022.2.4,Win32,16.80870018,,,right,1.493,0,37,37,37,1,bridge_60.jpg,1,bridge,,,,,,,,,,,
,,,,,,,,,,highway_245.jpg,highway_134.jpg,highway_245.jpg,right,highway_245.jpg,bridge_9.jpg,mountain_132.jpg,golf_course_223.jpg,golf_course_223.jpg,golf_course_223.jpg,0,A1WD7UTKGWS016,30,Female,7,2023-07-18_15h41.42.766,working,2022.2.4,Win32,16.80870018,,,right,0.8391,0,38,38,38,1,highway_134.jpg,0,highway,,,,,,,,,,,
,,,,,,,,,,badlands_184.jpg,badlands_103.jpg,badlands_184.jpg,right,golf_course_329.jpg,badlands_184.jpg,bridge_169.jpg,highway_398.jpg,highway_398.jpg,highway_398.jpg,1,A1WD7UTKGWS016,30,Female,7,2023-07-18_15h41.42.766,working,2022.2.4,Win32,16.80870018,,,right,1.0513,0,39,39,39,1,badlands_103.jpg,1,badlands,,,,,,,,,,,
,,,,,,,,,,playground_145.jpg,playground_145.jpg,playground_229.jpg,left,playground_145.jpg,mountain_202.jpg,bridge_259.jpg,badlands_64.jpg,badlands_64.jpg,badlands_64.jpg,0,A1WD7UTKGWS016,30,Female,7,2023-07-18_15h41.42.766,working,2022.2.4,Win32,16.80870018,,,right,1.902,0,40,40,40,1,playground_229.jpg,0,playground,,,,,,,,,,,
,,,,,,,,,,mountain_156.jpg,mountain_295.jpg,mountain_156.jpg,right,highway_12.jpg,mountain_156.jpg,golf_course_334.jpg,bridge_52.jpg,bridge_52.jpg,bridge_52.jpg,1,A1WD7UTKGWS016,30,Female,7,2023-07-18_15h41.42.766,working,2022.2.4,Win32,16.80870018,,,right,1.0974,0,41,41,41,1,mountain_295.jpg,1,mountain,,,,,,,,,,,
,,,,,,,,,,mountain_222.jpg,mountain_93.jpg,mountain_222.jpg,right,bridge_238.jpg,mountain_222.jpg,highway_117.jpg,playground_193.jpg,playground_193.jpg,playground_193.jpg,1,A1WD7UTKGWS016,30,Female,7,2023-07-18_15h41.42.766,working,2022.2.4,Win32,16.80870018,,,left,1.3953,0,42,42,42,1,mountain_93.jpg,1,mountain,,,,,,,,,,,
,,,,,,,,,,golf_course_217.jpg,golf_course_35.jpg,golf_course_217.jpg,right,playground_54.jpg,golf_course_217.jpg,bridge_106.jpg,highway_234.jpg,highway_234.jpg,highway_234.jpg,1,A1WD7UTKGWS016,30,Female,7,2023-07-18_15h41.42.766,working,2022.2.4,Win32,16.80870018,,,right,1.4152,0,43,43,43,1,golf_course_35.jpg,0,golf,,,,,,,,,,,
,,,,,,,,,,bridge_191.jpg,bridge_191.jpg,bridge_184.jpg,left,badlands_95.jpg,golf_course_173.jpg,bridge_191.jpg,playground_209.jpg,playground_209.jpg,playground_209.jpg,2,A1WD7UTKGWS016,30,Female,7,2023-07-18_15h41.42.766,working,2022.2.4,Win32,16.80870018,,,left,0.9177,0,44,44,44,1,bridge_184.jpg,0,bridge,,,,,,,,,,,
,,,,,,,,,,highway_294.jpg,highway_294.jpg,highway_203.jpg,left,highway_294.jpg,bridge_10.jpg,golf_course_57.jpg,mountain_212.jpg,mountain_212.jpg,mountain_212.jpg,0,A1WD7UTKGWS016,30,Female,7,2023-07-18_15h41.42.766,working,2022.2.4,Win32,16.80870018,,,right,1.3256,0,45,45,45,1,highway_203.jpg,0,highway,,,,,,,,,,,
,,,,,,,,,,playground_60.jpg,playground_244.jpg,playground_60.jpg,right,bridge_257.jpg,golf_course_185.jpg,playground_60.jpg,badlands_200.jpg,badlands_200.jpg,badlands_200.jpg,2,A1WD7UTKGWS016,30,Female,7,2023-07-18_15h41.42.766,working,2022.2.4,Win32,16.80870018,,,right,0.9272,0,46,46,46,1,playground_244.jpg,1,playground,,,,,,,,,,,
,,,,,,,,,,golf_course_188.jpg,golf_course_188.jpg,golf_course_157.jpg,left,badlands_35.jpg,mountain_253.jpg,golf_course_188.jpg,highway_244.jpg,highway_244.jpg,highway_244.jpg,2,A1WD7UTKGWS016,30,Female,7,2023-07-18_15h41.42.766,working,2022.2.4,Win32,16.80870018,,,left,1.5351,0,47,47,47,1,golf_course_157.jpg,0,golf,,,,,,,,,,,
,,,,,,,,,,highway_359.jpg,highway_359.jpg,highway_389.jpg,left,golf_course_156.jpg,bridge_158.jpg,highway_359.jpg,playground_181.jpg,playground_181.jpg,playground_181.jpg,2,A1WD7UTKGWS016,30,Female,7,2023-07-18_15h41.42.766,working,2022.2.4,Win32,16.80870018,,,left,1.0719,0,48,48,48,1,highway_389.jpg,0,highway,,,,,,,,,,,
,,,,,,,,,,highway_394.jpg,highway_394.jpg,highway_204.jpg,left,golf_course_128.jpg,badlands_100.jpg,highway_394.jpg,playground_41.jpg,playground_41.jpg,playground_41.jpg,2,A1WD7UTKGWS016,30,Female,7,2023-07-18_15h41.42.766,working,2022.2.4,Win32,16.80870018,,,left,1.1808,0,49,49,49,1,highway_204.jpg,0,highway,,,,,,,,,,,
,,,,,,,,,,badlands_221.jpg,badlands_115.jpg,badlands_221.jpg,right,highway_249.jpg,bridge_177.jpg,badlands_221.jpg,mountain_296.jpg,mountain_296.jpg,mountain_296.jpg,2,A1WD7UTKGWS016,30,Female,7,2023-07-18_15h41.42.766,working,2022.2.4,Win32,16.80870018,,,left,1.064,0,50,50,50,1,badlands_115.jpg,0,badlands,,,,,,,,,,,
,,,,,,,,,,playground_76.jpg,playground_76.jpg,playground_22.jpg,left,highway_342.jpg,playground_76.jpg,golf_course_60.jpg,bridge_80.jpg,bridge_80.jpg,bridge_80.jpg,1,A1WD7UTKGWS016,30,Female,7,2023-07-18_15h41.42.766,working,2022.2.4,Win32,16.80870018,,,left,0.9945,0,51,51,51,1,playground_22.jpg,0,playground,,,,,,,,,,,
,,,,,,,,,,golf_course_309.jpg,golf_course_16.jpg,golf_course_309.jpg,right,badlands_216.jpg,golf_course_309.jpg,mountain_162.jpg,bridge_18.jpg,bridge_18.jpg,bridge_18.jpg,1,A1WD7UTKGWS016,30,Female,7,2023-07-18_15h41.42.766,working,2022.2.4,Win32,16.80870018,,,left,1.1415,0,52,52,52,1,golf_course_16.jpg,0,golf,,,,,,,,,,,
,,,,,,,,,,badlands_113.jpg,badlands_113.jpg,badlands_203.jpg,left,highway_159.jpg,mountain_104.jpg,badlands_113.jpg,golf_course_264.jpg,golf_course_264.jpg,golf_course_264.jpg,2,A1WD7UTKGWS016,30,Female,7,2023-07-18_15h41.42.766,working,2022.2.4,Win32,16.80870018,,,right,0.8135,0,53,53,53,1,badlands_203.jpg,1,badlands,,,,,,,,,,,
,,,,,,,,,,bridge_202.jpg,bridge_31.jpg,bridge_202.jpg,right,bridge_202.jpg,badlands_218.jpg,golf_course_260.jpg,highway_146.jpg,highway_146.jpg,highway_146.jpg,0,A1WD7UTKGWS016,30,Female,7,2023-07-18_15h41.42.766,working,2022.2.4,Win32,16.80870018,,,right,2.2377,0,54,54,54,1,bridge_31.jpg,0,bridge,,,,,,,,,,,
,,,,,,,,,,playground_219.jpg,playground_219.jpg,playground_205.jpg,left,bridge_230.jpg,badlands_13.jpg,playground_219.jpg,highway_175.jpg,highway_175.jpg,highway_175.jpg,2,A1WD7UTKGWS016,30,Female,7,2023-07-18_15h41.42.766,working,2022.2.4,Win32,16.80870018,,,left,0.9809,0,55,55,55,1,playground_205.jpg,1,playground,,,,,,,,,,,
,,,,,,,,,,mountain_110.jpg,mountain_223.jpg,mountain_110.jpg,right,mountain_110.jpg,badlands_58.jpg,playground_7.jpg,bridge_218.jpg,bridge_218.jpg,bridge_218.jpg,0,A1WD7UTKGWS016,30,Female,7,2023-07-18_15h41.42.766,working,2022.2.4,Win32,16.80870018,,,left,1.248,0,56,56,56,1,mountain_223.jpg,1,mountain,,,,,,,,,,,
,,,,,,,,,,mountain_57.jpg,mountain_57.jpg,mountain_138.jpg,left,mountain_57.jpg,playground_172.jpg,badlands_108.jpg,bridge_251.jpg,bridge_251.jpg,bridge_251.jpg,0,A1WD7UTKGWS016,30,Female,7,2023-07-18_15h41.42.766,working,2022.2.4,Win32,16.80870018,,,right,1.0066,0,57,57,57,1,mountain_138.jpg,1,mountain,,,,,,,,,,,
,,,,,,,,,,playground_257.jpg,playground_257.jpg,playground_215.jpg,left,golf_course_52.jpg,playground_257.jpg,badlands_177.jpg,mountain_107.jpg,mountain_107.jpg,mountain_107.jpg,1,A1WD7UTKGWS016,30,Female,7,2023-07-18_15h41.42.766,working,2022.2.4,Win32,16.80870018,,,left,1.7284,0,58,58,58,1,playground_215.jpg,1,playground,,,,,,,,,,,
,,,,,,,,,,bridge_91.jpg,bridge_82.jpg,bridge_91.jpg,right,golf_course_204.jpg,playground_158.jpg,bridge_91.jpg,highway_219.jpg,highway_219.jpg,highway_219.jpg,2,A1WD7UTKGWS016,30,Female,7,2023-07-18_15h41.42.766,working,2022.2.4,Win32,16.80870018,,,right,0.9101,0,59,59,59,1,bridge_82.jpg,1,bridge,,,,,,,,,,,
,,,,,,,,,,bridge_250.jpg,bridge_250.jpg,bridge_205.jpg,left,bridge_250.jpg,mountain_34.jpg,badlands_149.jpg,highway_227.jpg,highway_227.jpg,highway_227.jpg,0,A1WD7UTKGWS016,30,Female,7,2023-07-18_15h41.42.766,working,2022.2.4,Win32,16.80870018,,,,,,,,,,bridge_205.jpg,1,bridge,space,3.7399,7.385416667,2.9307,0,0,0,0,1,,
,,,,,,,,,,badlands_23.jpg,badlands_23.jpg,badlands_114.jpg,left,badlands_23.jpg,mountain_66.jpg,highway_37.jpg,golf_course_1.jpg,golf_course_1.jpg,golf_course_1.jpg,0,A1WD7UTKGWS016,30,Female,7,2023-07-18_15h41.42.766,working,2022.2.4,Win32,16.80870018,,,,,,,,,,badlands_114.jpg,0,badlands,,,7.8125,1.8956,0,1,1,1,1,,
,,,,,,,,,,playground_144.jpg,playground_144.jpg,playground_137.jpg,left,playground_144.jpg,bridge_130.jpg,mountain_228.jpg,golf_course_320.jpg,golf_course_320.jpg,golf_course_320.jpg,0,A1WD7UTKGWS016,30,Female,7,2023-07-18_15h41.42.766,working,2022.2.4,Win32,16.80870018,,,,,,,,,,playground_137.jpg,0,playground,,,8.114583333,2.229,0,2,2,2,1,,
,,,,,,,,,,golf_course_214.jpg,golf_course_214.jpg,golf_course_312.jpg,left,golf_course_214.jpg,highway_325.jpg,playground_95.jpg,badlands_176.jpg,badlands_176.jpg,badlands_176.jpg,0,A1WD7UTKGWS016,30,Female,7,2023-07-18_15h41.42.766,working,2022.2.4,Win32,16.80870018,,,,,,,,,,golf_course_312.jpg,0,golf,,,8.333333333,2.0277,0,3,3,3,1,,
,,,,,,,,,,bridge_256.jpg,bridge_256.jpg,bridge_54.jpg,left,highway_25.jpg,playground_25.jpg,bridge_256.jpg,badlands_59.jpg,badlands_59.jpg,badlands_59.jpg,2,A1WD7UTKGWS016,30,Female,7,2023-07-18_15h41.42.766,working,2022.2.4,Win32,16.80870018,,,,,,,,,,bridge_54.jpg,0,bridge,,,8.65625,1.6988,0,4,4,4,1,,
,,,,,,,,,,golf_course_78.jpg,golf_course_134.jpg,golf_course_78.jpg,right,mountain_307.jpg,golf_course_78.jpg,highway_147.jpg,bridge_49.jpg,bridge_49.jpg,bridge_49.jpg,1,A1WD7UTKGWS016,30,Female,7,2023-07-18_15h41.42.766,working,2022.2.4,Win32,16.80870018,,,,,,,,,,golf_course_134.jpg,0,golf,,,8.65625,1.3301,0,5,5,5,1,,
,,,,,,,,,,playground_131.jpg,playground_131.jpg,playground_43.jpg,left,playground_131.jpg,golf_course_290.jpg,bridge_264.jpg,highway_261.jpg,highway_261.jpg,highway_261.jpg,0,A1WD7UTKGWS016,30,Female,7,2023-07-18_15h41.42.766,working,2022.2.4,Win32,16.80870018,,,,,,,,,,playground_43.jpg,0,playground,,,8.177083333,2.2761,0,6,6,6,1,,
,,,,,,,,,,badlands_21.jpg,badlands_98.jpg,badlands_21.jpg,right,badlands_21.jpg,bridge_239.jpg,golf_course_152.jpg,highway_196.jpg,highway_196.jpg,highway_196.jpg,0,A1WD7UTKGWS016,30,Female,7,2023-07-18_15h41.42.766,working,2022.2.4,Win32,16.80870018,,,,,,,,,,badlands_98.jpg,1,badlands,,,7.666666667,1.6884,0,7,7,7,1,,
,,,,,,,,,,bridge_128.jpg,bridge_61.jpg,bridge_128.jpg,right,mountain_199.jpg,golf_course_27.jpg,bridge_128.jpg,playground_3.jpg,playground_3.jpg,playground_3.jpg,2,A1WD7UTKGWS016,30,Female,7,2023-07-18_15h41.42.766,working,2022.2.4,Win32,16.80870018,,,,,,,,,,bridge_61.jpg,0,bridge,,,5.90625,2.4516,0,8,8,8,1,,
,,,,,,,,,,badlands_70.jpg,badlands_70.jpg,badlands_102.jpg,left,bridge_26.jpg,mountain_179.jpg,badlands_70.jpg,golf_course_166.jpg,golf_course_166.jpg,golf_course_166.jpg,2,A1WD7UTKGWS016,30,Female,7,2023-07-18_15h41.42.766,working,2022.2.4,Win32,16.80870018,,,,,,,,,,badlands_102.jpg,0,badlands,,,7.270833333,1.6157,0,9,9,9,1,,
,,,,,,,,,,mountain_154.jpg,mountain_95.jpg,mountain_154.jpg,right,bridge_263.jpg,mountain_154.jpg,playground_5.jpg,golf_course_102.jpg,golf_course_102.jpg,golf_course_102.jpg,1,A1WD7UTKGWS016,30,Female,7,2023-07-18_15h41.42.766,working,2022.2.4,Win32,16.80870018,,,,,,,,,,mountain_95.jpg,1,mountain,,,7.71875,1.304,0,10,10,10,1,,
,,,,,,,,,,badlands_24.jpg,badlands_24.jpg,badlands_53.jpg,left,badlands_24.jpg,playground_80.jpg,mountain_280.jpg,bridge_25.jpg,bridge_25.jpg,bridge_25.jpg,0,A1WD7UTKGWS016,30,Female,7,2023-07-18_15h41.42.766,working,2022.2.4,Win32,16.80870018,,,,,,,,,,badlands_53.jpg,1,badlands,,,8.229166667,1.3749,0,11,11,11,1,,
,,,,,,,,,,mountain_230.jpg,mountain_230.jpg,mountain_184.jpg,left,mountain_230.jpg,badlands_27.jpg,highway_319.jpg,playground_249.jpg,playground_249.jpg,playground_249.jpg,0,A1WD7UTKGWS016,30,Female,7,2023-07-18_15h41.42.766,working,2022.2.4,Win32,16.80870018,,,,,,,,,,mountain_184.jpg,0,mountain,,,8.479166667,1.4099,0,12,12,12,1,,
,,,,,,,,,,highway_415.jpg,highway_174.jpg,highway_415.jpg,right,mountain_91.jpg,highway_415.jpg,badlands_186.jpg,bridge_132.jpg,bridge_132.jpg,bridge_132.jpg,1,A1WD7UTKGWS016,30,Female,7,2023-07-18_15h41.42.766,working,2022.2.4,Win32,16.80870018,,,,,,,,,,highway_174.jpg,1,highway,,,8.6875,2.2972,0,13,13,13,1,,
,,,,,,,,,,playground_10.jpg,playground_12.jpg,playground_10.jpg,right,badlands_30.jpg,playground_10.jpg,mountain_161.jpg,golf_course_33.jpg,golf_course_33.jpg,golf_course_33.jpg,1,A1WD7UTKGWS016,30,Female,7,2023-07-18_15h41.42.766,working,2022.2.4,Win32,16.80870018,,,,,,,,,,playground_12.jpg,1,playground,,,8.71875,1.4184,0,14,14,14,1,,
,,,,,,,,,,highway_177.jpg,highway_177.jpg,highway_87.jpg,left,highway_177.jpg,golf_course_42.jpg,mountain_292.jpg,playground_46.jpg,playground_46.jpg,playground_46.jpg,0,A1WD7UTKGWS016,30,Female,7,2023-07-18_15h41.42.766,working,2022.2.4,Win32,16.80870018,,,,,,,,,,highway_87.jpg,0,highway,,,6.791666667,2.1978,0,15,15,15,1,,
,,,,,,,,,,golf_course_195.jpg,golf_course_2.jpg,golf_course_195.jpg,right,playground_6.jpg,golf_course_195.jpg,badlands_174.jpg,bridge_78.jpg,bridge_78.jpg,bridge_78.jpg,1,A1WD7UTKGWS016,30,Female,7,2023-07-18_15h41.42.766,working,2022.2.4,Win32,16.80870018,,,,,,,,,,golf_course_2.jpg,1,golf,,,8.541666667,1.2274,0,16,16,16,1,,
,,,,,,,,,,golf_course_331.jpg,golf_course_114.jpg,golf_course_331.jpg,right,mountain_204.jpg,playground_70.jpg,golf_course_331.jpg,highway_18.jpg,highway_18.jpg,highway_18.jpg,2,A1WD7UTKGWS016,30,Female,7,2023-07-18_15h41.42.766,working,2022.2.4,Win32,16.80870018,,,,,,,,,,golf_course_114.jpg,0,golf,,,8.541666667,1.3844,0,17,17,17,1,,
,,,,,,,,,,highway_273.jpg,highway_384.jpg,highway_273.jpg,right,mountain_115.jpg,highway_273.jpg,playground_13.jpg,golf_course_258.jpg,golf_course_258.jpg,golf_course_258.jpg,1,A1WD7UTKGWS016,30,Female,7,2023-07-18_15h41.42.766,working,2022.2.4,Win32,16.80870018,,,,,,,,,,highway_384.jpg,0,highway,,,8.541666667,1.4169,0,18,18,18,1,,
,,,,,,,,,,golf_course_87.jpg,golf_course_161.jpg,golf_course_87.jpg,right,golf_course_87.jpg,playground_200.jpg,highway_263.jpg,mountain_224.jpg,mountain_224.jpg,mountain_224.jpg,0,A1WD7UTKGWS016,30,Female,7,2023-07-18_15h41.42.766,working,2022.2.4,Win32,16.80870018,,,,,,,,,,golf_course_161.jpg,1,golf,,,8.541666667,1.6953,0,19,19,19,1,,
,,,,,,,,,,mountain_123.jpg,mountain_94.jpg,mountain_123.jpg,right,highway_336.jpg,mountain_123.jpg,bridge_204.jpg,badlands_31.jpg,badlands_31.jpg,badlands_31.jpg,1,A1WD7UTKGWS016,30,Female,7,2023-07-18_15h41.42.766,working,2022.2.4,Win32,16.80870018,,,,,,,,,,mountain_94.jpg,0,mountain,,,7.59375,2.5402,0,20,20,20,1,,
,,,,,,,,,,badlands_52.jpg,badlands_52.jpg,badlands_94.jpg,left,playground_52.jpg,badlands_52.jpg,bridge_123.jpg,mountain_24.jpg,mountain_24.jpg,mountain_24.jpg,1,A1WD7UTKGWS016,30,Female,7,2023-07-18_15h41.42.766,working,2022.2.4,Win32,16.80870018,,,,,,,,,,badlands_94.jpg,0,badlands,,,7.822916667,1.922,0,21,21,21,1,,
,,,,,,,,,,golf_course_15.jpg,golf_course_97.jpg,golf_course_15.jpg,right,highway_114.jpg,golf_course_15.jpg,mountain_233.jpg,playground_241.jpg,playground_241.jpg,playground_241.jpg,1,A1WD7UTKGWS016,30,Female,7,2023-07-18_15h41.42.766,working,2022.2.4,Win32,16.80870018,,,,,,,,,,golf_course_97.jpg,1,golf,,,8.21875,1.7015,0,22,22,22,1,,
,,,,,,,,,,playground_240.jpg,playground_40.jpg,playground_240.jpg,right,playground_240.jpg,mountain_26.jpg,golf_course_337.jpg,bridge_48.jpg,bridge_48.jpg,bridge_48.jpg,0,A1WD7UTKGWS016,30,Female,7,2023-07-18_15h41.42.766,working,2022.2.4,Win32,16.80870018,,,,,,,,,,playground_40.jpg,1,playground,,,8.666666667,2.2174,0,23,23,23,1,,
,,,,,,,,,,highway_93.jpg,highway_93.jpg,highway_85.jpg,left,bridge_124.jpg,mountain_235.jpg,highway_93.jpg,badlands_220.jpg,badlands_220.jpg,badlands_220.jpg,2,A1WD7UTKGWS016,30,Female,7,2023-07-18_15h41.42.766,working,2022.2.4,Win32,16.80870018,,,,,,,,,,highway_85.jpg,0,highway,,,8.78125,1.858,0,24,24,24,1,,
,,,,,,,,,,bridge_146.jpg,bridge_121.jpg,bridge_146.jpg,right,mountain_12.jpg,playground_36.jpg,bridge_146.jpg,golf_course_321.jpg,golf_course_321.jpg,golf_course_321.jpg,2,A1WD7UTKGWS016,30,Female,7,2023-07-18_15h41.42.766,working,2022.2.4,Win32,16.80870018,,,,,,,,,,bridge_121.jpg,1,bridge,,,7.125,2.3295,0,25,25,25,1,,
,,,,,,,,,,playground_117.jpg,playground_117.jpg,playground_127.jpg,left,playground_117.jpg,badlands_99.jpg,bridge_19.jpg,highway_149.jpg,highway_149.jpg,highway_149.jpg,0,A1WD7UTKGWS016,30,Female,7,2023-07-18_15h41.42.766,working,2022.2.4,Win32,16.80870018,,,,,,,,,,playground_127.jpg,1,playground,,,8.604166667,1.2824,0,26,26,26,1,,
,,,,,,,,,,badlands_222.jpg,badlands_222.jpg,badlands_34.jpg,left,badlands_222.jpg,highway_75.jpg,playground_108.jpg,bridge_179.jpg,bridge_179.jpg,bridge_179.jpg,0,A1WD7UTKGWS016,30,Female,7,2023-07-18_15h41.42.766,working,2022.2.4,Win32,16.80870018,,,,,,,,,,badlands_34.jpg,0,badlands,,,8.604166667,1.5984,0,27,27,27,1,,
,,,,,,,,,,highway_209.jpg,highway_122.jpg,highway_209.jpg,right,highway_209.jpg,playground_42.jpg,badlands_38.jpg,bridge_103.jpg,bridge_103.jpg,bridge_103.jpg,0,A1WD7UTKGWS016,30,Female,7,2023-07-18_15h41.42.766,working,2022.2.4,Win32,16.80870018,,,,,,,,,,highway_122.jpg,1,highway,,,8.604166667,1.2982,0,28,28,28,1,,
,,,,,,,,,,mountain_232.jpg,mountain_54.jpg,mountain_232.jpg,right,bridge_34.jpg,mountain_232.jpg,playground_178.jpg,highway_99.jpg,highway_99.jpg,highway_99.jpg,1,A1WD7UTKGWS016,30,Female,7,2023-07-18_15h41.42.766,working,2022.2.4,Win32,16.80870018,,,,,,,,,,mountain_54.jpg,1,mountain,,,8.604166667,1.5165,0,29,29,29,1,,
,,,,,,,,,,mountain_101.jpg,mountain_101.jpg,mountain_221.jpg,left,badlands_54.jpg,mountain_101.jpg,playground_30.jpg,highway_11.jpg,highway_11.jpg,highway_11.jpg,1,A1WD7UTKGWS016,30,Female,7,2023-07-18_15h41.42.766,working,2022.2.4,Win32,16.80870018,,,,,,,,,,mountain_221.jpg,1,mountain,,,5.71875,2.2613,0,30,30,30,1,,
,,,,,,,,,,golf_course_193.jpg,golf_course_193.jpg,golf_course_123.jpg,left,playground_173.jpg,badlands_193.jpg,golf_course_193.jpg,highway_144.jpg,highway_144.jpg,highway_144.jpg,2,A1WD7UTKGWS016,30,Female,7,2023-07-18_15h41.42.766,working,2022.2.4,Win32,16.80870018,,,,,,,,,,golf_course_123.jpg,1,golf,,,7.489583333,1.8557,0,31,31,31,1,,
,,,,,,,,,,highway_156.jpg,highway_156.jpg,highway_293.jpg,left,mountain_15.jpg,highway_156.jpg,golf_course_46.jpg,badlands_153.jpg,badlands_153.jpg,badlands_153.jpg,1,A1WD7UTKGWS016,30,Female,7,2023-07-18_15h41.42.766,working,2022.2.4,Win32,16.80870018,,,,,,,,,,highway_293.jpg,1,highway,,,8.927083333,2.9463,0,32,32,32,1,,
,,,,,,,,,,mountain_293.jpg,mountain_72.jpg,mountain_293.jpg,right,badlands_143.jpg,mountain_293.jpg,highway_301.jpg,playground_235.jpg,playground_235.jpg,playground_235.jpg,1,A1WD7UTKGWS016,30,Female,7,2023-07-18_15h41.42.766,working,2022.2.4,Win32,16.80870018,,,,,,,,,,mountain_72.jpg,0,mountain,,,8.989583333,1.8322,0,33,33,33,1,,
,,,,,,,,,,bridge_108.jpg,bridge_116.jpg,bridge_108.jpg,right,playground_259.jpg,bridge_108.jpg,highway_88.jpg,badlands_210.jpg,badlands_210.jpg,badlands_210.jpg,1,A1WD7UTKGWS016,30,Female,7,2023-07-18_15h41.42.766,working,2022.2.4,Win32,16.80870018,,,,,,,,,,bridge_116.jpg,0,bridge,,,7.010416667,3.3034,0,34,34,34,1,,
,,,,,,,,,,bridge_172.jpg,bridge_163.jpg,bridge_172.jpg,right,bridge_172.jpg,badlands_2.jpg,highway_248.jpg,playground_116.jpg,playground_116.jpg,playground_116.jpg,0,A1WD7UTKGWS016,30,Female,7,2023-07-18_15h41.42.766,working,2022.2.4,Win32,16.80870018,,,,,,,,,,bridge_163.jpg,1,bridge,,,8.260416667,2.1359,0,35,35,35,1,,
,,,,,,,,,,badlands_137.jpg,badlands_137.jpg,badlands_139.jpg,left,highway_166.jpg,badlands_137.jpg,golf_course_88.jpg,playground_191.jpg,playground_191.jpg,playground_191.jpg,1,A1WD7UTKGWS016,30,Female,7,2023-07-18_15h41.42.766,working,2022.2.4,Win32,16.80870018,,,,,,,,,,badlands_139.jpg,1,badlands,,,8.125,2.8948,0,36,36,36,1,,
,,,,,,,,,,bridge_65.jpg,bridge_60.jpg,bridge_65.jpg,right,mountain_44.jpg,bridge_65.jpg,playground_183.jpg,golf_course_83.jpg,golf_course_83.jpg,golf_course_83.jpg,1,A1WD7UTKGWS016,30,Female,7,2023-07-18_15h41.42.766,working,2022.2.4,Win32,16.80870018,,,,,,,,,,bridge_60.jpg,1,bridge,,,6.166666667,3.6335,0,37,37,37,1,,
,,,,,,,,,,highway_245.jpg,highway_134.jpg,highway_245.jpg,right,highway_245.jpg,bridge_9.jpg,mountain_132.jpg,golf_course_223.jpg,golf_course_223.jpg,golf_course_223.jpg,0,A1WD7UTKGWS016,30,Female,7,2023-07-18_15h41.42.766,working,2022.2.4,Win32,16.80870018,,,,,,,,,,highway_134.jpg,0,highway,,,8.197916667,2.4437,0,38,38,38,1,,
,,,,,,,,,,badlands_184.jpg,badlands_103.jpg,badlands_184.jpg,right,golf_course_329.jpg,badlands_184.jpg,bridge_169.jpg,highway_398.jpg,highway_398.jpg,highway_398.jpg,1,A1WD7UTKGWS016,30,Female,7,2023-07-18_15h41.42.766,working,2022.2.4,Win32,16.80870018,,,,,,,,,,badlands_103.jpg,1,badlands,,,7.322916667,2.2794,0,39,39,39,1,,
,,,,,,,,,,playground_145.jpg,playground_145.jpg,playground_229.jpg,left,playground_145.jpg,mountain_202.jpg,bridge_259.jpg,badlands_64.jpg,badlands_64.jpg,badlands_64.jpg,0,A1WD7UTKGWS016,30,Female,7,2023-07-18_15h41.42.766,working,2022.2.4,Win32,16.80870018,,,,,,,,,,playground_229.jpg,0,playground,,,8.239583333,1.274,0,40,40,40,1,,
,,,,,,,,,,mountain_156.jpg,mountain_295.jpg,mountain_156.jpg,right,highway_12.jpg,mountain_156.jpg,golf_course_334.jpg,bridge_52.jpg,bridge_52.jpg,bridge_52.jpg,1,A1WD7UTKGWS016,30,Female,7,2023-07-18_15h41.42.766,working,2022.2.4,Win32,16.80870018,,,,,,,,,,mountain_295.jpg,1,mountain,,,8.333333333,1.6686,0,41,41,41,1,,
,,,,,,,,,,mountain_222.jpg,mountain_93.jpg,mountain_222.jpg,right,bridge_238.jpg,mountain_222.jpg,highway_117.jpg,playground_193.jpg,playground_193.jpg,playground_193.jpg,1,A1WD7UTKGWS016,30,Female,7,2023-07-18_15h41.42.766,working,2022.2.4,Win32,16.80870018,,,,,,,,,,mountain_93.jpg,1,mountain,,,8.34375,1.4628,0,42,42,42,1,,
,,,,,,,,,,golf_course_217.jpg,golf_course_35.jpg,golf_course_217.jpg,right,playground_54.jpg,golf_course_217.jpg,bridge_106.jpg,highway_234.jpg,highway_234.jpg,highway_234.jpg,1,A1WD7UTKGWS016,30,Female,7,2023-07-18_15h41.42.766,working,2022.2.4,Win32,16.80870018,,,,,,,,,,golf_course_35.jpg,0,golf,,,7.635416667,1.9673,0,43,43,43,1,,
,,,,,,,,,,bridge_191.jpg,bridge_191.jpg,bridge_184.jpg,left,badlands_95.jpg,golf_course_173.jpg,bridge_191.jpg,playground_209.jpg,playground_209.jpg,playground_209.jpg,2,A1WD7UTKGWS016,30,Female,7,2023-07-18_15h41.42.766,working,2022.2.4,Win32,16.80870018,,,,,,,,,,bridge_184.jpg,0,bridge,,,8.197916667,1.3384,0,44,44,44,1,,
,,,,,,,,,,highway_294.jpg,highway_294.jpg,highway_203.jpg,left,highway_294.jpg,bridge_10.jpg,golf_course_57.jpg,mountain_212.jpg,mountain_212.jpg,mountain_212.jpg,0,A1WD7UTKGWS016,30,Female,7,2023-07-18_15h41.42.766,working,2022.2.4,Win32,16.80870018,,,,,,,,,,highway_203.jpg,0,highway,,,8.40625,1.2413,0,45,45,45,1,,
,,,,,,,,,,playground_60.jpg,playground_244.jpg,playground_60.jpg,right,bridge_257.jpg,golf_course_185.jpg,playground_60.jpg,badlands_200.jpg,badlands_200.jpg,badlands_200.jpg,2,A1WD7UTKGWS016,30,Female,7,2023-07-18_15h41.42.766,working,2022.2.4,Win32,16.80870018,,,,,,,,,,playground_244.jpg,1,playground,,,8.979166667,3.225,0,46,46,46,1,,
,,,,,,,,,,golf_course_188.jpg,golf_course_188.jpg,golf_course_157.jpg,left,badlands_35.jpg,mountain_253.jpg,golf_course_188.jpg,highway_244.jpg,highway_244.jpg,highway_244.jpg,2,A1WD7UTKGWS016,30,Female,7,2023-07-18_15h41.42.766,working,2022.2.4,Win32,16.80870018,,,,,,,,,,golf_course_157.jpg,0,golf,,,8.760416667,1.6529,0,47,47,47,1,,
,,,,,,,,,,highway_359.jpg,highway_359.jpg,highway_389.jpg,left,golf_course_156.jpg,bridge_158.jpg,highway_359.jpg,playground_181.jpg,playground_181.jpg,playground_181.jpg,2,A1WD7UTKGWS016,30,Female,7,2023-07-18_15h41.42.766,working,2022.2.4,Win32,16.80870018,,,,,,,,,,highway_389.jpg,0,highway,,,7.28125,3.1374,0,48,48,48,1,,
,,,,,,,,,,highway_394.jpg,highway_394.jpg,highway_204.jpg,left,golf_course_128.jpg,badlands_100.jpg,highway_394.jpg,playground_41.jpg,playground_41.jpg,playground_41.jpg,2,A1WD7UTKGWS016,30,Female,7,2023-07-18_15h41.42.766,working,2022.2.4,Win32,16.80870018,,,,,,,,,,highway_204.jpg,0,highway,,,8.34375,1.3488,0,49,49,49,1,,
,,,,,,,,,,badlands_221.jpg,badlands_115.jpg,badlands_221.jpg,right,highway_249.jpg,bridge_177.jpg,badlands_221.jpg,mountain_296.jpg,mountain_296.jpg,mountain_296.jpg,2,A1WD7UTKGWS016,30,Female,7,2023-07-18_15h41.42.766,working,2022.2.4,Win32,16.80870018,,,,,,,,,,badlands_115.jpg,0,badlands,,,8.572916667,1.5237,0,50,50,50,1,,
,,,,,,,,,,playground_76.jpg,playground_76.jpg,playground_22.jpg,left,highway_342.jpg,playground_76.jpg,golf_course_60.jpg,bridge_80.jpg,bridge_80.jpg,bridge_80.jpg,1,A1WD7UTKGWS016,30,Female,7,2023-07-18_15h41.42.766,working,2022.2.4,Win32,16.80870018,,,,,,,,,,playground_22.jpg,0,playground,,,7.552083333,2.0732,0,51,51,51,1,,
,,,,,,,,,,golf_course_309.jpg,golf_course_16.jpg,golf_course_309.jpg,right,badlands_216.jpg,golf_course_309.jpg,mountain_162.jpg,bridge_18.jpg,bridge_18.jpg,bridge_18.jpg,1,A1WD7UTKGWS016,30,Female,7,2023-07-18_15h41.42.766,working,2022.2.4,Win32,16.80870018,,,,,,,,,,golf_course_16.jpg,0,golf,,,8.322916667,2.1699,0,52,52,52,1,,
,,,,,,,,,,badlands_113.jpg,badlands_113.jpg,badlands_203.jpg,left,highway_159.jpg,mountain_104.jpg,badlands_113.jpg,golf_course_264.jpg,golf_course_264.jpg,golf_course_264.jpg,2,A1WD7UTKGWS016,30,Female,7,2023-07-18_15h41.42.766,working,2022.2.4,Win32,16.80870018,,,,,,,,,,badlands_203.jpg,1,badlands,,,8.40625,1.2644,0,53,53,53,1,,
,,,,,,,,,,bridge_202.jpg,bridge_31.jpg,bridge_202.jpg,right,bridge_202.jpg,badlands_218.jpg,golf_course_260.jpg,highway_146.jpg,highway_146.jpg,highway_146.jpg,0,A1WD7UTKGWS016,30,Female,7,2023-07-18_15h41.42.766,working,2022.2.4,Win32,16.80870018,,,,,,,,,,bridge_31.jpg,0,bridge,,,7.489583333,2.1335,0,54,54,54,1,,
,,,,,,,,,,playground_219.jpg,playground_219.jpg,playground_205.jpg,left,bridge_230.jpg,badlands_13.jpg,playground_219.jpg,highway_175.jpg,highway_175.jpg,highway_175.jpg,2,A1WD7UTKGWS016,30,Female,7,2023-07-18_15h41.42.766,working,2022.2.4,Win32,16.80870018,,,,,,,,,,playground_205.jpg,1,playground,,,8.916666667,3.4893,0,55,55,55,1,,
,,,,,,,,,,mountain_110.jpg,mountain_223.jpg,mountain_110.jpg,right,mountain_110.jpg,badlands_58.jpg,playground_7.jpg,bridge_218.jpg,bridge_218.jpg,bridge_218.jpg,0,A1WD7UTKGWS016,30,Female,7,2023-07-18_15h41.42.766,working,2022.2.4,Win32,16.80870018,,,,,,,,,,mountain_223.jpg,1,mountain,,,8.645833333,1.7093,0,56,56,56,1,,
,,,,,,,,,,mountain_57.jpg,mountain_57.jpg,mountain_138.jpg,left,mountain_57.jpg,playground_172.jpg,badlands_108.jpg,bridge_251.jpg,bridge_251.jpg,bridge_251.jpg,0,A1WD7UTKGWS016,30,Female,7,2023-07-18_15h41.42.766,working,2022.2.4,Win32,16.80870018,,,,,,,,,,mountain_138.jpg,1,mountain,,,7.208333333,2.7845,0,57,57,57,1,,
,,,,,,,,,,playground_257.jpg,playground_257.jpg,playground_215.jpg,left,golf_course_52.jpg,playground_257.jpg,badlands_177.jpg,mountain_107.jpg,mountain_107.jpg,mountain_107.jpg,1,A1WD7UTKGWS016,30,Female,7,2023-07-18_15h41.42.766,working,2022.2.4,Win32,16.80870018,,,,,,,,,,playground_215.jpg,1,playground,,,8.395833333,1.2946,0,58,58,58,1,,
,,,,,,,,,,bridge_91.jpg,bridge_82.jpg,bridge_91.jpg,right,golf_course_204.jpg,playground_158.jpg,bridge_91.jpg,highway_219.jpg,highway_219.jpg,highway_219.jpg,2,A1WD7UTKGWS016,30,Female,7,2023-07-18_15h41.42.766,working,2022.2.4,Win32,16.80870018,,,,,,,,,,bridge_82.jpg,1,bridge,,,8.145833333,1.9971,0,59,59,59,1,,
,,,,,,,,,,,,,,,,,,,,,A1WD7UTKGWS016,30,Female,7,2023-07-18_15h41.42.766,working,2022.2.4,Win32,16.80870018,,,,,,,,,,,,,,,,,,,,,,space,2.1588
