key_resp.keys,key_resp_2.keys,key_resp_2.rt,demo_test_key_resp.keys,demo_test_key_resp.rt,demo_loops.thisRepN,demo_loops.thisTrialN,demo_loops.thisN,demo_loops.thisIndex,demo_loops.ran,target,image1,image2,correct,background_0,background_1,background_2,background_3,background_4,background_5,target_index,workID,Age,Gender,Hours slept (last night),date,expName,psychopyVersion,OS,frameRate,key_resp_after_demo.keys,key_resp_after_demo.rt,test_key_resp.keys,test_key_resp.rt,exp_loops.thisRepN,exp_loops.thisTrialN,exp_loops.thisN,exp_loops.thisIndex,exp_loops.ran,selected_dist,distractor_level,category,key_resp_4.keys,key_resp_4.rt,slider_part2.response,slider_part2.rt,exp_loops_part2.thisRepN,exp_loops_part2.thisTrialN,exp_loops_part2.thisN,exp_loops_part2.thisIndex,exp_loops_part2.ran,key_resp_last_slide.keys,key_resp_last_slide.rt
,space,1.9959,left,2.2279,0,0,0,0,1,flower1.jpg,flower1.jpg,flower1_pair.jpg,left,leaf3.jpg,trail1.jpg,flower1.jpg,bird1.jpg,tree3.jpg,fence4.jpg,2,A2818E670QPY2B,25,Female,7,2023-07-18_14h58.35.332,working,2022.2.4,Win32,8.553076114,,,,,,,,,,,,,,,,,,,,,,,
,,,right,2.355,0,1,1,1,1,leaf2.jpg,leaf1.jpg,leaf2.jpg,right,trail2.jpg,leaf2.jpg,bird2.jpg,tree2.jpg,fence3.jpg,flower2.jpg,1,A2818E670QPY2B,25,Female,7,2023-07-18_14h58.35.332,working,2022.2.4,Win32,8.553076114,,,,,,,,,,,,,,,,,,,,,,,
,,,right,2.104,0,2,2,2,1,fence1.jpg,fence1.jpg,fence2.jpg,left,tree1.jpg,bird3.jpg,trail3.jpg,fence1.jpg,leaf4.jpg,flower3.jpg,3,A2818E670QPY2B,25,Female,7,2023-07-18_14h58.35.332,working,2022.2.4,Win32,8.553076114,,,,,,,,,,,,,,,,,,,,,,,
,,,,,,,,,,mountain_154.jpg,mountain_95.jpg,mountain_154.jpg,right,badlands_200.jpg,mountain_154.jpg,golf_course_152.jpg,playground_209.jpg,playground_209.jpg,playground_209.jpg,1,A2818E670QPY2B,25,Female,7,2023-07-18_14h58.35.332,working,2022.2.4,Win32,8.553076114,space,1.5422,right,1.752,0,0,0,0,1,mountain_95.jpg,1,mountain,,,,,,,,,,,
,,,,,,,,,,mountain_222.jpg,mountain_244.jpg,mountain_222.jpg,right,mountain_222.jpg,highway_11.jpg,golf_course_166.jpg,bridge_238.jpg,bridge_238.jpg,bridge_238.jpg,0,A2818E670QPY2B,25,Female,7,2023-07-18_14h58.35.332,working,2022.2.4,Win32,8.553076114,,,right,2.0647,0,1,1,1,1,mountain_244.jpg,0,mountain,,,,,,,,,,,
,,,,,,,,,,playground_131.jpg,playground_164.jpg,playground_131.jpg,right,golf_course_21.jpg,playground_131.jpg,bridge_52.jpg,mountain_26.jpg,mountain_26.jpg,mountain_26.jpg,1,A2818E670QPY2B,25,Female,7,2023-07-18_14h58.35.332,working,2022.2.4,Win32,8.553076114,,,left,1.7915,0,2,2,2,1,playground_164.jpg,1,playground,,,,,,,,,,,
,,,,,,,,,,mountain_101.jpg,mountain_101.jpg,mountain_221.jpg,left,badlands_95.jpg,mountain_101.jpg,playground_3.jpg,bridge_80.jpg,bridge_80.jpg,bridge_80.jpg,1,A2818E670QPY2B,25,Female,7,2023-07-18_14h58.35.332,working,2022.2.4,Win32,8.553076114,,,left,1.5579,0,3,3,3,1,mountain_221.jpg,1,mountain,,,,,,,,,,,
,,,,,,,,,,badlands_113.jpg,badlands_225.jpg,badlands_113.jpg,right,badlands_113.jpg,bridge_10.jpg,mountain_12.jpg,playground_66.jpg,playground_66.jpg,playground_66.jpg,0,A2818E670QPY2B,25,Female,7,2023-07-18_14h58.35.332,working,2022.2.4,Win32,8.553076114,,,right,1.3725,0,4,4,4,1,badlands_225.jpg,0,badlands,,,,,,,,,,,
,,,,,,,,,,badlands_137.jpg,badlands_139.jpg,badlands_137.jpg,right,bridge_47.jpg,highway_357.jpg,badlands_137.jpg,mountain_292.jpg,mountain_292.jpg,mountain_292.jpg,2,A2818E670QPY2B,25,Female,7,2023-07-18_14h58.35.332,working,2022.2.4,Win32,8.553076114,,,left,1.2727,0,5,5,5,1,badlands_139.jpg,1,badlands,,,,,,,,,,,
,,,,,,,,,,mountain_232.jpg,mountain_54.jpg,mountain_232.jpg,right,golf_course_83.jpg,mountain_232.jpg,playground_36.jpg,bridge_120.jpg,bridge_120.jpg,bridge_120.jpg,1,A2818E670QPY2B,25,Female,7,2023-07-18_14h58.35.332,working,2022.2.4,Win32,8.553076114,,,left,2.4321,0,6,6,6,1,mountain_54.jpg,1,mountain,,,,,,,,,,,
,,,,,,,,,,mountain_293.jpg,mountain_47.jpg,mountain_293.jpg,right,playground_25.jpg,bridge_48.jpg,mountain_293.jpg,highway_333.jpg,highway_333.jpg,highway_333.jpg,2,A2818E670QPY2B,25,Female,7,2023-07-18_14h58.35.332,working,2022.2.4,Win32,8.553076114,,,left,2.9239,0,7,7,7,1,mountain_47.jpg,1,mountain,,,,,,,,,,,
,,,,,,,,,,mountain_156.jpg,mountain_156.jpg,mountain_128.jpg,left,golf_course_52.jpg,bridge_130.jpg,mountain_156.jpg,badlands_174.jpg,badlands_174.jpg,badlands_174.jpg,2,A2818E670QPY2B,25,Female,7,2023-07-18_14h58.35.332,working,2022.2.4,Win32,8.553076114,,,right,1.1991,0,8,8,8,1,mountain_128.jpg,0,mountain,,,,,,,,,,,
,,,,,,,,,,badlands_221.jpg,badlands_115.jpg,badlands_221.jpg,right,badlands_221.jpg,mountain_15.jpg,golf_course_206.jpg,highway_88.jpg,highway_88.jpg,highway_88.jpg,0,A2818E670QPY2B,25,Female,7,2023-07-18_14h58.35.332,working,2022.2.4,Win32,8.553076114,,,left,1.1635,0,9,9,9,1,badlands_115.jpg,0,badlands,,,,,,,,,,,
,,,,,,,,,,bridge_128.jpg,bridge_61.jpg,bridge_128.jpg,right,golf_course_57.jpg,playground_52.jpg,bridge_128.jpg,mountain_162.jpg,mountain_162.jpg,mountain_162.jpg,2,A2818E670QPY2B,25,Female,7,2023-07-18_14h58.35.332,working,2022.2.4,Win32,8.553076114,,,left,4.9516,0,10,10,10,1,bridge_61.jpg,0,bridge,,,,,,,,,,,
,,,,,,,,,,highway_394.jpg,highway_394.jpg,highway_204.jpg,left,highway_394.jpg,mountain_301.jpg,golf_course_33.jpg,playground_13.jpg,playground_13.jpg,playground_13.jpg,0,A2818E670QPY2B,25,Female,7,2023-07-18_14h58.35.332,working,2022.2.4,Win32,8.553076114,,,right,19.0124,0,11,11,11,1,highway_204.jpg,0,highway,,,,,,,,,,,
,,,,,,,,,,bridge_250.jpg,bridge_250.jpg,bridge_205.jpg,left,highway_147.jpg,bridge_250.jpg,badlands_186.jpg,mountain_235.jpg,mountain_235.jpg,mountain_235.jpg,1,A2818E670QPY2B,25,Female,7,2023-07-18_14h58.35.332,working,2022.2.4,Win32,8.553076114,,,right,32.8288,0,12,12,12,1,bridge_205.jpg,1,bridge,,,,,,,,,,,
,,,,,,,,,,bridge_146.jpg,bridge_27.jpg,bridge_146.jpg,right,golf_course_325.jpg,bridge_146.jpg,playground_30.jpg,highway_248.jpg,highway_248.jpg,highway_248.jpg,1,A2818E670QPY2B,25,Female,7,2023-07-18_14h58.35.332,working,2022.2.4,Win32,8.553076114,,,right,100.6109,0,13,13,13,1,bridge_27.jpg,0,bridge,,,,,,,,,,,
,,,,,,,,,,badlands_70.jpg,badlands_70.jpg,badlands_102.jpg,left,badlands_70.jpg,mountain_104.jpg,bridge_123.jpg,playground_158.jpg,playground_158.jpg,playground_158.jpg,0,A2818E670QPY2B,25,Female,7,2023-07-18_14h58.35.332,working,2022.2.4,Win32,8.553076114,,,right,2.0453,0,14,14,14,1,badlands_102.jpg,0,badlands,,,,,,,,,,,
,,,,,,,,,,bridge_256.jpg,bridge_211.jpg,bridge_256.jpg,right,mountain_280.jpg,bridge_256.jpg,highway_249.jpg,golf_course_260.jpg,golf_course_260.jpg,golf_course_260.jpg,1,A2818E670QPY2B,25,Female,7,2023-07-18_14h58.35.332,working,2022.2.4,Win32,8.553076114,,,right,12.4892,0,15,15,15,1,bridge_211.jpg,1,bridge,,,,,,,,,,,
,,,,,,,,,,golf_course_195.jpg,golf_course_195.jpg,golf_course_2.jpg,left,highway_75.jpg,golf_course_195.jpg,bridge_251.jpg,mountain_71.jpg,mountain_71.jpg,mountain_71.jpg,1,A2818E670QPY2B,25,Female,7,2023-07-18_14h58.35.332,working,2022.2.4,Win32,8.553076114,,,left,2.2423,0,16,16,16,1,golf_course_2.jpg,1,golf,,,,,,,,,,,
,,,,,,,,,,mountain_57.jpg,mountain_57.jpg,mountain_138.jpg,left,playground_42.jpg,mountain_57.jpg,highway_12.jpg,bridge_177.jpg,bridge_177.jpg,bridge_177.jpg,1,A2818E670QPY2B,25,Female,7,2023-07-18_14h58.35.332,working,2022.2.4,Win32,8.553076114,,,left,2.8663,0,17,17,17,1,mountain_138.jpg,1,mountain,,,,,,,,,,,
,,,,,,,,,,playground_117.jpg,playground_167.jpg,playground_117.jpg,right,highway_144.jpg,golf_course_58.jpg,playground_117.jpg,bridge_218.jpg,bridge_218.jpg,bridge_218.jpg,2,A2818E670QPY2B,25,Female,7,2023-07-18_14h58.35.332,working,2022.2.4,Win32,8.553076114,,,left,1.8419,0,18,18,18,1,playground_167.jpg,0,playground,,,,,,,,,,,
,,,,,,,,,,golf_course_217.jpg,golf_course_35.jpg,golf_course_217.jpg,right,golf_course_217.jpg,mountain_204.jpg,highway_402.jpg,badlands_220.jpg,badlands_220.jpg,badlands_220.jpg,0,A2818E670QPY2B,25,Female,7,2023-07-18_14h58.35.332,working,2022.2.4,Win32,8.553076114,,,left,3.2484,0,19,19,19,1,golf_course_35.jpg,0,golf,,,,,,,,,,,
,,,,,,,,,,highway_415.jpg,highway_174.jpg,highway_415.jpg,right,golf_course_88.jpg,bridge_206.jpg,highway_415.jpg,playground_200.jpg,playground_200.jpg,playground_200.jpg,2,A2818E670QPY2B,25,Female,7,2023-07-18_14h58.35.332,working,2022.2.4,Win32,8.553076114,,,right,0.2008,0,20,20,20,1,highway_174.jpg,1,highway,,,,,,,,,,,
,,,,,,,,,,mountain_230.jpg,mountain_97.jpg,mountain_230.jpg,right,mountain_230.jpg,playground_5.jpg,badlands_108.jpg,bridge_21.jpg,bridge_21.jpg,bridge_21.jpg,0,A2818E670QPY2B,25,Female,7,2023-07-18_14h58.35.332,working,2022.2.4,Win32,8.553076114,,,left,1.447,0,21,21,21,1,mountain_97.jpg,1,mountain,,,,,,,,,,,
,,,,,,,,,,bridge_191.jpg,bridge_75.jpg,bridge_191.jpg,right,badlands_100.jpg,bridge_191.jpg,golf_course_42.jpg,highway_99.jpg,highway_99.jpg,highway_99.jpg,1,A2818E670QPY2B,25,Female,7,2023-07-18_14h58.35.332,working,2022.2.4,Win32,8.553076114,,,right,1.1618,0,22,22,22,1,bridge_75.jpg,1,bridge,,,,,,,,,,,
,,,,,,,,,,bridge_108.jpg,bridge_116.jpg,bridge_108.jpg,right,mountain_212.jpg,playground_235.jpg,bridge_108.jpg,highway_37.jpg,highway_37.jpg,highway_37.jpg,2,A2818E670QPY2B,25,Female,7,2023-07-18_14h58.35.332,working,2022.2.4,Win32,8.553076114,,,left,1.2734,0,23,23,23,1,bridge_116.jpg,0,bridge,,,,,,,,,,,
,,,,,,,,,,bridge_65.jpg,bridge_65.jpg,bridge_181.jpg,left,badlands_31.jpg,bridge_65.jpg,golf_course_264.jpg,highway_336.jpg,highway_336.jpg,highway_336.jpg,1,A2818E670QPY2B,25,Female,7,2023-07-18_14h58.35.332,working,2022.2.4,Win32,8.553076114,,,left,1.143,0,24,24,24,1,bridge_181.jpg,0,bridge,,,,,,,,,,,
,,,,,,,,,,highway_294.jpg,highway_368.jpg,highway_294.jpg,right,playground_172.jpg,bridge_106.jpg,highway_294.jpg,mountain_160.jpg,mountain_160.jpg,mountain_160.jpg,2,A2818E670QPY2B,25,Female,7,2023-07-18_14h58.35.332,working,2022.2.4,Win32,8.553076114,,,left,2.1689,0,25,25,25,1,highway_368.jpg,1,highway,,,,,,,,,,,
,,,,,,,,,,golf_course_188.jpg,golf_course_160.jpg,golf_course_188.jpg,right,highway_301.jpg,golf_course_188.jpg,bridge_132.jpg,playground_259.jpg,playground_259.jpg,playground_259.jpg,1,A2818E670QPY2B,25,Female,7,2023-07-18_14h58.35.332,working,2022.2.4,Win32,8.553076114,,,left,1.3573,0,26,26,26,1,golf_course_160.jpg,1,golf,,,,,,,,,,,
,,,,,,,,,,playground_60.jpg,playground_60.jpg,playground_268.jpg,left,playground_60.jpg,mountain_34.jpg,badlands_75.jpg,golf_course_198.jpg,golf_course_198.jpg,golf_course_198.jpg,0,A2818E670QPY2B,25,Female,7,2023-07-18_14h58.35.332,working,2022.2.4,Win32,8.553076114,,,right,1.1454,0,27,27,27,1,playground_268.jpg,0,playground,,,,,,,,,,,
,,,,,,,,,,highway_273.jpg,highway_171.jpg,highway_273.jpg,right,badlands_142.jpg,highway_273.jpg,mountain_24.jpg,golf_course_320.jpg,golf_course_320.jpg,golf_course_320.jpg,1,A2818E670QPY2B,25,Female,7,2023-07-18_14h58.35.332,working,2022.2.4,Win32,8.553076114,,,left,1.4758,0,28,28,28,1,highway_171.jpg,1,highway,,,,,,,,,,,
,,,,,,,,,,bridge_202.jpg,bridge_202.jpg,bridge_31.jpg,left,golf_course_223.jpg,bridge_202.jpg,playground_46.jpg,highway_112.jpg,highway_112.jpg,highway_112.jpg,1,A2818E670QPY2B,25,Female,7,2023-07-18_14h58.35.332,working,2022.2.4,Win32,8.553076114,,,left,1.709,0,29,29,29,1,bridge_31.jpg,0,bridge,,,,,,,,,,,
,,,,,,,,,,playground_257.jpg,playground_257.jpg,playground_215.jpg,left,playground_257.jpg,mountain_84.jpg,highway_331.jpg,golf_course_334.jpg,golf_course_334.jpg,golf_course_334.jpg,0,A2818E670QPY2B,25,Female,7,2023-07-18_14h58.35.332,working,2022.2.4,Win32,8.553076114,,,right,0.2119,0,30,30,30,1,playground_215.jpg,1,playground,,,,,,,,,,,
,,,,,,,,,,bridge_91.jpg,bridge_253.jpg,bridge_91.jpg,right,highway_319.jpg,mountain_44.jpg,bridge_91.jpg,golf_course_302.jpg,golf_course_302.jpg,golf_course_302.jpg,2,A2818E670QPY2B,25,Female,7,2023-07-18_14h58.35.332,working,2022.2.4,Win32,8.553076114,,,left,2.3396,0,31,31,31,1,bridge_253.jpg,0,bridge,,,,,,,,,,,
,,,,,,,,,,mountain_123.jpg,mountain_123.jpg,mountain_189.jpg,left,badlands_180.jpg,golf_course_316.jpg,mountain_123.jpg,bridge_158.jpg,bridge_158.jpg,bridge_158.jpg,2,A2818E670QPY2B,25,Female,7,2023-07-18_14h58.35.332,working,2022.2.4,Win32,8.553076114,,,right,1.8199,0,32,32,32,1,mountain_189.jpg,1,mountain,,,,,,,,,,,
,,,,,,,,,,playground_10.jpg,playground_122.jpg,playground_10.jpg,right,playground_10.jpg,golf_course_319.jpg,mountain_111.jpg,badlands_218.jpg,badlands_218.jpg,badlands_218.jpg,0,A2818E670QPY2B,25,Female,7,2023-07-18_14h58.35.332,working,2022.2.4,Win32,8.553076114,,,left,1.7136,0,33,33,33,1,playground_122.jpg,0,playground,,,,,,,,,,,
,,,,,,,,,,playground_219.jpg,playground_219.jpg,playground_205.jpg,left,golf_course_290.jpg,mountain_214.jpg,playground_219.jpg,badlands_104.jpg,badlands_104.jpg,badlands_104.jpg,2,A2818E670QPY2B,25,Female,7,2023-07-18_14h58.35.332,working,2022.2.4,Win32,8.553076114,,,left,2.7326,0,34,34,34,1,playground_205.jpg,1,playground,,,,,,,,,,,
,,,,,,,,,,badlands_184.jpg,badlands_228.jpg,badlands_184.jpg,right,bridge_9.jpg,badlands_184.jpg,golf_course_122.jpg,mountain_105.jpg,mountain_105.jpg,mountain_105.jpg,1,A2818E670QPY2B,25,Female,7,2023-07-18_14h58.35.332,working,2022.2.4,Win32,8.553076114,,,left,13.2986,0,35,35,35,1,badlands_228.jpg,0,badlands,,,,,,,,,,,
,,,,,,,,,,badlands_222.jpg,badlands_62.jpg,badlands_222.jpg,right,badlands_222.jpg,highway_114.jpg,mountain_126.jpg,bridge_204.jpg,bridge_204.jpg,bridge_204.jpg,0,A2818E670QPY2B,25,Female,7,2023-07-18_14h58.35.332,working,2022.2.4,Win32,8.553076114,,,right,1.3436,0,36,36,36,1,badlands_62.jpg,1,badlands,,,,,,,,,,,
,,,,,,,,,,highway_177.jpg,highway_177.jpg,highway_278.jpg,left,golf_course_173.jpg,highway_177.jpg,playground_173.jpg,bridge_18.jpg,bridge_18.jpg,bridge_18.jpg,1,A2818E670QPY2B,25,Female,7,2023-07-18_14h58.35.332,working,2022.2.4,Win32,8.553076114,,,left,2.7874,0,37,37,37,1,highway_278.jpg,1,highway,,,,,,,,,,,
,,,,,,,,,,golf_course_87.jpg,golf_course_130.jpg,golf_course_87.jpg,right,bridge_169.jpg,highway_18.jpg,golf_course_87.jpg,badlands_27.jpg,badlands_27.jpg,badlands_27.jpg,2,A2818E670QPY2B,25,Female,7,2023-07-18_14h58.35.332,working,2022.2.4,Win32,8.553076114,,,left,1.6683,0,38,38,38,1,golf_course_130.jpg,0,golf,,,,,,,,,,,
,,,,,,,,,,golf_course_309.jpg,golf_course_309.jpg,golf_course_209.jpg,left,playground_108.jpg,bridge_239.jpg,golf_course_309.jpg,badlands_2.jpg,badlands_2.jpg,badlands_2.jpg,2,A2818E670QPY2B,25,Female,7,2023-07-18_14h58.35.332,working,2022.2.4,Win32,8.553076114,,,left,1.5302,0,39,39,39,1,golf_course_209.jpg,1,golf,,,,,,,,,,,
,,,,,,,,,,badlands_21.jpg,badlands_21.jpg,badlands_98.jpg,left,bridge_230.jpg,badlands_21.jpg,highway_179.jpg,golf_course_1.jpg,golf_course_1.jpg,golf_course_1.jpg,1,A2818E670QPY2B,25,Female,7,2023-07-18_14h58.35.332,working,2022.2.4,Win32,8.553076114,,,left,1.3126,0,40,40,40,1,badlands_98.jpg,1,badlands,,,,,,,,,,,
,,,,,,,,,,badlands_23.jpg,badlands_101.jpg,badlands_23.jpg,right,bridge_259.jpg,highway_117.jpg,badlands_23.jpg,mountain_91.jpg,mountain_91.jpg,mountain_91.jpg,2,A2818E670QPY2B,25,Female,7,2023-07-18_14h58.35.332,working,2022.2.4,Win32,8.553076114,,,left,1.6562,0,41,41,41,1,badlands_101.jpg,1,badlands,,,,,,,,,,,
,,,,,,,,,,playground_76.jpg,playground_72.jpg,playground_76.jpg,right,playground_76.jpg,golf_course_60.jpg,highway_398.jpg,badlands_143.jpg,badlands_143.jpg,badlands_143.jpg,0,A2818E670QPY2B,25,Female,7,2023-07-18_14h58.35.332,working,2022.2.4,Win32,8.553076114,,,left,1.6502,0,42,42,42,1,playground_72.jpg,1,playground,,,,,,,,,,,
,,,,,,,,,,badlands_24.jpg,badlands_3.jpg,badlands_24.jpg,right,bridge_257.jpg,badlands_24.jpg,playground_70.jpg,golf_course_159.jpg,golf_course_159.jpg,golf_course_159.jpg,1,A2818E670QPY2B,25,Female,7,2023-07-18_14h58.35.332,working,2022.2.4,Win32,8.553076114,,,left,2.578,0,43,43,43,1,badlands_3.jpg,0,badlands,,,,,,,,,,,
,,,,,,,,,,highway_359.jpg,highway_359.jpg,highway_379.jpg,left,playground_80.jpg,highway_359.jpg,badlands_152.jpg,mountain_161.jpg,mountain_161.jpg,mountain_161.jpg,1,A2818E670QPY2B,25,Female,7,2023-07-18_14h58.35.332,working,2022.2.4,Win32,8.553076114,,,right,2.4786,0,44,44,44,1,highway_379.jpg,1,highway,,,,,,,,,,,
,,,,,,,,,,mountain_110.jpg,mountain_157.jpg,mountain_110.jpg,right,mountain_110.jpg,bridge_19.jpg,playground_264.jpg,badlands_99.jpg,badlands_99.jpg,badlands_99.jpg,0,A2818E670QPY2B,25,Female,7,2023-07-18_14h58.35.332,working,2022.2.4,Win32,8.553076114,,,left,3.1085,0,45,45,45,1,mountain_157.jpg,0,mountain,,,,,,,,,,,
,,,,,,,,,,golf_course_78.jpg,golf_course_134.jpg,golf_course_78.jpg,right,golf_course_78.jpg,highway_219.jpg,bridge_25.jpg,mountain_199.jpg,mountain_199.jpg,mountain_199.jpg,0,A2818E670QPY2B,25,Female,7,2023-07-18_14h58.35.332,working,2022.2.4,Win32,8.553076114,,,left,7.9324,0,46,46,46,1,golf_course_134.jpg,0,golf,,,,,,,,,,,
,,,,,,,,,,highway_156.jpg,highway_160.jpg,highway_156.jpg,right,mountain_66.jpg,playground_103.jpg,highway_156.jpg,bridge_264.jpg,bridge_264.jpg,bridge_264.jpg,2,A2818E670QPY2B,25,Female,7,2023-07-18_14h58.35.332,working,2022.2.4,Win32,8.553076114,,,right,1.2966,0,47,47,47,1,highway_160.jpg,0,highway,,,,,,,,,,,
,,,,,,,,,,playground_240.jpg,playground_240.jpg,playground_2.jpg,left,playground_240.jpg,bridge_78.jpg,highway_175.jpg,golf_course_102.jpg,golf_course_102.jpg,golf_course_102.jpg,0,A2818E670QPY2B,25,Female,7,2023-07-18_14h58.35.332,working,2022.2.4,Win32,8.553076114,,,right,1.8397,0,48,48,48,1,playground_2.jpg,0,playground,,,,,,,,,,,
,,,,,,,,,,golf_course_193.jpg,golf_course_193.jpg,golf_course_235.jpg,left,bridge_49.jpg,highway_263.jpg,golf_course_193.jpg,badlands_216.jpg,badlands_216.jpg,badlands_216.jpg,2,A2818E670QPY2B,25,Female,7,2023-07-18_14h58.35.332,working,2022.2.4,Win32,8.553076114,,,left,1.4056,0,49,49,49,1,golf_course_235.jpg,0,golf,,,,,,,,,,,
,,,,,,,,,,highway_245.jpg,highway_206.jpg,highway_245.jpg,right,mountain_21.jpg,badlands_130.jpg,highway_245.jpg,playground_191.jpg,playground_191.jpg,playground_191.jpg,2,A2818E670QPY2B,25,Female,7,2023-07-18_14h58.35.332,working,2022.2.4,Win32,8.553076114,,,left,1.2776,0,50,50,50,1,highway_206.jpg,1,highway,,,,,,,,,,,
,,,,,,,,,,bridge_172.jpg,bridge_163.jpg,bridge_172.jpg,right,bridge_172.jpg,mountain_224.jpg,badlands_30.jpg,playground_95.jpg,playground_95.jpg,playground_95.jpg,0,A2818E670QPY2B,25,Female,7,2023-07-18_14h58.35.332,working,2022.2.4,Win32,8.553076114,,,left,1.5317,0,51,51,51,1,bridge_163.jpg,1,bridge,,,,,,,,,,,
,,,,,,,,,,golf_course_15.jpg,golf_course_15.jpg,golf_course_113.jpg,left,playground_124.jpg,golf_course_15.jpg,mountain_115.jpg,badlands_166.jpg,badlands_166.jpg,badlands_166.jpg,1,A2818E670QPY2B,25,Female,7,2023-07-18_14h58.35.332,working,2022.2.4,Win32,8.553076114,,,left,4.9541,0,52,52,52,1,golf_course_113.jpg,0,golf,,,,,,,,,,,
,,,,,,,,,,golf_course_331.jpg,golf_course_331.jpg,golf_course_114.jpg,left,badlands_35.jpg,golf_course_331.jpg,highway_234.jpg,playground_6.jpg,playground_6.jpg,playground_6.jpg,1,A2818E670QPY2B,25,Female,7,2023-07-18_14h58.35.332,working,2022.2.4,Win32,8.553076114,,,right,1.0392,0,53,53,53,1,golf_course_114.jpg,0,golf,,,,,,,,,,,
,,,,,,,,,,playground_145.jpg,playground_145.jpg,playground_229.jpg,left,badlands_136.jpg,playground_145.jpg,bridge_2.jpg,golf_course_156.jpg,golf_course_156.jpg,golf_course_156.jpg,1,A2818E670QPY2B,25,Female,7,2023-07-18_14h58.35.332,working,2022.2.4,Win32,8.553076114,,,left,1.6065,0,54,54,54,1,playground_229.jpg,0,playground,,,,,,,,,,,
,,,,,,,,,,golf_course_214.jpg,golf_course_214.jpg,golf_course_312.jpg,left,golf_course_214.jpg,bridge_162.jpg,badlands_149.jpg,playground_183.jpg,playground_183.jpg,playground_183.jpg,0,A2818E670QPY2B,25,Female,7,2023-07-18_14h58.35.332,working,2022.2.4,Win32,8.553076114,,,left,1.0253,0,55,55,55,1,golf_course_312.jpg,0,golf,,,,,,,,,,,
,,,,,,,,,,playground_144.jpg,playground_144.jpg,playground_65.jpg,left,badlands_173.jpg,playground_144.jpg,golf_course_27.jpg,highway_196.jpg,highway_196.jpg,highway_196.jpg,1,A2818E670QPY2B,25,Female,7,2023-07-18_14h58.35.332,working,2022.2.4,Win32,8.553076114,,,left,1.4702,0,56,56,56,1,playground_65.jpg,1,playground,,,,,,,,,,,
,,,,,,,,,,badlands_52.jpg,badlands_94.jpg,badlands_52.jpg,right,bridge_179.jpg,mountain_132.jpg,badlands_52.jpg,highway_149.jpg,highway_149.jpg,highway_149.jpg,2,A2818E670QPY2B,25,Female,7,2023-07-18_14h58.35.332,working,2022.2.4,Win32,8.553076114,,,left,3.044,0,57,57,57,1,badlands_94.jpg,0,badlands,,,,,,,,,,,
,,,,,,,,,,highway_209.jpg,highway_209.jpg,highway_314.jpg,left,highway_209.jpg,badlands_45.jpg,bridge_26.jpg,mountain_307.jpg,mountain_307.jpg,mountain_307.jpg,0,A2818E670QPY2B,25,Female,7,2023-07-18_14h58.35.332,working,2022.2.4,Win32,8.553076114,,,left,1.3906,0,58,58,58,1,highway_314.jpg,0,highway,,,,,,,,,,,
,,,,,,,,,,highway_93.jpg,highway_369.jpg,highway_93.jpg,right,mountain_179.jpg,bridge_34.jpg,highway_93.jpg,playground_54.jpg,playground_54.jpg,playground_54.jpg,2,A2818E670QPY2B,25,Female,7,2023-07-18_14h58.35.332,working,2022.2.4,Win32,8.553076114,,,right,13.3416,0,59,59,59,1,highway_369.jpg,1,highway,,,,,,,,,,,
,,,,,,,,,,mountain_154.jpg,mountain_95.jpg,mountain_154.jpg,right,badlands_200.jpg,mountain_154.jpg,golf_course_152.jpg,playground_209.jpg,playground_209.jpg,playground_209.jpg,1,A2818E670QPY2B,25,Female,7,2023-07-18_14h58.35.332,working,2022.2.4,Win32,8.553076114,,,,,,,,,,mountain_95.jpg,1,mountain,space,9.4468,7.7578125,3.3925,0,0,0,0,1,,
,,,,,,,,,,mountain_222.jpg,mountain_244.jpg,mountain_222.jpg,right,mountain_222.jpg,highway_11.jpg,golf_course_166.jpg,bridge_238.jpg,bridge_238.jpg,bridge_238.jpg,0,A2818E670QPY2B,25,Female,7,2023-07-18_14h58.35.332,working,2022.2.4,Win32,8.553076114,,,,,,,,,,mountain_244.jpg,0,mountain,,,8.015625,0.4457,0,1,1,1,1,,
,,,,,,,,,,playground_131.jpg,playground_164.jpg,playground_131.jpg,right,golf_course_21.jpg,playground_131.jpg,bridge_52.jpg,mountain_26.jpg,mountain_26.jpg,mountain_26.jpg,1,A2818E670QPY2B,25,Female,7,2023-07-18_14h58.35.332,working,2022.2.4,Win32,8.553076114,,,,,,,,,,playground_164.jpg,1,playground,,,7.7734375,1.8759,0,2,2,2,1,,
,,,,,,,,,,mountain_101.jpg,mountain_101.jpg,mountain_221.jpg,left,badlands_95.jpg,mountain_101.jpg,playground_3.jpg,bridge_80.jpg,bridge_80.jpg,bridge_80.jpg,1,A2818E670QPY2B,25,Female,7,2023-07-18_14h58.35.332,working,2022.2.4,Win32,8.553076114,,,,,,,,,,mountain_221.jpg,1,mountain,,,7.6640625,0.8347,0,3,3,3,1,,
,,,,,,,,,,badlands_113.jpg,badlands_225.jpg,badlands_113.jpg,right,badlands_113.jpg,bridge_10.jpg,mountain_12.jpg,playground_66.jpg,playground_66.jpg,playground_66.jpg,0,A2818E670QPY2B,25,Female,7,2023-07-18_14h58.35.332,working,2022.2.4,Win32,8.553076114,,,,,,,,,,badlands_225.jpg,0,badlands,,,6.5625,1.9984,0,4,4,4,1,,
,,,,,,,,,,badlands_137.jpg,badlands_139.jpg,badlands_137.jpg,right,bridge_47.jpg,highway_357.jpg,badlands_137.jpg,mountain_292.jpg,mountain_292.jpg,mountain_292.jpg,2,A2818E670QPY2B,25,Female,7,2023-07-18_14h58.35.332,working,2022.2.4,Win32,8.553076114,,,,,,,,,,badlands_139.jpg,1,badlands,,,7.171875,2.3475,0,5,5,5,1,,
,,,,,,,,,,mountain_232.jpg,mountain_54.jpg,mountain_232.jpg,right,golf_course_83.jpg,mountain_232.jpg,playground_36.jpg,bridge_120.jpg,bridge_120.jpg,bridge_120.jpg,1,A2818E670QPY2B,25,Female,7,2023-07-18_14h58.35.332,working,2022.2.4,Win32,8.553076114,,,,,,,,,,mountain_54.jpg,1,mountain,,,8.2734375,1.6415,0,6,6,6,1,,
,,,,,,,,,,mountain_293.jpg,mountain_47.jpg,mountain_293.jpg,right,playground_25.jpg,bridge_48.jpg,mountain_293.jpg,highway_333.jpg,highway_333.jpg,highway_333.jpg,2,A2818E670QPY2B,25,Female,7,2023-07-18_14h58.35.332,working,2022.2.4,Win32,8.553076114,,,,,,,,,,mountain_47.jpg,1,mountain,,,8.2890625,1.146,0,7,7,7,1,,
,,,,,,,,,,mountain_156.jpg,mountain_156.jpg,mountain_128.jpg,left,golf_course_52.jpg,bridge_130.jpg,mountain_156.jpg,badlands_174.jpg,badlands_174.jpg,badlands_174.jpg,2,A2818E670QPY2B,25,Female,7,2023-07-18_14h58.35.332,working,2022.2.4,Win32,8.553076114,,,,,,,,,,mountain_128.jpg,0,mountain,,,7.484375,1.7129,0,8,8,8,1,,
,,,,,,,,,,badlands_221.jpg,badlands_115.jpg,badlands_221.jpg,right,badlands_221.jpg,mountain_15.jpg,golf_course_206.jpg,highway_88.jpg,highway_88.jpg,highway_88.jpg,0,A2818E670QPY2B,25,Female,7,2023-07-18_14h58.35.332,working,2022.2.4,Win32,8.553076114,,,,,,,,,,badlands_115.jpg,0,badlands,,,7.4609375,0.6527,0,9,9,9,1,,
,,,,,,,,,,bridge_128.jpg,bridge_61.jpg,bridge_128.jpg,right,golf_course_57.jpg,playground_52.jpg,bridge_128.jpg,mountain_162.jpg,mountain_162.jpg,mountain_162.jpg,2,A2818E670QPY2B,25,Female,7,2023-07-18_14h58.35.332,working,2022.2.4,Win32,8.553076114,,,,,,,,,,bridge_61.jpg,0,bridge,,,6.78125,4.1771,0,10,10,10,1,,
,,,,,,,,,,highway_394.jpg,highway_394.jpg,highway_204.jpg,left,highway_394.jpg,mountain_301.jpg,golf_course_33.jpg,playground_13.jpg,playground_13.jpg,playground_13.jpg,0,A2818E670QPY2B,25,Female,7,2023-07-18_14h58.35.332,working,2022.2.4,Win32,8.553076114,,,,,,,,,,highway_204.jpg,0,highway,,,8.09375,1.9105,0,11,11,11,1,,
,,,,,,,,,,bridge_250.jpg,bridge_250.jpg,bridge_205.jpg,left,highway_147.jpg,bridge_250.jpg,badlands_186.jpg,mountain_235.jpg,mountain_235.jpg,mountain_235.jpg,1,A2818E670QPY2B,25,Female,7,2023-07-18_14h58.35.332,working,2022.2.4,Win32,8.553076114,,,,,,,,,,bridge_205.jpg,1,bridge,,,7.84375,2.1019,0,12,12,12,1,,
,,,,,,,,,,bridge_146.jpg,bridge_27.jpg,bridge_146.jpg,right,golf_course_325.jpg,bridge_146.jpg,playground_30.jpg,highway_248.jpg,highway_248.jpg,highway_248.jpg,1,A2818E670QPY2B,25,Female,7,2023-07-18_14h58.35.332,working,2022.2.4,Win32,8.553076114,,,,,,,,,,bridge_27.jpg,0,bridge,,,7.4453125,2.1792,0,13,13,13,1,,
,,,,,,,,,,badlands_70.jpg,badlands_70.jpg,badlands_102.jpg,left,badlands_70.jpg,mountain_104.jpg,bridge_123.jpg,playground_158.jpg,playground_158.jpg,playground_158.jpg,0,A2818E670QPY2B,25,Female,7,2023-07-18_14h58.35.332,working,2022.2.4,Win32,8.553076114,,,,,,,,,,badlands_102.jpg,0,badlands,,,6.609375,1.5137,0,14,14,14,1,,
,,,,,,,,,,bridge_256.jpg,bridge_211.jpg,bridge_256.jpg,right,mountain_280.jpg,bridge_256.jpg,highway_249.jpg,golf_course_260.jpg,golf_course_260.jpg,golf_course_260.jpg,1,A2818E670QPY2B,25,Female,7,2023-07-18_14h58.35.332,working,2022.2.4,Win32,8.553076114,,,,,,,,,,bridge_211.jpg,1,bridge,,,7.015625,2.5797,0,15,15,15,1,,
,,,,,,,,,,golf_course_195.jpg,golf_course_195.jpg,golf_course_2.jpg,left,highway_75.jpg,golf_course_195.jpg,bridge_251.jpg,mountain_71.jpg,mountain_71.jpg,mountain_71.jpg,1,A2818E670QPY2B,25,Female,7,2023-07-18_14h58.35.332,working,2022.2.4,Win32,8.553076114,,,,,,,,,,golf_course_2.jpg,1,golf,,,7.453125,1.8589,0,16,16,16,1,,
,,,,,,,,,,mountain_57.jpg,mountain_57.jpg,mountain_138.jpg,left,playground_42.jpg,mountain_57.jpg,highway_12.jpg,bridge_177.jpg,bridge_177.jpg,bridge_177.jpg,1,A2818E670QPY2B,25,Female,7,2023-07-18_14h58.35.332,working,2022.2.4,Win32,8.553076114,,,,,,,,,,mountain_138.jpg,1,mountain,,,8.109375,1.2261,0,17,17,17,1,,
,,,,,,,,,,playground_117.jpg,playground_167.jpg,playground_117.jpg,right,highway_144.jpg,golf_course_58.jpg,playground_117.jpg,bridge_218.jpg,bridge_218.jpg,bridge_218.jpg,2,A2818E670QPY2B,25,Female,7,2023-07-18_14h58.35.332,working,2022.2.4,Win32,8.553076114,,,,,,,,,,playground_167.jpg,0,playground,,,7.7734375,1.3906,0,18,18,18,1,,
,,,,,,,,,,golf_course_217.jpg,golf_course_35.jpg,golf_course_217.jpg,right,golf_course_217.jpg,mountain_204.jpg,highway_402.jpg,badlands_220.jpg,badlands_220.jpg,badlands_220.jpg,0,A2818E670QPY2B,25,Female,7,2023-07-18_14h58.35.332,working,2022.2.4,Win32,8.553076114,,,,,,,,,,golf_course_35.jpg,0,golf,,,7.3046875,1.9295,0,19,19,19,1,,
,,,,,,,,,,highway_415.jpg,highway_174.jpg,highway_415.jpg,right,golf_course_88.jpg,bridge_206.jpg,highway_415.jpg,playground_200.jpg,playground_200.jpg,playground_200.jpg,2,A2818E670QPY2B,25,Female,7,2023-07-18_14h58.35.332,working,2022.2.4,Win32,8.553076114,,,,,,,,,,highway_174.jpg,1,highway,,,7.0078125,2.4344,0,20,20,20,1,,
,,,,,,,,,,mountain_230.jpg,mountain_97.jpg,mountain_230.jpg,right,mountain_230.jpg,playground_5.jpg,badlands_108.jpg,bridge_21.jpg,bridge_21.jpg,bridge_21.jpg,0,A2818E670QPY2B,25,Female,7,2023-07-18_14h58.35.332,working,2022.2.4,Win32,8.553076114,,,,,,,,,,mountain_97.jpg,1,mountain,,,7.4609375,1.54,0,21,21,21,1,,
,,,,,,,,,,bridge_191.jpg,bridge_75.jpg,bridge_191.jpg,right,badlands_100.jpg,bridge_191.jpg,golf_course_42.jpg,highway_99.jpg,highway_99.jpg,highway_99.jpg,1,A2818E670QPY2B,25,Female,7,2023-07-18_14h58.35.332,working,2022.2.4,Win32,8.553076114,,,,,,,,,,bridge_75.jpg,1,bridge,,,8.0078125,1.5138,0,22,22,22,1,,
,,,,,,,,,,bridge_108.jpg,bridge_116.jpg,bridge_108.jpg,right,mountain_212.jpg,playground_235.jpg,bridge_108.jpg,highway_37.jpg,highway_37.jpg,highway_37.jpg,2,A2818E670QPY2B,25,Female,7,2023-07-18_14h58.35.332,working,2022.2.4,Win32,8.553076114,,,,,,,,,,bridge_116.jpg,0,bridge,,,8.4453125,1.1725,0,23,23,23,1,,
,,,,,,,,,,bridge_65.jpg,bridge_65.jpg,bridge_181.jpg,left,badlands_31.jpg,bridge_65.jpg,golf_course_264.jpg,highway_336.jpg,highway_336.jpg,highway_336.jpg,1,A2818E670QPY2B,25,Female,7,2023-07-18_14h58.35.332,working,2022.2.4,Win32,8.553076114,,,,,,,,,,bridge_181.jpg,0,bridge,,,8.59375,2.109,0,24,24,24,1,,
,,,,,,,,,,highway_294.jpg,highway_368.jpg,highway_294.jpg,right,playground_172.jpg,bridge_106.jpg,highway_294.jpg,mountain_160.jpg,mountain_160.jpg,mountain_160.jpg,2,A2818E670QPY2B,25,Female,7,2023-07-18_14h58.35.332,working,2022.2.4,Win32,8.553076114,,,,,,,,,,highway_368.jpg,1,highway,,,7.953125,2.333,0,25,25,25,1,,
,,,,,,,,,,golf_course_188.jpg,golf_course_160.jpg,golf_course_188.jpg,right,highway_301.jpg,golf_course_188.jpg,bridge_132.jpg,playground_259.jpg,playground_259.jpg,playground_259.jpg,1,A2818E670QPY2B,25,Female,7,2023-07-18_14h58.35.332,working,2022.2.4,Win32,8.553076114,,,,,,,,,,golf_course_160.jpg,1,golf,,,7.40625,2.5862,0,26,26,26,1,,
,,,,,,,,,,playground_60.jpg,playground_60.jpg,playground_268.jpg,left,playground_60.jpg,mountain_34.jpg,badlands_75.jpg,golf_course_198.jpg,golf_course_198.jpg,golf_course_198.jpg,0,A2818E670QPY2B,25,Female,7,2023-07-18_14h58.35.332,working,2022.2.4,Win32,8.553076114,,,,,,,,,,playground_268.jpg,0,playground,,,8.3359375,1.4936,0,27,27,27,1,,
,,,,,,,,,,highway_273.jpg,highway_171.jpg,highway_273.jpg,right,badlands_142.jpg,highway_273.jpg,mountain_24.jpg,golf_course_320.jpg,golf_course_320.jpg,golf_course_320.jpg,1,A2818E670QPY2B,25,Female,7,2023-07-18_14h58.35.332,working,2022.2.4,Win32,8.553076114,,,,,,,,,,highway_171.jpg,1,highway,,,8.3515625,1.9235,0,28,28,28,1,,
,,,,,,,,,,bridge_202.jpg,bridge_202.jpg,bridge_31.jpg,left,golf_course_223.jpg,bridge_202.jpg,playground_46.jpg,highway_112.jpg,highway_112.jpg,highway_112.jpg,1,A2818E670QPY2B,25,Female,7,2023-07-18_14h58.35.332,working,2022.2.4,Win32,8.553076114,,,,,,,,,,bridge_31.jpg,0,bridge,,,7.96875,1.6214,0,29,29,29,1,,
,,,,,,,,,,playground_257.jpg,playground_257.jpg,playground_215.jpg,left,playground_257.jpg,mountain_84.jpg,highway_331.jpg,golf_course_334.jpg,golf_course_334.jpg,golf_course_334.jpg,0,A2818E670QPY2B,25,Female,7,2023-07-18_14h58.35.332,working,2022.2.4,Win32,8.553076114,,,,,,,,,,playground_215.jpg,1,playground,,,7.6015625,1.5642,0,30,30,30,1,,
,,,,,,,,,,bridge_91.jpg,bridge_253.jpg,bridge_91.jpg,right,highway_319.jpg,mountain_44.jpg,bridge_91.jpg,golf_course_302.jpg,golf_course_302.jpg,golf_course_302.jpg,2,A2818E670QPY2B,25,Female,7,2023-07-18_14h58.35.332,working,2022.2.4,Win32,8.553076114,,,,,,,,,,bridge_253.jpg,0,bridge,,,8.8046875,1.3989,0,31,31,31,1,,
,,,,,,,,,,mountain_123.jpg,mountain_123.jpg,mountain_189.jpg,left,badlands_180.jpg,golf_course_316.jpg,mountain_123.jpg,bridge_158.jpg,bridge_158.jpg,bridge_158.jpg,2,A2818E670QPY2B,25,Female,7,2023-07-18_14h58.35.332,working,2022.2.4,Win32,8.553076114,,,,,,,,,,mountain_189.jpg,1,mountain,,,7.5703125,2.3272,0,32,32,32,1,,
,,,,,,,,,,playground_10.jpg,playground_122.jpg,playground_10.jpg,right,playground_10.jpg,golf_course_319.jpg,mountain_111.jpg,badlands_218.jpg,badlands_218.jpg,badlands_218.jpg,0,A2818E670QPY2B,25,Female,7,2023-07-18_14h58.35.332,working,2022.2.4,Win32,8.553076114,,,,,,,,,,playground_122.jpg,0,playground,,,8.0625,1.0398,0,33,33,33,1,,
,,,,,,,,,,playground_219.jpg,playground_219.jpg,playground_205.jpg,left,golf_course_290.jpg,mountain_214.jpg,playground_219.jpg,badlands_104.jpg,badlands_104.jpg,badlands_104.jpg,2,A2818E670QPY2B,25,Female,7,2023-07-18_14h58.35.332,working,2022.2.4,Win32,8.553076114,,,,,,,,,,playground_205.jpg,1,playground,,,7.890625,2.0733,0,34,34,34,1,,
,,,,,,,,,,badlands_184.jpg,badlands_228.jpg,badlands_184.jpg,right,bridge_9.jpg,badlands_184.jpg,golf_course_122.jpg,mountain_105.jpg,mountain_105.jpg,mountain_105.jpg,1,A2818E670QPY2B,25,Female,7,2023-07-18_14h58.35.332,working,2022.2.4,Win32,8.553076114,,,,,,,,,,badlands_228.jpg,0,badlands,,,8.390625,7.9741,0,35,35,35,1,,
,,,,,,,,,,badlands_222.jpg,badlands_62.jpg,badlands_222.jpg,right,badlands_222.jpg,highway_114.jpg,mountain_126.jpg,bridge_204.jpg,bridge_204.jpg,bridge_204.jpg,0,A2818E670QPY2B,25,Female,7,2023-07-18_14h58.35.332,working,2022.2.4,Win32,8.553076114,,,,,,,,,,badlands_62.jpg,1,badlands,,,8.34375,0.5814,0,36,36,36,1,,
,,,,,,,,,,highway_177.jpg,highway_177.jpg,highway_278.jpg,left,golf_course_173.jpg,highway_177.jpg,playground_173.jpg,bridge_18.jpg,bridge_18.jpg,bridge_18.jpg,1,A2818E670QPY2B,25,Female,7,2023-07-18_14h58.35.332,working,2022.2.4,Win32,8.553076114,,,,,,,,,,highway_278.jpg,1,highway,,,8.0078125,1.7273,0,37,37,37,1,,
,,,,,,,,,,golf_course_87.jpg,golf_course_130.jpg,golf_course_87.jpg,right,bridge_169.jpg,highway_18.jpg,golf_course_87.jpg,badlands_27.jpg,badlands_27.jpg,badlands_27.jpg,2,A2818E670QPY2B,25,Female,7,2023-07-18_14h58.35.332,working,2022.2.4,Win32,8.553076114,,,,,,,,,,golf_course_130.jpg,0,golf,,,8.0234375,3.6503,0,38,38,38,1,,
,,,,,,,,,,golf_course_309.jpg,golf_course_309.jpg,golf_course_209.jpg,left,playground_108.jpg,bridge_239.jpg,golf_course_309.jpg,badlands_2.jpg,badlands_2.jpg,badlands_2.jpg,2,A2818E670QPY2B,25,Female,7,2023-07-18_14h58.35.332,working,2022.2.4,Win32,8.553076114,,,,,,,,,,golf_course_209.jpg,1,golf,,,8.03125,2.5898,0,39,39,39,1,,
,,,,,,,,,,badlands_21.jpg,badlands_21.jpg,badlands_98.jpg,left,bridge_230.jpg,badlands_21.jpg,highway_179.jpg,golf_course_1.jpg,golf_course_1.jpg,golf_course_1.jpg,1,A2818E670QPY2B,25,Female,7,2023-07-18_14h58.35.332,working,2022.2.4,Win32,8.553076114,,,,,,,,,,badlands_98.jpg,1,badlands,,,8.90625,1.0319,0,40,40,40,1,,
,,,,,,,,,,badlands_23.jpg,badlands_101.jpg,badlands_23.jpg,right,bridge_259.jpg,highway_117.jpg,badlands_23.jpg,mountain_91.jpg,mountain_91.jpg,mountain_91.jpg,2,A2818E670QPY2B,25,Female,7,2023-07-18_14h58.35.332,working,2022.2.4,Win32,8.553076114,,,,,,,,,,badlands_101.jpg,1,badlands,,,8.9296875,0.7189,0,41,41,41,1,,
,,,,,,,,,,playground_76.jpg,playground_72.jpg,playground_76.jpg,right,playground_76.jpg,golf_course_60.jpg,highway_398.jpg,badlands_143.jpg,badlands_143.jpg,badlands_143.jpg,0,A2818E670QPY2B,25,Female,7,2023-07-18_14h58.35.332,working,2022.2.4,Win32,8.553076114,,,,,,,,,,playground_72.jpg,1,playground,,,8.5625,0.9551,0,42,42,42,1,,
,,,,,,,,,,badlands_24.jpg,badlands_3.jpg,badlands_24.jpg,right,bridge_257.jpg,badlands_24.jpg,playground_70.jpg,golf_course_159.jpg,golf_course_159.jpg,golf_course_159.jpg,1,A2818E670QPY2B,25,Female,7,2023-07-18_14h58.35.332,working,2022.2.4,Win32,8.553076114,,,,,,,,,,badlands_3.jpg,0,badlands,,,7.3984375,2.023,0,43,43,43,1,,
,,,,,,,,,,highway_359.jpg,highway_359.jpg,highway_379.jpg,left,playground_80.jpg,highway_359.jpg,badlands_152.jpg,mountain_161.jpg,mountain_161.jpg,mountain_161.jpg,1,A2818E670QPY2B,25,Female,7,2023-07-18_14h58.35.332,working,2022.2.4,Win32,8.553076114,,,,,,,,,,highway_379.jpg,1,highway,,,8,2.0358,0,44,44,44,1,,
,,,,,,,,,,mountain_110.jpg,mountain_157.jpg,mountain_110.jpg,right,mountain_110.jpg,bridge_19.jpg,playground_264.jpg,badlands_99.jpg,badlands_99.jpg,badlands_99.jpg,0,A2818E670QPY2B,25,Female,7,2023-07-18_14h58.35.332,working,2022.2.4,Win32,8.553076114,,,,,,,,,,mountain_157.jpg,0,mountain,,,7.984375,1.2524,0,45,45,45,1,,
,,,,,,,,,,golf_course_78.jpg,golf_course_134.jpg,golf_course_78.jpg,right,golf_course_78.jpg,highway_219.jpg,bridge_25.jpg,mountain_199.jpg,mountain_199.jpg,mountain_199.jpg,0,A2818E670QPY2B,25,Female,7,2023-07-18_14h58.35.332,working,2022.2.4,Win32,8.553076114,,,,,,,,,,golf_course_134.jpg,0,golf,,,8.234375,1.2811,0,46,46,46,1,,
,,,,,,,,,,highway_156.jpg,highway_160.jpg,highway_156.jpg,right,mountain_66.jpg,playground_103.jpg,highway_156.jpg,bridge_264.jpg,bridge_264.jpg,bridge_264.jpg,2,A2818E670QPY2B,25,Female,7,2023-07-18_14h58.35.332,working,2022.2.4,Win32,8.553076114,,,,,,,,,,highway_160.jpg,0,highway,,,8.484375,1.4584,0,47,47,47,1,,
,,,,,,,,,,playground_240.jpg,playground_240.jpg,playground_2.jpg,left,playground_240.jpg,bridge_78.jpg,highway_175.jpg,golf_course_102.jpg,golf_course_102.jpg,golf_course_102.jpg,0,A2818E670QPY2B,25,Female,7,2023-07-18_14h58.35.332,working,2022.2.4,Win32,8.553076114,,,,,,,,,,playground_2.jpg,0,playground,,,7.765625,2.7115,0,48,48,48,1,,
,,,,,,,,,,golf_course_193.jpg,golf_course_193.jpg,golf_course_235.jpg,left,bridge_49.jpg,highway_263.jpg,golf_course_193.jpg,badlands_216.jpg,badlands_216.jpg,badlands_216.jpg,2,A2818E670QPY2B,25,Female,7,2023-07-18_14h58.35.332,working,2022.2.4,Win32,8.553076114,,,,,,,,,,golf_course_235.jpg,0,golf,,,8.1328125,1.9249,0,49,49,49,1,,
,,,,,,,,,,highway_245.jpg,highway_206.jpg,highway_245.jpg,right,mountain_21.jpg,badlands_130.jpg,highway_245.jpg,playground_191.jpg,playground_191.jpg,playground_191.jpg,2,A2818E670QPY2B,25,Female,7,2023-07-18_14h58.35.332,working,2022.2.4,Win32,8.553076114,,,,,,,,,,highway_206.jpg,1,highway,,,8.0234375,7.7314,0,50,50,50,1,,
,,,,,,,,,,bridge_172.jpg,bridge_163.jpg,bridge_172.jpg,right,bridge_172.jpg,mountain_224.jpg,badlands_30.jpg,playground_95.jpg,playground_95.jpg,playground_95.jpg,0,A2818E670QPY2B,25,Female,7,2023-07-18_14h58.35.332,working,2022.2.4,Win32,8.553076114,,,,,,,,,,bridge_163.jpg,1,bridge,,,8.7890625,1.3691,0,51,51,51,1,,
,,,,,,,,,,golf_course_15.jpg,golf_course_15.jpg,golf_course_113.jpg,left,playground_124.jpg,golf_course_15.jpg,mountain_115.jpg,badlands_166.jpg,badlands_166.jpg,badlands_166.jpg,1,A2818E670QPY2B,25,Female,7,2023-07-18_14h58.35.332,working,2022.2.4,Win32,8.553076114,,,,,,,,,,golf_course_113.jpg,0,golf,,,8.4453125,1.1579,0,52,52,52,1,,
,,,,,,,,,,golf_course_331.jpg,golf_course_331.jpg,golf_course_114.jpg,left,badlands_35.jpg,golf_course_331.jpg,highway_234.jpg,playground_6.jpg,playground_6.jpg,playground_6.jpg,1,A2818E670QPY2B,25,Female,7,2023-07-18_14h58.35.332,working,2022.2.4,Win32,8.553076114,,,,,,,,,,golf_course_114.jpg,0,golf,,,8.484375,0.5202,0,53,53,53,1,,
,,,,,,,,,,playground_145.jpg,playground_145.jpg,playground_229.jpg,left,badlands_136.jpg,playground_145.jpg,bridge_2.jpg,golf_course_156.jpg,golf_course_156.jpg,golf_course_156.jpg,1,A2818E670QPY2B,25,Female,7,2023-07-18_14h58.35.332,working,2022.2.4,Win32,8.553076114,,,,,,,,,,playground_229.jpg,0,playground,,,7.140625,1.7768,0,54,54,54,1,,
,,,,,,,,,,golf_course_214.jpg,golf_course_214.jpg,golf_course_312.jpg,left,golf_course_214.jpg,bridge_162.jpg,badlands_149.jpg,playground_183.jpg,playground_183.jpg,playground_183.jpg,0,A2818E670QPY2B,25,Female,7,2023-07-18_14h58.35.332,working,2022.2.4,Win32,8.553076114,,,,,,,,,,golf_course_312.jpg,0,golf,,,7.6328125,1.1445,0,55,55,55,1,,
,,,,,,,,,,playground_144.jpg,playground_144.jpg,playground_65.jpg,left,badlands_173.jpg,playground_144.jpg,golf_course_27.jpg,highway_196.jpg,highway_196.jpg,highway_196.jpg,1,A2818E670QPY2B,25,Female,7,2023-07-18_14h58.35.332,working,2022.2.4,Win32,8.553076114,,,,,,,,,,playground_65.jpg,1,playground,,,7.3046875,2.0574,0,56,56,56,1,,
,,,,,,,,,,badlands_52.jpg,badlands_94.jpg,badlands_52.jpg,right,bridge_179.jpg,mountain_132.jpg,badlands_52.jpg,highway_149.jpg,highway_149.jpg,highway_149.jpg,2,A2818E670QPY2B,25,Female,7,2023-07-18_14h58.35.332,working,2022.2.4,Win32,8.553076114,,,,,,,,,,badlands_94.jpg,0,badlands,,,7.375,2.1679,0,57,57,57,1,,
,,,,,,,,,,highway_209.jpg,highway_209.jpg,highway_314.jpg,left,highway_209.jpg,badlands_45.jpg,bridge_26.jpg,mountain_307.jpg,mountain_307.jpg,mountain_307.jpg,0,A2818E670QPY2B,25,Female,7,2023-07-18_14h58.35.332,working,2022.2.4,Win32,8.553076114,,,,,,,,,,highway_314.jpg,0,highway,,,7.859375,2.93,0,58,58,58,1,,
,,,,,,,,,,highway_93.jpg,highway_369.jpg,highway_93.jpg,right,mountain_179.jpg,bridge_34.jpg,highway_93.jpg,playground_54.jpg,playground_54.jpg,playground_54.jpg,2,A2818E670QPY2B,25,Female,7,2023-07-18_14h58.35.332,working,2022.2.4,Win32,8.553076114,,,,,,,,,,highway_369.jpg,1,highway,,,8.046875,4.5282,0,59,59,59,1,,
,,,,,,,,,,,,,,,,,,,,,A2818E670QPY2B,25,Female,7,2023-07-18_14h58.35.332,working,2022.2.4,Win32,8.553076114,,,,,,,,,,,,,,,,,,,,,,space,19.4196
