key_resp.keys,key_resp_2.keys,key_resp_2.rt,demo_test_key_resp.keys,demo_test_key_resp.rt,demo_loops.thisRepN,demo_loops.thisTrialN,demo_loops.thisN,demo_loops.thisIndex,demo_loops.ran,target,image1,image2,correct,background_0,background_1,background_2,background_3,background_4,background_5,target_index,workID,Age,Gender,Hours slept (last night),date,expName,psychopyVersion,OS,frameRate,key_resp_after_demo.keys,key_resp_after_demo.rt,test_key_resp.keys,test_key_resp.rt,exp_loops.thisRepN,exp_loops.thisTrialN,exp_loops.thisN,exp_loops.thisIndex,exp_loops.ran,selected_dist,distractor_level,category,key_resp_4.keys,key_resp_4.rt,slider_part2.response,slider_part2.rt,exp_loops_part2.thisRepN,exp_loops_part2.thisTrialN,exp_loops_part2.thisN,exp_loops_part2.thisIndex,exp_loops_part2.ran,key_resp_last_slide.keys,key_resp_last_slide.rt
,space,41.279,left,1.474,0,0,0,0,1,flower1.jpg,flower1.jpg,flower1_pair.jpg,left,leaf3.jpg,trail1.jpg,flower1.jpg,bird1.jpg,tree3.jpg,fence4.jpg,2,AC7CDW53I98JT,32,Male,7,2023-07-18_15h29.40.593,working,2022.2.4,Win32,6.00024001,,,,,,,,,,,,,,,,,,,,,,,
,,,left,2.541,0,1,1,1,1,leaf2.jpg,leaf1.jpg,leaf2.jpg,right,trail2.jpg,leaf2.jpg,bird2.jpg,tree2.jpg,fence3.jpg,flower2.jpg,1,AC7CDW53I98JT,32,Male,7,2023-07-18_15h29.40.593,working,2022.2.4,Win32,6.00024001,,,,,,,,,,,,,,,,,,,,,,,
,,,right,3.255,0,2,2,2,1,fence1.jpg,fence1.jpg,fence2.jpg,left,tree1.jpg,bird3.jpg,trail3.jpg,fence1.jpg,leaf4.jpg,flower3.jpg,3,AC7CDW53I98JT,32,Male,7,2023-07-18_15h29.40.593,working,2022.2.4,Win32,6.00024001,,,,,,,,,,,,,,,,,,,,,,,
,,,,,,,,,,highway_359.jpg,highway_389.jpg,highway_359.jpg,right,badlands_31.jpg,highway_359.jpg,golf_course_337.jpg,mountain_292.jpg,mountain_292.jpg,mountain_292.jpg,1,AC7CDW53I98JT,32,Male,7,2023-07-18_15h29.40.593,working,2022.2.4,Win32,6.00024001,space,4.018,left,3.527,0,0,0,0,1,highway_389.jpg,0,highway,,,,,,,,,,,
,,,,,,,,,,playground_76.jpg,playground_22.jpg,playground_76.jpg,right,golf_course_316.jpg,highway_248.jpg,playground_76.jpg,bridge_78.jpg,bridge_78.jpg,bridge_78.jpg,2,AC7CDW53I98JT,32,Male,7,2023-07-18_15h29.40.593,working,2022.2.4,Win32,6.00024001,,,right,3.175,0,1,1,1,1,playground_22.jpg,0,playground,,,,,,,,,,,
,,,,,,,,,,playground_240.jpg,playground_240.jpg,playground_40.jpg,left,playground_240.jpg,bridge_2.jpg,mountain_280.jpg,highway_144.jpg,highway_144.jpg,highway_144.jpg,0,AC7CDW53I98JT,32,Male,7,2023-07-18_15h29.40.593,working,2022.2.4,Win32,6.00024001,,,left,1.481,0,2,2,2,1,playground_40.jpg,1,playground,,,,,,,,,,,
,,,,,,,,,,bridge_91.jpg,bridge_82.jpg,bridge_91.jpg,right,badlands_59.jpg,bridge_91.jpg,mountain_34.jpg,golf_course_46.jpg,golf_course_46.jpg,golf_course_46.jpg,1,AC7CDW53I98JT,32,Male,7,2023-07-18_15h29.40.593,working,2022.2.4,Win32,6.00024001,,,right,1.729,0,3,3,3,1,bridge_82.jpg,1,bridge,,,,,,,,,,,
,,,,,,,,,,bridge_191.jpg,bridge_191.jpg,bridge_184.jpg,left,bridge_191.jpg,highway_146.jpg,playground_41.jpg,badlands_30.jpg,badlands_30.jpg,badlands_30.jpg,0,AC7CDW53I98JT,32,Male,7,2023-07-18_15h29.40.593,working,2022.2.4,Win32,6.00024001,,,right,1.601,0,4,4,4,1,bridge_184.jpg,0,bridge,,,,,,,,,,,
,,,,,,,,,,badlands_70.jpg,badlands_119.jpg,badlands_70.jpg,right,golf_course_198.jpg,badlands_70.jpg,bridge_259.jpg,highway_18.jpg,highway_18.jpg,highway_18.jpg,1,AC7CDW53I98JT,32,Male,7,2023-07-18_15h29.40.593,working,2022.2.4,Win32,6.00024001,,,right,3.785,0,5,5,5,1,badlands_119.jpg,1,badlands,,,,,,,,,,,
,,,,,,,,,,golf_course_193.jpg,golf_course_193.jpg,golf_course_123.jpg,left,highway_319.jpg,badlands_220.jpg,golf_course_193.jpg,mountain_44.jpg,mountain_44.jpg,mountain_44.jpg,2,AC7CDW53I98JT,32,Male,7,2023-07-18_15h29.40.593,working,2022.2.4,Win32,6.00024001,,,left,2.168,0,6,6,6,1,golf_course_123.jpg,1,golf,,,,,,,,,,,
,,,,,,,,,,highway_177.jpg,highway_177.jpg,highway_87.jpg,left,bridge_130.jpg,highway_177.jpg,playground_183.jpg,golf_course_83.jpg,golf_course_83.jpg,golf_course_83.jpg,1,AC7CDW53I98JT,32,Male,7,2023-07-18_15h29.40.593,working,2022.2.4,Win32,6.00024001,,,left,2.552,0,7,7,7,1,highway_87.jpg,0,highway,,,,,,,,,,,
,,,,,,,,,,highway_273.jpg,highway_384.jpg,highway_273.jpg,right,playground_80.jpg,mountain_199.jpg,highway_273.jpg,golf_course_325.jpg,golf_course_325.jpg,golf_course_325.jpg,2,AC7CDW53I98JT,32,Male,7,2023-07-18_15h29.40.593,working,2022.2.4,Win32,6.00024001,,,right,1.929,0,8,8,8,1,highway_384.jpg,0,highway,,,,,,,,,,,
,,,,,,,,,,playground_10.jpg,playground_10.jpg,playground_12.jpg,left,badlands_108.jpg,playground_10.jpg,mountain_162.jpg,highway_398.jpg,highway_398.jpg,highway_398.jpg,1,AC7CDW53I98JT,32,Male,7,2023-07-18_15h29.40.593,working,2022.2.4,Win32,6.00024001,,,right,2.639,0,9,9,9,1,playground_12.jpg,1,playground,,,,,,,,,,,
,,,,,,,,,,mountain_123.jpg,mountain_123.jpg,mountain_94.jpg,left,playground_264.jpg,mountain_123.jpg,highway_219.jpg,bridge_21.jpg,bridge_21.jpg,bridge_21.jpg,1,AC7CDW53I98JT,32,Male,7,2023-07-18_15h29.40.593,working,2022.2.4,Win32,6.00024001,,,left,4.525,0,10,10,10,1,mountain_94.jpg,0,mountain,,,,,,,,,,,
,,,,,,,,,,playground_117.jpg,playground_127.jpg,playground_117.jpg,right,playground_117.jpg,bridge_34.jpg,mountain_107.jpg,golf_course_264.jpg,golf_course_264.jpg,golf_course_264.jpg,0,AC7CDW53I98JT,32,Male,7,2023-07-18_15h29.40.593,working,2022.2.4,Win32,6.00024001,,,right,1.153,0,11,11,11,1,playground_127.jpg,1,playground,,,,,,,,,,,
,,,,,,,,,,mountain_57.jpg,mountain_138.jpg,mountain_57.jpg,right,playground_178.jpg,mountain_57.jpg,bridge_120.jpg,badlands_27.jpg,badlands_27.jpg,badlands_27.jpg,1,AC7CDW53I98JT,32,Male,7,2023-07-18_15h29.40.593,working,2022.2.4,Win32,6.00024001,,,right,3.361,0,12,12,12,1,mountain_138.jpg,1,mountain,,,,,,,,,,,
,,,,,,,,,,playground_257.jpg,playground_215.jpg,playground_257.jpg,right,mountain_253.jpg,golf_course_159.jpg,playground_257.jpg,highway_357.jpg,highway_357.jpg,highway_357.jpg,2,AC7CDW53I98JT,32,Male,7,2023-07-18_15h29.40.593,working,2022.2.4,Win32,6.00024001,,,right,3.507,0,13,13,13,1,playground_215.jpg,1,playground,,,,,,,,,,,
,,,,,,,,,,highway_93.jpg,highway_93.jpg,highway_85.jpg,left,playground_241.jpg,highway_93.jpg,badlands_173.jpg,golf_course_33.jpg,golf_course_33.jpg,golf_course_33.jpg,1,AC7CDW53I98JT,32,Male,7,2023-07-18_15h29.40.593,working,2022.2.4,Win32,6.00024001,,,left,3.006,0,14,14,14,1,highway_85.jpg,0,highway,,,,,,,,,,,
,,,,,,,,,,badlands_52.jpg,badlands_94.jpg,badlands_52.jpg,right,mountain_104.jpg,badlands_52.jpg,bridge_169.jpg,golf_course_290.jpg,golf_course_290.jpg,golf_course_290.jpg,1,AC7CDW53I98JT,32,Male,7,2023-07-18_15h29.40.593,working,2022.2.4,Win32,6.00024001,,,right,3.741,0,15,15,15,1,badlands_94.jpg,0,badlands,,,,,,,,,,,
,,,,,,,,,,mountain_154.jpg,mountain_154.jpg,mountain_95.jpg,left,playground_13.jpg,badlands_136.jpg,mountain_154.jpg,highway_402.jpg,highway_402.jpg,highway_402.jpg,2,AC7CDW53I98JT,32,Male,7,2023-07-18_15h29.40.593,working,2022.2.4,Win32,6.00024001,,,left,3.891,0,16,16,16,1,mountain_95.jpg,1,mountain,,,,,,,,,,,
,,,,,,,,,,playground_145.jpg,playground_229.jpg,playground_145.jpg,right,badlands_176.jpg,playground_145.jpg,highway_331.jpg,mountain_66.jpg,mountain_66.jpg,mountain_66.jpg,1,AC7CDW53I98JT,32,Male,7,2023-07-18_15h29.40.593,working,2022.2.4,Win32,6.00024001,,,right,2.265,0,17,17,17,1,playground_229.jpg,0,playground,,,,,,,,,,,
,,,,,,,,,,bridge_65.jpg,bridge_65.jpg,bridge_60.jpg,left,badlands_35.jpg,bridge_65.jpg,highway_99.jpg,golf_course_185.jpg,golf_course_185.jpg,golf_course_185.jpg,1,AC7CDW53I98JT,32,Male,7,2023-07-18_15h29.40.593,working,2022.2.4,Win32,6.00024001,,,left,1.313,0,18,18,18,1,bridge_60.jpg,1,bridge,,,,,,,,,,,
,,,,,,,,,,golf_course_331.jpg,golf_course_331.jpg,golf_course_26.jpg,left,golf_course_331.jpg,mountain_228.jpg,bridge_18.jpg,highway_166.jpg,highway_166.jpg,highway_166.jpg,0,AC7CDW53I98JT,32,Male,7,2023-07-18_15h29.40.593,working,2022.2.4,Win32,6.00024001,,,right,1.528,0,19,19,19,1,golf_course_26.jpg,1,golf,,,,,,,,,,,
,,,,,,,,,,highway_156.jpg,highway_156.jpg,highway_293.jpg,left,golf_course_1.jpg,highway_156.jpg,playground_77.jpg,badlands_186.jpg,badlands_186.jpg,badlands_186.jpg,1,AC7CDW53I98JT,32,Male,7,2023-07-18_15h29.40.593,working,2022.2.4,Win32,6.00024001,,,left,2.005,0,20,20,20,1,highway_293.jpg,1,highway,,,,,,,,,,,
,,,,,,,,,,badlands_222.jpg,badlands_34.jpg,badlands_222.jpg,right,badlands_222.jpg,playground_108.jpg,highway_75.jpg,bridge_124.jpg,bridge_124.jpg,bridge_124.jpg,0,AC7CDW53I98JT,32,Male,7,2023-07-18_15h29.40.593,working,2022.2.4,Win32,6.00024001,,,left,1.945,0,21,21,21,1,badlands_34.jpg,0,badlands,,,,,,,,,,,
,,,,,,,,,,playground_144.jpg,playground_137.jpg,playground_144.jpg,right,golf_course_173.jpg,playground_144.jpg,highway_175.jpg,bridge_25.jpg,bridge_25.jpg,bridge_25.jpg,1,AC7CDW53I98JT,32,Male,7,2023-07-18_15h29.40.593,working,2022.2.4,Win32,6.00024001,,,left,3.794,0,22,22,22,1,playground_137.jpg,0,playground,,,,,,,,,,,
,,,,,,,,,,highway_394.jpg,highway_406.jpg,highway_394.jpg,right,mountain_212.jpg,badlands_166.jpg,highway_394.jpg,golf_course_166.jpg,golf_course_166.jpg,golf_course_166.jpg,2,AC7CDW53I98JT,32,Male,7,2023-07-18_15h29.40.593,working,2022.2.4,Win32,6.00024001,,,left,2.559,0,23,23,23,1,highway_406.jpg,1,highway,,,,,,,,,,,
,,,,,,,,,,highway_209.jpg,highway_209.jpg,highway_314.jpg,left,mountain_21.jpg,highway_209.jpg,badlands_180.jpg,golf_course_320.jpg,golf_course_320.jpg,golf_course_320.jpg,1,AC7CDW53I98JT,32,Male,7,2023-07-18_15h29.40.593,working,2022.2.4,Win32,6.00024001,,,right,4.411,0,24,24,24,1,highway_314.jpg,0,highway,,,,,,,,,,,
,,,,,,,,,,badlands_23.jpg,badlands_23.jpg,badlands_114.jpg,left,golf_course_27.jpg,playground_7.jpg,badlands_23.jpg,mountain_105.jpg,mountain_105.jpg,mountain_105.jpg,2,AC7CDW53I98JT,32,Male,7,2023-07-18_15h29.40.593,working,2022.2.4,Win32,6.00024001,,,left,2.151,0,25,25,25,1,badlands_114.jpg,0,badlands,,,,,,,,,,,
,,,,,,,,,,golf_course_15.jpg,golf_course_97.jpg,golf_course_15.jpg,right,badlands_142.jpg,golf_course_15.jpg,bridge_132.jpg,playground_42.jpg,playground_42.jpg,playground_42.jpg,1,AC7CDW53I98JT,32,Male,7,2023-07-18_15h29.40.593,working,2022.2.4,Win32,6.00024001,,,right,2.341,0,26,26,26,1,golf_course_97.jpg,1,golf,,,,,,,,,,,
,,,,,,,,,,playground_60.jpg,playground_244.jpg,playground_60.jpg,right,bridge_19.jpg,playground_60.jpg,highway_227.jpg,badlands_75.jpg,badlands_75.jpg,badlands_75.jpg,1,AC7CDW53I98JT,32,Male,7,2023-07-18_15h29.40.593,working,2022.2.4,Win32,6.00024001,,,right,4.8,0,27,27,27,1,playground_244.jpg,1,playground,,,,,,,,,,,
,,,,,,,,,,bridge_202.jpg,bridge_38.jpg,bridge_202.jpg,right,highway_37.jpg,bridge_202.jpg,badlands_143.jpg,playground_3.jpg,playground_3.jpg,playground_3.jpg,1,AC7CDW53I98JT,32,Male,7,2023-07-18_15h29.40.593,working,2022.2.4,Win32,6.00024001,,,right,3.391,0,28,28,28,1,bridge_38.jpg,1,bridge,,,,,,,,,,,
,,,,,,,,,,badlands_184.jpg,badlands_184.jpg,badlands_103.jpg,left,mountain_233.jpg,playground_191.jpg,badlands_184.jpg,golf_course_258.jpg,golf_course_258.jpg,golf_course_258.jpg,2,AC7CDW53I98JT,32,Male,7,2023-07-18_15h29.40.593,working,2022.2.4,Win32,6.00024001,,,right,1.854,0,29,29,29,1,badlands_103.jpg,1,badlands,,,,,,,,,,,
,,,,,,,,,,golf_course_217.jpg,golf_course_35.jpg,golf_course_217.jpg,right,golf_course_217.jpg,playground_30.jpg,highway_244.jpg,bridge_230.jpg,bridge_230.jpg,bridge_230.jpg,0,AC7CDW53I98JT,32,Male,7,2023-07-18_15h29.40.593,working,2022.2.4,Win32,6.00024001,,,left,2.252,0,30,30,30,1,golf_course_35.jpg,0,golf,,,,,,,,,,,
,,,,,,,,,,mountain_156.jpg,mountain_156.jpg,mountain_295.jpg,left,badlands_200.jpg,mountain_156.jpg,bridge_26.jpg,playground_249.jpg,playground_249.jpg,playground_249.jpg,1,AC7CDW53I98JT,32,Male,7,2023-07-18_15h29.40.593,working,2022.2.4,Win32,6.00024001,,,left,2.311,0,31,31,31,1,mountain_295.jpg,1,mountain,,,,,,,,,,,
,,,,,,,,,,mountain_101.jpg,mountain_101.jpg,mountain_221.jpg,left,highway_117.jpg,golf_course_58.jpg,mountain_101.jpg,playground_172.jpg,playground_172.jpg,playground_172.jpg,2,AC7CDW53I98JT,32,Male,7,2023-07-18_15h29.40.593,working,2022.2.4,Win32,6.00024001,,,left,3.497,0,32,32,32,1,mountain_221.jpg,1,mountain,,,,,,,,,,,
,,,,,,,,,,bridge_108.jpg,bridge_148.jpg,bridge_108.jpg,right,badlands_177.jpg,bridge_108.jpg,golf_course_321.jpg,playground_235.jpg,playground_235.jpg,playground_235.jpg,1,AC7CDW53I98JT,32,Male,7,2023-07-18_15h29.40.593,working,2022.2.4,Win32,6.00024001,,,right,3.623,0,33,33,33,1,bridge_148.jpg,1,bridge,,,,,,,,,,,
,,,,,,,,,,badlands_113.jpg,badlands_225.jpg,badlands_113.jpg,right,badlands_113.jpg,bridge_106.jpg,playground_158.jpg,highway_112.jpg,highway_112.jpg,highway_112.jpg,0,AC7CDW53I98JT,32,Male,7,2023-07-18_15h29.40.593,working,2022.2.4,Win32,6.00024001,,,left,1.63,0,34,34,34,1,badlands_225.jpg,0,badlands,,,,,,,,,,,
,,,,,,,,,,playground_219.jpg,playground_21.jpg,playground_219.jpg,right,playground_219.jpg,golf_course_42.jpg,highway_263.jpg,badlands_64.jpg,badlands_64.jpg,badlands_64.jpg,0,AC7CDW53I98JT,32,Male,7,2023-07-18_15h29.40.593,working,2022.2.4,Win32,6.00024001,,,right,2.405,0,35,35,35,1,playground_21.jpg,0,playground,,,,,,,,,,,
,,,,,,,,,,mountain_222.jpg,mountain_93.jpg,mountain_222.jpg,right,badlands_174.jpg,mountain_222.jpg,playground_6.jpg,highway_147.jpg,highway_147.jpg,highway_147.jpg,1,AC7CDW53I98JT,32,Male,7,2023-07-18_15h29.40.593,working,2022.2.4,Win32,6.00024001,,,left,2.341,0,36,36,36,1,mountain_93.jpg,1,mountain,,,,,,,,,,,
,,,,,,,,,,bridge_250.jpg,bridge_134.jpg,bridge_250.jpg,right,golf_course_57.jpg,bridge_250.jpg,highway_23.jpg,badlands_152.jpg,badlands_152.jpg,badlands_152.jpg,1,AC7CDW53I98JT,32,Male,7,2023-07-18_15h29.40.593,working,2022.2.4,Win32,6.00024001,,,left,2.516,0,37,37,37,1,bridge_134.jpg,0,bridge,,,,,,,,,,,
,,,,,,,,,,golf_course_195.jpg,golf_course_195.jpg,golf_course_25.jpg,left,mountain_161.jpg,badlands_104.jpg,golf_course_195.jpg,playground_123.jpg,playground_123.jpg,playground_123.jpg,2,AC7CDW53I98JT,32,Male,7,2023-07-18_15h29.40.593,working,2022.2.4,Win32,6.00024001,,,left,4.554,0,38,38,38,1,golf_course_25.jpg,0,golf,,,,,,,,,,,
,,,,,,,,,,mountain_230.jpg,mountain_97.jpg,mountain_230.jpg,right,golf_course_102.jpg,mountain_230.jpg,highway_179.jpg,bridge_218.jpg,bridge_218.jpg,bridge_218.jpg,1,AC7CDW53I98JT,32,Male,7,2023-07-18_15h29.40.593,working,2022.2.4,Win32,6.00024001,,,left,1.839,0,39,39,39,1,mountain_97.jpg,1,mountain,,,,,,,,,,,
,,,,,,,,,,highway_294.jpg,highway_294.jpg,highway_203.jpg,left,highway_294.jpg,playground_70.jpg,mountain_204.jpg,golf_course_52.jpg,golf_course_52.jpg,golf_course_52.jpg,0,AC7CDW53I98JT,32,Male,7,2023-07-18_15h29.40.593,working,2022.2.4,Win32,6.00024001,,,right,3.611,0,40,40,40,1,highway_203.jpg,0,highway,,,,,,,,,,,
,,,,,,,,,,badlands_24.jpg,badlands_53.jpg,badlands_24.jpg,right,golf_course_334.jpg,badlands_24.jpg,bridge_257.jpg,highway_13.jpg,highway_13.jpg,highway_13.jpg,1,AC7CDW53I98JT,32,Male,7,2023-07-18_15h29.40.593,working,2022.2.4,Win32,6.00024001,,,left,1.218,0,41,41,41,1,badlands_53.jpg,1,badlands,,,,,,,,,,,
,,,,,,,,,,badlands_137.jpg,badlands_137.jpg,badlands_139.jpg,left,badlands_137.jpg,golf_course_302.jpg,highway_11.jpg,mountain_214.jpg,mountain_214.jpg,mountain_214.jpg,0,AC7CDW53I98JT,32,Male,7,2023-07-18_15h29.40.593,working,2022.2.4,Win32,6.00024001,,,right,1.151,0,42,42,42,1,badlands_139.jpg,1,badlands,,,,,,,,,,,
,,,,,,,,,,golf_course_214.jpg,golf_course_214.jpg,golf_course_317.jpg,left,mountain_301.jpg,golf_course_214.jpg,bridge_49.jpg,playground_5.jpg,playground_5.jpg,playground_5.jpg,1,AC7CDW53I98JT,32,Male,7,2023-07-18_15h29.40.593,working,2022.2.4,Win32,6.00024001,,,left,2.072,0,43,43,43,1,golf_course_317.jpg,1,golf,,,,,,,,,,,
,,,,,,,,,,mountain_110.jpg,mountain_157.jpg,mountain_110.jpg,right,badlands_218.jpg,golf_course_43.jpg,mountain_110.jpg,bridge_182.jpg,bridge_182.jpg,bridge_182.jpg,2,AC7CDW53I98JT,32,Male,7,2023-07-18_15h29.40.593,working,2022.2.4,Win32,6.00024001,,,left,2.024,0,44,44,44,1,mountain_157.jpg,0,mountain,,,,,,,,,,,
,,,,,,,,,,mountain_293.jpg,mountain_47.jpg,mountain_293.jpg,right,mountain_293.jpg,bridge_177.jpg,golf_course_206.jpg,highway_234.jpg,highway_234.jpg,highway_234.jpg,0,AC7CDW53I98JT,32,Male,7,2023-07-18_15h29.40.593,working,2022.2.4,Win32,6.00024001,,,left,1.204,0,45,45,45,1,mountain_47.jpg,1,mountain,,,,,,,,,,,
,,,,,,,,,,golf_course_188.jpg,golf_course_157.jpg,golf_course_188.jpg,right,mountain_15.jpg,playground_66.jpg,golf_course_188.jpg,badlands_54.jpg,badlands_54.jpg,badlands_54.jpg,2,AC7CDW53I98JT,32,Male,7,2023-07-18_15h29.40.593,working,2022.2.4,Win32,6.00024001,,,right,2.47,0,46,46,46,1,golf_course_157.jpg,0,golf,,,,,,,,,,,
,,,,,,,,,,bridge_172.jpg,bridge_17.jpg,bridge_172.jpg,right,bridge_172.jpg,badlands_99.jpg,mountain_132.jpg,golf_course_319.jpg,golf_course_319.jpg,golf_course_319.jpg,0,AC7CDW53I98JT,32,Male,7,2023-07-18_15h29.40.593,working,2022.2.4,Win32,6.00024001,,,left,1.706,0,47,47,47,1,bridge_17.jpg,0,bridge,,,,,,,,,,,
,,,,,,,,,,playground_131.jpg,playground_131.jpg,playground_164.jpg,left,bridge_10.jpg,golf_course_128.jpg,playground_131.jpg,mountain_84.jpg,mountain_84.jpg,mountain_84.jpg,2,AC7CDW53I98JT,32,Male,7,2023-07-18_15h29.40.593,working,2022.2.4,Win32,6.00024001,,,left,0.98,0,48,48,48,1,playground_164.jpg,1,playground,,,,,,,,,,,
,,,,,,,,,,golf_course_309.jpg,golf_course_16.jpg,golf_course_309.jpg,right,highway_159.jpg,bridge_263.jpg,golf_course_309.jpg,badlands_2.jpg,badlands_2.jpg,badlands_2.jpg,2,AC7CDW53I98JT,32,Male,7,2023-07-18_15h29.40.593,working,2022.2.4,Win32,6.00024001,,,left,4.363,0,49,49,49,1,golf_course_16.jpg,0,golf,,,,,,,,,,,
,,,,,,,,,,bridge_128.jpg,bridge_128.jpg,bridge_61.jpg,left,golf_course_60.jpg,bridge_128.jpg,badlands_216.jpg,playground_36.jpg,playground_36.jpg,playground_36.jpg,1,AC7CDW53I98JT,32,Male,7,2023-07-18_15h29.40.593,working,2022.2.4,Win32,6.00024001,,,right,2.22,0,50,50,50,1,bridge_61.jpg,0,bridge,,,,,,,,,,,
,,,,,,,,,,highway_415.jpg,highway_60.jpg,highway_415.jpg,right,mountain_26.jpg,bridge_251.jpg,highway_415.jpg,golf_course_21.jpg,golf_course_21.jpg,golf_course_21.jpg,2,AC7CDW53I98JT,32,Male,7,2023-07-18_15h29.40.593,working,2022.2.4,Win32,6.00024001,,,right,1.92,0,51,51,51,1,highway_60.jpg,0,highway,,,,,,,,,,,
,,,,,,,,,,badlands_21.jpg,badlands_21.jpg,badlands_98.jpg,left,highway_88.jpg,badlands_21.jpg,golf_course_329.jpg,bridge_179.jpg,bridge_179.jpg,bridge_179.jpg,1,AC7CDW53I98JT,32,Male,7,2023-07-18_15h29.40.593,working,2022.2.4,Win32,6.00024001,,,left,1.694,0,52,52,52,1,badlands_98.jpg,1,badlands,,,,,,,,,,,
,,,,,,,,,,highway_245.jpg,highway_245.jpg,highway_206.jpg,left,bridge_48.jpg,highway_245.jpg,badlands_45.jpg,playground_103.jpg,playground_103.jpg,playground_103.jpg,1,AC7CDW53I98JT,32,Male,7,2023-07-18_15h29.40.593,working,2022.2.4,Win32,6.00024001,,,right,1.939,0,53,53,53,1,highway_206.jpg,1,highway,,,,,,,,,,,
,,,,,,,,,,bridge_146.jpg,bridge_121.jpg,bridge_146.jpg,right,golf_course_122.jpg,bridge_146.jpg,badlands_13.jpg,mountain_166.jpg,mountain_166.jpg,mountain_166.jpg,1,AC7CDW53I98JT,32,Male,7,2023-07-18_15h29.40.593,working,2022.2.4,Win32,6.00024001,,,left,2.137,0,54,54,54,1,bridge_121.jpg,1,bridge,,,,,,,,,,,
,,,,,,,,,,golf_course_78.jpg,golf_course_78.jpg,golf_course_134.jpg,left,golf_course_78.jpg,bridge_238.jpg,mountain_179.jpg,highway_336.jpg,highway_336.jpg,highway_336.jpg,0,AC7CDW53I98JT,32,Male,7,2023-07-18_15h29.40.593,working,2022.2.4,Win32,6.00024001,,,left,1.319,0,55,55,55,1,golf_course_134.jpg,0,golf,,,,,,,,,,,
,,,,,,,,,,badlands_221.jpg,badlands_221.jpg,badlands_115.jpg,left,playground_173.jpg,mountain_235.jpg,badlands_221.jpg,bridge_204.jpg,bridge_204.jpg,bridge_204.jpg,2,AC7CDW53I98JT,32,Male,7,2023-07-18_15h29.40.593,working,2022.2.4,Win32,6.00024001,,,right,1.716,0,56,56,56,1,badlands_115.jpg,0,badlands,,,,,,,,,,,
,,,,,,,,,,mountain_232.jpg,mountain_3.jpg,mountain_232.jpg,right,bridge_158.jpg,mountain_232.jpg,highway_149.jpg,badlands_95.jpg,badlands_95.jpg,badlands_95.jpg,1,AC7CDW53I98JT,32,Male,7,2023-07-18_15h29.40.593,working,2022.2.4,Win32,6.00024001,,,left,1.474,0,57,57,57,1,mountain_3.jpg,0,mountain,,,,,,,,,,,
,,,,,,,,,,golf_course_87.jpg,golf_course_87.jpg,golf_course_130.jpg,left,playground_124.jpg,golf_course_87.jpg,bridge_9.jpg,mountain_115.jpg,mountain_115.jpg,mountain_115.jpg,1,AC7CDW53I98JT,32,Male,7,2023-07-18_15h29.40.593,working,2022.2.4,Win32,6.00024001,,,left,1.771,0,58,58,58,1,golf_course_130.jpg,0,golf,,,,,,,,,,,
,,,,,,,,,,bridge_256.jpg,bridge_256.jpg,bridge_54.jpg,left,mountain_126.jpg,badlands_89.jpg,bridge_256.jpg,highway_261.jpg,highway_261.jpg,highway_261.jpg,2,AC7CDW53I98JT,32,Male,7,2023-07-18_15h29.40.593,working,2022.2.4,Win32,6.00024001,,,right,1.371,0,59,59,59,1,bridge_54.jpg,0,bridge,,,,,,,,,,,
,,,,,,,,,,highway_359.jpg,highway_389.jpg,highway_359.jpg,right,badlands_31.jpg,highway_359.jpg,golf_course_337.jpg,mountain_292.jpg,mountain_292.jpg,mountain_292.jpg,1,AC7CDW53I98JT,32,Male,7,2023-07-18_15h29.40.593,working,2022.2.4,Win32,6.00024001,,,,,,,,,,highway_389.jpg,0,highway,space,17.113,6.979166667,5.804,0,0,0,0,1,,
,,,,,,,,,,playground_76.jpg,playground_22.jpg,playground_76.jpg,right,golf_course_316.jpg,highway_248.jpg,playground_76.jpg,bridge_78.jpg,bridge_78.jpg,bridge_78.jpg,2,AC7CDW53I98JT,32,Male,7,2023-07-18_15h29.40.593,working,2022.2.4,Win32,6.00024001,,,,,,,,,,playground_22.jpg,0,playground,,,8.979166667,4.891,0,1,1,1,1,,
,,,,,,,,,,playground_240.jpg,playground_240.jpg,playground_40.jpg,left,playground_240.jpg,bridge_2.jpg,mountain_280.jpg,highway_144.jpg,highway_144.jpg,highway_144.jpg,0,AC7CDW53I98JT,32,Male,7,2023-07-18_15h29.40.593,working,2022.2.4,Win32,6.00024001,,,,,,,,,,playground_40.jpg,1,playground,,,8.979166667,1.496,0,2,2,2,1,,
,,,,,,,,,,bridge_91.jpg,bridge_82.jpg,bridge_91.jpg,right,badlands_59.jpg,bridge_91.jpg,mountain_34.jpg,golf_course_46.jpg,golf_course_46.jpg,golf_course_46.jpg,1,AC7CDW53I98JT,32,Male,7,2023-07-18_15h29.40.593,working,2022.2.4,Win32,6.00024001,,,,,,,,,,bridge_82.jpg,1,bridge,,,7.989583333,4.638,0,3,3,3,1,,
,,,,,,,,,,bridge_191.jpg,bridge_191.jpg,bridge_184.jpg,left,bridge_191.jpg,highway_146.jpg,playground_41.jpg,badlands_30.jpg,badlands_30.jpg,badlands_30.jpg,0,AC7CDW53I98JT,32,Male,7,2023-07-18_15h29.40.593,working,2022.2.4,Win32,6.00024001,,,,,,,,,,bridge_184.jpg,0,bridge,,,6.020833333,4.158,0,4,4,4,1,,
,,,,,,,,,,badlands_70.jpg,badlands_119.jpg,badlands_70.jpg,right,golf_course_198.jpg,badlands_70.jpg,bridge_259.jpg,highway_18.jpg,highway_18.jpg,highway_18.jpg,1,AC7CDW53I98JT,32,Male,7,2023-07-18_15h29.40.593,working,2022.2.4,Win32,6.00024001,,,,,,,,,,badlands_119.jpg,1,badlands,,,5.96875,13.258,0,5,5,5,1,,
,,,,,,,,,,golf_course_193.jpg,golf_course_193.jpg,golf_course_123.jpg,left,highway_319.jpg,badlands_220.jpg,golf_course_193.jpg,mountain_44.jpg,mountain_44.jpg,mountain_44.jpg,2,AC7CDW53I98JT,32,Male,7,2023-07-18_15h29.40.593,working,2022.2.4,Win32,6.00024001,,,,,,,,,,golf_course_123.jpg,1,golf,,,7,5.289,0,6,6,6,1,,
,,,,,,,,,,highway_177.jpg,highway_177.jpg,highway_87.jpg,left,bridge_130.jpg,highway_177.jpg,playground_183.jpg,golf_course_83.jpg,golf_course_83.jpg,golf_course_83.jpg,1,AC7CDW53I98JT,32,Male,7,2023-07-18_15h29.40.593,working,2022.2.4,Win32,6.00024001,,,,,,,,,,highway_87.jpg,0,highway,,,7,4.169,0,7,7,7,1,,
,,,,,,,,,,highway_273.jpg,highway_384.jpg,highway_273.jpg,right,playground_80.jpg,mountain_199.jpg,highway_273.jpg,golf_course_325.jpg,golf_course_325.jpg,golf_course_325.jpg,2,AC7CDW53I98JT,32,Male,7,2023-07-18_15h29.40.593,working,2022.2.4,Win32,6.00024001,,,,,,,,,,highway_384.jpg,0,highway,,,5.041666667,1.27,0,8,8,8,1,,
,,,,,,,,,,playground_10.jpg,playground_10.jpg,playground_12.jpg,left,badlands_108.jpg,playground_10.jpg,mountain_162.jpg,highway_398.jpg,highway_398.jpg,highway_398.jpg,1,AC7CDW53I98JT,32,Male,7,2023-07-18_15h29.40.593,working,2022.2.4,Win32,6.00024001,,,,,,,,,,playground_12.jpg,1,playground,,,5.020833333,0.308,0,9,9,9,1,,
,,,,,,,,,,mountain_123.jpg,mountain_123.jpg,mountain_94.jpg,left,playground_264.jpg,mountain_123.jpg,highway_219.jpg,bridge_21.jpg,bridge_21.jpg,bridge_21.jpg,1,AC7CDW53I98JT,32,Male,7,2023-07-18_15h29.40.593,working,2022.2.4,Win32,6.00024001,,,,,,,,,,mountain_94.jpg,0,mountain,,,5.96875,4.392,0,10,10,10,1,,
,,,,,,,,,,playground_117.jpg,playground_127.jpg,playground_117.jpg,right,playground_117.jpg,bridge_34.jpg,mountain_107.jpg,golf_course_264.jpg,golf_course_264.jpg,golf_course_264.jpg,0,AC7CDW53I98JT,32,Male,7,2023-07-18_15h29.40.593,working,2022.2.4,Win32,6.00024001,,,,,,,,,,playground_127.jpg,1,playground,,,6.010416667,3.486,0,11,11,11,1,,
,,,,,,,,,,mountain_57.jpg,mountain_138.jpg,mountain_57.jpg,right,playground_178.jpg,mountain_57.jpg,bridge_120.jpg,badlands_27.jpg,badlands_27.jpg,badlands_27.jpg,1,AC7CDW53I98JT,32,Male,7,2023-07-18_15h29.40.593,working,2022.2.4,Win32,6.00024001,,,,,,,,,,mountain_138.jpg,1,mountain,,,7.822916667,0.886,0,12,12,12,1,,
,,,,,,,,,,playground_257.jpg,playground_215.jpg,playground_257.jpg,right,mountain_253.jpg,golf_course_159.jpg,playground_257.jpg,highway_357.jpg,highway_357.jpg,highway_357.jpg,2,AC7CDW53I98JT,32,Male,7,2023-07-18_15h29.40.593,working,2022.2.4,Win32,6.00024001,,,,,,,,,,playground_215.jpg,1,playground,,,7,5.908,0,13,13,13,1,,
,,,,,,,,,,highway_93.jpg,highway_93.jpg,highway_85.jpg,left,playground_241.jpg,highway_93.jpg,badlands_173.jpg,golf_course_33.jpg,golf_course_33.jpg,golf_course_33.jpg,1,AC7CDW53I98JT,32,Male,7,2023-07-18_15h29.40.593,working,2022.2.4,Win32,6.00024001,,,,,,,,,,highway_85.jpg,0,highway,,,7.9375,2.679,0,14,14,14,1,,
,,,,,,,,,,badlands_52.jpg,badlands_94.jpg,badlands_52.jpg,right,mountain_104.jpg,badlands_52.jpg,bridge_169.jpg,golf_course_290.jpg,golf_course_290.jpg,golf_course_290.jpg,1,AC7CDW53I98JT,32,Male,7,2023-07-18_15h29.40.593,working,2022.2.4,Win32,6.00024001,,,,,,,,,,badlands_94.jpg,0,badlands,,,8,11.122,0,15,15,15,1,,
,,,,,,,,,,mountain_154.jpg,mountain_154.jpg,mountain_95.jpg,left,playground_13.jpg,badlands_136.jpg,mountain_154.jpg,highway_402.jpg,highway_402.jpg,highway_402.jpg,2,AC7CDW53I98JT,32,Male,7,2023-07-18_15h29.40.593,working,2022.2.4,Win32,6.00024001,,,,,,,,,,mountain_95.jpg,1,mountain,,,8.010416667,4.416,0,16,16,16,1,,
,,,,,,,,,,playground_145.jpg,playground_229.jpg,playground_145.jpg,right,badlands_176.jpg,playground_145.jpg,highway_331.jpg,mountain_66.jpg,mountain_66.jpg,mountain_66.jpg,1,AC7CDW53I98JT,32,Male,7,2023-07-18_15h29.40.593,working,2022.2.4,Win32,6.00024001,,,,,,,,,,playground_229.jpg,0,playground,,,6.041666667,3.088,0,17,17,17,1,,
,,,,,,,,,,bridge_65.jpg,bridge_65.jpg,bridge_60.jpg,left,badlands_35.jpg,bridge_65.jpg,highway_99.jpg,golf_course_185.jpg,golf_course_185.jpg,golf_course_185.jpg,1,AC7CDW53I98JT,32,Male,7,2023-07-18_15h29.40.593,working,2022.2.4,Win32,6.00024001,,,,,,,,,,bridge_60.jpg,1,bridge,,,6.927083333,4.663,0,18,18,18,1,,
,,,,,,,,,,golf_course_331.jpg,golf_course_331.jpg,golf_course_26.jpg,left,golf_course_331.jpg,mountain_228.jpg,bridge_18.jpg,highway_166.jpg,highway_166.jpg,highway_166.jpg,0,AC7CDW53I98JT,32,Male,7,2023-07-18_15h29.40.593,working,2022.2.4,Win32,6.00024001,,,,,,,,,,golf_course_26.jpg,1,golf,,,7.875,2.395,0,19,19,19,1,,
,,,,,,,,,,highway_156.jpg,highway_156.jpg,highway_293.jpg,left,golf_course_1.jpg,highway_156.jpg,playground_77.jpg,badlands_186.jpg,badlands_186.jpg,badlands_186.jpg,1,AC7CDW53I98JT,32,Male,7,2023-07-18_15h29.40.593,working,2022.2.4,Win32,6.00024001,,,,,,,,,,highway_293.jpg,1,highway,,,8.864583333,2.742,0,20,20,20,1,,
,,,,,,,,,,badlands_222.jpg,badlands_34.jpg,badlands_222.jpg,right,badlands_222.jpg,playground_108.jpg,highway_75.jpg,bridge_124.jpg,bridge_124.jpg,bridge_124.jpg,0,AC7CDW53I98JT,32,Male,7,2023-07-18_15h29.40.593,working,2022.2.4,Win32,6.00024001,,,,,,,,,,badlands_34.jpg,0,badlands,,,8.53125,5.01,0,21,21,21,1,,
,,,,,,,,,,playground_144.jpg,playground_137.jpg,playground_144.jpg,right,golf_course_173.jpg,playground_144.jpg,highway_175.jpg,bridge_25.jpg,bridge_25.jpg,bridge_25.jpg,1,AC7CDW53I98JT,32,Male,7,2023-07-18_15h29.40.593,working,2022.2.4,Win32,6.00024001,,,,,,,,,,playground_137.jpg,0,playground,,,8.760416667,2.98,0,22,22,22,1,,
,,,,,,,,,,highway_394.jpg,highway_406.jpg,highway_394.jpg,right,mountain_212.jpg,badlands_166.jpg,highway_394.jpg,golf_course_166.jpg,golf_course_166.jpg,golf_course_166.jpg,2,AC7CDW53I98JT,32,Male,7,2023-07-18_15h29.40.593,working,2022.2.4,Win32,6.00024001,,,,,,,,,,highway_406.jpg,1,highway,,,7.96875,1.367,0,23,23,23,1,,
,,,,,,,,,,highway_209.jpg,highway_209.jpg,highway_314.jpg,left,mountain_21.jpg,highway_209.jpg,badlands_180.jpg,golf_course_320.jpg,golf_course_320.jpg,golf_course_320.jpg,1,AC7CDW53I98JT,32,Male,7,2023-07-18_15h29.40.593,working,2022.2.4,Win32,6.00024001,,,,,,,,,,highway_314.jpg,0,highway,,,6.989583333,5.57,0,24,24,24,1,,
,,,,,,,,,,badlands_23.jpg,badlands_23.jpg,badlands_114.jpg,left,golf_course_27.jpg,playground_7.jpg,badlands_23.jpg,mountain_105.jpg,mountain_105.jpg,mountain_105.jpg,2,AC7CDW53I98JT,32,Male,7,2023-07-18_15h29.40.593,working,2022.2.4,Win32,6.00024001,,,,,,,,,,badlands_114.jpg,0,badlands,,,8,4.502,0,25,25,25,1,,
,,,,,,,,,,golf_course_15.jpg,golf_course_97.jpg,golf_course_15.jpg,right,badlands_142.jpg,golf_course_15.jpg,bridge_132.jpg,playground_42.jpg,playground_42.jpg,playground_42.jpg,1,AC7CDW53I98JT,32,Male,7,2023-07-18_15h29.40.593,working,2022.2.4,Win32,6.00024001,,,,,,,,,,golf_course_97.jpg,1,golf,,,8.010416667,1.532,0,26,26,26,1,,
,,,,,,,,,,playground_60.jpg,playground_244.jpg,playground_60.jpg,right,bridge_19.jpg,playground_60.jpg,highway_227.jpg,badlands_75.jpg,badlands_75.jpg,badlands_75.jpg,1,AC7CDW53I98JT,32,Male,7,2023-07-18_15h29.40.593,working,2022.2.4,Win32,6.00024001,,,,,,,,,,playground_244.jpg,1,playground,,,8.875,3.809,0,27,27,27,1,,
,,,,,,,,,,bridge_202.jpg,bridge_38.jpg,bridge_202.jpg,right,highway_37.jpg,bridge_202.jpg,badlands_143.jpg,playground_3.jpg,playground_3.jpg,playground_3.jpg,1,AC7CDW53I98JT,32,Male,7,2023-07-18_15h29.40.593,working,2022.2.4,Win32,6.00024001,,,,,,,,,,bridge_38.jpg,1,bridge,,,7.96875,6.776,0,28,28,28,1,,
,,,,,,,,,,badlands_184.jpg,badlands_184.jpg,badlands_103.jpg,left,mountain_233.jpg,playground_191.jpg,badlands_184.jpg,golf_course_258.jpg,golf_course_258.jpg,golf_course_258.jpg,2,AC7CDW53I98JT,32,Male,7,2023-07-18_15h29.40.593,working,2022.2.4,Win32,6.00024001,,,,,,,,,,badlands_103.jpg,1,badlands,,,6.822916667,5.71,0,29,29,29,1,,
,,,,,,,,,,golf_course_217.jpg,golf_course_35.jpg,golf_course_217.jpg,right,golf_course_217.jpg,playground_30.jpg,highway_244.jpg,bridge_230.jpg,bridge_230.jpg,bridge_230.jpg,0,AC7CDW53I98JT,32,Male,7,2023-07-18_15h29.40.593,working,2022.2.4,Win32,6.00024001,,,,,,,,,,golf_course_35.jpg,0,golf,,,7.333333333,3.066,0,30,30,30,1,,
,,,,,,,,,,mountain_156.jpg,mountain_156.jpg,mountain_295.jpg,left,badlands_200.jpg,mountain_156.jpg,bridge_26.jpg,playground_249.jpg,playground_249.jpg,playground_249.jpg,1,AC7CDW53I98JT,32,Male,7,2023-07-18_15h29.40.593,working,2022.2.4,Win32,6.00024001,,,,,,,,,,mountain_295.jpg,1,mountain,,,7.333333333,1.429,0,31,31,31,1,,
,,,,,,,,,,mountain_101.jpg,mountain_101.jpg,mountain_221.jpg,left,highway_117.jpg,golf_course_58.jpg,mountain_101.jpg,playground_172.jpg,playground_172.jpg,playground_172.jpg,2,AC7CDW53I98JT,32,Male,7,2023-07-18_15h29.40.593,working,2022.2.4,Win32,6.00024001,,,,,,,,,,mountain_221.jpg,1,mountain,,,7.59375,5.003,0,32,32,32,1,,
,,,,,,,,,,bridge_108.jpg,bridge_148.jpg,bridge_108.jpg,right,badlands_177.jpg,bridge_108.jpg,golf_course_321.jpg,playground_235.jpg,playground_235.jpg,playground_235.jpg,1,AC7CDW53I98JT,32,Male,7,2023-07-18_15h29.40.593,working,2022.2.4,Win32,6.00024001,,,,,,,,,,bridge_148.jpg,1,bridge,,,6.03125,2.021,0,33,33,33,1,,
,,,,,,,,,,badlands_113.jpg,badlands_225.jpg,badlands_113.jpg,right,badlands_113.jpg,bridge_106.jpg,playground_158.jpg,highway_112.jpg,highway_112.jpg,highway_112.jpg,0,AC7CDW53I98JT,32,Male,7,2023-07-18_15h29.40.593,working,2022.2.4,Win32,6.00024001,,,,,,,,,,badlands_225.jpg,0,badlands,,,7.166666667,3.077,0,34,34,34,1,,
,,,,,,,,,,playground_219.jpg,playground_21.jpg,playground_219.jpg,right,playground_219.jpg,golf_course_42.jpg,highway_263.jpg,badlands_64.jpg,badlands_64.jpg,badlands_64.jpg,0,AC7CDW53I98JT,32,Male,7,2023-07-18_15h29.40.593,working,2022.2.4,Win32,6.00024001,,,,,,,,,,playground_21.jpg,0,playground,,,7.708333333,2.902,0,35,35,35,1,,
,,,,,,,,,,mountain_222.jpg,mountain_93.jpg,mountain_222.jpg,right,badlands_174.jpg,mountain_222.jpg,playground_6.jpg,highway_147.jpg,highway_147.jpg,highway_147.jpg,1,AC7CDW53I98JT,32,Male,7,2023-07-18_15h29.40.593,working,2022.2.4,Win32,6.00024001,,,,,,,,,,mountain_93.jpg,1,mountain,,,7.739583333,2.645,0,36,36,36,1,,
,,,,,,,,,,bridge_250.jpg,bridge_134.jpg,bridge_250.jpg,right,golf_course_57.jpg,bridge_250.jpg,highway_23.jpg,badlands_152.jpg,badlands_152.jpg,badlands_152.jpg,1,AC7CDW53I98JT,32,Male,7,2023-07-18_15h29.40.593,working,2022.2.4,Win32,6.00024001,,,,,,,,,,bridge_134.jpg,0,bridge,,,8.447916667,3.694,0,37,37,37,1,,
,,,,,,,,,,golf_course_195.jpg,golf_course_195.jpg,golf_course_25.jpg,left,mountain_161.jpg,badlands_104.jpg,golf_course_195.jpg,playground_123.jpg,playground_123.jpg,playground_123.jpg,2,AC7CDW53I98JT,32,Male,7,2023-07-18_15h29.40.593,working,2022.2.4,Win32,6.00024001,,,,,,,,,,golf_course_25.jpg,0,golf,,,7.40625,2.601,0,38,38,38,1,,
,,,,,,,,,,mountain_230.jpg,mountain_97.jpg,mountain_230.jpg,right,golf_course_102.jpg,mountain_230.jpg,highway_179.jpg,bridge_218.jpg,bridge_218.jpg,bridge_218.jpg,1,AC7CDW53I98JT,32,Male,7,2023-07-18_15h29.40.593,working,2022.2.4,Win32,6.00024001,,,,,,,,,,mountain_97.jpg,1,mountain,,,6.666666667,2.486,0,39,39,39,1,,
,,,,,,,,,,highway_294.jpg,highway_294.jpg,highway_203.jpg,left,highway_294.jpg,playground_70.jpg,mountain_204.jpg,golf_course_52.jpg,golf_course_52.jpg,golf_course_52.jpg,0,AC7CDW53I98JT,32,Male,7,2023-07-18_15h29.40.593,working,2022.2.4,Win32,6.00024001,,,,,,,,,,highway_203.jpg,0,highway,,,8.135416667,3.608,0,40,40,40,1,,
,,,,,,,,,,badlands_24.jpg,badlands_53.jpg,badlands_24.jpg,right,golf_course_334.jpg,badlands_24.jpg,bridge_257.jpg,highway_13.jpg,highway_13.jpg,highway_13.jpg,1,AC7CDW53I98JT,32,Male,7,2023-07-18_15h29.40.593,working,2022.2.4,Win32,6.00024001,,,,,,,,,,badlands_53.jpg,1,badlands,,,8.572916667,0.315,0,41,41,41,1,,
,,,,,,,,,,badlands_137.jpg,badlands_137.jpg,badlands_139.jpg,left,badlands_137.jpg,golf_course_302.jpg,highway_11.jpg,mountain_214.jpg,mountain_214.jpg,mountain_214.jpg,0,AC7CDW53I98JT,32,Male,7,2023-07-18_15h29.40.593,working,2022.2.4,Win32,6.00024001,,,,,,,,,,badlands_139.jpg,1,badlands,,,7.427083333,10.898,0,42,42,42,1,,
,,,,,,,,,,golf_course_214.jpg,golf_course_214.jpg,golf_course_317.jpg,left,mountain_301.jpg,golf_course_214.jpg,bridge_49.jpg,playground_5.jpg,playground_5.jpg,playground_5.jpg,1,AC7CDW53I98JT,32,Male,7,2023-07-18_15h29.40.593,working,2022.2.4,Win32,6.00024001,,,,,,,,,,golf_course_317.jpg,1,golf,,,6.760416667,0.28,0,43,43,43,1,,
,,,,,,,,,,mountain_110.jpg,mountain_157.jpg,mountain_110.jpg,right,badlands_218.jpg,golf_course_43.jpg,mountain_110.jpg,bridge_182.jpg,bridge_182.jpg,bridge_182.jpg,2,AC7CDW53I98JT,32,Male,7,2023-07-18_15h29.40.593,working,2022.2.4,Win32,6.00024001,,,,,,,,,,mountain_157.jpg,0,mountain,,,7.010416667,3.147,0,44,44,44,1,,
,,,,,,,,,,mountain_293.jpg,mountain_47.jpg,mountain_293.jpg,right,mountain_293.jpg,bridge_177.jpg,golf_course_206.jpg,highway_234.jpg,highway_234.jpg,highway_234.jpg,0,AC7CDW53I98JT,32,Male,7,2023-07-18_15h29.40.593,working,2022.2.4,Win32,6.00024001,,,,,,,,,,mountain_47.jpg,1,mountain,,,6.635416667,4.416,0,45,45,45,1,,
,,,,,,,,,,golf_course_188.jpg,golf_course_157.jpg,golf_course_188.jpg,right,mountain_15.jpg,playground_66.jpg,golf_course_188.jpg,badlands_54.jpg,badlands_54.jpg,badlands_54.jpg,2,AC7CDW53I98JT,32,Male,7,2023-07-18_15h29.40.593,working,2022.2.4,Win32,6.00024001,,,,,,,,,,golf_course_157.jpg,0,golf,,,5.947916667,1.507,0,46,46,46,1,,
,,,,,,,,,,bridge_172.jpg,bridge_17.jpg,bridge_172.jpg,right,bridge_172.jpg,badlands_99.jpg,mountain_132.jpg,golf_course_319.jpg,golf_course_319.jpg,golf_course_319.jpg,0,AC7CDW53I98JT,32,Male,7,2023-07-18_15h29.40.593,working,2022.2.4,Win32,6.00024001,,,,,,,,,,bridge_17.jpg,0,bridge,,,5.96875,1.705,0,47,47,47,1,,
,,,,,,,,,,playground_131.jpg,playground_131.jpg,playground_164.jpg,left,bridge_10.jpg,golf_course_128.jpg,playground_131.jpg,mountain_84.jpg,mountain_84.jpg,mountain_84.jpg,2,AC7CDW53I98JT,32,Male,7,2023-07-18_15h29.40.593,working,2022.2.4,Win32,6.00024001,,,,,,,,,,playground_164.jpg,1,playground,,,7.270833333,2.824,0,48,48,48,1,,
,,,,,,,,,,golf_course_309.jpg,golf_course_16.jpg,golf_course_309.jpg,right,highway_159.jpg,bridge_263.jpg,golf_course_309.jpg,badlands_2.jpg,badlands_2.jpg,badlands_2.jpg,2,AC7CDW53I98JT,32,Male,7,2023-07-18_15h29.40.593,working,2022.2.4,Win32,6.00024001,,,,,,,,,,golf_course_16.jpg,0,golf,,,8.010416667,0.323,0,49,49,49,1,,
,,,,,,,,,,bridge_128.jpg,bridge_128.jpg,bridge_61.jpg,left,golf_course_60.jpg,bridge_128.jpg,badlands_216.jpg,playground_36.jpg,playground_36.jpg,playground_36.jpg,1,AC7CDW53I98JT,32,Male,7,2023-07-18_15h29.40.593,working,2022.2.4,Win32,6.00024001,,,,,,,,,,bridge_61.jpg,0,bridge,,,8,11.161,0,50,50,50,1,,
,,,,,,,,,,highway_415.jpg,highway_60.jpg,highway_415.jpg,right,mountain_26.jpg,bridge_251.jpg,highway_415.jpg,golf_course_21.jpg,golf_course_21.jpg,golf_course_21.jpg,2,AC7CDW53I98JT,32,Male,7,2023-07-18_15h29.40.593,working,2022.2.4,Win32,6.00024001,,,,,,,,,,highway_60.jpg,0,highway,,,7.104166667,7.02,0,51,51,51,1,,
,,,,,,,,,,badlands_21.jpg,badlands_21.jpg,badlands_98.jpg,left,highway_88.jpg,badlands_21.jpg,golf_course_329.jpg,bridge_179.jpg,bridge_179.jpg,bridge_179.jpg,1,AC7CDW53I98JT,32,Male,7,2023-07-18_15h29.40.593,working,2022.2.4,Win32,6.00024001,,,,,,,,,,badlands_98.jpg,1,badlands,,,7.4375,3.74,0,52,52,52,1,,
,,,,,,,,,,highway_245.jpg,highway_245.jpg,highway_206.jpg,left,bridge_48.jpg,highway_245.jpg,badlands_45.jpg,playground_103.jpg,playground_103.jpg,playground_103.jpg,1,AC7CDW53I98JT,32,Male,7,2023-07-18_15h29.40.593,working,2022.2.4,Win32,6.00024001,,,,,,,,,,highway_206.jpg,1,highway,,,7.4375,0.349,0,53,53,53,1,,
,,,,,,,,,,bridge_146.jpg,bridge_121.jpg,bridge_146.jpg,right,golf_course_122.jpg,bridge_146.jpg,badlands_13.jpg,mountain_166.jpg,mountain_166.jpg,mountain_166.jpg,1,AC7CDW53I98JT,32,Male,7,2023-07-18_15h29.40.593,working,2022.2.4,Win32,6.00024001,,,,,,,,,,bridge_121.jpg,1,bridge,,,6.90625,0.874,0,54,54,54,1,,
,,,,,,,,,,golf_course_78.jpg,golf_course_78.jpg,golf_course_134.jpg,left,golf_course_78.jpg,bridge_238.jpg,mountain_179.jpg,highway_336.jpg,highway_336.jpg,highway_336.jpg,0,AC7CDW53I98JT,32,Male,7,2023-07-18_15h29.40.593,working,2022.2.4,Win32,6.00024001,,,,,,,,,,golf_course_134.jpg,0,golf,,,7.145833333,0.637,0,55,55,55,1,,
,,,,,,,,,,badlands_221.jpg,badlands_221.jpg,badlands_115.jpg,left,playground_173.jpg,mountain_235.jpg,badlands_221.jpg,bridge_204.jpg,bridge_204.jpg,bridge_204.jpg,2,AC7CDW53I98JT,32,Male,7,2023-07-18_15h29.40.593,working,2022.2.4,Win32,6.00024001,,,,,,,,,,badlands_115.jpg,0,badlands,,,7.5,0.595,0,56,56,56,1,,
,,,,,,,,,,mountain_232.jpg,mountain_3.jpg,mountain_232.jpg,right,bridge_158.jpg,mountain_232.jpg,highway_149.jpg,badlands_95.jpg,badlands_95.jpg,badlands_95.jpg,1,AC7CDW53I98JT,32,Male,7,2023-07-18_15h29.40.593,working,2022.2.4,Win32,6.00024001,,,,,,,,,,mountain_3.jpg,0,mountain,,,7.5625,0.558,0,57,57,57,1,,
,,,,,,,,,,golf_course_87.jpg,golf_course_87.jpg,golf_course_130.jpg,left,playground_124.jpg,golf_course_87.jpg,bridge_9.jpg,mountain_115.jpg,mountain_115.jpg,mountain_115.jpg,1,AC7CDW53I98JT,32,Male,7,2023-07-18_15h29.40.593,working,2022.2.4,Win32,6.00024001,,,,,,,,,,golf_course_130.jpg,0,golf,,,8.052083333,0.758,0,58,58,58,1,,
,,,,,,,,,,bridge_256.jpg,bridge_256.jpg,bridge_54.jpg,left,mountain_126.jpg,badlands_89.jpg,bridge_256.jpg,highway_261.jpg,highway_261.jpg,highway_261.jpg,2,AC7CDW53I98JT,32,Male,7,2023-07-18_15h29.40.593,working,2022.2.4,Win32,6.00024001,,,,,,,,,,bridge_54.jpg,0,bridge,,,8.802083333,0.805,0,59,59,59,1,,
,,,,,,,,,,,,,,,,,,,,,AC7CDW53I98JT,32,Male,7,2023-07-18_15h29.40.593,working,2022.2.4,Win32,6.00024001,,,,,,,,,,,,,,,,,,,,,,space,36.807
