key_resp.keys,key_resp_2.keys,key_resp_2.rt,demo_test_key_resp.keys,demo_test_key_resp.rt,demo_loops.thisRepN,demo_loops.thisTrialN,demo_loops.thisN,demo_loops.thisIndex,demo_loops.ran,target,image1,image2,correct,background_0,background_1,background_2,background_3,background_4,background_5,target_index,workID,Age,Gender,Hours slept (last night),date,expName,psychopyVersion,OS,frameRate,key_resp_after_demo.keys,key_resp_after_demo.rt,test_key_resp.keys,test_key_resp.rt,exp_loops.thisRepN,exp_loops.thisTrialN,exp_loops.thisN,exp_loops.thisIndex,exp_loops.ran,selected_dist,distractor_level,category,key_resp_4.keys,key_resp_4.rt,slider_part2.response,slider_part2.rt,exp_loops_part2.thisRepN,exp_loops_part2.thisTrialN,exp_loops_part2.thisN,exp_loops_part2.thisIndex,exp_loops_part2.ran,key_resp_last_slide.keys,key_resp_last_slide.rt
,space,4.5202,right,6.9843,0,0,0,0,1,flower1.jpg,flower1.jpg,flower1_pair.jpg,left,leaf3.jpg,trail1.jpg,flower1.jpg,bird1.jpg,tree3.jpg,fence4.jpg,2,AP1QA4DM6O1G8,30,male,7,2023-07-18_17h06.55.875,working,2022.2.4,Win32,13.10598813,,,,,,,,,,,,,,,,,,,,,,,
,,,right,9.7422,0,1,1,1,1,leaf2.jpg,leaf1.jpg,leaf2.jpg,right,trail2.jpg,leaf2.jpg,bird2.jpg,tree2.jpg,fence3.jpg,flower2.jpg,1,AP1QA4DM6O1G8,30,male,7,2023-07-18_17h06.55.875,working,2022.2.4,Win32,13.10598813,,,,,,,,,,,,,,,,,,,,,,,
,,,left,1.1373,0,2,2,2,1,fence1.jpg,fence1.jpg,fence2.jpg,left,tree1.jpg,bird3.jpg,trail3.jpg,fence1.jpg,leaf4.jpg,flower3.jpg,3,AP1QA4DM6O1G8,30,male,7,2023-07-18_17h06.55.875,working,2022.2.4,Win32,13.10598813,,,,,,,,,,,,,,,,,,,,,,,
,,,,,,,,,,badlands_52.jpg,badlands_52.jpg,badlands_94.jpg,left,playground_42.jpg,mountain_15.jpg,badlands_52.jpg,golf_course_185.jpg,golf_course_185.jpg,golf_course_185.jpg,2,AP1QA4DM6O1G8,30,male,7,2023-07-18_17h06.55.875,working,2022.2.4,Win32,13.10598813,space,4.1556,left,2.6563,0,0,0,0,1,badlands_94.jpg,0,badlands,,,,,,,,,,,
,,,,,,,,,,playground_240.jpg,playground_240.jpg,playground_40.jpg,left,highway_159.jpg,mountain_4.jpg,playground_240.jpg,golf_course_204.jpg,golf_course_204.jpg,golf_course_204.jpg,2,AP1QA4DM6O1G8,30,male,7,2023-07-18_17h06.55.875,working,2022.2.4,Win32,13.10598813,,,left,1.5658,0,1,1,1,1,playground_40.jpg,1,playground,,,,,,,,,,,
,,,,,,,,,,golf_course_331.jpg,golf_course_114.jpg,golf_course_331.jpg,right,golf_course_331.jpg,playground_193.jpg,highway_219.jpg,badlands_13.jpg,badlands_13.jpg,badlands_13.jpg,0,AP1QA4DM6O1G8,30,male,7,2023-07-18_17h06.55.875,working,2022.2.4,Win32,13.10598813,,,left,2.3452,0,2,2,2,1,golf_course_114.jpg,0,golf,,,,,,,,,,,
,,,,,,,,,,mountain_123.jpg,mountain_189.jpg,mountain_123.jpg,right,badlands_35.jpg,golf_course_166.jpg,mountain_123.jpg,bridge_78.jpg,bridge_78.jpg,bridge_78.jpg,2,AP1QA4DM6O1G8,30,male,7,2023-07-18_17h06.55.875,working,2022.2.4,Win32,13.10598813,,,right,9.448,0,3,3,3,1,mountain_189.jpg,1,mountain,,,,,,,,,,,
,,,,,,,,,,bridge_256.jpg,bridge_256.jpg,bridge_54.jpg,left,bridge_256.jpg,playground_158.jpg,badlands_108.jpg,golf_course_258.jpg,golf_course_258.jpg,golf_course_258.jpg,0,AP1QA4DM6O1G8,30,male,7,2023-07-18_17h06.55.875,working,2022.2.4,Win32,13.10598813,,,right,2.3552,0,4,4,4,1,bridge_54.jpg,0,bridge,,,,,,,,,,,
,,,,,,,,,,highway_177.jpg,highway_177.jpg,highway_278.jpg,left,playground_77.jpg,bridge_230.jpg,highway_177.jpg,mountain_24.jpg,mountain_24.jpg,mountain_24.jpg,2,AP1QA4DM6O1G8,30,male,7,2023-07-18_17h06.55.875,working,2022.2.4,Win32,13.10598813,,,left,2.5062,0,5,5,5,1,highway_278.jpg,1,highway,,,,,,,,,,,
,,,,,,,,,,bridge_250.jpg,bridge_250.jpg,bridge_205.jpg,left,mountain_91.jpg,bridge_250.jpg,golf_course_321.jpg,playground_241.jpg,playground_241.jpg,playground_241.jpg,1,AP1QA4DM6O1G8,30,male,7,2023-07-18_17h06.55.875,working,2022.2.4,Win32,13.10598813,,,right,0.5633,0,6,6,6,1,bridge_205.jpg,1,bridge,,,,,,,,,,,
,,,,,,,,,,golf_course_217.jpg,golf_course_217.jpg,golf_course_35.jpg,left,badlands_143.jpg,golf_course_217.jpg,mountain_202.jpg,highway_88.jpg,highway_88.jpg,highway_88.jpg,1,AP1QA4DM6O1G8,30,male,7,2023-07-18_17h06.55.875,working,2022.2.4,Win32,13.10598813,,,right,1.8894,0,7,7,7,1,golf_course_35.jpg,0,golf,,,,,,,,,,,
,,,,,,,,,,playground_131.jpg,playground_164.jpg,playground_131.jpg,right,badlands_95.jpg,golf_course_229.jpg,playground_131.jpg,bridge_106.jpg,bridge_106.jpg,bridge_106.jpg,2,AP1QA4DM6O1G8,30,male,7,2023-07-18_17h06.55.875,working,2022.2.4,Win32,13.10598813,,,right,5.5555,0,8,8,8,1,playground_164.jpg,1,playground,,,,,,,,,,,
,,,,,,,,,,mountain_101.jpg,mountain_221.jpg,mountain_101.jpg,right,bridge_25.jpg,golf_course_302.jpg,mountain_101.jpg,highway_402.jpg,highway_402.jpg,highway_402.jpg,2,AP1QA4DM6O1G8,30,male,7,2023-07-18_17h06.55.875,working,2022.2.4,Win32,13.10598813,,,right,6.6962,0,9,9,9,1,mountain_221.jpg,1,mountain,,,,,,,,,,,
,,,,,,,,,,playground_76.jpg,playground_76.jpg,playground_22.jpg,left,playground_76.jpg,badlands_54.jpg,highway_325.jpg,bridge_179.jpg,bridge_179.jpg,bridge_179.jpg,0,AP1QA4DM6O1G8,30,male,7,2023-07-18_17h06.55.875,working,2022.2.4,Win32,13.10598813,,,right,23.2854,0,10,10,10,1,playground_22.jpg,0,playground,,,,,,,,,,,
,,,,,,,,,,badlands_23.jpg,badlands_114.jpg,badlands_23.jpg,right,bridge_48.jpg,badlands_23.jpg,mountain_161.jpg,golf_course_152.jpg,golf_course_152.jpg,golf_course_152.jpg,1,AP1QA4DM6O1G8,30,male,7,2023-07-18_17h06.55.875,working,2022.2.4,Win32,13.10598813,,,right,1.9401,0,11,11,11,1,badlands_114.jpg,0,badlands,,,,,,,,,,,
,,,,,,,,,,highway_245.jpg,highway_245.jpg,highway_206.jpg,left,bridge_130.jpg,badlands_173.jpg,highway_245.jpg,golf_course_319.jpg,golf_course_319.jpg,golf_course_319.jpg,2,AP1QA4DM6O1G8,30,male,7,2023-07-18_17h06.55.875,working,2022.2.4,Win32,13.10598813,,,right,3.4676,0,12,12,12,1,highway_206.jpg,1,highway,,,,,,,,,,,
,,,,,,,,,,highway_156.jpg,highway_293.jpg,highway_156.jpg,right,badlands_45.jpg,golf_course_223.jpg,highway_156.jpg,bridge_64.jpg,bridge_64.jpg,bridge_64.jpg,2,AP1QA4DM6O1G8,30,male,7,2023-07-18_17h06.55.875,working,2022.2.4,Win32,13.10598813,,,left,1.8884,0,13,13,13,1,highway_293.jpg,1,highway,,,,,,,,,,,
,,,,,,,,,,bridge_128.jpg,bridge_128.jpg,bridge_244.jpg,left,bridge_128.jpg,golf_course_316.jpg,playground_36.jpg,badlands_31.jpg,badlands_31.jpg,badlands_31.jpg,0,AP1QA4DM6O1G8,30,male,7,2023-07-18_17h06.55.875,working,2022.2.4,Win32,13.10598813,,,right,1.9046,0,14,14,14,1,bridge_244.jpg,1,bridge,,,,,,,,,,,
,,,,,,,,,,playground_145.jpg,playground_145.jpg,playground_229.jpg,left,mountain_84.jpg,highway_234.jpg,playground_145.jpg,badlands_30.jpg,badlands_30.jpg,badlands_30.jpg,2,AP1QA4DM6O1G8,30,male,7,2023-07-18_17h06.55.875,working,2022.2.4,Win32,13.10598813,,,left,0.6697,0,15,15,15,1,playground_229.jpg,0,playground,,,,,,,,,,,
,,,,,,,,,,golf_course_15.jpg,golf_course_15.jpg,golf_course_113.jpg,left,badlands_226.jpg,mountain_235.jpg,golf_course_15.jpg,bridge_206.jpg,bridge_206.jpg,bridge_206.jpg,2,AP1QA4DM6O1G8,30,male,7,2023-07-18_17h06.55.875,working,2022.2.4,Win32,13.10598813,,,right,2.6022,0,16,16,16,1,golf_course_113.jpg,0,golf,,,,,,,,,,,
,,,,,,,,,,playground_10.jpg,playground_12.jpg,playground_10.jpg,right,mountain_233.jpg,playground_10.jpg,highway_336.jpg,golf_course_325.jpg,golf_course_325.jpg,golf_course_325.jpg,1,AP1QA4DM6O1G8,30,male,7,2023-07-18_17h06.55.875,working,2022.2.4,Win32,13.10598813,,,right,0.0802,0,17,17,17,1,playground_12.jpg,1,playground,,,,,,,,,,,
,,,,,,,,,,badlands_21.jpg,badlands_21.jpg,badlands_98.jpg,left,bridge_47.jpg,highway_23.jpg,badlands_21.jpg,mountain_160.jpg,mountain_160.jpg,mountain_160.jpg,2,AP1QA4DM6O1G8,30,male,7,2023-07-18_17h06.55.875,working,2022.2.4,Win32,13.10598813,,,left,2.6258,0,18,18,18,1,badlands_98.jpg,1,badlands,,,,,,,,,,,
,,,,,,,,,,playground_117.jpg,playground_127.jpg,playground_117.jpg,right,bridge_26.jpg,mountain_162.jpg,playground_117.jpg,golf_course_52.jpg,golf_course_52.jpg,golf_course_52.jpg,2,AP1QA4DM6O1G8,30,male,7,2023-07-18_17h06.55.875,working,2022.2.4,Win32,13.10598813,,,right,1.7218,0,19,19,19,1,playground_127.jpg,1,playground,,,,,,,,,,,
,,,,,,,,,,highway_273.jpg,highway_171.jpg,highway_273.jpg,right,mountain_115.jpg,highway_273.jpg,golf_course_156.jpg,playground_95.jpg,playground_95.jpg,playground_95.jpg,1,AP1QA4DM6O1G8,30,male,7,2023-07-18_17h06.55.875,working,2022.2.4,Win32,13.10598813,,,left,1.5091,0,20,20,20,1,highway_171.jpg,1,highway,,,,,,,,,,,
,,,,,,,,,,playground_219.jpg,playground_219.jpg,playground_205.jpg,left,mountain_68.jpg,badlands_59.jpg,playground_219.jpg,highway_249.jpg,highway_249.jpg,highway_249.jpg,2,AP1QA4DM6O1G8,30,male,7,2023-07-18_17h06.55.875,working,2022.2.4,Win32,13.10598813,,,right,16.1501,0,21,21,21,1,playground_205.jpg,1,playground,,,,,,,,,,,
,,,,,,,,,,bridge_202.jpg,bridge_202.jpg,bridge_31.jpg,left,highway_261.jpg,bridge_202.jpg,badlands_166.jpg,playground_259.jpg,playground_259.jpg,playground_259.jpg,1,AP1QA4DM6O1G8,30,male,7,2023-07-18_17h06.55.875,working,2022.2.4,Win32,13.10598813,,,right,19.1266,0,22,22,22,1,bridge_31.jpg,0,bridge,,,,,,,,,,,
,,,,,,,,,,mountain_154.jpg,mountain_154.jpg,mountain_131.jpg,left,bridge_18.jpg,playground_66.jpg,mountain_154.jpg,golf_course_43.jpg,golf_course_43.jpg,golf_course_43.jpg,2,AP1QA4DM6O1G8,30,male,7,2023-07-18_17h06.55.875,working,2022.2.4,Win32,13.10598813,,,right,5.4261,0,23,23,23,1,mountain_131.jpg,0,mountain,,,,,,,,,,,
,,,,,,,,,,highway_209.jpg,highway_209.jpg,highway_122.jpg,left,golf_course_159.jpg,highway_209.jpg,mountain_71.jpg,badlands_200.jpg,badlands_200.jpg,badlands_200.jpg,1,AP1QA4DM6O1G8,30,male,7,2023-07-18_17h06.55.875,working,2022.2.4,Win32,13.10598813,,,left,1.7674,0,24,24,24,1,highway_122.jpg,1,highway,,,,,,,,,,,
,,,,,,,,,,badlands_70.jpg,badlands_70.jpg,badlands_102.jpg,left,golf_course_128.jpg,mountain_26.jpg,badlands_70.jpg,bridge_123.jpg,bridge_123.jpg,bridge_123.jpg,2,AP1QA4DM6O1G8,30,male,7,2023-07-18_17h06.55.875,working,2022.2.4,Win32,13.10598813,,,left,5.0583,0,25,25,25,1,badlands_102.jpg,0,badlands,,,,,,,,,,,
,,,,,,,,,,badlands_113.jpg,badlands_113.jpg,badlands_203.jpg,left,golf_course_58.jpg,highway_248.jpg,badlands_113.jpg,mountain_44.jpg,mountain_44.jpg,mountain_44.jpg,2,AP1QA4DM6O1G8,30,male,7,2023-07-18_17h06.55.875,working,2022.2.4,Win32,13.10598813,,,right,1.7505,0,26,26,26,1,badlands_203.jpg,1,badlands,,,,,,,,,,,
,,,,,,,,,,highway_415.jpg,highway_60.jpg,highway_415.jpg,right,bridge_162.jpg,mountain_214.jpg,highway_415.jpg,badlands_216.jpg,badlands_216.jpg,badlands_216.jpg,2,AP1QA4DM6O1G8,30,male,7,2023-07-18_17h06.55.875,working,2022.2.4,Win32,13.10598813,,,left,0.4339,0,27,27,27,1,highway_60.jpg,0,highway,,,,,,,,,,,
,,,,,,,,,,highway_294.jpg,highway_368.jpg,highway_294.jpg,right,golf_course_88.jpg,badlands_99.jpg,highway_294.jpg,mountain_104.jpg,mountain_104.jpg,mountain_104.jpg,2,AP1QA4DM6O1G8,30,male,7,2023-07-18_17h06.55.875,working,2022.2.4,Win32,13.10598813,,,left,1.5605,0,28,28,28,1,highway_368.jpg,1,highway,,,,,,,,,,,
,,,,,,,,,,badlands_24.jpg,badlands_53.jpg,badlands_24.jpg,right,playground_168.jpg,highway_117.jpg,badlands_24.jpg,bridge_177.jpg,bridge_177.jpg,bridge_177.jpg,2,AP1QA4DM6O1G8,30,male,7,2023-07-18_17h06.55.875,working,2022.2.4,Win32,13.10598813,,,right,2.9516,0,29,29,29,1,badlands_53.jpg,1,badlands,,,,,,,,,,,
,,,,,,,,,,golf_course_87.jpg,golf_course_130.jpg,golf_course_87.jpg,right,badlands_38.jpg,bridge_259.jpg,golf_course_87.jpg,playground_172.jpg,playground_172.jpg,playground_172.jpg,2,AP1QA4DM6O1G8,30,male,7,2023-07-18_17h06.55.875,working,2022.2.4,Win32,13.10598813,,,left,1.1392,0,30,30,30,1,golf_course_130.jpg,0,golf,,,,,,,,,,,
,,,,,,,,,,highway_359.jpg,highway_359.jpg,highway_389.jpg,left,highway_359.jpg,golf_course_334.jpg,playground_80.jpg,bridge_120.jpg,bridge_120.jpg,bridge_120.jpg,0,AP1QA4DM6O1G8,30,male,7,2023-07-18_17h06.55.875,working,2022.2.4,Win32,13.10598813,,,right,0.6619,0,31,31,31,1,highway_389.jpg,0,highway,,,,,,,,,,,
,,,,,,,,,,bridge_191.jpg,bridge_191.jpg,bridge_75.jpg,left,bridge_191.jpg,badlands_186.jpg,highway_175.jpg,playground_181.jpg,playground_181.jpg,playground_181.jpg,0,AP1QA4DM6O1G8,30,male,7,2023-07-18_17h06.55.875,working,2022.2.4,Win32,13.10598813,,,left,0.7632,0,32,32,32,1,bridge_75.jpg,1,bridge,,,,,,,,,,,
,,,,,,,,,,bridge_91.jpg,bridge_253.jpg,bridge_91.jpg,right,mountain_307.jpg,bridge_91.jpg,golf_course_337.jpg,highway_18.jpg,highway_18.jpg,highway_18.jpg,1,AP1QA4DM6O1G8,30,male,7,2023-07-18_17h06.55.875,working,2022.2.4,Win32,13.10598813,,,right,1.2754,0,33,33,33,1,bridge_253.jpg,0,bridge,,,,,,,,,,,
,,,,,,,,,,bridge_146.jpg,bridge_146.jpg,bridge_121.jpg,left,bridge_146.jpg,highway_319.jpg,mountain_21.jpg,playground_249.jpg,playground_249.jpg,playground_249.jpg,0,AP1QA4DM6O1G8,30,male,7,2023-07-18_17h06.55.875,working,2022.2.4,Win32,13.10598813,,,right,32.3643,0,34,34,34,1,bridge_121.jpg,1,bridge,,,,,,,,,,,
,,,,,,,,,,bridge_108.jpg,bridge_108.jpg,bridge_116.jpg,left,mountain_107.jpg,bridge_108.jpg,golf_course_33.jpg,highway_166.jpg,highway_166.jpg,highway_166.jpg,1,AP1QA4DM6O1G8,30,male,7,2023-07-18_17h06.55.875,working,2022.2.4,Win32,13.10598813,,,right,30.6082,0,35,35,35,1,bridge_116.jpg,0,bridge,,,,,,,,,,,
,,,,,,,,,,badlands_184.jpg,badlands_184.jpg,badlands_228.jpg,left,playground_7.jpg,golf_course_27.jpg,badlands_184.jpg,bridge_103.jpg,bridge_103.jpg,bridge_103.jpg,2,AP1QA4DM6O1G8,30,male,7,2023-07-18_17h06.55.875,working,2022.2.4,Win32,13.10598813,,,right,14.3969,0,36,36,36,1,badlands_228.jpg,0,badlands,,,,,,,,,,,
,,,,,,,,,,golf_course_188.jpg,golf_course_188.jpg,golf_course_160.jpg,left,highway_25.jpg,golf_course_188.jpg,badlands_176.jpg,playground_54.jpg,playground_54.jpg,playground_54.jpg,1,AP1QA4DM6O1G8,30,male,7,2023-07-18_17h06.55.875,working,2022.2.4,Win32,13.10598813,,,right,4.3705,0,37,37,37,1,golf_course_160.jpg,1,golf,,,,,,,,,,,
,,,,,,,,,,mountain_57.jpg,mountain_193.jpg,mountain_57.jpg,right,bridge_34.jpg,mountain_57.jpg,highway_263.jpg,playground_123.jpg,playground_123.jpg,playground_123.jpg,1,AP1QA4DM6O1G8,30,male,7,2023-07-18_17h06.55.875,working,2022.2.4,Win32,13.10598813,,,left,4.3741,0,38,38,38,1,mountain_193.jpg,0,mountain,,,,,,,,,,,
,,,,,,,,,,badlands_222.jpg,badlands_34.jpg,badlands_222.jpg,right,badlands_222.jpg,highway_112.jpg,mountain_34.jpg,bridge_19.jpg,bridge_19.jpg,bridge_19.jpg,0,AP1QA4DM6O1G8,30,male,7,2023-07-18_17h06.55.875,working,2022.2.4,Win32,13.10598813,,,right,2.0999,0,39,39,39,1,badlands_34.jpg,0,badlands,,,,,,,,,,,
,,,,,,,,,,mountain_156.jpg,mountain_156.jpg,mountain_128.jpg,left,mountain_156.jpg,badlands_58.jpg,playground_70.jpg,highway_11.jpg,highway_11.jpg,highway_11.jpg,0,AP1QA4DM6O1G8,30,male,7,2023-07-18_17h06.55.875,working,2022.2.4,Win32,13.10598813,,,right,0.9357,0,40,40,40,1,mountain_128.jpg,0,mountain,,,,,,,,,,,
,,,,,,,,,,mountain_222.jpg,mountain_222.jpg,mountain_93.jpg,left,mountain_222.jpg,playground_46.jpg,badlands_210.jpg,golf_course_320.jpg,golf_course_320.jpg,golf_course_320.jpg,0,AP1QA4DM6O1G8,30,male,7,2023-07-18_17h06.55.875,working,2022.2.4,Win32,13.10598813,,,right,1.6636,0,41,41,41,1,mountain_93.jpg,1,mountain,,,,,,,,,,,
,,,,,,,,,,badlands_221.jpg,badlands_221.jpg,badlands_207.jpg,left,badlands_221.jpg,highway_147.jpg,bridge_80.jpg,playground_235.jpg,playground_235.jpg,playground_235.jpg,0,AP1QA4DM6O1G8,30,male,7,2023-07-18_17h06.55.875,working,2022.2.4,Win32,13.10598813,,,left,2.371,0,42,42,42,1,badlands_207.jpg,1,badlands,,,,,,,,,,,
,,,,,,,,,,highway_394.jpg,highway_394.jpg,highway_204.jpg,left,bridge_239.jpg,highway_394.jpg,playground_13.jpg,mountain_179.jpg,mountain_179.jpg,mountain_179.jpg,1,AP1QA4DM6O1G8,30,male,7,2023-07-18_17h06.55.875,working,2022.2.4,Win32,13.10598813,,,right,1.5683,0,43,43,43,1,highway_204.jpg,0,highway,,,,,,,,,,,
,,,,,,,,,,playground_60.jpg,playground_60.jpg,playground_268.jpg,left,playground_60.jpg,bridge_124.jpg,mountain_224.jpg,highway_146.jpg,highway_146.jpg,highway_146.jpg,0,AP1QA4DM6O1G8,30,male,7,2023-07-18_17h06.55.875,working,2022.2.4,Win32,13.10598813,,,right,2.1952,0,44,44,44,1,playground_268.jpg,0,playground,,,,,,,,,,,
,,,,,,,,,,mountain_232.jpg,mountain_232.jpg,mountain_54.jpg,left,mountain_232.jpg,playground_52.jpg,badlands_100.jpg,golf_course_206.jpg,golf_course_206.jpg,golf_course_206.jpg,0,AP1QA4DM6O1G8,30,male,7,2023-07-18_17h06.55.875,working,2022.2.4,Win32,13.10598813,,,right,1.1886,0,45,45,45,1,mountain_54.jpg,1,mountain,,,,,,,,,,,
,,,,,,,,,,golf_course_193.jpg,golf_course_193.jpg,golf_course_235.jpg,left,golf_course_193.jpg,bridge_238.jpg,playground_90.jpg,mountain_12.jpg,mountain_12.jpg,mountain_12.jpg,0,AP1QA4DM6O1G8,30,male,7,2023-07-18_17h06.55.875,working,2022.2.4,Win32,13.10598813,,,left,11.024,0,46,46,46,1,golf_course_235.jpg,0,golf,,,,,,,,,,,
,,,,,,,,,,badlands_137.jpg,badlands_137.jpg,badlands_139.jpg,left,golf_course_57.jpg,playground_108.jpg,badlands_137.jpg,mountain_199.jpg,mountain_199.jpg,mountain_199.jpg,2,AP1QA4DM6O1G8,30,male,7,2023-07-18_17h06.55.875,working,2022.2.4,Win32,13.10598813,,,right,2.3599,0,47,47,47,1,badlands_139.jpg,1,badlands,,,,,,,,,,,
,,,,,,,,,,mountain_110.jpg,mountain_110.jpg,mountain_223.jpg,left,bridge_158.jpg,playground_103.jpg,mountain_110.jpg,golf_course_329.jpg,golf_course_329.jpg,golf_course_329.jpg,2,AP1QA4DM6O1G8,30,male,7,2023-07-18_17h06.55.875,working,2022.2.4,Win32,13.10598813,,,right,11.025,0,48,48,48,1,mountain_223.jpg,1,mountain,,,,,,,,,,,
,,,,,,,,,,golf_course_195.jpg,golf_course_195.jpg,golf_course_2.jpg,left,highway_99.jpg,bridge_10.jpg,golf_course_195.jpg,playground_30.jpg,playground_30.jpg,playground_30.jpg,2,AP1QA4DM6O1G8,30,male,7,2023-07-18_17h06.55.875,working,2022.2.4,Win32,13.10598813,,,right,3.4285,0,49,49,49,1,golf_course_2.jpg,1,golf,,,,,,,,,,,
,,,,,,,,,,playground_257.jpg,playground_214.jpg,playground_257.jpg,right,playground_257.jpg,bridge_204.jpg,highway_342.jpg,golf_course_42.jpg,golf_course_42.jpg,golf_course_42.jpg,0,AP1QA4DM6O1G8,30,male,7,2023-07-18_17h06.55.875,working,2022.2.4,Win32,13.10598813,,,left,0.3812,0,50,50,50,1,playground_214.jpg,0,playground,,,,,,,,,,,
,,,,,,,,,,bridge_172.jpg,bridge_17.jpg,bridge_172.jpg,right,bridge_172.jpg,playground_209.jpg,badlands_104.jpg,highway_301.jpg,highway_301.jpg,highway_301.jpg,0,AP1QA4DM6O1G8,30,male,7,2023-07-18_17h06.55.875,working,2022.2.4,Win32,13.10598813,,,left,3.1622,0,51,51,51,1,bridge_17.jpg,0,bridge,,,,,,,,,,,
,,,,,,,,,,golf_course_309.jpg,golf_course_309.jpg,golf_course_209.jpg,left,badlands_152.jpg,playground_5.jpg,golf_course_309.jpg,highway_244.jpg,highway_244.jpg,highway_244.jpg,2,AP1QA4DM6O1G8,30,male,7,2023-07-18_17h06.55.875,working,2022.2.4,Win32,13.10598813,,,right,4.1211,0,52,52,52,1,golf_course_209.jpg,1,golf,,,,,,,,,,,
,,,,,,,,,,highway_93.jpg,highway_369.jpg,highway_93.jpg,right,bridge_263.jpg,golf_course_198.jpg,highway_93.jpg,playground_191.jpg,playground_191.jpg,playground_191.jpg,2,AP1QA4DM6O1G8,30,male,7,2023-07-18_17h06.55.875,working,2022.2.4,Win32,13.10598813,,,right,3.6249,0,53,53,53,1,highway_369.jpg,1,highway,,,,,,,,,,,
,,,,,,,,,,mountain_293.jpg,mountain_72.jpg,mountain_293.jpg,right,mountain_293.jpg,badlands_149.jpg,bridge_49.jpg,playground_6.jpg,playground_6.jpg,playground_6.jpg,0,AP1QA4DM6O1G8,30,male,7,2023-07-18_17h06.55.875,working,2022.2.4,Win32,13.10598813,,,right,4.6785,0,54,54,54,1,mountain_72.jpg,0,mountain,,,,,,,,,,,
,,,,,,,,,,playground_144.jpg,playground_137.jpg,playground_144.jpg,right,golf_course_46.jpg,playground_144.jpg,badlands_180.jpg,bridge_9.jpg,bridge_9.jpg,bridge_9.jpg,1,AP1QA4DM6O1G8,30,male,7,2023-07-18_17h06.55.875,working,2022.2.4,Win32,13.10598813,,,right,2.0044,0,55,55,55,1,playground_137.jpg,0,playground,,,,,,,,,,,
,,,,,,,,,,golf_course_78.jpg,golf_course_134.jpg,golf_course_78.jpg,right,playground_264.jpg,mountain_253.jpg,golf_course_78.jpg,bridge_52.jpg,bridge_52.jpg,bridge_52.jpg,2,AP1QA4DM6O1G8,30,male,7,2023-07-18_17h06.55.875,working,2022.2.4,Win32,13.10598813,,,right,1.3875,0,56,56,56,1,golf_course_134.jpg,0,golf,,,,,,,,,,,
,,,,,,,,,,bridge_65.jpg,bridge_60.jpg,bridge_65.jpg,right,bridge_65.jpg,golf_course_83.jpg,mountain_228.jpg,badlands_177.jpg,badlands_177.jpg,badlands_177.jpg,0,AP1QA4DM6O1G8,30,male,7,2023-07-18_17h06.55.875,working,2022.2.4,Win32,13.10598813,,,right,11.7284,0,57,57,57,1,bridge_60.jpg,1,bridge,,,,,,,,,,,
,,,,,,,,,,golf_course_214.jpg,golf_course_312.jpg,golf_course_214.jpg,right,badlands_220.jpg,golf_course_214.jpg,mountain_105.jpg,highway_75.jpg,highway_75.jpg,highway_75.jpg,1,AP1QA4DM6O1G8,30,male,7,2023-07-18_17h06.55.875,working,2022.2.4,Win32,13.10598813,,,right,1.3095,0,58,58,58,1,golf_course_312.jpg,0,golf,,,,,,,,,,,
,,,,,,,,,,mountain_230.jpg,mountain_184.jpg,mountain_230.jpg,right,highway_398.jpg,bridge_169.jpg,mountain_230.jpg,playground_25.jpg,playground_25.jpg,playground_25.jpg,2,AP1QA4DM6O1G8,30,male,7,2023-07-18_17h06.55.875,working,2022.2.4,Win32,13.10598813,,,right,2.2371,0,59,59,59,1,mountain_184.jpg,0,mountain,,,,,,,,,,,
,,,,,,,,,,badlands_52.jpg,badlands_52.jpg,badlands_94.jpg,left,playground_42.jpg,mountain_15.jpg,badlands_52.jpg,golf_course_185.jpg,golf_course_185.jpg,golf_course_185.jpg,2,AP1QA4DM6O1G8,30,male,7,2023-07-18_17h06.55.875,working,2022.2.4,Win32,13.10598813,,,,,,,,,,badlands_94.jpg,0,badlands,space,6.6833,7.97,12.6099,0,0,0,0,1,,
,,,,,,,,,,playground_240.jpg,playground_240.jpg,playground_40.jpg,left,highway_159.jpg,mountain_4.jpg,playground_240.jpg,golf_course_204.jpg,golf_course_204.jpg,golf_course_204.jpg,2,AP1QA4DM6O1G8,30,male,7,2023-07-18_17h06.55.875,working,2022.2.4,Win32,13.10598813,,,,,,,,,,playground_40.jpg,1,playground,,,8.01,1.8858,0,1,1,1,1,,
,,,,,,,,,,golf_course_331.jpg,golf_course_114.jpg,golf_course_331.jpg,right,golf_course_331.jpg,playground_193.jpg,highway_219.jpg,badlands_13.jpg,badlands_13.jpg,badlands_13.jpg,0,AP1QA4DM6O1G8,30,male,7,2023-07-18_17h06.55.875,working,2022.2.4,Win32,13.10598813,,,,,,,,,,golf_course_114.jpg,0,golf,,,8.01,1.8915,0,2,2,2,1,,
,,,,,,,,,,mountain_123.jpg,mountain_189.jpg,mountain_123.jpg,right,badlands_35.jpg,golf_course_166.jpg,mountain_123.jpg,bridge_78.jpg,bridge_78.jpg,bridge_78.jpg,2,AP1QA4DM6O1G8,30,male,7,2023-07-18_17h06.55.875,working,2022.2.4,Win32,13.10598813,,,,,,,,,,mountain_189.jpg,1,mountain,,,8.01,1.2873,0,3,3,3,1,,
,,,,,,,,,,bridge_256.jpg,bridge_256.jpg,bridge_54.jpg,left,bridge_256.jpg,playground_158.jpg,badlands_108.jpg,golf_course_258.jpg,golf_course_258.jpg,golf_course_258.jpg,0,AP1QA4DM6O1G8,30,male,7,2023-07-18_17h06.55.875,working,2022.2.4,Win32,13.10598813,,,,,,,,,,bridge_54.jpg,0,bridge,,,8.01,1.4407,0,4,4,4,1,,
,,,,,,,,,,highway_177.jpg,highway_177.jpg,highway_278.jpg,left,playground_77.jpg,bridge_230.jpg,highway_177.jpg,mountain_24.jpg,mountain_24.jpg,mountain_24.jpg,2,AP1QA4DM6O1G8,30,male,7,2023-07-18_17h06.55.875,working,2022.2.4,Win32,13.10598813,,,,,,,,,,highway_278.jpg,1,highway,,,8.01,3.0698,0,5,5,5,1,,
,,,,,,,,,,bridge_250.jpg,bridge_250.jpg,bridge_205.jpg,left,mountain_91.jpg,bridge_250.jpg,golf_course_321.jpg,playground_241.jpg,playground_241.jpg,playground_241.jpg,1,AP1QA4DM6O1G8,30,male,7,2023-07-18_17h06.55.875,working,2022.2.4,Win32,13.10598813,,,,,,,,,,bridge_205.jpg,1,bridge,,,8.01,1.7376,0,6,6,6,1,,
,,,,,,,,,,golf_course_217.jpg,golf_course_217.jpg,golf_course_35.jpg,left,badlands_143.jpg,golf_course_217.jpg,mountain_202.jpg,highway_88.jpg,highway_88.jpg,highway_88.jpg,1,AP1QA4DM6O1G8,30,male,7,2023-07-18_17h06.55.875,working,2022.2.4,Win32,13.10598813,,,,,,,,,,golf_course_35.jpg,0,golf,,,6.95,3.1455,0,7,7,7,1,,
,,,,,,,,,,playground_131.jpg,playground_164.jpg,playground_131.jpg,right,badlands_95.jpg,golf_course_229.jpg,playground_131.jpg,bridge_106.jpg,bridge_106.jpg,bridge_106.jpg,2,AP1QA4DM6O1G8,30,male,7,2023-07-18_17h06.55.875,working,2022.2.4,Win32,13.10598813,,,,,,,,,,playground_164.jpg,1,playground,,,6.95,1.6628,0,8,8,8,1,,
,,,,,,,,,,mountain_101.jpg,mountain_221.jpg,mountain_101.jpg,right,bridge_25.jpg,golf_course_302.jpg,mountain_101.jpg,highway_402.jpg,highway_402.jpg,highway_402.jpg,2,AP1QA4DM6O1G8,30,male,7,2023-07-18_17h06.55.875,working,2022.2.4,Win32,13.10598813,,,,,,,,,,mountain_221.jpg,1,mountain,,,1,9.3466,0,9,9,9,1,,
,,,,,,,,,,playground_76.jpg,playground_76.jpg,playground_22.jpg,left,playground_76.jpg,badlands_54.jpg,highway_325.jpg,bridge_179.jpg,bridge_179.jpg,bridge_179.jpg,0,AP1QA4DM6O1G8,30,male,7,2023-07-18_17h06.55.875,working,2022.2.4,Win32,13.10598813,,,,,,,,,,playground_22.jpg,0,playground,,,1.98,0.9656,0,10,10,10,1,,
,,,,,,,,,,badlands_23.jpg,badlands_114.jpg,badlands_23.jpg,right,bridge_48.jpg,badlands_23.jpg,mountain_161.jpg,golf_course_152.jpg,golf_course_152.jpg,golf_course_152.jpg,1,AP1QA4DM6O1G8,30,male,7,2023-07-18_17h06.55.875,working,2022.2.4,Win32,13.10598813,,,,,,,,,,badlands_114.jpg,0,badlands,,,3.01,1.093,0,11,11,11,1,,
,,,,,,,,,,highway_245.jpg,highway_245.jpg,highway_206.jpg,left,bridge_130.jpg,badlands_173.jpg,highway_245.jpg,golf_course_319.jpg,golf_course_319.jpg,golf_course_319.jpg,2,AP1QA4DM6O1G8,30,male,7,2023-07-18_17h06.55.875,working,2022.2.4,Win32,13.10598813,,,,,,,,,,highway_206.jpg,1,highway,,,3.98,0.9586,0,12,12,12,1,,
,,,,,,,,,,highway_156.jpg,highway_293.jpg,highway_156.jpg,right,badlands_45.jpg,golf_course_223.jpg,highway_156.jpg,bridge_64.jpg,bridge_64.jpg,bridge_64.jpg,2,AP1QA4DM6O1G8,30,male,7,2023-07-18_17h06.55.875,working,2022.2.4,Win32,13.10598813,,,,,,,,,,highway_293.jpg,1,highway,,,5,0.9569,0,13,13,13,1,,
,,,,,,,,,,bridge_128.jpg,bridge_128.jpg,bridge_244.jpg,left,bridge_128.jpg,golf_course_316.jpg,playground_36.jpg,badlands_31.jpg,badlands_31.jpg,badlands_31.jpg,0,AP1QA4DM6O1G8,30,male,7,2023-07-18_17h06.55.875,working,2022.2.4,Win32,13.10598813,,,,,,,,,,bridge_244.jpg,1,bridge,,,5.99,0.94,0,14,14,14,1,,
,,,,,,,,,,playground_145.jpg,playground_145.jpg,playground_229.jpg,left,mountain_84.jpg,highway_234.jpg,playground_145.jpg,badlands_30.jpg,badlands_30.jpg,badlands_30.jpg,2,AP1QA4DM6O1G8,30,male,7,2023-07-18_17h06.55.875,working,2022.2.4,Win32,13.10598813,,,,,,,,,,playground_229.jpg,0,playground,,,6.99,0.9338,0,15,15,15,1,,
,,,,,,,,,,golf_course_15.jpg,golf_course_15.jpg,golf_course_113.jpg,left,badlands_226.jpg,mountain_235.jpg,golf_course_15.jpg,bridge_206.jpg,bridge_206.jpg,bridge_206.jpg,2,AP1QA4DM6O1G8,30,male,7,2023-07-18_17h06.55.875,working,2022.2.4,Win32,13.10598813,,,,,,,,,,golf_course_113.jpg,0,golf,,,7.97,0.8257,0,16,16,16,1,,
,,,,,,,,,,playground_10.jpg,playground_12.jpg,playground_10.jpg,right,mountain_233.jpg,playground_10.jpg,highway_336.jpg,golf_course_325.jpg,golf_course_325.jpg,golf_course_325.jpg,1,AP1QA4DM6O1G8,30,male,7,2023-07-18_17h06.55.875,working,2022.2.4,Win32,13.10598813,,,,,,,,,,playground_12.jpg,1,playground,,,8.97,1.2417,0,17,17,17,1,,
,,,,,,,,,,badlands_21.jpg,badlands_21.jpg,badlands_98.jpg,left,bridge_47.jpg,highway_23.jpg,badlands_21.jpg,mountain_160.jpg,mountain_160.jpg,mountain_160.jpg,2,AP1QA4DM6O1G8,30,male,7,2023-07-18_17h06.55.875,working,2022.2.4,Win32,13.10598813,,,,,,,,,,badlands_98.jpg,1,badlands,,,1.99,7.5604,0,18,18,18,1,,
,,,,,,,,,,playground_117.jpg,playground_127.jpg,playground_117.jpg,right,bridge_26.jpg,mountain_162.jpg,playground_117.jpg,golf_course_52.jpg,golf_course_52.jpg,golf_course_52.jpg,2,AP1QA4DM6O1G8,30,male,7,2023-07-18_17h06.55.875,working,2022.2.4,Win32,13.10598813,,,,,,,,,,playground_127.jpg,1,playground,,,2.97,1.7413,0,19,19,19,1,,
,,,,,,,,,,highway_273.jpg,highway_171.jpg,highway_273.jpg,right,mountain_115.jpg,highway_273.jpg,golf_course_156.jpg,playground_95.jpg,playground_95.jpg,playground_95.jpg,1,AP1QA4DM6O1G8,30,male,7,2023-07-18_17h06.55.875,working,2022.2.4,Win32,13.10598813,,,,,,,,,,highway_171.jpg,1,highway,,,4.02,1.6333,0,20,20,20,1,,
,,,,,,,,,,playground_219.jpg,playground_219.jpg,playground_205.jpg,left,mountain_68.jpg,badlands_59.jpg,playground_219.jpg,highway_249.jpg,highway_249.jpg,highway_249.jpg,2,AP1QA4DM6O1G8,30,male,7,2023-07-18_17h06.55.875,working,2022.2.4,Win32,13.10598813,,,,,,,,,,playground_205.jpg,1,playground,,,4.99,0.929,0,21,21,21,1,,
,,,,,,,,,,bridge_202.jpg,bridge_202.jpg,bridge_31.jpg,left,highway_261.jpg,bridge_202.jpg,badlands_166.jpg,playground_259.jpg,playground_259.jpg,playground_259.jpg,1,AP1QA4DM6O1G8,30,male,7,2023-07-18_17h06.55.875,working,2022.2.4,Win32,13.10598813,,,,,,,,,,bridge_31.jpg,0,bridge,,,5.99,0.8666,0,22,22,22,1,,
,,,,,,,,,,mountain_154.jpg,mountain_154.jpg,mountain_131.jpg,left,bridge_18.jpg,playground_66.jpg,mountain_154.jpg,golf_course_43.jpg,golf_course_43.jpg,golf_course_43.jpg,2,AP1QA4DM6O1G8,30,male,7,2023-07-18_17h06.55.875,working,2022.2.4,Win32,13.10598813,,,,,,,,,,mountain_131.jpg,0,mountain,,,7.05,0.8651,0,23,23,23,1,,
,,,,,,,,,,highway_209.jpg,highway_209.jpg,highway_122.jpg,left,golf_course_159.jpg,highway_209.jpg,mountain_71.jpg,badlands_200.jpg,badlands_200.jpg,badlands_200.jpg,1,AP1QA4DM6O1G8,30,male,7,2023-07-18_17h06.55.875,working,2022.2.4,Win32,13.10598813,,,,,,,,,,highway_122.jpg,1,highway,,,7.95,2.2623,0,24,24,24,1,,
,,,,,,,,,,badlands_70.jpg,badlands_70.jpg,badlands_102.jpg,left,golf_course_128.jpg,mountain_26.jpg,badlands_70.jpg,bridge_123.jpg,bridge_123.jpg,bridge_123.jpg,2,AP1QA4DM6O1G8,30,male,7,2023-07-18_17h06.55.875,working,2022.2.4,Win32,13.10598813,,,,,,,,,,badlands_102.jpg,0,badlands,,,8.97,0.9774,0,25,25,25,1,,
,,,,,,,,,,badlands_113.jpg,badlands_113.jpg,badlands_203.jpg,left,golf_course_58.jpg,highway_248.jpg,badlands_113.jpg,mountain_44.jpg,mountain_44.jpg,mountain_44.jpg,2,AP1QA4DM6O1G8,30,male,7,2023-07-18_17h06.55.875,working,2022.2.4,Win32,13.10598813,,,,,,,,,,badlands_203.jpg,1,badlands,,,2.01,1.7008,0,26,26,26,1,,
,,,,,,,,,,highway_415.jpg,highway_60.jpg,highway_415.jpg,right,bridge_162.jpg,mountain_214.jpg,highway_415.jpg,badlands_216.jpg,badlands_216.jpg,badlands_216.jpg,2,AP1QA4DM6O1G8,30,male,7,2023-07-18_17h06.55.875,working,2022.2.4,Win32,13.10598813,,,,,,,,,,highway_60.jpg,0,highway,,,2.97,1.3211,0,27,27,27,1,,
,,,,,,,,,,highway_294.jpg,highway_368.jpg,highway_294.jpg,right,golf_course_88.jpg,badlands_99.jpg,highway_294.jpg,mountain_104.jpg,mountain_104.jpg,mountain_104.jpg,2,AP1QA4DM6O1G8,30,male,7,2023-07-18_17h06.55.875,working,2022.2.4,Win32,13.10598813,,,,,,,,,,highway_368.jpg,1,highway,,,4.03,0.8037,0,28,28,28,1,,
,,,,,,,,,,badlands_24.jpg,badlands_53.jpg,badlands_24.jpg,right,playground_168.jpg,highway_117.jpg,badlands_24.jpg,bridge_177.jpg,bridge_177.jpg,bridge_177.jpg,2,AP1QA4DM6O1G8,30,male,7,2023-07-18_17h06.55.875,working,2022.2.4,Win32,13.10598813,,,,,,,,,,badlands_53.jpg,1,badlands,,,4.94,0.9306,0,29,29,29,1,,
,,,,,,,,,,golf_course_87.jpg,golf_course_130.jpg,golf_course_87.jpg,right,badlands_38.jpg,bridge_259.jpg,golf_course_87.jpg,playground_172.jpg,playground_172.jpg,playground_172.jpg,2,AP1QA4DM6O1G8,30,male,7,2023-07-18_17h06.55.875,working,2022.2.4,Win32,13.10598813,,,,,,,,,,golf_course_130.jpg,0,golf,,,5.93,0.76,0,30,30,30,1,,
,,,,,,,,,,highway_359.jpg,highway_359.jpg,highway_389.jpg,left,highway_359.jpg,golf_course_334.jpg,playground_80.jpg,bridge_120.jpg,bridge_120.jpg,bridge_120.jpg,0,AP1QA4DM6O1G8,30,male,7,2023-07-18_17h06.55.875,working,2022.2.4,Win32,13.10598813,,,,,,,,,,highway_389.jpg,0,highway,,,6.99,0.8966,0,31,31,31,1,,
,,,,,,,,,,bridge_191.jpg,bridge_191.jpg,bridge_75.jpg,left,bridge_191.jpg,badlands_186.jpg,highway_175.jpg,playground_181.jpg,playground_181.jpg,playground_181.jpg,0,AP1QA4DM6O1G8,30,male,7,2023-07-18_17h06.55.875,working,2022.2.4,Win32,13.10598813,,,,,,,,,,bridge_75.jpg,1,bridge,,,8.01,1.083,0,32,32,32,1,,
,,,,,,,,,,bridge_91.jpg,bridge_253.jpg,bridge_91.jpg,right,mountain_307.jpg,bridge_91.jpg,golf_course_337.jpg,highway_18.jpg,highway_18.jpg,highway_18.jpg,1,AP1QA4DM6O1G8,30,male,7,2023-07-18_17h06.55.875,working,2022.2.4,Win32,13.10598813,,,,,,,,,,bridge_253.jpg,0,bridge,,,8.95,1.0878,0,33,33,33,1,,
,,,,,,,,,,bridge_146.jpg,bridge_146.jpg,bridge_121.jpg,left,bridge_146.jpg,highway_319.jpg,mountain_21.jpg,playground_249.jpg,playground_249.jpg,playground_249.jpg,0,AP1QA4DM6O1G8,30,male,7,2023-07-18_17h06.55.875,working,2022.2.4,Win32,13.10598813,,,,,,,,,,bridge_121.jpg,1,bridge,,,1.96,2.1528,0,34,34,34,1,,
,,,,,,,,,,bridge_108.jpg,bridge_108.jpg,bridge_116.jpg,left,mountain_107.jpg,bridge_108.jpg,golf_course_33.jpg,highway_166.jpg,highway_166.jpg,highway_166.jpg,1,AP1QA4DM6O1G8,30,male,7,2023-07-18_17h06.55.875,working,2022.2.4,Win32,13.10598813,,,,,,,,,,bridge_116.jpg,0,bridge,,,2.97,1.4539,0,35,35,35,1,,
,,,,,,,,,,badlands_184.jpg,badlands_184.jpg,badlands_228.jpg,left,playground_7.jpg,golf_course_27.jpg,badlands_184.jpg,bridge_103.jpg,bridge_103.jpg,bridge_103.jpg,2,AP1QA4DM6O1G8,30,male,7,2023-07-18_17h06.55.875,working,2022.2.4,Win32,13.10598813,,,,,,,,,,badlands_228.jpg,0,badlands,,,3.94,2.9301,0,36,36,36,1,,
,,,,,,,,,,golf_course_188.jpg,golf_course_188.jpg,golf_course_160.jpg,left,highway_25.jpg,golf_course_188.jpg,badlands_176.jpg,playground_54.jpg,playground_54.jpg,playground_54.jpg,1,AP1QA4DM6O1G8,30,male,7,2023-07-18_17h06.55.875,working,2022.2.4,Win32,13.10598813,,,,,,,,,,golf_course_160.jpg,1,golf,,,4.94,0.9177,0,37,37,37,1,,
,,,,,,,,,,mountain_57.jpg,mountain_193.jpg,mountain_57.jpg,right,bridge_34.jpg,mountain_57.jpg,highway_263.jpg,playground_123.jpg,playground_123.jpg,playground_123.jpg,1,AP1QA4DM6O1G8,30,male,7,2023-07-18_17h06.55.875,working,2022.2.4,Win32,13.10598813,,,,,,,,,,mountain_193.jpg,0,mountain,,,5.92,1.031,0,38,38,38,1,,
,,,,,,,,,,badlands_222.jpg,badlands_34.jpg,badlands_222.jpg,right,badlands_222.jpg,highway_112.jpg,mountain_34.jpg,bridge_19.jpg,bridge_19.jpg,bridge_19.jpg,0,AP1QA4DM6O1G8,30,male,7,2023-07-18_17h06.55.875,working,2022.2.4,Win32,13.10598813,,,,,,,,,,badlands_34.jpg,0,badlands,,,7.03,0.9448,0,39,39,39,1,,
,,,,,,,,,,mountain_156.jpg,mountain_156.jpg,mountain_128.jpg,left,mountain_156.jpg,badlands_58.jpg,playground_70.jpg,highway_11.jpg,highway_11.jpg,highway_11.jpg,0,AP1QA4DM6O1G8,30,male,7,2023-07-18_17h06.55.875,working,2022.2.4,Win32,13.10598813,,,,,,,,,,mountain_128.jpg,0,mountain,,,8.02,0.6984,0,40,40,40,1,,
,,,,,,,,,,mountain_222.jpg,mountain_222.jpg,mountain_93.jpg,left,mountain_222.jpg,playground_46.jpg,badlands_210.jpg,golf_course_320.jpg,golf_course_320.jpg,golf_course_320.jpg,0,AP1QA4DM6O1G8,30,male,7,2023-07-18_17h06.55.875,working,2022.2.4,Win32,13.10598813,,,,,,,,,,mountain_93.jpg,1,mountain,,,8.94,2.0262,0,41,41,41,1,,
,,,,,,,,,,badlands_221.jpg,badlands_221.jpg,badlands_207.jpg,left,badlands_221.jpg,highway_147.jpg,bridge_80.jpg,playground_235.jpg,playground_235.jpg,playground_235.jpg,0,AP1QA4DM6O1G8,30,male,7,2023-07-18_17h06.55.875,working,2022.2.4,Win32,13.10598813,,,,,,,,,,badlands_207.jpg,1,badlands,,,1.96,1.8712,0,42,42,42,1,,
,,,,,,,,,,highway_394.jpg,highway_394.jpg,highway_204.jpg,left,bridge_239.jpg,highway_394.jpg,playground_13.jpg,mountain_179.jpg,mountain_179.jpg,mountain_179.jpg,1,AP1QA4DM6O1G8,30,male,7,2023-07-18_17h06.55.875,working,2022.2.4,Win32,13.10598813,,,,,,,,,,highway_204.jpg,0,highway,,,3.06,1.0059,0,43,43,43,1,,
,,,,,,,,,,playground_60.jpg,playground_60.jpg,playground_268.jpg,left,playground_60.jpg,bridge_124.jpg,mountain_224.jpg,highway_146.jpg,highway_146.jpg,highway_146.jpg,0,AP1QA4DM6O1G8,30,male,7,2023-07-18_17h06.55.875,working,2022.2.4,Win32,13.10598813,,,,,,,,,,playground_268.jpg,0,playground,,,4.02,0.8089,0,44,44,44,1,,
,,,,,,,,,,mountain_232.jpg,mountain_232.jpg,mountain_54.jpg,left,mountain_232.jpg,playground_52.jpg,badlands_100.jpg,golf_course_206.jpg,golf_course_206.jpg,golf_course_206.jpg,0,AP1QA4DM6O1G8,30,male,7,2023-07-18_17h06.55.875,working,2022.2.4,Win32,13.10598813,,,,,,,,,,mountain_54.jpg,1,mountain,,,5.03,0.7309,0,45,45,45,1,,
,,,,,,,,,,golf_course_193.jpg,golf_course_193.jpg,golf_course_235.jpg,left,golf_course_193.jpg,bridge_238.jpg,playground_90.jpg,mountain_12.jpg,mountain_12.jpg,mountain_12.jpg,0,AP1QA4DM6O1G8,30,male,7,2023-07-18_17h06.55.875,working,2022.2.4,Win32,13.10598813,,,,,,,,,,golf_course_235.jpg,0,golf,,,6.1,0.823,0,46,46,46,1,,
,,,,,,,,,,badlands_137.jpg,badlands_137.jpg,badlands_139.jpg,left,golf_course_57.jpg,playground_108.jpg,badlands_137.jpg,mountain_199.jpg,mountain_199.jpg,mountain_199.jpg,2,AP1QA4DM6O1G8,30,male,7,2023-07-18_17h06.55.875,working,2022.2.4,Win32,13.10598813,,,,,,,,,,badlands_139.jpg,1,badlands,,,7.13,0.6296,0,47,47,47,1,,
,,,,,,,,,,mountain_110.jpg,mountain_110.jpg,mountain_223.jpg,left,bridge_158.jpg,playground_103.jpg,mountain_110.jpg,golf_course_329.jpg,golf_course_329.jpg,golf_course_329.jpg,2,AP1QA4DM6O1G8,30,male,7,2023-07-18_17h06.55.875,working,2022.2.4,Win32,13.10598813,,,,,,,,,,mountain_223.jpg,1,mountain,,,8.32,0.6986,0,48,48,48,1,,
,,,,,,,,,,golf_course_195.jpg,golf_course_195.jpg,golf_course_2.jpg,left,highway_99.jpg,bridge_10.jpg,golf_course_195.jpg,playground_30.jpg,playground_30.jpg,playground_30.jpg,2,AP1QA4DM6O1G8,30,male,7,2023-07-18_17h06.55.875,working,2022.2.4,Win32,13.10598813,,,,,,,,,,golf_course_2.jpg,1,golf,,,1.26,1.6803,0,49,49,49,1,,
,,,,,,,,,,playground_257.jpg,playground_214.jpg,playground_257.jpg,right,playground_257.jpg,bridge_204.jpg,highway_342.jpg,golf_course_42.jpg,golf_course_42.jpg,golf_course_42.jpg,0,AP1QA4DM6O1G8,30,male,7,2023-07-18_17h06.55.875,working,2022.2.4,Win32,13.10598813,,,,,,,,,,playground_214.jpg,0,playground,,,2.42,1.0238,0,50,50,50,1,,
,,,,,,,,,,bridge_172.jpg,bridge_17.jpg,bridge_172.jpg,right,bridge_172.jpg,playground_209.jpg,badlands_104.jpg,highway_301.jpg,highway_301.jpg,highway_301.jpg,0,AP1QA4DM6O1G8,30,male,7,2023-07-18_17h06.55.875,working,2022.2.4,Win32,13.10598813,,,,,,,,,,bridge_17.jpg,0,bridge,,,3.69,0.7711,0,51,51,51,1,,
,,,,,,,,,,golf_course_309.jpg,golf_course_309.jpg,golf_course_209.jpg,left,badlands_152.jpg,playground_5.jpg,golf_course_309.jpg,highway_244.jpg,highway_244.jpg,highway_244.jpg,2,AP1QA4DM6O1G8,30,male,7,2023-07-18_17h06.55.875,working,2022.2.4,Win32,13.10598813,,,,,,,,,,golf_course_209.jpg,1,golf,,,4.69,0.5813,0,52,52,52,1,,
,,,,,,,,,,highway_93.jpg,highway_369.jpg,highway_93.jpg,right,bridge_263.jpg,golf_course_198.jpg,highway_93.jpg,playground_191.jpg,playground_191.jpg,playground_191.jpg,2,AP1QA4DM6O1G8,30,male,7,2023-07-18_17h06.55.875,working,2022.2.4,Win32,13.10598813,,,,,,,,,,highway_369.jpg,1,highway,,,5.47,0.5915,0,53,53,53,1,,
,,,,,,,,,,mountain_293.jpg,mountain_72.jpg,mountain_293.jpg,right,mountain_293.jpg,badlands_149.jpg,bridge_49.jpg,playground_6.jpg,playground_6.jpg,playground_6.jpg,0,AP1QA4DM6O1G8,30,male,7,2023-07-18_17h06.55.875,working,2022.2.4,Win32,13.10598813,,,,,,,,,,mountain_72.jpg,0,mountain,,,6.43,0.5121,0,54,54,54,1,,
,,,,,,,,,,playground_144.jpg,playground_137.jpg,playground_144.jpg,right,golf_course_46.jpg,playground_144.jpg,badlands_180.jpg,bridge_9.jpg,bridge_9.jpg,bridge_9.jpg,1,AP1QA4DM6O1G8,30,male,7,2023-07-18_17h06.55.875,working,2022.2.4,Win32,13.10598813,,,,,,,,,,playground_137.jpg,0,playground,,,7.47,0.63,0,55,55,55,1,,
,,,,,,,,,,golf_course_78.jpg,golf_course_134.jpg,golf_course_78.jpg,right,playground_264.jpg,mountain_253.jpg,golf_course_78.jpg,bridge_52.jpg,bridge_52.jpg,bridge_52.jpg,2,AP1QA4DM6O1G8,30,male,7,2023-07-18_17h06.55.875,working,2022.2.4,Win32,13.10598813,,,,,,,,,,golf_course_134.jpg,0,golf,,,8.31,0.9217,0,56,56,56,1,,
,,,,,,,,,,bridge_65.jpg,bridge_60.jpg,bridge_65.jpg,right,bridge_65.jpg,golf_course_83.jpg,mountain_228.jpg,badlands_177.jpg,badlands_177.jpg,badlands_177.jpg,0,AP1QA4DM6O1G8,30,male,7,2023-07-18_17h06.55.875,working,2022.2.4,Win32,13.10598813,,,,,,,,,,bridge_60.jpg,1,bridge,,,3,7.8006,0,57,57,57,1,,
,,,,,,,,,,golf_course_214.jpg,golf_course_312.jpg,golf_course_214.jpg,right,badlands_220.jpg,golf_course_214.jpg,mountain_105.jpg,highway_75.jpg,highway_75.jpg,highway_75.jpg,1,AP1QA4DM6O1G8,30,male,7,2023-07-18_17h06.55.875,working,2022.2.4,Win32,13.10598813,,,,,,,,,,golf_course_312.jpg,0,golf,,,3.93,2.064,0,58,58,58,1,,
,,,,,,,,,,mountain_230.jpg,mountain_184.jpg,mountain_230.jpg,right,highway_398.jpg,bridge_169.jpg,mountain_230.jpg,playground_25.jpg,playground_25.jpg,playground_25.jpg,2,AP1QA4DM6O1G8,30,male,7,2023-07-18_17h06.55.875,working,2022.2.4,Win32,13.10598813,,,,,,,,,,mountain_184.jpg,0,mountain,,,4.97,1.4904,0,59,59,59,1,,
,,,,,,,,,,,,,,,,,,,,,AP1QA4DM6O1G8,30,male,7,2023-07-18_17h06.55.875,working,2022.2.4,Win32,13.10598813,,,,,,,,,,,,,,,,,,,,,,space,4.5928
