,index,test_encoding_response.keys,test_encoding_response.corr,trials.thisTrialN,target_image,pair,layer,correct,test_encoding_response.rt,key_resp_end.keys,subject
0,20,,1.0,0.0,2898635428-69104.jpg,2901943411-292945.jpg,2.0,,,,A136K4YZY2OFTV
1,21,,1.0,1.0,2874302418-65979.jpg,2238578544-111698.jpg,3.0,,,,A136K4YZY2OFTV
2,22,,1.0,2.0,2449442529-124446.jpg,2460547536-274181.jpg,2.0,,,,A136K4YZY2OFTV
3,23,,1.0,3.0,2864910426-287204.jpg,2874299429-139694.jpg,2.0,,,,A136K4YZY2OFTV
4,24,,1.0,4.0,2898624426-291546.jpg,2981235446-294900.jpg,3.0,,,,A136K4YZY2OFTV
5,25,,1.0,5.0,2449441881-272368.jpg,2883268412-365899.jpg,1.0,,,,A136K4YZY2OFTV
6,26,,1.0,6.0,2446759803-49249.jpg,2446760601-272099.jpg,1.0,,,,A136K4YZY2OFTV
7,27,left,1.0,7.0,left.jpg,,,left,0.6395,,A136K4YZY2OFTV
8,28,,1.0,8.0,2898633421-291973.jpg,2575118671-277663.jpg,2.0,,,,A136K4YZY2OFTV
9,29,,1.0,9.0,2898618390-216538.jpg,2986449336-296644.jpg,1.0,,,,A136K4YZY2OFTV
10,30,,1.0,10.0,2901939379-143479.jpg,2981240424-145794.jpg,3.0,,,,A136K4YZY2OFTV
11,31,,1.0,11.0,2868474407-362883.jpg,2238516618-25604.jpg,1.0,,,,A136K4YZY2OFTV
12,32,,1.0,12.0,2883268471-290842.jpg,2883255450-215310.jpg,2.0,,,,A136K4YZY2OFTV
13,33,,1.0,13.0,2238560245-182099.jpg,2549106624-127823.jpg,1.0,,,,A136K4YZY2OFTV
14,34,,1.0,14.0,2868475410-213219.jpg,2901946465-218350.jpg,1.0,,,,A136K4YZY2OFTV
15,35,,1.0,15.0,2238481198-19822.jpg,2901946436-293242.jpg,2.0,,,,A136K4YZY2OFTV
16,36,,1.0,16.0,2446758985-197609.jpg,2898624426-291544.jpg,3.0,,,,A136K4YZY2OFTV
17,37,,1.0,17.0,2512875899-126682.jpg,2460547536-274179.jpg,1.0,,,,A136K4YZY2OFTV
18,38,,1.0,18.0,2460547467-349421.jpg,2898631394-142727.jpg,1.0,,,,A136K4YZY2OFTV
19,39,,1.0,19.0,2452381505-199546.jpg,2994401319-148290.jpg,3.0,,,,A136K4YZY2OFTV
20,40,,1.0,20.0,2575120738-55529.jpg,2898632385-217138.jpg,1.0,,,,A136K4YZY2OFTV
21,41,,1.0,21.0,2458347385-199723.jpg,2238480434-93829.jpg,1.0,,,,A136K4YZY2OFTV
22,42,left,1.0,22.0,left.jpg,,,left,0.6448,,A136K4YZY2OFTV
23,43,,1.0,23.0,2883256307-365057.jpg,2864904453-63933.jpg,3.0,,,,A136K4YZY2OFTV
24,44,,1.0,24.0,2981241414-145842.jpg,2874301404-139813.jpg,2.0,,,,A136K4YZY2OFTV
25,45,,1.0,25.0,2964218374-144967.jpg,2981231446-294732.jpg,3.0,,,,A136K4YZY2OFTV
26,46,,1.0,26.0,2901939379-143480.jpg,2981229442-369621.jpg,2.0,,,,A136K4YZY2OFTV
27,47,,1.0,27.0,2901948350-218459.jpg,2417208001-267065.jpg,2.0,,,,A136K4YZY2OFTV
28,48,,1.0,28.0,2883254439-140941.jpg,2898632385-217136.jpg,2.0,,,,A136K4YZY2OFTV
29,49,right,1.0,29.0,right.jpg,,,right,0.6069,,A136K4YZY2OFTV
30,50,,1.0,30.0,2964213381-294060.jpg,2981244394-145974.jpg,1.0,,,,A136K4YZY2OFTV
31,51,,1.0,31.0,2864907432-362042.jpg,2864901420-212147.jpg,1.0,,,,A136K4YZY2OFTV
32,52,,1.0,32.0,2898634397-367080.jpg,2964217461-294238.jpg,3.0,,,,A136K4YZY2OFTV
33,53,,1.0,33.0,2901941401-292798.jpg,2883273443-68193.jpg,3.0,,,,A136K4YZY2OFTV
34,54,,1.0,34.0,2874303365-214262.jpg,2864911457-362260.jpg,3.0,,,,A136K4YZY2OFTV
35,55,,1.0,35.0,2238572663-35822.jpg,2864903351-286874.jpg,3.0,,,,A136K4YZY2OFTV
36,56,left,1.0,36.0,left.jpg,,,left,0.5942,,A136K4YZY2OFTV
37,57,,1.0,37.0,2592379964-131054.jpg,2575963989-130576.jpg,1.0,,,,A136K4YZY2OFTV
38,58,,1.0,38.0,2874302418-65978.jpg,2898633321-291943.jpg,3.0,,,,A136K4YZY2OFTV
39,59,,1.0,39.0,2446759347-347016.jpg,2238569117-333045.jpg,3.0,,,,A136K4YZY2OFTV
40,60,,1.0,40.0,2874307433-66280.jpg,2986447306-296584.jpg,1.0,,,,A136K4YZY2OFTV
41,61,,1.0,41.0,2452380832-348593.jpg,2238481813-19930.jpg,2.0,,,,A136K4YZY2OFTV
42,62,,1.0,42.0,2964223381-294447.jpg,2427874231-269884.jpg,1.0,,,,A136K4YZY2OFTV
43,63,,1.0,43.0,2883268412-365898.jpg,2984626312-370849.jpg,1.0,,,,A136K4YZY2OFTV
44,64,,1.0,44.0,2898635427-367120.jpg,2901946439-144040.jpg,1.0,,,,A136K4YZY2OFTV
45,65,,1.0,45.0,2898618444-142233.jpg,2898618444-142232.jpg,3.0,,,,A136K4YZY2OFTV
46,66,left,1.0,46.0,left.jpg,,,left,0.5747,,A136K4YZY2OFTV
47,67,,1.0,47.0,2238480677-317399.jpg,2238573546-258454.jpg,2.0,,,,A136K4YZY2OFTV
48,68,,1.0,48.0,2901947423-70311.jpg,2860312398-62572.jpg,1.0,,,,A136K4YZY2OFTV
49,69,,1.0,49.0,2238428357-313623.jpg,2575121987-353817.jpg,3.0,,,,A136K4YZY2OFTV
50,70,,1.0,50.0,2981231403-71642.jpg,2981244403-72215.jpg,2.0,,,,A136K4YZY2OFTV
51,71,,1.0,51.0,2592380177-354626.jpg,2864901386-286797.jpg,2.0,,,,A136K4YZY2OFTV
52,72,,1.0,52.0,2460547508-51571.jpg,2460547291-274110.jpg,1.0,,,,A136K4YZY2OFTV
53,73,,1.0,53.0,2592380177-354629.jpg,2579432534-130704.jpg,2.0,,,,A136K4YZY2OFTV
54,74,,1.0,54.0,2460547467-349422.jpg,2864909447-362146.jpg,3.0,,,,A136K4YZY2OFTV
55,75,,1.0,55.0,2898617468-68274.jpg,2901943387-368037.jpg,2.0,,,,A136K4YZY2OFTV
56,76,,1.0,56.0,2449442529-124445.jpg,2898632385-217137.jpg,3.0,,,,A136K4YZY2OFTV
57,77,,1.0,57.0,2874301407-363895.jpg,2901947323-70275.jpg,3.0,,,,A136K4YZY2OFTV
58,78,,1.0,58.0,2238580740-186218.jpg,2238550816-254000.jpg,1.0,,,,A136K4YZY2OFTV
59,79,,1.0,59.0,2874299429-139695.jpg,2901942443-69923.jpg,2.0,,,,A136K4YZY2OFTV
60,80,,1.0,60.0,2964216465-219242.jpg,2864900319-137787.jpg,2.0,,,,A136K4YZY2OFTV
61,81,,1.0,61.0,2238481928-19949.jpg,2981241419-145844.jpg,3.0,,,,A136K4YZY2OFTV
62,82,,1.0,62.0,2901952513-70703.jpg,2868469411-287540.jpg,2.0,,,,A136K4YZY2OFTV
63,83,,1.0,63.0,2986451363-73599.jpg,2238434559-90406.jpg,3.0,,,,A136K4YZY2OFTV
64,84,,1.0,64.0,2238425482-313537.jpg,2238436322-314047.jpg,2.0,,,,A136K4YZY2OFTV
65,20,,1.0,0.0,2449442529-124446.jpg,2446759803-49251.jpg,1.0,,,,A1FDK83WDHKO9S
66,21,,1.0,1.0,2901948350-218459.jpg,2981246360-220352.jpg,3.0,,,,A1FDK83WDHKO9S
67,22,,1.0,2.0,2238425482-313537.jpg,2238471391-240918.jpg,1.0,,,,A1FDK83WDHKO9S
68,23,,1.0,3.0,2874302418-65978.jpg,2898626385-216899.jpg,1.0,,,,A1FDK83WDHKO9S
69,24,,1.0,4.0,2874307433-66280.jpg,2981246400-220365.jpg,2.0,,,,A1FDK83WDHKO9S
70,25,,1.0,5.0,2883254439-140941.jpg,2898632385-217136.jpg,2.0,,,,A1FDK83WDHKO9S
71,26,,1.0,6.0,2868475410-213219.jpg,2238480803-19739.jpg,2.0,,,,A1FDK83WDHKO9S
72,27,,1.0,7.0,2964216465-219242.jpg,2238544191-252422.jpg,1.0,,,,A1FDK83WDHKO9S
73,28,,1.0,8.0,2964218374-144967.jpg,2981231446-294732.jpg,3.0,,,,A1FDK83WDHKO9S
74,29,left,1.0,9.0,left.jpg,,,left,2.0,,A1FDK83WDHKO9S
75,30,,1.0,10.0,2964223381-294447.jpg,2898628438-68785.jpg,3.0,,,,A1FDK83WDHKO9S
76,31,,1.0,11.0,2446759803-49249.jpg,2898618440-216547.jpg,2.0,,,,A1FDK83WDHKO9S
77,32,,1.0,12.0,2898618390-216538.jpg,2575120609-129862.jpg,3.0,,,,A1FDK83WDHKO9S
78,33,,1.0,13.0,2864907432-362042.jpg,2901947423-70310.jpg,2.0,,,,A1FDK83WDHKO9S
79,34,,1.0,14.0,2458347385-199723.jpg,2238480434-93829.jpg,1.0,,,,A1FDK83WDHKO9S
80,35,,1.0,15.0,2986451363-73599.jpg,2901939327-367669.jpg,1.0,,,,A1FDK83WDHKO9S
81,36,,1.0,16.0,2864910426-287204.jpg,2874299429-139694.jpg,2.0,,,,A1FDK83WDHKO9S
82,37,right,1.0,17.0,right.jpg,,,right,1.0685,,A1FDK83WDHKO9S
83,38,,1.0,18.0,2575120738-55529.jpg,2238531493-28260.jpg,3.0,,,,A1FDK83WDHKO9S
84,39,,1.0,19.0,2874299429-139695.jpg,2446760917-347439.jpg,3.0,,,,A1FDK83WDHKO9S
85,40,,1.0,20.0,2238572663-35822.jpg,2986419333-73361.jpg,1.0,,,,A1FDK83WDHKO9S
86,41,,1.0,21.0,2452381505-199546.jpg,2994401319-148290.jpg,3.0,,,,A1FDK83WDHKO9S
87,42,,1.0,22.0,2981231403-71642.jpg,2427873763-47290.jpg,3.0,,,,A1FDK83WDHKO9S
88,43,,1.0,23.0,2898635427-367120.jpg,2898621427-366486.jpg,3.0,,,,A1FDK83WDHKO9S
89,44,,1.0,24.0,2238580740-186218.jpg,2238550816-254000.jpg,1.0,,,,A1FDK83WDHKO9S
90,45,,1.0,25.0,2449442529-124445.jpg,2986408373-73286.jpg,2.0,,,,A1FDK83WDHKO9S
91,46,,1.0,26.0,2460547467-349422.jpg,2898618440-216545.jpg,1.0,,,,A1FDK83WDHKO9S
92,47,,1.0,27.0,2512875899-126682.jpg,2986447332-371497.jpg,3.0,,,,A1FDK83WDHKO9S
93,48,,1.0,28.0,2898624426-291546.jpg,2981236443-71859.jpg,2.0,,,,A1FDK83WDHKO9S
94,49,,1.0,29.0,2901941401-292798.jpg,2981243412-370222.jpg,2.0,,,,A1FDK83WDHKO9S
95,50,,1.0,30.0,2883256307-365057.jpg,2864904453-63933.jpg,3.0,,,,A1FDK83WDHKO9S
96,51,,1.0,31.0,2460547467-349421.jpg,2981235446-294901.jpg,3.0,,,,A1FDK83WDHKO9S
97,52,,1.0,32.0,2592380177-354629.jpg,2512875587-350044.jpg,3.0,,,,A1FDK83WDHKO9S
98,53,,1.0,33.0,2592380177-354626.jpg,2238117096-228518.jpg,3.0,,,,A1FDK83WDHKO9S
99,54,right,1.0,34.0,right.jpg,,,right,1.075,,A1FDK83WDHKO9S
100,55,,1.0,35.0,2883268471-290842.jpg,2883268471-290843.jpg,1.0,,,,A1FDK83WDHKO9S
101,56,,1.0,36.0,2238560245-182099.jpg,2238480980-168129.jpg,3.0,,,,A1FDK83WDHKO9S
102,57,,1.0,37.0,2592379964-131054.jpg,2238479053-19457.jpg,2.0,,,,A1FDK83WDHKO9S
103,58,,1.0,38.0,2874302418-65979.jpg,2413147898-43548.jpg,1.0,,,,A1FDK83WDHKO9S
104,59,,1.0,39.0,2901939379-143479.jpg,2981240424-145794.jpg,3.0,,,,A1FDK83WDHKO9S
105,60,left,1.0,40.0,left.jpg,,,left,1.0705,,A1FDK83WDHKO9S
106,61,,1.0,41.0,2446758985-197609.jpg,2864909447-362144.jpg,2.0,,,,A1FDK83WDHKO9S
107,62,,1.0,42.0,2874301407-363895.jpg,2883264368-67631.jpg,1.0,,,,A1FDK83WDHKO9S
108,63,,1.0,43.0,2460547508-51571.jpg,2460547291-274110.jpg,1.0,,,,A1FDK83WDHKO9S
109,64,,1.0,44.0,2964213381-294060.jpg,2458348012-349114.jpg,2.0,,,,A1FDK83WDHKO9S
110,65,,1.0,45.0,2901952513-70703.jpg,2868469411-287540.jpg,2.0,,,,A1FDK83WDHKO9S
111,66,right,1.0,46.0,right.jpg,,,right,1.0864,,A1FDK83WDHKO9S
112,67,,1.0,47.0,2238481928-19949.jpg,2883264367-365620.jpg,1.0,,,,A1FDK83WDHKO9S
113,68,,1.0,48.0,2901939379-143480.jpg,2901942428-69919.jpg,1.0,,,,A1FDK83WDHKO9S
114,69,,1.0,49.0,2898633421-291973.jpg,2512876023-52283.jpg,1.0,,,,A1FDK83WDHKO9S
115,70,,1.0,50.0,2449441881-272368.jpg,2984615358-72439.jpg,2.0,,,,A1FDK83WDHKO9S
116,71,,1.0,51.0,2898617468-68274.jpg,2964207374-144577.jpg,3.0,,,,A1FDK83WDHKO9S
117,72,,1.0,52.0,2898634397-367080.jpg,2237944827-301472.jpg,1.0,,,,A1FDK83WDHKO9S
118,73,,1.0,53.0,2452380832-348593.jpg,2238328478-11678.jpg,1.0,,,,A1FDK83WDHKO9S
119,74,,1.0,54.0,2446759347-347016.jpg,2238569117-333045.jpg,3.0,,,,A1FDK83WDHKO9S
120,75,,1.0,55.0,2898635428-69104.jpg,2898625336-291572.jpg,3.0,,,,A1FDK83WDHKO9S
121,76,,1.0,56.0,2238480677-317399.jpg,2238573546-258454.jpg,2.0,,,,A1FDK83WDHKO9S
122,77,,1.0,57.0,2238481198-19822.jpg,2901946436-293242.jpg,2.0,,,,A1FDK83WDHKO9S
123,78,,1.0,58.0,2981241414-145842.jpg,2856919327-359676.jpg,1.0,,,,A1FDK83WDHKO9S
124,79,,1.0,59.0,2868474407-362883.jpg,2981246400-220363.jpg,2.0,,,,A1FDK83WDHKO9S
125,80,,1.0,60.0,2874303365-214262.jpg,2609793677-355397.jpg,1.0,,,,A1FDK83WDHKO9S
126,81,,1.0,61.0,2883268412-365898.jpg,2984615361-295510.jpg,2.0,,,,A1FDK83WDHKO9S
127,82,,1.0,62.0,2901947423-70311.jpg,2238577590-185467.jpg,3.0,,,,A1FDK83WDHKO9S
128,83,,1.0,63.0,2238428357-313623.jpg,2984615361-295509.jpg,2.0,,,,A1FDK83WDHKO9S
129,84,,1.0,64.0,2898618444-142233.jpg,2238555262-330312.jpg,2.0,,,,A1FDK83WDHKO9S
130,20,,1.0,0.0,2901939379-143480.jpg,2981229442-369621.jpg,2.0,,,,A1FMVUYV72MUO3
131,21,,1.0,1.0,2964218374-144967.jpg,2883254439-140940.jpg,2.0,,,,A1FMVUYV72MUO3
132,22,,1.0,2.0,2964216465-219242.jpg,2898619327-366362.jpg,3.0,,,,A1FMVUYV72MUO3
133,23,,1.0,3.0,2452381505-199546.jpg,2238567168-34916.jpg,2.0,,,,A1FMVUYV72MUO3
134,24,,1.0,4.0,2449442529-124446.jpg,2460547536-274181.jpg,2.0,,,,A1FMVUYV72MUO3
135,25,,1.0,5.0,2238425482-313537.jpg,2238436322-314047.jpg,2.0,,,,A1FMVUYV72MUO3
136,26,,1.0,6.0,2874302418-65978.jpg,2238481198-19823.jpg,2.0,,,,A1FMVUYV72MUO3
137,27,,1.0,7.0,2901939379-143479.jpg,2446758985-197610.jpg,2.0,,,,A1FMVUYV72MUO3
138,28,,1.0,8.0,2901947423-70311.jpg,2238577590-185467.jpg,3.0,,,,A1FMVUYV72MUO3
139,29,left,1.0,9.0,left.jpg,,,left,0.7749,,A1FMVUYV72MUO3
140,30,,1.0,10.0,2238580740-186218.jpg,2238550816-254000.jpg,1.0,,,,A1FMVUYV72MUO3
141,31,,1.0,11.0,2452380832-348593.jpg,2449442181-272436.jpg,3.0,,,,A1FMVUYV72MUO3
142,32,,1.0,12.0,2238480677-317399.jpg,2238480278-19661.jpg,3.0,,,,A1FMVUYV72MUO3
143,33,,1.0,13.0,2874299429-139695.jpg,2446760917-347439.jpg,3.0,,,,A1FMVUYV72MUO3
144,34,,1.0,14.0,2898618444-142233.jpg,2898631359-142721.jpg,1.0,,,,A1FMVUYV72MUO3
145,35,,1.0,15.0,2898634397-367080.jpg,2237944827-301472.jpg,1.0,,,,A1FMVUYV72MUO3
146,36,,1.0,16.0,2238481198-19822.jpg,2862691449-137104.jpg,1.0,,,,A1FMVUYV72MUO3
147,37,,1.0,17.0,2964213381-294060.jpg,2981244394-145974.jpg,1.0,,,,A1FMVUYV72MUO3
148,38,,1.0,18.0,2238481928-19949.jpg,2981241419-145844.jpg,3.0,,,,A1FMVUYV72MUO3
149,39,,1.0,19.0,2883268412-365898.jpg,2984615361-295510.jpg,2.0,,,,A1FMVUYV72MUO3
150,40,,1.0,20.0,2898635427-367120.jpg,2901946439-144040.jpg,1.0,,,,A1FMVUYV72MUO3
151,41,left,1.0,21.0,left.jpg,,,left,0.7067,,A1FMVUYV72MUO3
152,42,,1.0,22.0,2460547467-349421.jpg,2452380166-273110.jpg,2.0,,,,A1FMVUYV72MUO3
153,43,,1.0,23.0,2986451363-73599.jpg,2860302315-210704.jpg,2.0,,,,A1FMVUYV72MUO3
154,44,,1.0,24.0,2874301407-363895.jpg,2883264368-67631.jpg,1.0,,,,A1FMVUYV72MUO3
155,45,,1.0,25.0,2901941401-292798.jpg,2883273443-68193.jpg,3.0,,,,A1FMVUYV72MUO3
156,46,,1.0,26.0,2446759347-347016.jpg,2238569117-333045.jpg,3.0,,,,A1FMVUYV72MUO3
157,47,,1.0,27.0,2868474407-362883.jpg,2981246400-220363.jpg,2.0,,,,A1FMVUYV72MUO3
158,48,,1.0,28.0,2449442529-124445.jpg,2898632385-217137.jpg,3.0,,,,A1FMVUYV72MUO3
159,49,right,1.0,29.0,right.jpg,,,right,0.8015,,A1FMVUYV72MUO3
160,50,,1.0,30.0,2460547467-349422.jpg,2898618440-216545.jpg,1.0,,,,A1FMVUYV72MUO3
161,51,,1.0,31.0,2898633421-291973.jpg,2512876023-52283.jpg,1.0,,,,A1FMVUYV72MUO3
162,52,,1.0,32.0,2883268471-290842.jpg,2901947448-70314.jpg,3.0,,,,A1FMVUYV72MUO3
163,53,,1.0,33.0,2238572663-35822.jpg,2986419333-73361.jpg,1.0,,,,A1FMVUYV72MUO3
164,54,,1.0,34.0,2898617468-68274.jpg,2964207374-144577.jpg,3.0,,,,A1FMVUYV72MUO3
165,55,,1.0,35.0,2981231403-71642.jpg,2981244403-72215.jpg,2.0,,,,A1FMVUYV72MUO3
166,56,,1.0,36.0,2864910426-287204.jpg,2901939433-69672.jpg,3.0,,,,A1FMVUYV72MUO3
167,57,,1.0,37.0,2898618390-216538.jpg,2986449336-296644.jpg,1.0,,,,A1FMVUYV72MUO3
168,58,right,1.0,38.0,right.jpg,,,right,0.8579,,A1FMVUYV72MUO3
169,59,,1.0,39.0,2592379964-131054.jpg,2592380272-354673.jpg,3.0,,,,A1FMVUYV72MUO3
170,60,,1.0,40.0,2864907432-362042.jpg,2901947423-70310.jpg,2.0,,,,A1FMVUYV72MUO3
171,61,,1.0,41.0,2883254439-140941.jpg,2898632385-217136.jpg,2.0,,,,A1FMVUYV72MUO3
172,62,,1.0,42.0,2446758985-197609.jpg,2898624426-291544.jpg,3.0,,,,A1FMVUYV72MUO3
173,63,,1.0,43.0,2449441881-272368.jpg,2449441881-272367.jpg,3.0,,,,A1FMVUYV72MUO3
174,64,,1.0,44.0,2460547508-51571.jpg,2981232437-369759.jpg,2.0,,,,A1FMVUYV72MUO3
175,65,,1.0,45.0,2868475410-213219.jpg,2901946465-218350.jpg,1.0,,,,A1FMVUYV72MUO3
176,66,,1.0,46.0,2458347385-199723.jpg,2458347252-348911.jpg,3.0,,,,A1FMVUYV72MUO3
177,67,,1.0,47.0,2898624426-291546.jpg,2964218432-369263.jpg,1.0,,,,A1FMVUYV72MUO3
178,68,left,1.0,48.0,left.jpg,,,left,0.7697,,A1FMVUYV72MUO3
179,69,,1.0,49.0,2901952513-70703.jpg,2238481198-19821.jpg,3.0,,,,A1FMVUYV72MUO3
180,70,,1.0,50.0,2964223381-294447.jpg,2901941438-69836.jpg,2.0,,,,A1FMVUYV72MUO3
181,71,,1.0,51.0,2575120738-55529.jpg,2575120738-55528.jpg,2.0,,,,A1FMVUYV72MUO3
182,72,,1.0,52.0,2901948350-218459.jpg,2804906319-133082.jpg,1.0,,,,A1FMVUYV72MUO3
183,73,,1.0,53.0,2238428357-313623.jpg,2238499057-320266.jpg,1.0,,,,A1FMVUYV72MUO3
184,74,,1.0,54.0,2512875899-126682.jpg,2460547536-274179.jpg,1.0,,,,A1FMVUYV72MUO3
185,75,,1.0,55.0,2592380177-354629.jpg,2579432534-130704.jpg,2.0,,,,A1FMVUYV72MUO3
186,76,,1.0,56.0,2238560245-182099.jpg,2549106624-127823.jpg,1.0,,,,A1FMVUYV72MUO3
187,77,,1.0,57.0,2446759803-49249.jpg,2898618440-216547.jpg,2.0,,,,A1FMVUYV72MUO3
188,78,,1.0,58.0,2874303365-214262.jpg,2609793677-355397.jpg,1.0,,,,A1FMVUYV72MUO3
189,79,,1.0,59.0,2981241414-145842.jpg,2427873848-47312.jpg,3.0,,,,A1FMVUYV72MUO3
190,80,,1.0,60.0,2874307433-66280.jpg,2981231422-369714.jpg,3.0,,,,A1FMVUYV72MUO3
191,81,,1.0,61.0,2592380177-354626.jpg,2864901386-286797.jpg,2.0,,,,A1FMVUYV72MUO3
192,82,,1.0,62.0,2883256307-365057.jpg,2611628310-206388.jpg,1.0,,,,A1FMVUYV72MUO3
193,83,,1.0,63.0,2898635428-69104.jpg,2898625336-291572.jpg,3.0,,,,A1FMVUYV72MUO3
194,84,,1.0,64.0,2874302418-65979.jpg,2413147898-43548.jpg,1.0,,,,A1FMVUYV72MUO3
195,20,,1.0,0.0,2592380177-354626.jpg,2238117096-228518.jpg,3.0,,,,A1ILCIHMXPNTMT
196,21,,1.0,1.0,2449442529-124446.jpg,2460547536-274181.jpg,2.0,,,,A1ILCIHMXPNTMT
197,22,,1.0,2.0,2449441881-272368.jpg,2449441881-272367.jpg,3.0,,,,A1ILCIHMXPNTMT
198,23,,1.0,3.0,2986451363-73599.jpg,2901939327-367669.jpg,1.0,,,,A1ILCIHMXPNTMT
199,24,,1.0,4.0,2964216465-219242.jpg,2898619327-366362.jpg,3.0,,,,A1ILCIHMXPNTMT
200,25,,1.0,5.0,2901947423-70311.jpg,2238573447-333826.jpg,2.0,,,,A1ILCIHMXPNTMT
201,26,,1.0,6.0,2898618444-142233.jpg,2238555262-330312.jpg,2.0,,,,A1ILCIHMXPNTMT
202,27,,1.0,7.0,2452381505-199546.jpg,2238567168-34916.jpg,2.0,,,,A1ILCIHMXPNTMT
203,28,,1.0,8.0,2592380177-354629.jpg,2898633421-291974.jpg,1.0,,,,A1ILCIHMXPNTMT
204,29,,1.0,9.0,2452380832-348593.jpg,2449442181-272436.jpg,3.0,,,,A1ILCIHMXPNTMT
205,30,,1.0,10.0,2898634397-367080.jpg,2901934408-69289.jpg,2.0,,,,A1ILCIHMXPNTMT
206,31,,1.0,11.0,2864910426-287204.jpg,2901939433-69672.jpg,3.0,,,,A1ILCIHMXPNTMT
207,32,right,1.0,12.0,right.jpg,,,right,0.8191,,A1ILCIHMXPNTMT
208,33,,1.0,13.0,2238428357-313623.jpg,2984615361-295509.jpg,2.0,,,,A1ILCIHMXPNTMT
209,34,,1.0,14.0,2874301407-363895.jpg,2986397322-371109.jpg,2.0,,,,A1ILCIHMXPNTMT
210,35,,1.0,15.0,2898618390-216538.jpg,2575120609-129862.jpg,3.0,,,,A1ILCIHMXPNTMT
211,36,,1.0,16.0,2901941401-292798.jpg,2981243412-370222.jpg,2.0,,,,A1ILCIHMXPNTMT
212,37,,1.0,17.0,2446758985-197609.jpg,2981240424-145795.jpg,1.0,,,,A1ILCIHMXPNTMT
213,38,,1.0,18.0,2458347385-199723.jpg,2238480434-93829.jpg,1.0,,,,A1ILCIHMXPNTMT
214,39,left,1.0,19.0,left.jpg,,,left,1.0142,,A1ILCIHMXPNTMT
215,40,,1.0,20.0,2901948350-218459.jpg,2804906319-133082.jpg,1.0,,,,A1ILCIHMXPNTMT
216,41,,1.0,21.0,2874299429-139695.jpg,2883266388-67750.jpg,1.0,,,,A1ILCIHMXPNTMT
217,42,,1.0,22.0,2874302418-65978.jpg,2898626385-216899.jpg,1.0,,,,A1ILCIHMXPNTMT
218,43,,1.0,23.0,2868475410-213219.jpg,2901946465-218350.jpg,1.0,,,,A1ILCIHMXPNTMT
219,44,,1.0,24.0,2898635427-367120.jpg,2868479517-363220.jpg,2.0,,,,A1ILCIHMXPNTMT
220,45,,1.0,25.0,2238481198-19822.jpg,2901946436-293242.jpg,2.0,,,,A1ILCIHMXPNTMT
221,46,left,1.0,26.0,left.jpg,,,left,0.978,,A1ILCIHMXPNTMT
222,47,,1.0,27.0,2874302418-65979.jpg,2413147898-43548.jpg,1.0,,,,A1ILCIHMXPNTMT
223,48,,1.0,28.0,2460547467-349422.jpg,2868487415-213924.jpg,2.0,,,,A1ILCIHMXPNTMT
224,49,,1.0,29.0,2238572663-35822.jpg,2238571930-184143.jpg,2.0,,,,A1ILCIHMXPNTMT
225,50,,1.0,30.0,2592379964-131054.jpg,2592380272-354673.jpg,3.0,,,,A1ILCIHMXPNTMT
226,51,,1.0,31.0,2898635428-69104.jpg,2901943411-292945.jpg,2.0,,,,A1ILCIHMXPNTMT
227,52,,1.0,32.0,2964213381-294060.jpg,2964213381-294061.jpg,3.0,,,,A1ILCIHMXPNTMT
228,53,,1.0,33.0,2512875899-126682.jpg,2986447332-371497.jpg,3.0,,,,A1ILCIHMXPNTMT
229,54,,1.0,34.0,2883268412-365898.jpg,2984626312-370849.jpg,1.0,,,,A1ILCIHMXPNTMT
230,55,,1.0,35.0,2446759803-49249.jpg,2898618440-216547.jpg,2.0,,,,A1ILCIHMXPNTMT
231,56,,1.0,36.0,2898617468-68274.jpg,2964207374-144577.jpg,3.0,,,,A1ILCIHMXPNTMT
232,57,left,1.0,37.0,left.jpg,,,left,2.1306,,A1ILCIHMXPNTMT
233,58,,1.0,38.0,2901952513-70703.jpg,2868469411-287540.jpg,2.0,,,,A1ILCIHMXPNTMT
234,59,,1.0,39.0,2238481928-19949.jpg,2864900357-361688.jpg,2.0,,,,A1ILCIHMXPNTMT
235,60,,1.0,40.0,2901939379-143480.jpg,2901942428-69919.jpg,1.0,,,,A1ILCIHMXPNTMT
236,61,,1.0,41.0,2874303365-214262.jpg,2864911457-362260.jpg,3.0,,,,A1ILCIHMXPNTMT
237,62,,1.0,42.0,2883256307-365057.jpg,2611628310-206388.jpg,1.0,,,,A1ILCIHMXPNTMT
238,63,,1.0,43.0,2238560245-182099.jpg,2874314526-289684.jpg,2.0,,,,A1ILCIHMXPNTMT
239,64,,1.0,44.0,2446759347-347016.jpg,2238569117-333045.jpg,3.0,,,,A1ILCIHMXPNTMT
240,65,,1.0,45.0,2449442529-124445.jpg,2898632385-217137.jpg,3.0,,,,A1ILCIHMXPNTMT
241,66,,1.0,46.0,2238425482-313537.jpg,2898633480-217190.jpg,3.0,,,,A1ILCIHMXPNTMT
242,67,,1.0,47.0,2898633421-291973.jpg,2238550049-105691.jpg,3.0,,,,A1ILCIHMXPNTMT
243,68,,1.0,48.0,2874307433-66280.jpg,2986447306-296584.jpg,1.0,,,,A1ILCIHMXPNTMT
244,69,,1.0,49.0,2964223381-294447.jpg,2427874231-269884.jpg,1.0,,,,A1ILCIHMXPNTMT
245,70,,1.0,50.0,2238580740-186218.jpg,2238550816-254000.jpg,1.0,,,,A1ILCIHMXPNTMT
246,71,,1.0,51.0,2883254439-140941.jpg,2981231446-294730.jpg,3.0,,,,A1ILCIHMXPNTMT
247,72,,0.0,52.0,right.jpg,,,right,,,A1ILCIHMXPNTMT
248,73,,1.0,53.0,2575120738-55529.jpg,2898632385-217138.jpg,1.0,,,,A1ILCIHMXPNTMT
249,74,,1.0,54.0,2901939379-143479.jpg,2981240424-145794.jpg,3.0,,,,A1ILCIHMXPNTMT
250,75,,1.0,55.0,2460547508-51571.jpg,2981232437-369759.jpg,2.0,,,,A1ILCIHMXPNTMT
251,76,,1.0,56.0,2981231403-71642.jpg,2274829821-263682.jpg,1.0,,,,A1ILCIHMXPNTMT
252,77,,1.0,57.0,2460547467-349421.jpg,2898631394-142727.jpg,1.0,,,,A1ILCIHMXPNTMT
253,78,,1.0,58.0,2868474407-362883.jpg,2238516618-25604.jpg,1.0,,,,A1ILCIHMXPNTMT
254,79,,1.0,59.0,2883268471-290842.jpg,2901947448-70314.jpg,3.0,,,,A1ILCIHMXPNTMT
255,80,,1.0,60.0,2964218374-144967.jpg,2883254439-140940.jpg,2.0,,,,A1ILCIHMXPNTMT
256,81,,1.0,61.0,2898624426-291546.jpg,2981235446-294900.jpg,3.0,,,,A1ILCIHMXPNTMT
257,82,,1.0,62.0,2981241414-145842.jpg,2874301404-139813.jpg,2.0,,,,A1ILCIHMXPNTMT
258,83,,1.0,63.0,2238480677-317399.jpg,2238480278-19661.jpg,3.0,,,,A1ILCIHMXPNTMT
259,84,,1.0,64.0,2864907432-362042.jpg,2864901420-212147.jpg,1.0,,,,A1ILCIHMXPNTMT
260,20,,1.0,0.0,2238481928-19949.jpg,2864900357-361688.jpg,2.0,,,,A2MV1R6YYOIO30
261,21,,1.0,1.0,2238572663-35822.jpg,2986419333-73361.jpg,1.0,,,,A2MV1R6YYOIO30
262,22,,1.0,2.0,2460547508-51571.jpg,2901941438-69835.jpg,3.0,,,,A2MV1R6YYOIO30
263,23,,1.0,3.0,2901948350-218459.jpg,2981246360-220352.jpg,3.0,,,,A2MV1R6YYOIO30
264,24,,1.0,4.0,2981231403-71642.jpg,2274829821-263682.jpg,1.0,,,,A2MV1R6YYOIO30
265,25,,1.0,5.0,2449442529-124446.jpg,2446759803-49251.jpg,1.0,,,,A2MV1R6YYOIO30
266,26,,1.0,6.0,2883254439-140941.jpg,2898632385-217136.jpg,2.0,,,,A2MV1R6YYOIO30
267,27,,1.0,7.0,2874303365-214262.jpg,2238563377-332054.jpg,2.0,,,,A2MV1R6YYOIO30
268,28,,1.0,8.0,2901952513-70703.jpg,2238481198-19821.jpg,3.0,,,,A2MV1R6YYOIO30
269,29,,1.0,9.0,2883268412-365898.jpg,2984626312-370849.jpg,1.0,,,,A2MV1R6YYOIO30
270,30,,1.0,10.0,2964218374-144967.jpg,2883254439-140940.jpg,2.0,,,,A2MV1R6YYOIO30
271,31,,1.0,11.0,2964216465-219242.jpg,2864900319-137787.jpg,2.0,,,,A2MV1R6YYOIO30
272,32,,1.0,12.0,2874299429-139695.jpg,2901942443-69923.jpg,2.0,,,,A2MV1R6YYOIO30
273,33,,1.0,13.0,2874307433-66280.jpg,2986447306-296584.jpg,1.0,,,,A2MV1R6YYOIO30
274,34,left,1.0,14.0,left.jpg,,,left,1.0717,,A2MV1R6YYOIO30
275,35,,1.0,15.0,2238425482-313537.jpg,2898633480-217190.jpg,3.0,,,,A2MV1R6YYOIO30
276,36,,1.0,16.0,2446759347-347016.jpg,2964224310-219528.jpg,1.0,,,,A2MV1R6YYOIO30
277,37,,1.0,17.0,2964223381-294447.jpg,2898628438-68785.jpg,3.0,,,,A2MV1R6YYOIO30
278,38,,1.0,18.0,2452381505-199546.jpg,2238567168-34916.jpg,2.0,,,,A2MV1R6YYOIO30
279,39,,1.0,19.0,2964213381-294060.jpg,2458348012-349114.jpg,2.0,,,,A2MV1R6YYOIO30
280,40,,1.0,20.0,2592380177-354626.jpg,2238117096-228518.jpg,3.0,,,,A2MV1R6YYOIO30
281,41,,1.0,21.0,2238481198-19822.jpg,2238480803-19737.jpg,3.0,,,,A2MV1R6YYOIO30
282,42,,1.0,22.0,2898624426-291546.jpg,2964218432-369263.jpg,1.0,,,,A2MV1R6YYOIO30
283,43,right,1.0,23.0,right.jpg,,,right,1.128,,A2MV1R6YYOIO30
284,44,,1.0,24.0,2986451363-73599.jpg,2860302315-210704.jpg,2.0,,,,A2MV1R6YYOIO30
285,45,,1.0,25.0,2874301407-363895.jpg,2901947323-70275.jpg,3.0,,,,A2MV1R6YYOIO30
286,46,,1.0,26.0,2901947423-70311.jpg,2860312398-62572.jpg,1.0,,,,A2MV1R6YYOIO30
287,47,,1.0,27.0,2864907432-362042.jpg,2864901420-212147.jpg,1.0,,,,A2MV1R6YYOIO30
288,48,,1.0,28.0,2238580740-186218.jpg,2238550816-254000.jpg,1.0,,,,A2MV1R6YYOIO30
289,49,,1.0,29.0,2512875899-126682.jpg,2460547536-274179.jpg,1.0,,,,A2MV1R6YYOIO30
290,50,,1.0,30.0,2460547467-349422.jpg,2868487415-213924.jpg,2.0,,,,A2MV1R6YYOIO30
291,51,,1.0,31.0,2883268471-290842.jpg,2901947448-70314.jpg,3.0,,,,A2MV1R6YYOIO30
292,52,,1.0,32.0,2452380832-348593.jpg,2449442181-272436.jpg,3.0,,,,A2MV1R6YYOIO30
293,53,,1.0,33.0,2446759803-49249.jpg,2898618440-216547.jpg,2.0,,,,A2MV1R6YYOIO30
294,54,right,1.0,34.0,right.jpg,,,right,1.062,,A2MV1R6YYOIO30
295,55,,1.0,35.0,2449441881-272368.jpg,2883268412-365899.jpg,1.0,,,,A2MV1R6YYOIO30
296,56,,1.0,36.0,2575120738-55529.jpg,2575120738-55528.jpg,2.0,,,,A2MV1R6YYOIO30
297,57,,1.0,37.0,2874302418-65979.jpg,2413147898-43548.jpg,1.0,,,,A2MV1R6YYOIO30
298,58,,1.0,38.0,2460547467-349421.jpg,2898631394-142727.jpg,1.0,,,,A2MV1R6YYOIO30
299,59,,1.0,39.0,2901939379-143479.jpg,2446758985-197610.jpg,2.0,,,,A2MV1R6YYOIO30
300,60,,1.0,40.0,2874302418-65978.jpg,2898633321-291943.jpg,3.0,,,,A2MV1R6YYOIO30
301,61,,1.0,41.0,2592379964-131054.jpg,2592380272-354673.jpg,3.0,,,,A2MV1R6YYOIO30
302,62,,0.0,42.0,right.jpg,,,right,,,A2MV1R6YYOIO30
303,63,,1.0,43.0,2238480677-317399.jpg,2238480278-19661.jpg,3.0,,,,A2MV1R6YYOIO30
304,64,,1.0,44.0,2446758985-197609.jpg,2981240424-145795.jpg,1.0,,,,A2MV1R6YYOIO30
305,65,,1.0,45.0,2901939379-143480.jpg,2901938432-367629.jpg,3.0,,,,A2MV1R6YYOIO30
306,66,,1.0,46.0,2898634397-367080.jpg,2237944827-301472.jpg,1.0,,,,A2MV1R6YYOIO30
307,67,,1.0,47.0,2868475410-213219.jpg,2868474407-362885.jpg,3.0,,,,A2MV1R6YYOIO30
308,68,,1.0,48.0,2238560245-182099.jpg,2874314526-289684.jpg,2.0,,,,A2MV1R6YYOIO30
309,69,left,1.0,49.0,left.jpg,,,left,1.1695,,A2MV1R6YYOIO30
310,70,,1.0,50.0,2981241414-145842.jpg,2874301404-139813.jpg,2.0,,,,A2MV1R6YYOIO30
311,71,,1.0,51.0,2592380177-354629.jpg,2898633421-291974.jpg,1.0,,,,A2MV1R6YYOIO30
312,72,,1.0,52.0,2898635427-367120.jpg,2868479517-363220.jpg,2.0,,,,A2MV1R6YYOIO30
313,73,,1.0,53.0,2898633421-291973.jpg,2238550049-105691.jpg,3.0,,,,A2MV1R6YYOIO30
314,74,,1.0,54.0,2864910426-287204.jpg,2901939433-69672.jpg,3.0,,,,A2MV1R6YYOIO30
315,75,,1.0,55.0,2458347385-199723.jpg,2427874554-121863.jpg,2.0,,,,A2MV1R6YYOIO30
316,76,,1.0,56.0,2898617468-68274.jpg,2901943387-368037.jpg,2.0,,,,A2MV1R6YYOIO30
317,77,,1.0,57.0,2883256307-365057.jpg,2864904453-63933.jpg,3.0,,,,A2MV1R6YYOIO30
318,78,,1.0,58.0,2449442529-124445.jpg,2898632385-217137.jpg,3.0,,,,A2MV1R6YYOIO30
319,79,,1.0,59.0,2898618390-216538.jpg,2901939327-367670.jpg,2.0,,,,A2MV1R6YYOIO30
320,80,,1.0,60.0,2898618444-142233.jpg,2898631359-142721.jpg,1.0,,,,A2MV1R6YYOIO30
321,81,,1.0,61.0,2238428357-313623.jpg,2984615361-295509.jpg,2.0,,,,A2MV1R6YYOIO30
322,82,,1.0,62.0,2901941401-292798.jpg,2898618327-366317.jpg,1.0,,,,A2MV1R6YYOIO30
323,83,,1.0,63.0,2868474407-362883.jpg,2238516618-25604.jpg,1.0,,,,A2MV1R6YYOIO30
324,84,,1.0,64.0,2898635428-69104.jpg,2898625336-291572.jpg,3.0,,,,A2MV1R6YYOIO30
325,20,,1.0,0.0,2449442529-124446.jpg,2446759803-49251.jpg,1.0,,,,A2O70SKSNWL8LQ
326,21,,1.0,1.0,2901948350-218459.jpg,2981246360-220352.jpg,3.0,,,,A2O70SKSNWL8LQ
327,22,,1.0,2.0,2238425482-313537.jpg,2238471391-240918.jpg,1.0,,,,A2O70SKSNWL8LQ
328,23,,1.0,3.0,2874302418-65978.jpg,2898626385-216899.jpg,1.0,,,,A2O70SKSNWL8LQ
329,24,,1.0,4.0,2874307433-66280.jpg,2981246400-220365.jpg,2.0,,,,A2O70SKSNWL8LQ
330,25,,1.0,5.0,2883254439-140941.jpg,2898632385-217136.jpg,2.0,,,,A2O70SKSNWL8LQ
331,26,,1.0,6.0,2868475410-213219.jpg,2238480803-19739.jpg,2.0,,,,A2O70SKSNWL8LQ
332,27,,1.0,7.0,2964216465-219242.jpg,2238544191-252422.jpg,1.0,,,,A2O70SKSNWL8LQ
333,28,,1.0,8.0,2964218374-144967.jpg,2981231446-294732.jpg,3.0,,,,A2O70SKSNWL8LQ
334,29,left,1.0,9.0,left.jpg,,,left,1.278,,A2O70SKSNWL8LQ
335,30,,1.0,10.0,2964223381-294447.jpg,2898628438-68785.jpg,3.0,,,,A2O70SKSNWL8LQ
336,31,,1.0,11.0,2446759803-49249.jpg,2898618440-216547.jpg,2.0,,,,A2O70SKSNWL8LQ
337,32,,1.0,12.0,2898618390-216538.jpg,2575120609-129862.jpg,3.0,,,,A2O70SKSNWL8LQ
338,33,,1.0,13.0,2864907432-362042.jpg,2901947423-70310.jpg,2.0,,,,A2O70SKSNWL8LQ
339,34,,1.0,14.0,2458347385-199723.jpg,2238480434-93829.jpg,1.0,,,,A2O70SKSNWL8LQ
340,35,,1.0,15.0,2986451363-73599.jpg,2901939327-367669.jpg,1.0,,,,A2O70SKSNWL8LQ
341,36,,1.0,16.0,2864910426-287204.jpg,2874299429-139694.jpg,2.0,,,,A2O70SKSNWL8LQ
342,37,right,1.0,17.0,right.jpg,,,right,1.029,,A2O70SKSNWL8LQ
343,38,,1.0,18.0,2575120738-55529.jpg,2238531493-28260.jpg,3.0,,,,A2O70SKSNWL8LQ
344,39,,1.0,19.0,2874299429-139695.jpg,2446760917-347439.jpg,3.0,,,,A2O70SKSNWL8LQ
345,40,,1.0,20.0,2238572663-35822.jpg,2986419333-73361.jpg,1.0,,,,A2O70SKSNWL8LQ
346,41,,1.0,21.0,2452381505-199546.jpg,2994401319-148290.jpg,3.0,,,,A2O70SKSNWL8LQ
347,42,,1.0,22.0,2981231403-71642.jpg,2427873763-47290.jpg,3.0,,,,A2O70SKSNWL8LQ
348,43,,1.0,23.0,2898635427-367120.jpg,2898621427-366486.jpg,3.0,,,,A2O70SKSNWL8LQ
349,44,,1.0,24.0,2238580740-186218.jpg,2238550816-254000.jpg,1.0,,,,A2O70SKSNWL8LQ
350,45,,1.0,25.0,2449442529-124445.jpg,2986408373-73286.jpg,2.0,,,,A2O70SKSNWL8LQ
351,46,,1.0,26.0,2460547467-349422.jpg,2898618440-216545.jpg,1.0,,,,A2O70SKSNWL8LQ
352,47,,1.0,27.0,2512875899-126682.jpg,2986447332-371497.jpg,3.0,,,,A2O70SKSNWL8LQ
353,48,,1.0,28.0,2898624426-291546.jpg,2981236443-71859.jpg,2.0,,,,A2O70SKSNWL8LQ
354,49,,1.0,29.0,2901941401-292798.jpg,2981243412-370222.jpg,2.0,,,,A2O70SKSNWL8LQ
355,50,,1.0,30.0,2883256307-365057.jpg,2864904453-63933.jpg,3.0,,,,A2O70SKSNWL8LQ
356,51,,1.0,31.0,2460547467-349421.jpg,2981235446-294901.jpg,3.0,,,,A2O70SKSNWL8LQ
357,52,,1.0,32.0,2592380177-354629.jpg,2512875587-350044.jpg,3.0,,,,A2O70SKSNWL8LQ
358,53,,1.0,33.0,2592380177-354626.jpg,2238117096-228518.jpg,3.0,,,,A2O70SKSNWL8LQ
359,54,,0.0,34.0,right.jpg,,,right,,,A2O70SKSNWL8LQ
360,55,,1.0,35.0,2883268471-290842.jpg,2883268471-290843.jpg,1.0,,,,A2O70SKSNWL8LQ
361,56,,1.0,36.0,2238560245-182099.jpg,2238480980-168129.jpg,3.0,,,,A2O70SKSNWL8LQ
362,57,,1.0,37.0,2592379964-131054.jpg,2238479053-19457.jpg,2.0,,,,A2O70SKSNWL8LQ
363,58,,1.0,38.0,2874302418-65979.jpg,2413147898-43548.jpg,1.0,,,,A2O70SKSNWL8LQ
364,59,,1.0,39.0,2901939379-143479.jpg,2981240424-145794.jpg,3.0,,,,A2O70SKSNWL8LQ
365,60,left,1.0,40.0,left.jpg,,,left,1.212,,A2O70SKSNWL8LQ
366,61,,1.0,41.0,2446758985-197609.jpg,2864909447-362144.jpg,2.0,,,,A2O70SKSNWL8LQ
367,62,,1.0,42.0,2874301407-363895.jpg,2883264368-67631.jpg,1.0,,,,A2O70SKSNWL8LQ
368,63,,1.0,43.0,2460547508-51571.jpg,2460547291-274110.jpg,1.0,,,,A2O70SKSNWL8LQ
369,64,,1.0,44.0,2964213381-294060.jpg,2458348012-349114.jpg,2.0,,,,A2O70SKSNWL8LQ
370,65,,1.0,45.0,2901952513-70703.jpg,2868469411-287540.jpg,2.0,,,,A2O70SKSNWL8LQ
371,66,right,1.0,46.0,right.jpg,,,right,1.153,,A2O70SKSNWL8LQ
372,67,,1.0,47.0,2238481928-19949.jpg,2883264367-365620.jpg,1.0,,,,A2O70SKSNWL8LQ
373,68,,1.0,48.0,2901939379-143480.jpg,2901942428-69919.jpg,1.0,,,,A2O70SKSNWL8LQ
374,69,,1.0,49.0,2898633421-291973.jpg,2512876023-52283.jpg,1.0,,,,A2O70SKSNWL8LQ
375,70,,1.0,50.0,2449441881-272368.jpg,2984615358-72439.jpg,2.0,,,,A2O70SKSNWL8LQ
376,71,,1.0,51.0,2898617468-68274.jpg,2964207374-144577.jpg,3.0,,,,A2O70SKSNWL8LQ
377,72,,1.0,52.0,2898634397-367080.jpg,2237944827-301472.jpg,1.0,,,,A2O70SKSNWL8LQ
378,73,,1.0,53.0,2452380832-348593.jpg,2238328478-11678.jpg,1.0,,,,A2O70SKSNWL8LQ
379,74,,1.0,54.0,2446759347-347016.jpg,2238569117-333045.jpg,3.0,,,,A2O70SKSNWL8LQ
380,75,,1.0,55.0,2898635428-69104.jpg,2898625336-291572.jpg,3.0,,,,A2O70SKSNWL8LQ
381,76,,1.0,56.0,2238480677-317399.jpg,2238573546-258454.jpg,2.0,,,,A2O70SKSNWL8LQ
382,77,,1.0,57.0,2238481198-19822.jpg,2901946436-293242.jpg,2.0,,,,A2O70SKSNWL8LQ
383,78,,1.0,58.0,2981241414-145842.jpg,2856919327-359676.jpg,1.0,,,,A2O70SKSNWL8LQ
384,79,,1.0,59.0,2868474407-362883.jpg,2981246400-220363.jpg,2.0,,,,A2O70SKSNWL8LQ
385,80,,1.0,60.0,2874303365-214262.jpg,2609793677-355397.jpg,1.0,,,,A2O70SKSNWL8LQ
386,81,,1.0,61.0,2883268412-365898.jpg,2984615361-295510.jpg,2.0,,,,A2O70SKSNWL8LQ
387,82,,1.0,62.0,2901947423-70311.jpg,2238577590-185467.jpg,3.0,,,,A2O70SKSNWL8LQ
388,83,,1.0,63.0,2238428357-313623.jpg,2984615361-295509.jpg,2.0,,,,A2O70SKSNWL8LQ
389,84,,1.0,64.0,2898618444-142233.jpg,2238555262-330312.jpg,2.0,,,,A2O70SKSNWL8LQ
390,20,,1.0,0.0,2238481928-19949.jpg,2864900357-361688.jpg,2.0,,,,A2T5CROJ0FWIJY
391,21,,1.0,1.0,2238572663-35822.jpg,2986419333-73361.jpg,1.0,,,,A2T5CROJ0FWIJY
392,22,,1.0,2.0,2460547508-51571.jpg,2901941438-69835.jpg,3.0,,,,A2T5CROJ0FWIJY
393,23,,1.0,3.0,2901948350-218459.jpg,2981246360-220352.jpg,3.0,,,,A2T5CROJ0FWIJY
394,24,,1.0,4.0,2981231403-71642.jpg,2274829821-263682.jpg,1.0,,,,A2T5CROJ0FWIJY
395,25,,1.0,5.0,2449442529-124446.jpg,2446759803-49251.jpg,1.0,,,,A2T5CROJ0FWIJY
396,26,,1.0,6.0,2883254439-140941.jpg,2898632385-217136.jpg,2.0,,,,A2T5CROJ0FWIJY
397,27,,1.0,7.0,2874303365-214262.jpg,2238563377-332054.jpg,2.0,,,,A2T5CROJ0FWIJY
398,28,,1.0,8.0,2901952513-70703.jpg,2238481198-19821.jpg,3.0,,,,A2T5CROJ0FWIJY
399,29,,1.0,9.0,2883268412-365898.jpg,2984626312-370849.jpg,1.0,,,,A2T5CROJ0FWIJY
400,30,,1.0,10.0,2964218374-144967.jpg,2883254439-140940.jpg,2.0,,,,A2T5CROJ0FWIJY
401,31,,1.0,11.0,2964216465-219242.jpg,2864900319-137787.jpg,2.0,,,,A2T5CROJ0FWIJY
402,32,,1.0,12.0,2874299429-139695.jpg,2901942443-69923.jpg,2.0,,,,A2T5CROJ0FWIJY
403,33,,1.0,13.0,2874307433-66280.jpg,2986447306-296584.jpg,1.0,,,,A2T5CROJ0FWIJY
404,34,left,1.0,14.0,left.jpg,,,left,0.6097,,A2T5CROJ0FWIJY
405,35,,1.0,15.0,2238425482-313537.jpg,2898633480-217190.jpg,3.0,,,,A2T5CROJ0FWIJY
406,36,,1.0,16.0,2446759347-347016.jpg,2964224310-219528.jpg,1.0,,,,A2T5CROJ0FWIJY
407,37,,1.0,17.0,2964223381-294447.jpg,2898628438-68785.jpg,3.0,,,,A2T5CROJ0FWIJY
408,38,,1.0,18.0,2452381505-199546.jpg,2238567168-34916.jpg,2.0,,,,A2T5CROJ0FWIJY
409,39,,1.0,19.0,2964213381-294060.jpg,2458348012-349114.jpg,2.0,,,,A2T5CROJ0FWIJY
410,40,,1.0,20.0,2592380177-354626.jpg,2238117096-228518.jpg,3.0,,,,A2T5CROJ0FWIJY
411,41,,1.0,21.0,2238481198-19822.jpg,2238480803-19737.jpg,3.0,,,,A2T5CROJ0FWIJY
412,42,,1.0,22.0,2898624426-291546.jpg,2964218432-369263.jpg,1.0,,,,A2T5CROJ0FWIJY
413,43,right,1.0,23.0,right.jpg,,,right,0.6082,,A2T5CROJ0FWIJY
414,44,,1.0,24.0,2986451363-73599.jpg,2860302315-210704.jpg,2.0,,,,A2T5CROJ0FWIJY
415,45,,1.0,25.0,2874301407-363895.jpg,2901947323-70275.jpg,3.0,,,,A2T5CROJ0FWIJY
416,46,,1.0,26.0,2901947423-70311.jpg,2860312398-62572.jpg,1.0,,,,A2T5CROJ0FWIJY
417,47,,1.0,27.0,2864907432-362042.jpg,2864901420-212147.jpg,1.0,,,,A2T5CROJ0FWIJY
418,48,,1.0,28.0,2238580740-186218.jpg,2238550816-254000.jpg,1.0,,,,A2T5CROJ0FWIJY
419,49,,1.0,29.0,2512875899-126682.jpg,2460547536-274179.jpg,1.0,,,,A2T5CROJ0FWIJY
420,50,,1.0,30.0,2460547467-349422.jpg,2868487415-213924.jpg,2.0,,,,A2T5CROJ0FWIJY
421,51,,1.0,31.0,2883268471-290842.jpg,2901947448-70314.jpg,3.0,,,,A2T5CROJ0FWIJY
422,52,,1.0,32.0,2452380832-348593.jpg,2449442181-272436.jpg,3.0,,,,A2T5CROJ0FWIJY
423,53,,1.0,33.0,2446759803-49249.jpg,2898618440-216547.jpg,2.0,,,,A2T5CROJ0FWIJY
424,54,right,1.0,34.0,right.jpg,,,right,0.6028,,A2T5CROJ0FWIJY
425,55,,1.0,35.0,2449441881-272368.jpg,2883268412-365899.jpg,1.0,,,,A2T5CROJ0FWIJY
426,56,,1.0,36.0,2575120738-55529.jpg,2575120738-55528.jpg,2.0,,,,A2T5CROJ0FWIJY
427,57,,1.0,37.0,2874302418-65979.jpg,2413147898-43548.jpg,1.0,,,,A2T5CROJ0FWIJY
428,58,,1.0,38.0,2460547467-349421.jpg,2898631394-142727.jpg,1.0,,,,A2T5CROJ0FWIJY
429,59,,1.0,39.0,2901939379-143479.jpg,2446758985-197610.jpg,2.0,,,,A2T5CROJ0FWIJY
430,60,,1.0,40.0,2874302418-65978.jpg,2898633321-291943.jpg,3.0,,,,A2T5CROJ0FWIJY
431,61,,1.0,41.0,2592379964-131054.jpg,2592380272-354673.jpg,3.0,,,,A2T5CROJ0FWIJY
432,62,right,1.0,42.0,right.jpg,,,right,0.61,,A2T5CROJ0FWIJY
433,63,,1.0,43.0,2238480677-317399.jpg,2238480278-19661.jpg,3.0,,,,A2T5CROJ0FWIJY
434,64,,1.0,44.0,2446758985-197609.jpg,2981240424-145795.jpg,1.0,,,,A2T5CROJ0FWIJY
435,65,,1.0,45.0,2901939379-143480.jpg,2901938432-367629.jpg,3.0,,,,A2T5CROJ0FWIJY
436,66,,1.0,46.0,2898634397-367080.jpg,2237944827-301472.jpg,1.0,,,,A2T5CROJ0FWIJY
437,67,,1.0,47.0,2868475410-213219.jpg,2868474407-362885.jpg,3.0,,,,A2T5CROJ0FWIJY
438,68,,1.0,48.0,2238560245-182099.jpg,2874314526-289684.jpg,2.0,,,,A2T5CROJ0FWIJY
439,69,left,1.0,49.0,left.jpg,,,left,0.6418,,A2T5CROJ0FWIJY
440,70,,1.0,50.0,2981241414-145842.jpg,2874301404-139813.jpg,2.0,,,,A2T5CROJ0FWIJY
441,71,,1.0,51.0,2592380177-354629.jpg,2898633421-291974.jpg,1.0,,,,A2T5CROJ0FWIJY
442,72,,1.0,52.0,2898635427-367120.jpg,2868479517-363220.jpg,2.0,,,,A2T5CROJ0FWIJY
443,73,,1.0,53.0,2898633421-291973.jpg,2238550049-105691.jpg,3.0,,,,A2T5CROJ0FWIJY
444,74,,1.0,54.0,2864910426-287204.jpg,2901939433-69672.jpg,3.0,,,,A2T5CROJ0FWIJY
445,75,,1.0,55.0,2458347385-199723.jpg,2427874554-121863.jpg,2.0,,,,A2T5CROJ0FWIJY
446,76,,1.0,56.0,2898617468-68274.jpg,2901943387-368037.jpg,2.0,,,,A2T5CROJ0FWIJY
447,77,,1.0,57.0,2883256307-365057.jpg,2864904453-63933.jpg,3.0,,,,A2T5CROJ0FWIJY
448,78,,1.0,58.0,2449442529-124445.jpg,2898632385-217137.jpg,3.0,,,,A2T5CROJ0FWIJY
449,79,,1.0,59.0,2898618390-216538.jpg,2901939327-367670.jpg,2.0,,,,A2T5CROJ0FWIJY
450,80,,1.0,60.0,2898618444-142233.jpg,2898631359-142721.jpg,1.0,,,,A2T5CROJ0FWIJY
451,81,,1.0,61.0,2238428357-313623.jpg,2984615361-295509.jpg,2.0,,,,A2T5CROJ0FWIJY
452,82,,1.0,62.0,2901941401-292798.jpg,2898618327-366317.jpg,1.0,,,,A2T5CROJ0FWIJY
453,83,,1.0,63.0,2868474407-362883.jpg,2238516618-25604.jpg,1.0,,,,A2T5CROJ0FWIJY
454,84,,1.0,64.0,2898635428-69104.jpg,2898625336-291572.jpg,3.0,,,,A2T5CROJ0FWIJY
455,20,,1.0,0.0,2238428357-313623.jpg,2984615361-295509.jpg,2.0,,,,A387FNIV21H4T2
456,21,,1.0,1.0,2898624426-291546.jpg,2981235446-294900.jpg,3.0,,,,A387FNIV21H4T2
457,22,,1.0,2.0,2901948350-218459.jpg,2981246360-220352.jpg,3.0,,,,A387FNIV21H4T2
458,23,,1.0,3.0,2868475410-213219.jpg,2901946465-218350.jpg,1.0,,,,A387FNIV21H4T2
459,24,,1.0,4.0,2446759803-49249.jpg,2452380166-273109.jpg,3.0,,,,A387FNIV21H4T2
460,25,,1.0,5.0,2964216465-219242.jpg,2864900319-137787.jpg,2.0,,,,A387FNIV21H4T2
461,26,,1.0,6.0,2592379964-131054.jpg,2238479053-19457.jpg,2.0,,,,A387FNIV21H4T2
462,27,,1.0,7.0,2898618444-142233.jpg,2238555262-330312.jpg,2.0,,,,A387FNIV21H4T2
463,28,,1.0,8.0,2981231403-71642.jpg,2981244403-72215.jpg,2.0,,,,A387FNIV21H4T2
464,29,,1.0,9.0,2446758985-197609.jpg,2898624426-291544.jpg,3.0,,,,A387FNIV21H4T2
465,30,,1.0,10.0,2986451363-73599.jpg,2860302315-210704.jpg,2.0,,,,A387FNIV21H4T2
466,31,left,1.0,11.0,left.jpg,,,left,1.1608,,A387FNIV21H4T2
467,32,,1.0,12.0,2864910426-287204.jpg,2901939433-69672.jpg,3.0,,,,A387FNIV21H4T2
468,33,,1.0,13.0,2874303365-214262.jpg,2238563377-332054.jpg,2.0,,,,A387FNIV21H4T2
469,34,,1.0,14.0,2238580740-186218.jpg,2964220333-71258.jpg,3.0,,,,A387FNIV21H4T2
470,35,,1.0,15.0,2898618390-216538.jpg,2901939327-367670.jpg,2.0,,,,A387FNIV21H4T2
471,36,,1.0,16.0,2449442529-124446.jpg,2460547536-274181.jpg,2.0,,,,A387FNIV21H4T2
472,37,,1.0,17.0,2874307433-66280.jpg,2981231422-369714.jpg,3.0,,,,A387FNIV21H4T2
473,38,left,1.0,18.0,left.jpg,,,left,0.9559,,A387FNIV21H4T2
474,39,,1.0,19.0,2238481198-19822.jpg,2238480803-19737.jpg,3.0,,,,A387FNIV21H4T2
475,40,,1.0,20.0,2460547467-349422.jpg,2864909447-362146.jpg,3.0,,,,A387FNIV21H4T2
476,41,,1.0,21.0,2901952513-70703.jpg,2864907361-287062.jpg,1.0,,,,A387FNIV21H4T2
477,42,,1.0,22.0,2460547467-349421.jpg,2981235446-294901.jpg,3.0,,,,A387FNIV21H4T2
478,43,,1.0,23.0,2458347385-199723.jpg,2427874554-121863.jpg,2.0,,,,A387FNIV21H4T2
479,44,,1.0,24.0,2592380177-354629.jpg,2512875587-350044.jpg,3.0,,,,A387FNIV21H4T2
480,45,,1.0,25.0,2901941401-292798.jpg,2981243412-370222.jpg,2.0,,,,A387FNIV21H4T2
481,46,,1.0,26.0,2592380177-354626.jpg,2986408339-146952.jpg,1.0,,,,A387FNIV21H4T2
482,47,,1.0,27.0,2864907432-362042.jpg,2864901420-212147.jpg,1.0,,,,A387FNIV21H4T2
483,48,,1.0,28.0,2901947423-70311.jpg,2238573447-333826.jpg,2.0,,,,A387FNIV21H4T2
484,49,right,1.0,29.0,right.jpg,,,right,1.0723,,A387FNIV21H4T2
485,50,,1.0,30.0,2883268412-365898.jpg,2984626312-370849.jpg,1.0,,,,A387FNIV21H4T2
486,51,,1.0,31.0,2874302418-65979.jpg,2238578544-111698.jpg,3.0,,,,A387FNIV21H4T2
487,52,,1.0,32.0,2874302418-65978.jpg,2898633321-291943.jpg,3.0,,,,A387FNIV21H4T2
488,53,,1.0,33.0,2898635428-69104.jpg,2901943411-292945.jpg,2.0,,,,A387FNIV21H4T2
489,54,,1.0,34.0,2981241414-145842.jpg,2856919327-359676.jpg,1.0,,,,A387FNIV21H4T2
490,55,,1.0,35.0,2460547508-51571.jpg,2460547291-274110.jpg,1.0,,,,A387FNIV21H4T2
491,56,,1.0,36.0,2238425482-313537.jpg,2898633480-217190.jpg,3.0,,,,A387FNIV21H4T2
492,57,,1.0,37.0,2575120738-55529.jpg,2238531493-28260.jpg,3.0,,,,A387FNIV21H4T2
493,58,,1.0,38.0,2238480677-317399.jpg,2238480278-19661.jpg,3.0,,,,A387FNIV21H4T2
494,59,,1.0,39.0,2964213381-294060.jpg,2981244394-145974.jpg,1.0,,,,A387FNIV21H4T2
495,60,,1.0,40.0,2883254439-140941.jpg,2446760844-124088.jpg,1.0,,,,A387FNIV21H4T2
496,61,left,1.0,41.0,left.jpg,,,left,1.0573,,A387FNIV21H4T2
497,62,,1.0,42.0,2898635427-367120.jpg,2901946439-144040.jpg,1.0,,,,A387FNIV21H4T2
498,63,,1.0,43.0,2964218374-144967.jpg,2981231446-294732.jpg,3.0,,,,A387FNIV21H4T2
499,64,,1.0,44.0,2874301407-363895.jpg,2883264368-67631.jpg,1.0,,,,A387FNIV21H4T2
500,65,,1.0,45.0,2898634397-367080.jpg,2237944827-301472.jpg,1.0,,,,A387FNIV21H4T2
501,66,,1.0,46.0,2449442529-124445.jpg,2452380171-273112.jpg,1.0,,,,A387FNIV21H4T2
502,67,,1.0,47.0,2452381505-199546.jpg,2901938432-367627.jpg,1.0,,,,A387FNIV21H4T2
503,68,,1.0,48.0,2901939379-143480.jpg,2901938432-367629.jpg,3.0,,,,A387FNIV21H4T2
504,69,,1.0,49.0,2238572663-35822.jpg,2864903351-286874.jpg,3.0,,,,A387FNIV21H4T2
505,70,,1.0,50.0,2964223381-294447.jpg,2901941438-69836.jpg,2.0,,,,A387FNIV21H4T2
506,71,,1.0,51.0,2238481928-19949.jpg,2883264367-365620.jpg,1.0,,,,A387FNIV21H4T2
507,72,left,1.0,52.0,left.jpg,,,left,1.2955,,A387FNIV21H4T2
508,73,,1.0,53.0,2238560245-182099.jpg,2874314526-289684.jpg,2.0,,,,A387FNIV21H4T2
509,74,,1.0,54.0,2898617468-68274.jpg,2864906345-212360.jpg,1.0,,,,A387FNIV21H4T2
510,75,,1.0,55.0,2901939379-143479.jpg,2446758985-197610.jpg,2.0,,,,A387FNIV21H4T2
511,76,,1.0,56.0,2898633421-291973.jpg,2512876023-52283.jpg,1.0,,,,A387FNIV21H4T2
512,77,,1.0,57.0,2449441881-272368.jpg,2883268412-365899.jpg,1.0,,,,A387FNIV21H4T2
513,78,,1.0,58.0,2452380832-348593.jpg,2238481813-19930.jpg,2.0,,,,A387FNIV21H4T2
514,79,,1.0,59.0,2512875899-126682.jpg,2986447332-371497.jpg,3.0,,,,A387FNIV21H4T2
515,80,,1.0,60.0,2868474407-362883.jpg,2238516618-25604.jpg,1.0,,,,A387FNIV21H4T2
516,81,,1.0,61.0,2446759347-347016.jpg,2901951350-218702.jpg,2.0,,,,A387FNIV21H4T2
517,82,,1.0,62.0,2874299429-139695.jpg,2883266388-67750.jpg,1.0,,,,A387FNIV21H4T2
518,83,,1.0,63.0,2883256307-365057.jpg,2964210336-293945.jpg,2.0,,,,A387FNIV21H4T2
519,84,,1.0,64.0,2883268471-290842.jpg,2883255450-215310.jpg,2.0,,,,A387FNIV21H4T2
520,20,,1.0,0.0,2868475410-213219.jpg,2901946465-218350.jpg,1.0,,,,A3BM2QI9E6G3KS
521,21,,1.0,1.0,2449442529-124445.jpg,2986408373-73286.jpg,2.0,,,,A3BM2QI9E6G3KS
522,22,,1.0,2.0,2864910426-287204.jpg,2864902304-137862.jpg,1.0,,,,A3BM2QI9E6G3KS
523,23,,1.0,3.0,2238428357-313623.jpg,2238499057-320266.jpg,1.0,,,,A3BM2QI9E6G3KS
524,24,,1.0,4.0,2898617468-68274.jpg,2964207374-144577.jpg,3.0,,,,A3BM2QI9E6G3KS
525,25,,1.0,5.0,2964223381-294447.jpg,2898628438-68785.jpg,3.0,,,,A3BM2QI9E6G3KS
526,26,,1.0,6.0,2592379964-131054.jpg,2592380272-354673.jpg,3.0,,,,A3BM2QI9E6G3KS
527,27,,1.0,7.0,2883254439-140941.jpg,2446760844-124088.jpg,1.0,,,,A3BM2QI9E6G3KS
528,28,,1.0,8.0,2898635428-69104.jpg,2446759803-49250.jpg,1.0,,,,A3BM2QI9E6G3KS
529,29,,1.0,9.0,2592380177-354629.jpg,2579432534-130704.jpg,2.0,,,,A3BM2QI9E6G3KS
530,30,,1.0,10.0,2883268471-290842.jpg,2883255450-215310.jpg,2.0,,,,A3BM2QI9E6G3KS
531,31,,1.0,11.0,2460547467-349421.jpg,2981235446-294901.jpg,3.0,,,,A3BM2QI9E6G3KS
532,32,,1.0,12.0,2898618444-142233.jpg,2238555262-330312.jpg,2.0,,,,A3BM2QI9E6G3KS
533,33,left,1.0,13.0,left.jpg,,,left,0.9756,,A3BM2QI9E6G3KS
534,34,,1.0,14.0,2460547508-51571.jpg,2460547291-274110.jpg,1.0,,,,A3BM2QI9E6G3KS
535,35,,1.0,15.0,2449442529-124446.jpg,2446759803-49251.jpg,1.0,,,,A3BM2QI9E6G3KS
536,36,,1.0,16.0,2868474407-362883.jpg,2901948383-70363.jpg,3.0,,,,A3BM2QI9E6G3KS
537,37,,1.0,17.0,2901947423-70311.jpg,2860312398-62572.jpg,1.0,,,,A3BM2QI9E6G3KS
538,38,,1.0,18.0,2458347385-199723.jpg,2238480434-93829.jpg,1.0,,,,A3BM2QI9E6G3KS
539,39,,1.0,19.0,2864907432-362042.jpg,2901947423-70310.jpg,2.0,,,,A3BM2QI9E6G3KS
540,40,right,1.0,20.0,right.jpg,,,right,0.9615,,A3BM2QI9E6G3KS
541,41,,1.0,21.0,2452381505-199546.jpg,2994401319-148290.jpg,3.0,,,,A3BM2QI9E6G3KS
542,42,,1.0,22.0,2452380832-348593.jpg,2449442181-272436.jpg,3.0,,,,A3BM2QI9E6G3KS
543,43,,1.0,23.0,2901952513-70703.jpg,2864907361-287062.jpg,1.0,,,,A3BM2QI9E6G3KS
544,44,,1.0,24.0,2575120738-55529.jpg,2238531493-28260.jpg,3.0,,,,A3BM2QI9E6G3KS
545,45,,1.0,25.0,2898618390-216538.jpg,2901939327-367670.jpg,2.0,,,,A3BM2QI9E6G3KS
546,46,,1.0,26.0,2238480677-317399.jpg,2238481630-168218.jpg,1.0,,,,A3BM2QI9E6G3KS
547,47,right,1.0,27.0,right.jpg,,,right,0.9733,,A3BM2QI9E6G3KS
548,48,,1.0,28.0,2874299429-139695.jpg,2901942443-69923.jpg,2.0,,,,A3BM2QI9E6G3KS
549,49,,1.0,29.0,2446759803-49249.jpg,2898618440-216547.jpg,2.0,,,,A3BM2QI9E6G3KS
550,50,,1.0,30.0,2592380177-354626.jpg,2238117096-228518.jpg,3.0,,,,A3BM2QI9E6G3KS
551,51,,1.0,31.0,2874303365-214262.jpg,2864911457-362260.jpg,3.0,,,,A3BM2QI9E6G3KS
552,52,,1.0,32.0,2986451363-73599.jpg,2860302315-210704.jpg,2.0,,,,A3BM2QI9E6G3KS
553,53,,1.0,33.0,2981241414-145842.jpg,2856919327-359676.jpg,1.0,,,,A3BM2QI9E6G3KS
554,54,,1.0,34.0,2238481198-19822.jpg,2862691449-137104.jpg,1.0,,,,A3BM2QI9E6G3KS
555,55,,1.0,35.0,2446759347-347016.jpg,2901951350-218702.jpg,2.0,,,,A3BM2QI9E6G3KS
556,56,,1.0,36.0,2446758985-197609.jpg,2898624426-291544.jpg,3.0,,,,A3BM2QI9E6G3KS
557,57,,1.0,37.0,2238425482-313537.jpg,2898633480-217190.jpg,3.0,,,,A3BM2QI9E6G3KS
558,58,,1.0,38.0,2874307433-66280.jpg,2981246400-220365.jpg,2.0,,,,A3BM2QI9E6G3KS
559,59,,1.0,39.0,2964216465-219242.jpg,2898619327-366362.jpg,3.0,,,,A3BM2QI9E6G3KS
560,60,left,1.0,40.0,left.jpg,,,left,0.9933,,A3BM2QI9E6G3KS
561,61,,1.0,41.0,2901939379-143480.jpg,2901938432-367629.jpg,3.0,,,,A3BM2QI9E6G3KS
562,62,,1.0,42.0,2901948350-218459.jpg,2804906319-133082.jpg,1.0,,,,A3BM2QI9E6G3KS
563,63,,1.0,43.0,2964218374-144967.jpg,2883254439-140940.jpg,2.0,,,,A3BM2QI9E6G3KS
564,64,,1.0,44.0,2898633421-291973.jpg,2575118671-277663.jpg,2.0,,,,A3BM2QI9E6G3KS
565,65,,1.0,45.0,2898624426-291546.jpg,2964218432-369263.jpg,1.0,,,,A3BM2QI9E6G3KS
566,66,,1.0,46.0,2981231403-71642.jpg,2981244403-72215.jpg,2.0,,,,A3BM2QI9E6G3KS
567,67,,1.0,47.0,2901939379-143479.jpg,2981240424-145794.jpg,3.0,,,,A3BM2QI9E6G3KS
568,68,,1.0,48.0,2460547467-349422.jpg,2898618440-216545.jpg,1.0,,,,A3BM2QI9E6G3KS
569,69,,1.0,49.0,2238481928-19949.jpg,2883264367-365620.jpg,1.0,,,,A3BM2QI9E6G3KS
570,70,,1.0,50.0,2512875899-126682.jpg,2986447332-371497.jpg,3.0,,,,A3BM2QI9E6G3KS
571,71,,1.0,51.0,2898635427-367120.jpg,2868479517-363220.jpg,2.0,,,,A3BM2QI9E6G3KS
572,72,,1.0,52.0,2449441881-272368.jpg,2984615358-72439.jpg,2.0,,,,A3BM2QI9E6G3KS
573,73,right,1.0,53.0,right.jpg,,,right,0.9704,,A3BM2QI9E6G3KS
574,74,,1.0,54.0,2898634397-367080.jpg,2964217461-294238.jpg,3.0,,,,A3BM2QI9E6G3KS
575,75,,1.0,55.0,2874302418-65979.jpg,2238480648-19714.jpg,2.0,,,,A3BM2QI9E6G3KS
576,76,,1.0,56.0,2238560245-182099.jpg,2238480980-168129.jpg,3.0,,,,A3BM2QI9E6G3KS
577,77,,1.0,57.0,2238580740-186218.jpg,2238521193-26285.jpg,2.0,,,,A3BM2QI9E6G3KS
578,78,,1.0,58.0,2901941401-292798.jpg,2898618327-366317.jpg,1.0,,,,A3BM2QI9E6G3KS
579,79,,1.0,59.0,2238572663-35822.jpg,2986419333-73361.jpg,1.0,,,,A3BM2QI9E6G3KS
580,80,,1.0,60.0,2883256307-365057.jpg,2611628310-206388.jpg,1.0,,,,A3BM2QI9E6G3KS
581,81,,1.0,61.0,2874301407-363895.jpg,2986397322-371109.jpg,2.0,,,,A3BM2QI9E6G3KS
582,82,,1.0,62.0,2883268412-365898.jpg,2238436252-314037.jpg,3.0,,,,A3BM2QI9E6G3KS
583,83,,1.0,63.0,2964213381-294060.jpg,2458348012-349114.jpg,2.0,,,,A3BM2QI9E6G3KS
584,84,,1.0,64.0,2874302418-65978.jpg,2898633321-291943.jpg,3.0,,,,A3BM2QI9E6G3KS
585,20,,1.0,0.0,2592379964-131054.jpg,2575963989-130576.jpg,1.0,,,,A3EVLXA6P3XRBU
586,21,,1.0,1.0,2964223381-294447.jpg,2898628438-68785.jpg,3.0,,,,A3EVLXA6P3XRBU
587,22,,1.0,2.0,2883254439-140941.jpg,2981231446-294730.jpg,3.0,,,,A3EVLXA6P3XRBU
588,23,,1.0,3.0,2964213381-294060.jpg,2964213381-294061.jpg,3.0,,,,A3EVLXA6P3XRBU
589,24,,1.0,4.0,2898624426-291546.jpg,2981236443-71859.jpg,2.0,,,,A3EVLXA6P3XRBU
590,25,,1.0,5.0,2868475410-213219.jpg,2238480803-19739.jpg,2.0,,,,A3EVLXA6P3XRBU
591,26,,1.0,6.0,2874307433-66280.jpg,2981231422-369714.jpg,3.0,,,,A3EVLXA6P3XRBU
592,27,,1.0,7.0,2898617468-68274.jpg,2901943387-368037.jpg,2.0,,,,A3EVLXA6P3XRBU
593,28,left,1.0,8.0,left.jpg,,,left,0.927,,A3EVLXA6P3XRBU
594,29,,1.0,9.0,2446759347-347016.jpg,2901951350-218702.jpg,2.0,,,,A3EVLXA6P3XRBU
595,30,,1.0,10.0,2898618390-216538.jpg,2575120609-129862.jpg,3.0,,,,A3EVLXA6P3XRBU
596,31,,1.0,11.0,2238580740-186218.jpg,2238550816-254000.jpg,1.0,,,,A3EVLXA6P3XRBU
597,32,,1.0,12.0,2874302418-65979.jpg,2238578544-111698.jpg,3.0,,,,A3EVLXA6P3XRBU
598,33,,1.0,13.0,2592380177-354626.jpg,2986408339-146952.jpg,1.0,,,,A3EVLXA6P3XRBU
599,34,,1.0,14.0,2864907432-362042.jpg,2901947423-70310.jpg,2.0,,,,A3EVLXA6P3XRBU
600,35,,1.0,15.0,2238425482-313537.jpg,2898633480-217190.jpg,3.0,,,,A3EVLXA6P3XRBU
601,36,,1.0,16.0,2575120738-55529.jpg,2238531493-28260.jpg,3.0,,,,A3EVLXA6P3XRBU
602,37,,1.0,17.0,2898633421-291973.jpg,2238550049-105691.jpg,3.0,,,,A3EVLXA6P3XRBU
603,38,,1.0,18.0,2446758985-197609.jpg,2864909447-362144.jpg,2.0,,,,A3EVLXA6P3XRBU
604,39,left,1.0,19.0,left.jpg,,,left,0.823,,A3EVLXA6P3XRBU
605,40,,1.0,20.0,2898635427-367120.jpg,2901946439-144040.jpg,1.0,,,,A3EVLXA6P3XRBU
606,41,,1.0,21.0,2238428357-313623.jpg,2238499057-320266.jpg,1.0,,,,A3EVLXA6P3XRBU
607,42,,1.0,22.0,2981241414-145842.jpg,2427873848-47312.jpg,3.0,,,,A3EVLXA6P3XRBU
608,43,,1.0,23.0,2449442529-124445.jpg,2986408373-73286.jpg,2.0,,,,A3EVLXA6P3XRBU
609,44,,1.0,24.0,2883256307-365057.jpg,2964210336-293945.jpg,2.0,,,,A3EVLXA6P3XRBU
610,45,,1.0,25.0,2512875899-126682.jpg,2986447332-371497.jpg,3.0,,,,A3EVLXA6P3XRBU
611,46,right,1.0,26.0,right.jpg,,,right,0.923,,A3EVLXA6P3XRBU
612,47,,1.0,27.0,2901939379-143479.jpg,2460547467-349423.jpg,1.0,,,,A3EVLXA6P3XRBU
613,48,,1.0,28.0,2874301407-363895.jpg,2883264368-67631.jpg,1.0,,,,A3EVLXA6P3XRBU
614,49,,1.0,29.0,2864910426-287204.jpg,2864902304-137862.jpg,1.0,,,,A3EVLXA6P3XRBU
615,50,,1.0,30.0,2460547467-349422.jpg,2864909447-362146.jpg,3.0,,,,A3EVLXA6P3XRBU
616,51,,1.0,31.0,2238480677-317399.jpg,2238480278-19661.jpg,3.0,,,,A3EVLXA6P3XRBU
617,52,,1.0,32.0,2449441881-272368.jpg,2984615358-72439.jpg,2.0,,,,A3EVLXA6P3XRBU
618,53,,1.0,33.0,2901952513-70703.jpg,2864907361-287062.jpg,1.0,,,,A3EVLXA6P3XRBU
619,54,,1.0,34.0,2964216465-219242.jpg,2238544191-252422.jpg,1.0,,,,A3EVLXA6P3XRBU
620,55,,1.0,35.0,2452381505-199546.jpg,2994401319-148290.jpg,3.0,,,,A3EVLXA6P3XRBU
621,56,,1.0,36.0,2868474407-362883.jpg,2238516618-25604.jpg,1.0,,,,A3EVLXA6P3XRBU
622,57,right,1.0,37.0,right.jpg,,,right,0.888,,A3EVLXA6P3XRBU
623,58,,1.0,38.0,2874302418-65978.jpg,2898626385-216899.jpg,1.0,,,,A3EVLXA6P3XRBU
624,59,,1.0,39.0,2981231403-71642.jpg,2274829821-263682.jpg,1.0,,,,A3EVLXA6P3XRBU
625,60,,1.0,40.0,2238560245-182099.jpg,2549106624-127823.jpg,1.0,,,,A3EVLXA6P3XRBU
626,61,,1.0,41.0,2452380832-348593.jpg,2238481813-19930.jpg,2.0,,,,A3EVLXA6P3XRBU
627,62,,1.0,42.0,2458347385-199723.jpg,2427874554-121863.jpg,2.0,,,,A3EVLXA6P3XRBU
628,63,,1.0,43.0,2898618444-142233.jpg,2898618444-142232.jpg,3.0,,,,A3EVLXA6P3XRBU
629,64,,1.0,44.0,2592380177-354629.jpg,2898633421-291974.jpg,1.0,,,,A3EVLXA6P3XRBU
630,65,,1.0,45.0,2874299429-139695.jpg,2901942443-69923.jpg,2.0,,,,A3EVLXA6P3XRBU
631,66,,1.0,46.0,2898635428-69104.jpg,2446759803-49250.jpg,1.0,,,,A3EVLXA6P3XRBU
632,67,,1.0,47.0,2874303365-214262.jpg,2238563377-332054.jpg,2.0,,,,A3EVLXA6P3XRBU
633,68,,1.0,48.0,2964218374-144967.jpg,2964218374-144968.jpg,1.0,,,,A3EVLXA6P3XRBU
634,69,,1.0,49.0,2883268412-365898.jpg,2238436252-314037.jpg,3.0,,,,A3EVLXA6P3XRBU
635,70,,1.0,50.0,2446759803-49249.jpg,2452380166-273109.jpg,3.0,,,,A3EVLXA6P3XRBU
636,71,,1.0,51.0,2901941401-292798.jpg,2981243412-370222.jpg,2.0,,,,A3EVLXA6P3XRBU
637,72,,1.0,52.0,2986451363-73599.jpg,2238434559-90406.jpg,3.0,,,,A3EVLXA6P3XRBU
638,73,,1.0,53.0,2460547508-51571.jpg,2981232437-369759.jpg,2.0,,,,A3EVLXA6P3XRBU
639,74,left,1.0,54.0,left.jpg,,,left,0.972,,A3EVLXA6P3XRBU
640,75,,1.0,55.0,2238481198-19822.jpg,2901946436-293242.jpg,2.0,,,,A3EVLXA6P3XRBU
641,76,,1.0,56.0,2883268471-290842.jpg,2883268471-290843.jpg,1.0,,,,A3EVLXA6P3XRBU
642,77,,1.0,57.0,2460547467-349421.jpg,2452380166-273110.jpg,2.0,,,,A3EVLXA6P3XRBU
643,78,,1.0,58.0,2901948350-218459.jpg,2804906319-133082.jpg,1.0,,,,A3EVLXA6P3XRBU
644,79,,1.0,59.0,2449442529-124446.jpg,2460547536-274181.jpg,2.0,,,,A3EVLXA6P3XRBU
645,80,,1.0,60.0,2238481928-19949.jpg,2864900357-361688.jpg,2.0,,,,A3EVLXA6P3XRBU
646,81,,1.0,61.0,2898634397-367080.jpg,2964217461-294238.jpg,3.0,,,,A3EVLXA6P3XRBU
647,82,,1.0,62.0,2901939379-143480.jpg,2901942428-69919.jpg,1.0,,,,A3EVLXA6P3XRBU
648,83,,1.0,63.0,2238572663-35822.jpg,2864903351-286874.jpg,3.0,,,,A3EVLXA6P3XRBU
649,84,,1.0,64.0,2901947423-70311.jpg,2238573447-333826.jpg,2.0,,,,A3EVLXA6P3XRBU
650,20,,1.0,0.0,2883254439-140941.jpg,2446760844-124088.jpg,1.0,,,,A3TI4G63J6VCKV
651,21,,1.0,1.0,2898635428-69104.jpg,2901943411-292945.jpg,2.0,,,,A3TI4G63J6VCKV
652,22,,1.0,2.0,2964216465-219242.jpg,2238544191-252422.jpg,1.0,,,,A3TI4G63J6VCKV
653,23,,1.0,3.0,2238425482-313537.jpg,2898633480-217190.jpg,3.0,,,,A3TI4G63J6VCKV
654,24,,1.0,4.0,2901941401-292798.jpg,2883273443-68193.jpg,3.0,,,,A3TI4G63J6VCKV
655,25,,1.0,5.0,2898617468-68274.jpg,2964207374-144577.jpg,3.0,,,,A3TI4G63J6VCKV
656,26,,1.0,6.0,2592379964-131054.jpg,2575963989-130576.jpg,1.0,,,,A3TI4G63J6VCKV
657,27,,1.0,7.0,2452381505-199546.jpg,2994401319-148290.jpg,3.0,,,,A3TI4G63J6VCKV
658,28,,1.0,8.0,2901952513-70703.jpg,2868469411-287540.jpg,2.0,,,,A3TI4G63J6VCKV
659,29,,1.0,9.0,2460547508-51571.jpg,2460547291-274110.jpg,1.0,,,,A3TI4G63J6VCKV
660,30,,1.0,10.0,2238580740-186218.jpg,2238521193-26285.jpg,2.0,,,,A3TI4G63J6VCKV
661,31,left,1.0,11.0,left.jpg,,,left,0.9586,,A3TI4G63J6VCKV
662,32,,1.0,12.0,2898633421-291973.jpg,2238550049-105691.jpg,3.0,,,,A3TI4G63J6VCKV
663,33,,1.0,13.0,2449442529-124446.jpg,2460547536-274181.jpg,2.0,,,,A3TI4G63J6VCKV
664,34,,1.0,14.0,2883268412-365898.jpg,2238436252-314037.jpg,3.0,,,,A3TI4G63J6VCKV
665,35,,1.0,15.0,2964213381-294060.jpg,2458348012-349114.jpg,2.0,,,,A3TI4G63J6VCKV
666,36,,1.0,16.0,2592380177-354629.jpg,2898633421-291974.jpg,1.0,,,,A3TI4G63J6VCKV
667,37,,1.0,17.0,2874303365-214262.jpg,2864911457-362260.jpg,3.0,,,,A3TI4G63J6VCKV
668,38,,1.0,18.0,2901939379-143479.jpg,2446758985-197610.jpg,2.0,,,,A3TI4G63J6VCKV
669,39,,1.0,19.0,2981241414-145842.jpg,2856919327-359676.jpg,1.0,,,,A3TI4G63J6VCKV
670,40,,1.0,20.0,2460547467-349422.jpg,2898618440-216545.jpg,1.0,,,,A3TI4G63J6VCKV
671,41,,1.0,21.0,2883268471-290842.jpg,2883268471-290843.jpg,1.0,,,,A3TI4G63J6VCKV
672,42,right,0.0,22.0,left.jpg,,,left,0.8383,,A3TI4G63J6VCKV
673,43,,1.0,23.0,2575120738-55529.jpg,2575120738-55528.jpg,2.0,,,,A3TI4G63J6VCKV
674,44,,1.0,24.0,2874301407-363895.jpg,2986397322-371109.jpg,2.0,,,,A3TI4G63J6VCKV
675,45,,1.0,25.0,2864907432-362042.jpg,2989726338-74002.jpg,3.0,,,,A3TI4G63J6VCKV
676,46,,1.0,26.0,2452380832-348593.jpg,2238328478-11678.jpg,1.0,,,,A3TI4G63J6VCKV
677,47,,1.0,27.0,2238428357-313623.jpg,2984615361-295509.jpg,2.0,,,,A3TI4G63J6VCKV
678,48,left,1.0,28.0,left.jpg,,,left,1.056,,A3TI4G63J6VCKV
679,49,,1.0,29.0,2898635427-367120.jpg,2898621427-366486.jpg,3.0,,,,A3TI4G63J6VCKV
680,50,,1.0,30.0,2874299429-139695.jpg,2446760917-347439.jpg,3.0,,,,A3TI4G63J6VCKV
681,51,,1.0,31.0,2898618444-142233.jpg,2898618444-142232.jpg,3.0,,,,A3TI4G63J6VCKV
682,52,,1.0,32.0,2238481198-19822.jpg,2901946436-293242.jpg,2.0,,,,A3TI4G63J6VCKV
683,53,,1.0,33.0,2238572663-35822.jpg,2864903351-286874.jpg,3.0,,,,A3TI4G63J6VCKV
684,54,,1.0,34.0,2449442529-124445.jpg,2986408373-73286.jpg,2.0,,,,A3TI4G63J6VCKV
685,55,,1.0,35.0,2446759803-49249.jpg,2898618440-216547.jpg,2.0,,,,A3TI4G63J6VCKV
686,56,,1.0,36.0,2898624426-291546.jpg,2981235446-294900.jpg,3.0,,,,A3TI4G63J6VCKV
687,57,,1.0,37.0,2883256307-365057.jpg,2964210336-293945.jpg,2.0,,,,A3TI4G63J6VCKV
688,58,,1.0,38.0,2592380177-354626.jpg,2986408339-146952.jpg,1.0,,,,A3TI4G63J6VCKV
689,59,,1.0,39.0,2986451363-73599.jpg,2238434559-90406.jpg,3.0,,,,A3TI4G63J6VCKV
690,60,,1.0,40.0,2238560245-182099.jpg,2874314526-289684.jpg,2.0,,,,A3TI4G63J6VCKV
691,61,right,1.0,41.0,right.jpg,,,right,1.0434,,A3TI4G63J6VCKV
692,62,,1.0,42.0,2460547467-349421.jpg,2452380166-273110.jpg,2.0,,,,A3TI4G63J6VCKV
693,63,,1.0,43.0,2449441881-272368.jpg,2984615358-72439.jpg,2.0,,,,A3TI4G63J6VCKV
694,64,,1.0,44.0,2238481928-19949.jpg,2981241419-145844.jpg,3.0,,,,A3TI4G63J6VCKV
695,65,,1.0,45.0,2874302418-65979.jpg,2413147898-43548.jpg,1.0,,,,A3TI4G63J6VCKV
696,66,,1.0,46.0,2901947423-70311.jpg,2238573447-333826.jpg,2.0,,,,A3TI4G63J6VCKV
697,67,,1.0,47.0,2981231403-71642.jpg,2274829821-263682.jpg,1.0,,,,A3TI4G63J6VCKV
698,68,,1.0,48.0,2901948350-218459.jpg,2804906319-133082.jpg,1.0,,,,A3TI4G63J6VCKV
699,69,,1.0,49.0,2864910426-287204.jpg,2864902304-137862.jpg,1.0,,,,A3TI4G63J6VCKV
700,70,,1.0,50.0,2458347385-199723.jpg,2427874554-121863.jpg,2.0,,,,A3TI4G63J6VCKV
701,71,,1.0,51.0,2512875899-126682.jpg,2592380177-354628.jpg,2.0,,,,A3TI4G63J6VCKV
702,72,,1.0,52.0,2964218374-144967.jpg,2964218374-144968.jpg,1.0,,,,A3TI4G63J6VCKV
703,73,,1.0,53.0,2446758985-197609.jpg,2898624426-291544.jpg,3.0,,,,A3TI4G63J6VCKV
704,74,right,1.0,54.0,right.jpg,,,right,1.1192,,A3TI4G63J6VCKV
705,75,,1.0,55.0,2898634397-367080.jpg,2237944827-301472.jpg,1.0,,,,A3TI4G63J6VCKV
706,76,,1.0,56.0,2446759347-347016.jpg,2238569117-333045.jpg,3.0,,,,A3TI4G63J6VCKV
707,77,,1.0,57.0,2874307433-66280.jpg,2981231422-369714.jpg,3.0,,,,A3TI4G63J6VCKV
708,78,,1.0,58.0,2901939379-143480.jpg,2981229442-369621.jpg,2.0,,,,A3TI4G63J6VCKV
709,79,,1.0,59.0,2898618390-216538.jpg,2986449336-296644.jpg,1.0,,,,A3TI4G63J6VCKV
710,80,,1.0,60.0,2874302418-65978.jpg,2898626385-216899.jpg,1.0,,,,A3TI4G63J6VCKV
711,81,,1.0,61.0,2238480677-317399.jpg,2238480278-19661.jpg,3.0,,,,A3TI4G63J6VCKV
712,82,,1.0,62.0,2868474407-362883.jpg,2901948383-70363.jpg,3.0,,,,A3TI4G63J6VCKV
713,83,,1.0,63.0,2964223381-294447.jpg,2427874231-269884.jpg,1.0,,,,A3TI4G63J6VCKV
714,84,,1.0,64.0,2868475410-213219.jpg,2901946465-218350.jpg,1.0,,,,A3TI4G63J6VCKV
715,20,,1.0,0.0,2883268412-365898.jpg,2984626312-370849.jpg,1.0,,,,A6IKEWK6FWOLC
716,21,,1.0,1.0,2449441881-272368.jpg,2984615358-72439.jpg,2.0,,,,A6IKEWK6FWOLC
717,22,,1.0,2.0,2874307433-66280.jpg,2981246400-220365.jpg,2.0,,,,A6IKEWK6FWOLC
718,23,,1.0,3.0,2575120738-55529.jpg,2575120738-55528.jpg,2.0,,,,A6IKEWK6FWOLC
719,24,,1.0,4.0,2901952513-70703.jpg,2868469411-287540.jpg,2.0,,,,A6IKEWK6FWOLC
720,25,,1.0,5.0,2964213381-294060.jpg,2964213381-294061.jpg,3.0,,,,A6IKEWK6FWOLC
721,26,,1.0,6.0,2864910426-287204.jpg,2864902304-137862.jpg,1.0,,,,A6IKEWK6FWOLC
722,27,,1.0,7.0,2238580740-186218.jpg,2238521193-26285.jpg,2.0,,,,A6IKEWK6FWOLC
723,28,,1.0,8.0,2452381505-199546.jpg,2994401319-148290.jpg,3.0,,,,A6IKEWK6FWOLC
724,29,,1.0,9.0,2898618444-142233.jpg,2898631359-142721.jpg,1.0,,,,A6IKEWK6FWOLC
725,30,,1.0,10.0,2238428357-313623.jpg,2238499057-320266.jpg,1.0,,,,A6IKEWK6FWOLC
726,31,,1.0,11.0,2898635427-367120.jpg,2898621427-366486.jpg,3.0,,,,A6IKEWK6FWOLC
727,32,right,1.0,12.0,right.jpg,,,right,2.0086,,A6IKEWK6FWOLC
728,33,,1.0,13.0,2874303365-214262.jpg,2864911457-362260.jpg,3.0,,,,A6IKEWK6FWOLC
729,34,,1.0,14.0,2449442529-124445.jpg,2898632385-217137.jpg,3.0,,,,A6IKEWK6FWOLC
730,35,,1.0,15.0,2238480677-317399.jpg,2238480278-19661.jpg,3.0,,,,A6IKEWK6FWOLC
731,36,,1.0,16.0,2898633421-291973.jpg,2512876023-52283.jpg,1.0,,,,A6IKEWK6FWOLC
732,37,,1.0,17.0,2898624426-291546.jpg,2981236443-71859.jpg,2.0,,,,A6IKEWK6FWOLC
733,38,,1.0,18.0,2901941401-292798.jpg,2981243412-370222.jpg,2.0,,,,A6IKEWK6FWOLC
734,39,,1.0,19.0,2986451363-73599.jpg,2238434559-90406.jpg,3.0,,,,A6IKEWK6FWOLC
735,40,,1.0,20.0,2964216465-219242.jpg,2238544191-252422.jpg,1.0,,,,A6IKEWK6FWOLC
736,41,right,1.0,21.0,right.jpg,,,right,0.971299999,,A6IKEWK6FWOLC
737,42,,1.0,22.0,2874299429-139695.jpg,2446760917-347439.jpg,3.0,,,,A6IKEWK6FWOLC
738,43,,1.0,23.0,2898634397-367080.jpg,2964217461-294238.jpg,3.0,,,,A6IKEWK6FWOLC
739,44,,1.0,24.0,2898635428-69104.jpg,2446759803-49250.jpg,1.0,,,,A6IKEWK6FWOLC
740,45,,1.0,25.0,2238425482-313537.jpg,2238436322-314047.jpg,2.0,,,,A6IKEWK6FWOLC
741,46,,1.0,26.0,2446759803-49249.jpg,2452380166-273109.jpg,3.0,,,,A6IKEWK6FWOLC
742,47,,1.0,27.0,2458347385-199723.jpg,2458347252-348911.jpg,3.0,,,,A6IKEWK6FWOLC
743,48,,1.0,28.0,2446759347-347016.jpg,2238569117-333045.jpg,3.0,,,,A6IKEWK6FWOLC
744,49,,1.0,29.0,2238481198-19822.jpg,2238480803-19737.jpg,3.0,,,,A6IKEWK6FWOLC
745,50,,1.0,30.0,2868475410-213219.jpg,2868474407-362885.jpg,3.0,,,,A6IKEWK6FWOLC
746,51,,1.0,31.0,2592380177-354629.jpg,2512875587-350044.jpg,3.0,,,,A6IKEWK6FWOLC
747,52,,1.0,32.0,2901947423-70311.jpg,2860312398-62572.jpg,1.0,,,,A6IKEWK6FWOLC
748,53,,0.0,33.0,left.jpg,,,left,,,A6IKEWK6FWOLC
749,54,,1.0,34.0,2964223381-294447.jpg,2901941438-69836.jpg,2.0,,,,A6IKEWK6FWOLC
750,55,,1.0,35.0,2981231403-71642.jpg,2981244403-72215.jpg,2.0,,,,A6IKEWK6FWOLC
751,56,,1.0,36.0,2864907432-362042.jpg,2901947423-70310.jpg,2.0,,,,A6IKEWK6FWOLC
752,57,,1.0,37.0,2901939379-143479.jpg,2460547467-349423.jpg,1.0,,,,A6IKEWK6FWOLC
753,58,,1.0,38.0,2874301407-363895.jpg,2883264368-67631.jpg,1.0,,,,A6IKEWK6FWOLC
754,59,,1.0,39.0,2883268471-290842.jpg,2883255450-215310.jpg,2.0,,,,A6IKEWK6FWOLC
755,60,,1.0,40.0,2460547508-51571.jpg,2901941438-69835.jpg,3.0,,,,A6IKEWK6FWOLC
756,61,right,1.0,41.0,right.jpg,,,right,1.104799999,,A6IKEWK6FWOLC
757,62,,1.0,42.0,2460547467-349421.jpg,2898631394-142727.jpg,1.0,,,,A6IKEWK6FWOLC
758,63,,1.0,43.0,2452380832-348593.jpg,2238481813-19930.jpg,2.0,,,,A6IKEWK6FWOLC
759,64,,1.0,44.0,2883254439-140941.jpg,2446760844-124088.jpg,1.0,,,,A6IKEWK6FWOLC
760,65,,1.0,45.0,2898617468-68274.jpg,2901943387-368037.jpg,2.0,,,,A6IKEWK6FWOLC
761,66,,1.0,46.0,2964218374-144967.jpg,2964218374-144968.jpg,1.0,,,,A6IKEWK6FWOLC
762,67,,1.0,47.0,2238572663-35822.jpg,2238571930-184143.jpg,2.0,,,,A6IKEWK6FWOLC
763,68,,1.0,48.0,2874302418-65979.jpg,2413147898-43548.jpg,1.0,,,,A6IKEWK6FWOLC
764,69,,1.0,49.0,2238560245-182099.jpg,2549106624-127823.jpg,1.0,,,,A6IKEWK6FWOLC
765,70,,1.0,50.0,2446758985-197609.jpg,2898624426-291544.jpg,3.0,,,,A6IKEWK6FWOLC
766,71,right,1.0,51.0,right.jpg,,,right,1.3139,,A6IKEWK6FWOLC
767,72,,1.0,52.0,2901948350-218459.jpg,2804906319-133082.jpg,1.0,,,,A6IKEWK6FWOLC
768,73,,1.0,53.0,2868474407-362883.jpg,2901948383-70363.jpg,3.0,,,,A6IKEWK6FWOLC
769,74,,1.0,54.0,2449442529-124446.jpg,2446759803-49251.jpg,1.0,,,,A6IKEWK6FWOLC
770,75,,1.0,55.0,2238481928-19949.jpg,2864900357-361688.jpg,2.0,,,,A6IKEWK6FWOLC
771,76,,1.0,56.0,2874302418-65978.jpg,2898626385-216899.jpg,1.0,,,,A6IKEWK6FWOLC
772,77,,1.0,57.0,2592380177-354626.jpg,2864901386-286797.jpg,2.0,,,,A6IKEWK6FWOLC
773,78,,1.0,58.0,2898618390-216538.jpg,2575120609-129862.jpg,3.0,,,,A6IKEWK6FWOLC
774,79,,1.0,59.0,2901939379-143480.jpg,2901942428-69919.jpg,1.0,,,,A6IKEWK6FWOLC
775,80,,1.0,60.0,2592379964-131054.jpg,2238479053-19457.jpg,2.0,,,,A6IKEWK6FWOLC
776,81,,1.0,61.0,2883256307-365057.jpg,2611628310-206388.jpg,1.0,,,,A6IKEWK6FWOLC
777,82,,1.0,62.0,2460547467-349422.jpg,2868487415-213924.jpg,2.0,,,,A6IKEWK6FWOLC
778,83,,1.0,63.0,2512875899-126682.jpg,2592380177-354628.jpg,2.0,,,,A6IKEWK6FWOLC
779,84,,1.0,64.0,2981241414-145842.jpg,2427873848-47312.jpg,3.0,,,,A6IKEWK6FWOLC
780,20,,1.0,0.0,2238481198-19822.jpg,2901946436-293242.jpg,2.0,,,,AG053ALQ5ZNCU
781,21,,1.0,1.0,2901947423-70311.jpg,2238577590-185467.jpg,3.0,,,,AG053ALQ5ZNCU
782,22,,1.0,2.0,2446759347-347016.jpg,2901951350-218702.jpg,2.0,,,,AG053ALQ5ZNCU
783,23,,1.0,3.0,2898635428-69104.jpg,2898625336-291572.jpg,3.0,,,,AG053ALQ5ZNCU
784,24,,1.0,4.0,2898617468-68274.jpg,2964207374-144577.jpg,3.0,,,,AG053ALQ5ZNCU
785,25,,1.0,5.0,2460547467-349422.jpg,2898618440-216545.jpg,1.0,,,,AG053ALQ5ZNCU
786,26,,1.0,6.0,2460547508-51571.jpg,2460547291-274110.jpg,1.0,,,,AG053ALQ5ZNCU
787,27,,1.0,7.0,2592380177-354629.jpg,2512875587-350044.jpg,3.0,,,,AG053ALQ5ZNCU
788,28,left,1.0,8.0,left.jpg,,,left,1.0913,,AG053ALQ5ZNCU
789,29,,1.0,9.0,2901952513-70703.jpg,2868469411-287540.jpg,2.0,,,,AG053ALQ5ZNCU
790,30,,1.0,10.0,2238560245-182099.jpg,2549106624-127823.jpg,1.0,,,,AG053ALQ5ZNCU
791,31,,1.0,11.0,2449441881-272368.jpg,2984615358-72439.jpg,2.0,,,,AG053ALQ5ZNCU
792,32,,1.0,12.0,2883268412-365898.jpg,2238436252-314037.jpg,3.0,,,,AG053ALQ5ZNCU
793,33,,1.0,13.0,2874302418-65979.jpg,2413147898-43548.jpg,1.0,,,,AG053ALQ5ZNCU
794,34,,1.0,14.0,2986451363-73599.jpg,2860302315-210704.jpg,2.0,,,,AG053ALQ5ZNCU
795,35,,1.0,15.0,2452380832-348593.jpg,2238481813-19930.jpg,2.0,,,,AG053ALQ5ZNCU
796,36,,1.0,16.0,2964218374-144967.jpg,2883254439-140940.jpg,2.0,,,,AG053ALQ5ZNCU
797,37,,1.0,17.0,2898635427-367120.jpg,2868479517-363220.jpg,2.0,,,,AG053ALQ5ZNCU
798,38,,1.0,18.0,2964223381-294447.jpg,2901941438-69836.jpg,2.0,,,,AG053ALQ5ZNCU
799,39,,1.0,19.0,2874302418-65978.jpg,2898626385-216899.jpg,1.0,,,,AG053ALQ5ZNCU
800,40,,1.0,20.0,2901941401-292798.jpg,2898618327-366317.jpg,1.0,,,,AG053ALQ5ZNCU
801,41,,1.0,21.0,2452381505-199546.jpg,2901938432-367627.jpg,1.0,,,,AG053ALQ5ZNCU
802,42,,1.0,22.0,2874301407-363895.jpg,2901947323-70275.jpg,3.0,,,,AG053ALQ5ZNCU
803,43,,1.0,23.0,2883254439-140941.jpg,2981231446-294730.jpg,3.0,,,,AG053ALQ5ZNCU
804,44,left,1.0,24.0,left.jpg,,,left,1.0273,,AG053ALQ5ZNCU
805,45,,1.0,25.0,2868475410-213219.jpg,2868474407-362885.jpg,3.0,,,,AG053ALQ5ZNCU
806,46,,1.0,26.0,2901948350-218459.jpg,2417208001-267065.jpg,2.0,,,,AG053ALQ5ZNCU
807,47,,1.0,27.0,2901939379-143479.jpg,2446758985-197610.jpg,2.0,,,,AG053ALQ5ZNCU
808,48,,1.0,28.0,2592379964-131054.jpg,2575963989-130576.jpg,1.0,,,,AG053ALQ5ZNCU
809,49,,1.0,29.0,2874307433-66280.jpg,2981246400-220365.jpg,2.0,,,,AG053ALQ5ZNCU
810,50,,1.0,30.0,2458347385-199723.jpg,2238480434-93829.jpg,1.0,,,,AG053ALQ5ZNCU
811,51,right,1.0,31.0,right.jpg,,,right,1.0519,,AG053ALQ5ZNCU
812,52,,1.0,32.0,2449442529-124445.jpg,2898632385-217137.jpg,3.0,,,,AG053ALQ5ZNCU
813,53,,1.0,33.0,2981231403-71642.jpg,2981244403-72215.jpg,2.0,,,,AG053ALQ5ZNCU
814,54,,1.0,34.0,2449442529-124446.jpg,2446759803-49251.jpg,1.0,,,,AG053ALQ5ZNCU
815,55,,1.0,35.0,2883268471-290842.jpg,2901947448-70314.jpg,3.0,,,,AG053ALQ5ZNCU
816,56,,1.0,36.0,2981241414-145842.jpg,2427873848-47312.jpg,3.0,,,,AG053ALQ5ZNCU
817,57,,1.0,37.0,2446759803-49249.jpg,2446760601-272099.jpg,1.0,,,,AG053ALQ5ZNCU
818,58,,1.0,38.0,2874303365-214262.jpg,2238563377-332054.jpg,2.0,,,,AG053ALQ5ZNCU
819,59,,1.0,39.0,2898618390-216538.jpg,2986449336-296644.jpg,1.0,,,,AG053ALQ5ZNCU
820,60,left,1.0,40.0,left.jpg,,,left,1.1404,,AG053ALQ5ZNCU
821,61,,1.0,41.0,2460547467-349421.jpg,2898631394-142727.jpg,1.0,,,,AG053ALQ5ZNCU
822,62,,1.0,42.0,2874299429-139695.jpg,2446760917-347439.jpg,3.0,,,,AG053ALQ5ZNCU
823,63,,1.0,43.0,2883256307-365057.jpg,2964210336-293945.jpg,2.0,,,,AG053ALQ5ZNCU
824,64,,1.0,44.0,2575120738-55529.jpg,2238531493-28260.jpg,3.0,,,,AG053ALQ5ZNCU
825,65,,1.0,45.0,2864907432-362042.jpg,2864901420-212147.jpg,1.0,,,,AG053ALQ5ZNCU
826,66,,1.0,46.0,2964216465-219242.jpg,2238544191-252422.jpg,1.0,,,,AG053ALQ5ZNCU
827,67,,1.0,47.0,2238428357-313623.jpg,2984615361-295509.jpg,2.0,,,,AG053ALQ5ZNCU
828,68,,1.0,48.0,2964213381-294060.jpg,2458348012-349114.jpg,2.0,,,,AG053ALQ5ZNCU
829,69,,1.0,49.0,2898618444-142233.jpg,2898631359-142721.jpg,1.0,,,,AG053ALQ5ZNCU
830,70,,1.0,50.0,2238425482-313537.jpg,2238471391-240918.jpg,1.0,,,,AG053ALQ5ZNCU
831,71,right,1.0,51.0,right.jpg,,,right,1.0424,,AG053ALQ5ZNCU
832,72,,1.0,52.0,2238580740-186218.jpg,2964220333-71258.jpg,3.0,,,,AG053ALQ5ZNCU
833,73,,1.0,53.0,2238480677-317399.jpg,2238481630-168218.jpg,1.0,,,,AG053ALQ5ZNCU
834,74,,1.0,54.0,2901939379-143480.jpg,2901942428-69919.jpg,1.0,,,,AG053ALQ5ZNCU
835,75,,1.0,55.0,2868474407-362883.jpg,2981246400-220363.jpg,2.0,,,,AG053ALQ5ZNCU
836,76,,1.0,56.0,2898634397-367080.jpg,2964217461-294238.jpg,3.0,,,,AG053ALQ5ZNCU
837,77,,1.0,57.0,2238481928-19949.jpg,2864900357-361688.jpg,2.0,,,,AG053ALQ5ZNCU
838,78,,1.0,58.0,2898624426-291546.jpg,2981235446-294900.jpg,3.0,,,,AG053ALQ5ZNCU
839,79,,1.0,59.0,2864910426-287204.jpg,2901939433-69672.jpg,3.0,,,,AG053ALQ5ZNCU
840,80,,1.0,60.0,2512875899-126682.jpg,2986447332-371497.jpg,3.0,,,,AG053ALQ5ZNCU
841,81,,1.0,61.0,2446758985-197609.jpg,2981240424-145795.jpg,1.0,,,,AG053ALQ5ZNCU
842,82,,1.0,62.0,2898633421-291973.jpg,2575118671-277663.jpg,2.0,,,,AG053ALQ5ZNCU
843,83,,1.0,63.0,2238572663-35822.jpg,2864903351-286874.jpg,3.0,,,,AG053ALQ5ZNCU
844,84,,1.0,64.0,2592380177-354626.jpg,2238117096-228518.jpg,3.0,,,,AG053ALQ5ZNCU
845,20,,1.0,0.0,2874301407-363895.jpg,2986397322-371109.jpg,2.0,,,,AJZRDVBZ6TKGH
846,21,,1.0,1.0,2898633421-291973.jpg,2238550049-105691.jpg,3.0,,,,AJZRDVBZ6TKGH
847,22,,1.0,2.0,2981231403-71642.jpg,2981244403-72215.jpg,2.0,,,,AJZRDVBZ6TKGH
848,23,,1.0,3.0,2901947423-70311.jpg,2238573447-333826.jpg,2.0,,,,AJZRDVBZ6TKGH
849,24,,1.0,4.0,2575120738-55529.jpg,2238531493-28260.jpg,3.0,,,,AJZRDVBZ6TKGH
850,25,,1.0,5.0,2964216465-219242.jpg,2898619327-366362.jpg,3.0,,,,AJZRDVBZ6TKGH
851,26,right,1.0,6.0,right.jpg,,,right,1.103,,AJZRDVBZ6TKGH
852,27,,1.0,7.0,2868474407-362883.jpg,2901948383-70363.jpg,3.0,,,,AJZRDVBZ6TKGH
853,28,,1.0,8.0,2964213381-294060.jpg,2458348012-349114.jpg,2.0,,,,AJZRDVBZ6TKGH
854,29,,1.0,9.0,2592379964-131054.jpg,2238479053-19457.jpg,2.0,,,,AJZRDVBZ6TKGH
855,30,,1.0,10.0,2452381505-199546.jpg,2901938432-367627.jpg,1.0,,,,AJZRDVBZ6TKGH
856,31,,1.0,11.0,2898618444-142233.jpg,2898618444-142232.jpg,3.0,,,,AJZRDVBZ6TKGH
857,32,,1.0,12.0,2874303365-214262.jpg,2238563377-332054.jpg,2.0,,,,AJZRDVBZ6TKGH
858,33,,1.0,13.0,2452380832-348593.jpg,2238481813-19930.jpg,2.0,,,,AJZRDVBZ6TKGH
859,34,,1.0,14.0,2883268471-290842.jpg,2883268471-290843.jpg,1.0,,,,AJZRDVBZ6TKGH
860,35,,1.0,15.0,2874302418-65979.jpg,2238578544-111698.jpg,3.0,,,,AJZRDVBZ6TKGH
861,36,,1.0,16.0,2864910426-287204.jpg,2874299429-139694.jpg,2.0,,,,AJZRDVBZ6TKGH
862,37,,1.0,17.0,2238480677-317399.jpg,2238481630-168218.jpg,1.0,,,,AJZRDVBZ6TKGH
863,38,left,1.0,18.0,left.jpg,,,left,1.056,,AJZRDVBZ6TKGH
864,39,,1.0,19.0,2901952513-70703.jpg,2868469411-287540.jpg,2.0,,,,AJZRDVBZ6TKGH
865,40,,1.0,20.0,2592380177-354626.jpg,2238117096-228518.jpg,3.0,,,,AJZRDVBZ6TKGH
866,41,,1.0,21.0,2901939379-143479.jpg,2460547467-349423.jpg,1.0,,,,AJZRDVBZ6TKGH
867,42,,1.0,22.0,2238572663-35822.jpg,2238571930-184143.jpg,2.0,,,,AJZRDVBZ6TKGH
868,43,,1.0,23.0,2898634397-367080.jpg,2901934408-69289.jpg,2.0,,,,AJZRDVBZ6TKGH
869,44,,1.0,24.0,2874299429-139695.jpg,2883266388-67750.jpg,1.0,,,,AJZRDVBZ6TKGH
870,45,,1.0,25.0,2883256307-365057.jpg,2611628310-206388.jpg,1.0,,,,AJZRDVBZ6TKGH
871,46,,1.0,26.0,2981241414-145842.jpg,2427873848-47312.jpg,3.0,,,,AJZRDVBZ6TKGH
872,47,,1.0,27.0,2238580740-186218.jpg,2964220333-71258.jpg,3.0,,,,AJZRDVBZ6TKGH
873,48,,1.0,28.0,2238425482-313537.jpg,2898633480-217190.jpg,3.0,,,,AJZRDVBZ6TKGH
874,49,,1.0,29.0,2864907432-362042.jpg,2901947423-70310.jpg,2.0,,,,AJZRDVBZ6TKGH
875,50,,1.0,30.0,2964223381-294447.jpg,2427874231-269884.jpg,1.0,,,,AJZRDVBZ6TKGH
876,51,,1.0,31.0,2238481198-19822.jpg,2238480803-19737.jpg,3.0,,,,AJZRDVBZ6TKGH
877,52,,1.0,32.0,2449442529-124445.jpg,2452380171-273112.jpg,1.0,,,,AJZRDVBZ6TKGH
878,53,,1.0,33.0,2460547467-349421.jpg,2898631394-142727.jpg,1.0,,,,AJZRDVBZ6TKGH
879,54,right,1.0,34.0,right.jpg,,,right,1.105,,AJZRDVBZ6TKGH
880,55,,1.0,35.0,2460547467-349422.jpg,2864909447-362146.jpg,3.0,,,,AJZRDVBZ6TKGH
881,56,,1.0,36.0,2901948350-218459.jpg,2804906319-133082.jpg,1.0,,,,AJZRDVBZ6TKGH
882,57,,1.0,37.0,2446759803-49249.jpg,2446760601-272099.jpg,1.0,,,,AJZRDVBZ6TKGH
883,58,,1.0,38.0,2874302418-65978.jpg,2898626385-216899.jpg,1.0,,,,AJZRDVBZ6TKGH
884,59,,1.0,39.0,2446759347-347016.jpg,2238569117-333045.jpg,3.0,,,,AJZRDVBZ6TKGH
885,60,,1.0,40.0,2446758985-197609.jpg,2981240424-145795.jpg,1.0,,,,AJZRDVBZ6TKGH
886,61,,1.0,41.0,2874307433-66280.jpg,2986447306-296584.jpg,1.0,,,,AJZRDVBZ6TKGH
887,62,,1.0,42.0,2592380177-354629.jpg,2579432534-130704.jpg,2.0,,,,AJZRDVBZ6TKGH
888,63,,1.0,43.0,2883268412-365898.jpg,2984615361-295510.jpg,2.0,,,,AJZRDVBZ6TKGH
889,64,left,1.0,44.0,left.jpg,,,left,1.108,,AJZRDVBZ6TKGH
890,65,,1.0,45.0,2868475410-213219.jpg,2901946465-218350.jpg,1.0,,,,AJZRDVBZ6TKGH
891,66,,1.0,46.0,2901939379-143480.jpg,2901942428-69919.jpg,1.0,,,,AJZRDVBZ6TKGH
892,67,,1.0,47.0,2901941401-292798.jpg,2883273443-68193.jpg,3.0,,,,AJZRDVBZ6TKGH
893,68,,1.0,48.0,2238428357-313623.jpg,2238499057-320266.jpg,1.0,,,,AJZRDVBZ6TKGH
894,69,,1.0,49.0,2449442529-124446.jpg,2460547536-274181.jpg,2.0,,,,AJZRDVBZ6TKGH
895,70,left,1.0,50.0,left.jpg,,,left,1.112,,AJZRDVBZ6TKGH
896,71,,1.0,51.0,2238481928-19949.jpg,2864900357-361688.jpg,2.0,,,,AJZRDVBZ6TKGH
897,72,,1.0,52.0,2898635427-367120.jpg,2898621427-366486.jpg,3.0,,,,AJZRDVBZ6TKGH
898,73,,1.0,53.0,2883254439-140941.jpg,2898632385-217136.jpg,2.0,,,,AJZRDVBZ6TKGH
899,74,,1.0,54.0,2898617468-68274.jpg,2864906345-212360.jpg,1.0,,,,AJZRDVBZ6TKGH
900,75,,1.0,55.0,2458347385-199723.jpg,2458347252-348911.jpg,3.0,,,,AJZRDVBZ6TKGH
901,76,,1.0,56.0,2238560245-182099.jpg,2874314526-289684.jpg,2.0,,,,AJZRDVBZ6TKGH
902,77,,1.0,57.0,2964218374-144967.jpg,2883254439-140940.jpg,2.0,,,,AJZRDVBZ6TKGH
903,78,,1.0,58.0,2898635428-69104.jpg,2898625336-291572.jpg,3.0,,,,AJZRDVBZ6TKGH
904,79,,1.0,59.0,2898618390-216538.jpg,2575120609-129862.jpg,3.0,,,,AJZRDVBZ6TKGH
905,80,,1.0,60.0,2449441881-272368.jpg,2883268412-365899.jpg,1.0,,,,AJZRDVBZ6TKGH
906,81,,1.0,61.0,2512875899-126682.jpg,2592380177-354628.jpg,2.0,,,,AJZRDVBZ6TKGH
907,82,,1.0,62.0,2898624426-291546.jpg,2981235446-294900.jpg,3.0,,,,AJZRDVBZ6TKGH
908,83,,1.0,63.0,2460547508-51571.jpg,2901941438-69835.jpg,3.0,,,,AJZRDVBZ6TKGH
909,84,,1.0,64.0,2986451363-73599.jpg,2901939327-367669.jpg,1.0,,,,AJZRDVBZ6TKGH
910,20,,1.0,0.0,2964216465-219242.jpg,2898619327-366362.jpg,3.0,,,,AK8ONB60Q4RJ5
911,21,,1.0,1.0,2449441881-272368.jpg,2449441881-272367.jpg,3.0,,,,AK8ONB60Q4RJ5
912,22,,1.0,2.0,2981241414-145842.jpg,2856919327-359676.jpg,1.0,,,,AK8ONB60Q4RJ5
913,23,,1.0,3.0,2864907432-362042.jpg,2989726338-74002.jpg,3.0,,,,AK8ONB60Q4RJ5
914,24,,1.0,4.0,2238580740-186218.jpg,2964220333-71258.jpg,3.0,,,,AK8ONB60Q4RJ5
915,25,,1.0,5.0,2901941401-292798.jpg,2883273443-68193.jpg,3.0,,,,AK8ONB60Q4RJ5
916,26,,1.0,6.0,2874303365-214262.jpg,2238563377-332054.jpg,2.0,,,,AK8ONB60Q4RJ5
917,27,,1.0,7.0,2883254439-140941.jpg,2981231446-294730.jpg,3.0,,,,AK8ONB60Q4RJ5
918,28,,1.0,8.0,2964218374-144967.jpg,2883254439-140940.jpg,2.0,,,,AK8ONB60Q4RJ5
919,29,,1.0,9.0,2449442529-124445.jpg,2452380171-273112.jpg,1.0,,,,AK8ONB60Q4RJ5
920,30,,1.0,10.0,2446758985-197609.jpg,2981240424-145795.jpg,1.0,,,,AK8ONB60Q4RJ5
921,31,left,1.0,11.0,left.jpg,,,left,0.6333,,AK8ONB60Q4RJ5
922,32,,1.0,12.0,2575120738-55529.jpg,2898632385-217138.jpg,1.0,,,,AK8ONB60Q4RJ5
923,33,,1.0,13.0,2901939379-143480.jpg,2901938432-367629.jpg,3.0,,,,AK8ONB60Q4RJ5
924,34,,1.0,14.0,2883268471-290842.jpg,2883268471-290843.jpg,1.0,,,,AK8ONB60Q4RJ5
925,35,,1.0,15.0,2238480677-317399.jpg,2238573546-258454.jpg,2.0,,,,AK8ONB60Q4RJ5
926,36,,1.0,16.0,2964223381-294447.jpg,2898628438-68785.jpg,3.0,,,,AK8ONB60Q4RJ5
927,37,,1.0,17.0,2238425482-313537.jpg,2898633480-217190.jpg,3.0,,,,AK8ONB60Q4RJ5
928,38,,1.0,18.0,2238572663-35822.jpg,2864903351-286874.jpg,3.0,,,,AK8ONB60Q4RJ5
929,39,,1.0,19.0,2901948350-218459.jpg,2804906319-133082.jpg,1.0,,,,AK8ONB60Q4RJ5
930,40,left,1.0,20.0,left.jpg,,,left,0.6186,,AK8ONB60Q4RJ5
931,41,,1.0,21.0,2460547467-349422.jpg,2898618440-216545.jpg,1.0,,,,AK8ONB60Q4RJ5
932,42,,1.0,22.0,2901952513-70703.jpg,2864907361-287062.jpg,1.0,,,,AK8ONB60Q4RJ5
933,43,,1.0,23.0,2864910426-287204.jpg,2901939433-69672.jpg,3.0,,,,AK8ONB60Q4RJ5
934,44,,1.0,24.0,2460547508-51571.jpg,2981232437-369759.jpg,2.0,,,,AK8ONB60Q4RJ5
935,45,,1.0,25.0,2452381505-199546.jpg,2901938432-367627.jpg,1.0,,,,AK8ONB60Q4RJ5
936,46,,1.0,26.0,2874299429-139695.jpg,2901942443-69923.jpg,2.0,,,,AK8ONB60Q4RJ5
937,47,,1.0,27.0,2898635427-367120.jpg,2868479517-363220.jpg,2.0,,,,AK8ONB60Q4RJ5
938,48,,1.0,28.0,2592379964-131054.jpg,2238479053-19457.jpg,2.0,,,,AK8ONB60Q4RJ5
939,49,right,1.0,29.0,right.jpg,,,right,0.7545,,AK8ONB60Q4RJ5
940,50,,1.0,30.0,2868475410-213219.jpg,2868474407-362885.jpg,3.0,,,,AK8ONB60Q4RJ5
941,51,,1.0,31.0,2981231403-71642.jpg,2981244403-72215.jpg,2.0,,,,AK8ONB60Q4RJ5
942,52,,1.0,32.0,2868474407-362883.jpg,2981246400-220363.jpg,2.0,,,,AK8ONB60Q4RJ5
943,53,,1.0,33.0,2592380177-354629.jpg,2898633421-291974.jpg,1.0,,,,AK8ONB60Q4RJ5
944,54,,1.0,34.0,2238428357-313623.jpg,2238499057-320266.jpg,1.0,,,,AK8ONB60Q4RJ5
945,55,,1.0,35.0,2898633421-291973.jpg,2512876023-52283.jpg,1.0,,,,AK8ONB60Q4RJ5
946,56,,1.0,36.0,2460547467-349421.jpg,2981235446-294901.jpg,3.0,,,,AK8ONB60Q4RJ5
947,57,,1.0,37.0,2986451363-73599.jpg,2901939327-367669.jpg,1.0,,,,AK8ONB60Q4RJ5
948,58,,1.0,38.0,2883268412-365898.jpg,2984615361-295510.jpg,2.0,,,,AK8ONB60Q4RJ5
949,59,,1.0,39.0,2238481928-19949.jpg,2883264367-365620.jpg,1.0,,,,AK8ONB60Q4RJ5
950,60,,1.0,40.0,2449442529-124446.jpg,2898632385-217139.jpg,3.0,,,,AK8ONB60Q4RJ5
951,61,,1.0,41.0,2874307433-66280.jpg,2986447306-296584.jpg,1.0,,,,AK8ONB60Q4RJ5
952,62,left,1.0,42.0,left.jpg,,,left,1.5554,,AK8ONB60Q4RJ5
953,63,,1.0,43.0,2874302418-65979.jpg,2238578544-111698.jpg,3.0,,,,AK8ONB60Q4RJ5
954,64,,1.0,44.0,2452380832-348593.jpg,2449442181-272436.jpg,3.0,,,,AK8ONB60Q4RJ5
955,65,,1.0,45.0,2898618444-142233.jpg,2898631359-142721.jpg,1.0,,,,AK8ONB60Q4RJ5
956,66,,1.0,46.0,2901947423-70311.jpg,2238573447-333826.jpg,2.0,,,,AK8ONB60Q4RJ5
957,67,,1.0,47.0,2898635428-69104.jpg,2446759803-49250.jpg,1.0,,,,AK8ONB60Q4RJ5
958,68,,1.0,48.0,2964213381-294060.jpg,2458348012-349114.jpg,2.0,,,,AK8ONB60Q4RJ5
959,69,left,1.0,49.0,left.jpg,,,left,0.5279,,AK8ONB60Q4RJ5
960,70,,1.0,50.0,2898617468-68274.jpg,2901943387-368037.jpg,2.0,,,,AK8ONB60Q4RJ5
961,71,,1.0,51.0,2883256307-365057.jpg,2964210336-293945.jpg,2.0,,,,AK8ONB60Q4RJ5
962,72,,1.0,52.0,2898624426-291546.jpg,2964218432-369263.jpg,1.0,,,,AK8ONB60Q4RJ5
963,73,,1.0,53.0,2238481198-19822.jpg,2901946436-293242.jpg,2.0,,,,AK8ONB60Q4RJ5
964,74,,1.0,54.0,2874301407-363895.jpg,2986397322-371109.jpg,2.0,,,,AK8ONB60Q4RJ5
965,75,,1.0,55.0,2874302418-65978.jpg,2898633321-291943.jpg,3.0,,,,AK8ONB60Q4RJ5
966,76,,1.0,56.0,2898618390-216538.jpg,2901939327-367670.jpg,2.0,,,,AK8ONB60Q4RJ5
967,77,,1.0,57.0,2592380177-354626.jpg,2986408339-146952.jpg,1.0,,,,AK8ONB60Q4RJ5
968,78,,1.0,58.0,2446759803-49249.jpg,2898618440-216547.jpg,2.0,,,,AK8ONB60Q4RJ5
969,79,,1.0,59.0,2238560245-182099.jpg,2874314526-289684.jpg,2.0,,,,AK8ONB60Q4RJ5
970,80,,1.0,60.0,2458347385-199723.jpg,2427874554-121863.jpg,2.0,,,,AK8ONB60Q4RJ5
971,81,,1.0,61.0,2901939379-143479.jpg,2460547467-349423.jpg,1.0,,,,AK8ONB60Q4RJ5
972,82,,1.0,62.0,2512875899-126682.jpg,2986447332-371497.jpg,3.0,,,,AK8ONB60Q4RJ5
973,83,,1.0,63.0,2446759347-347016.jpg,2238569117-333045.jpg,3.0,,,,AK8ONB60Q4RJ5
974,84,,1.0,64.0,2898634397-367080.jpg,2964217461-294238.jpg,3.0,,,,AK8ONB60Q4RJ5
975,20,,1.0,0.0,2986451363-73599.jpg,2901939327-367669.jpg,1.0,,,,AQ5CSVCNBPSIJ
976,21,,1.0,1.0,2898635427-367120.jpg,2901946439-144040.jpg,1.0,,,,AQ5CSVCNBPSIJ
977,22,,1.0,2.0,2449441881-272368.jpg,2984615358-72439.jpg,2.0,,,,AQ5CSVCNBPSIJ
978,23,,1.0,3.0,2883268471-290842.jpg,2883255450-215310.jpg,2.0,,,,AQ5CSVCNBPSIJ
979,24,,1.0,4.0,2964218374-144967.jpg,2964218374-144968.jpg,1.0,,,,AQ5CSVCNBPSIJ
980,25,,1.0,5.0,2874301407-363895.jpg,2901947323-70275.jpg,3.0,,,,AQ5CSVCNBPSIJ
981,26,left,1.0,6.0,left.jpg,,,left,1.0395,,AQ5CSVCNBPSIJ
982,27,,1.0,7.0,2238572663-35822.jpg,2986419333-73361.jpg,1.0,,,,AQ5CSVCNBPSIJ
983,28,,1.0,8.0,2901947423-70311.jpg,2860312398-62572.jpg,1.0,,,,AQ5CSVCNBPSIJ
984,29,,1.0,9.0,2874303365-214262.jpg,2864911457-362260.jpg,3.0,,,,AQ5CSVCNBPSIJ
985,30,,1.0,10.0,2901939379-143479.jpg,2446758985-197610.jpg,2.0,,,,AQ5CSVCNBPSIJ
986,31,,1.0,11.0,2901952513-70703.jpg,2864907361-287062.jpg,1.0,,,,AQ5CSVCNBPSIJ
987,32,,1.0,12.0,2575120738-55529.jpg,2898632385-217138.jpg,1.0,,,,AQ5CSVCNBPSIJ
988,33,,1.0,13.0,2898618390-216538.jpg,2901939327-367670.jpg,2.0,,,,AQ5CSVCNBPSIJ
989,34,,1.0,14.0,2901939379-143480.jpg,2901942428-69919.jpg,1.0,,,,AQ5CSVCNBPSIJ
990,35,,1.0,15.0,2898617468-68274.jpg,2964207374-144577.jpg,3.0,,,,AQ5CSVCNBPSIJ
991,36,,1.0,16.0,2864910426-287204.jpg,2901939433-69672.jpg,3.0,,,,AQ5CSVCNBPSIJ
992,37,,1.0,17.0,2868474407-362883.jpg,2901948383-70363.jpg,3.0,,,,AQ5CSVCNBPSIJ
993,38,,1.0,18.0,2868475410-213219.jpg,2238480803-19739.jpg,2.0,,,,AQ5CSVCNBPSIJ
994,39,,1.0,19.0,2238481198-19822.jpg,2901946436-293242.jpg,2.0,,,,AQ5CSVCNBPSIJ
995,40,right,1.0,20.0,right.jpg,,,right,1.0199,,AQ5CSVCNBPSIJ
996,41,,1.0,21.0,2964213381-294060.jpg,2964213381-294061.jpg,3.0,,,,AQ5CSVCNBPSIJ
997,42,,1.0,22.0,2238560245-182099.jpg,2874314526-289684.jpg,2.0,,,,AQ5CSVCNBPSIJ
998,43,,1.0,23.0,2964223381-294447.jpg,2898628438-68785.jpg,3.0,,,,AQ5CSVCNBPSIJ
999,44,,1.0,24.0,2460547467-349422.jpg,2898618440-216545.jpg,1.0,,,,AQ5CSVCNBPSIJ
1000,45,,1.0,25.0,2981241414-145842.jpg,2874301404-139813.jpg,2.0,,,,AQ5CSVCNBPSIJ
1001,46,,1.0,26.0,2898624426-291546.jpg,2981235446-294900.jpg,3.0,,,,AQ5CSVCNBPSIJ
1002,47,right,1.0,27.0,right.jpg,,,right,1.0572,,AQ5CSVCNBPSIJ
1003,48,,1.0,28.0,2446759347-347016.jpg,2901951350-218702.jpg,2.0,,,,AQ5CSVCNBPSIJ
1004,49,,1.0,29.0,2592379964-131054.jpg,2238479053-19457.jpg,2.0,,,,AQ5CSVCNBPSIJ
1005,50,,1.0,30.0,2898633421-291973.jpg,2575118671-277663.jpg,2.0,,,,AQ5CSVCNBPSIJ
1006,51,,1.0,31.0,2864907432-362042.jpg,2864901420-212147.jpg,1.0,,,,AQ5CSVCNBPSIJ
1007,52,,1.0,32.0,2238428357-313623.jpg,2575121987-353817.jpg,3.0,,,,AQ5CSVCNBPSIJ
1008,53,,1.0,33.0,2238481928-19949.jpg,2981241419-145844.jpg,3.0,,,,AQ5CSVCNBPSIJ
1009,54,,1.0,34.0,2238580740-186218.jpg,2238550816-254000.jpg,1.0,,,,AQ5CSVCNBPSIJ
1010,55,,1.0,35.0,2458347385-199723.jpg,2458347252-348911.jpg,3.0,,,,AQ5CSVCNBPSIJ
1011,56,,1.0,36.0,2898634397-367080.jpg,2237944827-301472.jpg,1.0,,,,AQ5CSVCNBPSIJ
1012,57,,1.0,37.0,2449442529-124446.jpg,2898632385-217139.jpg,3.0,,,,AQ5CSVCNBPSIJ
1013,58,,1.0,38.0,2449442529-124445.jpg,2452380171-273112.jpg,1.0,,,,AQ5CSVCNBPSIJ
1014,59,,1.0,39.0,2460547467-349421.jpg,2898631394-142727.jpg,1.0,,,,AQ5CSVCNBPSIJ
1015,60,right,1.0,40.0,right.jpg,,,right,1.0227,,AQ5CSVCNBPSIJ
1016,61,,1.0,41.0,2446758985-197609.jpg,2898624426-291544.jpg,3.0,,,,AQ5CSVCNBPSIJ
1017,62,,1.0,42.0,2874302418-65979.jpg,2238480648-19714.jpg,2.0,,,,AQ5CSVCNBPSIJ
1018,63,,1.0,43.0,2964216465-219242.jpg,2864900319-137787.jpg,2.0,,,,AQ5CSVCNBPSIJ
1019,64,,1.0,44.0,2452380832-348593.jpg,2449442181-272436.jpg,3.0,,,,AQ5CSVCNBPSIJ
1020,65,,1.0,45.0,2446759803-49249.jpg,2452380166-273109.jpg,3.0,,,,AQ5CSVCNBPSIJ
1021,66,,1.0,46.0,2238425482-313537.jpg,2238436322-314047.jpg,2.0,,,,AQ5CSVCNBPSIJ
1022,67,,1.0,47.0,2898618444-142233.jpg,2238555262-330312.jpg,2.0,,,,AQ5CSVCNBPSIJ
1023,68,,1.0,48.0,2452381505-199546.jpg,2994401319-148290.jpg,3.0,,,,AQ5CSVCNBPSIJ
1024,69,,1.0,49.0,2898635428-69104.jpg,2898625336-291572.jpg,3.0,,,,AQ5CSVCNBPSIJ
1025,70,left,1.0,50.0,left.jpg,,,left,1.935,,AQ5CSVCNBPSIJ
1026,71,,1.0,51.0,2238480677-317399.jpg,2238480278-19661.jpg,3.0,,,,AQ5CSVCNBPSIJ
1027,72,,1.0,52.0,2901948350-218459.jpg,2417208001-267065.jpg,2.0,,,,AQ5CSVCNBPSIJ
1028,73,,1.0,53.0,2883256307-365057.jpg,2964210336-293945.jpg,2.0,,,,AQ5CSVCNBPSIJ
1029,74,,1.0,54.0,2592380177-354626.jpg,2986408339-146952.jpg,1.0,,,,AQ5CSVCNBPSIJ
1030,75,,1.0,55.0,2874302418-65978.jpg,2238481198-19823.jpg,2.0,,,,AQ5CSVCNBPSIJ
1031,76,,1.0,56.0,2460547508-51571.jpg,2981232437-369759.jpg,2.0,,,,AQ5CSVCNBPSIJ
1032,77,,1.0,57.0,2512875899-126682.jpg,2460547536-274179.jpg,1.0,,,,AQ5CSVCNBPSIJ
1033,78,,1.0,58.0,2874307433-66280.jpg,2981231422-369714.jpg,3.0,,,,AQ5CSVCNBPSIJ
1034,79,,1.0,59.0,2592380177-354629.jpg,2898633421-291974.jpg,1.0,,,,AQ5CSVCNBPSIJ
1035,80,,1.0,60.0,2883254439-140941.jpg,2446760844-124088.jpg,1.0,,,,AQ5CSVCNBPSIJ
1036,81,,1.0,61.0,2981231403-71642.jpg,2981244403-72215.jpg,2.0,,,,AQ5CSVCNBPSIJ
1037,82,,1.0,62.0,2874299429-139695.jpg,2883266388-67750.jpg,1.0,,,,AQ5CSVCNBPSIJ
1038,83,,1.0,63.0,2901941401-292798.jpg,2898618327-366317.jpg,1.0,,,,AQ5CSVCNBPSIJ
1039,84,,1.0,64.0,2883268412-365898.jpg,2238436252-314037.jpg,3.0,,,,AQ5CSVCNBPSIJ
1040,20,,1.0,0.0,2458347385-199723.jpg,2458347252-348911.jpg,3.0,,,,AR390VVG2FJKJ
1041,21,,1.0,1.0,2898635428-69104.jpg,2446759803-49250.jpg,1.0,,,,AR390VVG2FJKJ
1042,22,,1.0,2.0,2901947423-70311.jpg,2238577590-185467.jpg,3.0,,,,AR390VVG2FJKJ
1043,23,,1.0,3.0,2449441881-272368.jpg,2883268412-365899.jpg,1.0,,,,AR390VVG2FJKJ
1044,24,,1.0,4.0,2449442529-124446.jpg,2898632385-217139.jpg,3.0,,,,AR390VVG2FJKJ
1045,25,,1.0,5.0,2592380177-354629.jpg,2512875587-350044.jpg,3.0,,,,AR390VVG2FJKJ
1046,26,,1.0,6.0,2452380832-348593.jpg,2238328478-11678.jpg,1.0,,,,AR390VVG2FJKJ
1047,27,,1.0,7.0,2964213381-294060.jpg,2981244394-145974.jpg,1.0,,,,AR390VVG2FJKJ
1048,28,,1.0,8.0,2446759803-49249.jpg,2446760601-272099.jpg,1.0,,,,AR390VVG2FJKJ
1049,29,,1.0,9.0,2868474407-362883.jpg,2981246400-220363.jpg,2.0,,,,AR390VVG2FJKJ
1050,30,right,1.0,10.0,right.jpg,,,right,1.198,,AR390VVG2FJKJ
1051,31,,1.0,11.0,2981231403-71642.jpg,2427873763-47290.jpg,3.0,,,,AR390VVG2FJKJ
1052,32,,1.0,12.0,2864907432-362042.jpg,2989726338-74002.jpg,3.0,,,,AR390VVG2FJKJ
1053,33,,1.0,13.0,2898617468-68274.jpg,2964207374-144577.jpg,3.0,,,,AR390VVG2FJKJ
1054,34,,1.0,14.0,2901952513-70703.jpg,2864907361-287062.jpg,1.0,,,,AR390VVG2FJKJ
1055,35,,1.0,15.0,2964218374-144967.jpg,2883254439-140940.jpg,2.0,,,,AR390VVG2FJKJ
1056,36,,1.0,16.0,2460547467-349421.jpg,2452380166-273110.jpg,2.0,,,,AR390VVG2FJKJ
1057,37,right,1.0,17.0,right.jpg,,,right,1.293,,AR390VVG2FJKJ
1058,38,,1.0,18.0,2238572663-35822.jpg,2238571930-184143.jpg,2.0,,,,AR390VVG2FJKJ
1059,39,,1.0,19.0,2446759347-347016.jpg,2901951350-218702.jpg,2.0,,,,AR390VVG2FJKJ
1060,40,,1.0,20.0,2238428357-313623.jpg,2575121987-353817.jpg,3.0,,,,AR390VVG2FJKJ
1061,41,,1.0,21.0,2868475410-213219.jpg,2901946465-218350.jpg,1.0,,,,AR390VVG2FJKJ
1062,42,,1.0,22.0,2981241414-145842.jpg,2874301404-139813.jpg,2.0,,,,AR390VVG2FJKJ
1063,43,,1.0,23.0,2446758985-197609.jpg,2864909447-362144.jpg,2.0,,,,AR390VVG2FJKJ
1064,44,,1.0,24.0,2874307433-66280.jpg,2986447306-296584.jpg,1.0,,,,AR390VVG2FJKJ
1065,45,,1.0,25.0,2460547508-51571.jpg,2901941438-69835.jpg,3.0,,,,AR390VVG2FJKJ
1066,46,,1.0,26.0,2238481928-19949.jpg,2981241419-145844.jpg,3.0,,,,AR390VVG2FJKJ
1067,47,,1.0,27.0,2874303365-214262.jpg,2238563377-332054.jpg,2.0,,,,AR390VVG2FJKJ
1068,48,,1.0,28.0,2238580740-186218.jpg,2238521193-26285.jpg,2.0,,,,AR390VVG2FJKJ
1069,49,,1.0,29.0,2238425482-313537.jpg,2238471391-240918.jpg,1.0,,,,AR390VVG2FJKJ
1070,50,,1.0,30.0,2883256307-365057.jpg,2611628310-206388.jpg,1.0,,,,AR390VVG2FJKJ
1071,51,right,1.0,31.0,right.jpg,,,right,1.064,,AR390VVG2FJKJ
1072,52,,1.0,32.0,2874302418-65978.jpg,2238481198-19823.jpg,2.0,,,,AR390VVG2FJKJ
1073,53,,1.0,33.0,2883254439-140941.jpg,2898632385-217136.jpg,2.0,,,,AR390VVG2FJKJ
1074,54,,1.0,34.0,2452381505-199546.jpg,2238567168-34916.jpg,2.0,,,,AR390VVG2FJKJ
1075,55,,1.0,35.0,2883268412-365898.jpg,2984626312-370849.jpg,1.0,,,,AR390VVG2FJKJ
1076,56,,1.0,36.0,2449442529-124445.jpg,2986408373-73286.jpg,2.0,,,,AR390VVG2FJKJ
1077,57,,1.0,37.0,2238481198-19822.jpg,2862691449-137104.jpg,1.0,,,,AR390VVG2FJKJ
1078,58,left,1.0,38.0,left.jpg,,,left,1.2,,AR390VVG2FJKJ
1079,59,,1.0,39.0,2592380177-354626.jpg,2986408339-146952.jpg,1.0,,,,AR390VVG2FJKJ
1080,60,,1.0,40.0,2901939379-143480.jpg,2981229442-369621.jpg,2.0,,,,AR390VVG2FJKJ
1081,61,,1.0,41.0,2575120738-55529.jpg,2238531493-28260.jpg,3.0,,,,AR390VVG2FJKJ
1082,62,,1.0,42.0,2898618444-142233.jpg,2898631359-142721.jpg,1.0,,,,AR390VVG2FJKJ
1083,63,,1.0,43.0,2964223381-294447.jpg,2901941438-69836.jpg,2.0,,,,AR390VVG2FJKJ
1084,64,,1.0,44.0,2901939379-143479.jpg,2446758985-197610.jpg,2.0,,,,AR390VVG2FJKJ
1085,65,,1.0,45.0,2460547467-349422.jpg,2864909447-362146.jpg,3.0,,,,AR390VVG2FJKJ
1086,66,left,1.0,46.0,left.jpg,,,left,1.138,,AR390VVG2FJKJ
1087,67,,1.0,47.0,2986451363-73599.jpg,2238434559-90406.jpg,3.0,,,,AR390VVG2FJKJ
1088,68,,1.0,48.0,2512875899-126682.jpg,2986447332-371497.jpg,3.0,,,,AR390VVG2FJKJ
1089,69,,1.0,49.0,2874299429-139695.jpg,2883266388-67750.jpg,1.0,,,,AR390VVG2FJKJ
1090,70,,1.0,50.0,2898618390-216538.jpg,2986449336-296644.jpg,1.0,,,,AR390VVG2FJKJ
1091,71,,1.0,51.0,2964216465-219242.jpg,2898619327-366362.jpg,3.0,,,,AR390VVG2FJKJ
1092,72,,1.0,52.0,2238560245-182099.jpg,2238480980-168129.jpg,3.0,,,,AR390VVG2FJKJ
1093,73,,1.0,53.0,2901948350-218459.jpg,2981246360-220352.jpg,3.0,,,,AR390VVG2FJKJ
1094,74,,1.0,54.0,2898635427-367120.jpg,2868479517-363220.jpg,2.0,,,,AR390VVG2FJKJ
1095,75,,1.0,55.0,2864910426-287204.jpg,2864902304-137862.jpg,1.0,,,,AR390VVG2FJKJ
1096,76,,1.0,56.0,2874301407-363895.jpg,2883264368-67631.jpg,1.0,,,,AR390VVG2FJKJ
1097,77,,1.0,57.0,2883268471-290842.jpg,2883255450-215310.jpg,2.0,,,,AR390VVG2FJKJ
1098,78,,1.0,58.0,2898624426-291546.jpg,2981236443-71859.jpg,2.0,,,,AR390VVG2FJKJ
1099,79,,1.0,59.0,2238480677-317399.jpg,2238480278-19661.jpg,3.0,,,,AR390VVG2FJKJ
1100,80,,1.0,60.0,2898634397-367080.jpg,2237944827-301472.jpg,1.0,,,,AR390VVG2FJKJ
1101,81,,1.0,61.0,2874302418-65979.jpg,2238480648-19714.jpg,2.0,,,,AR390VVG2FJKJ
1102,82,,1.0,62.0,2592379964-131054.jpg,2592380272-354673.jpg,3.0,,,,AR390VVG2FJKJ
1103,83,,1.0,63.0,2901941401-292798.jpg,2898618327-366317.jpg,1.0,,,,AR390VVG2FJKJ
1104,84,,1.0,64.0,2898633421-291973.jpg,2238550049-105691.jpg,3.0,,,,AR390VVG2FJKJ
1105,20,,1.0,0.0,2452380832-348593.jpg,2238328478-11678.jpg,1.0,,,,AW9T591E49DCX
1106,21,,1.0,1.0,2901939379-143480.jpg,2981229442-369621.jpg,2.0,,,,AW9T591E49DCX
1107,22,,1.0,2.0,2592380177-354626.jpg,2864901386-286797.jpg,2.0,,,,AW9T591E49DCX
1108,23,,1.0,3.0,2986451363-73599.jpg,2238434559-90406.jpg,3.0,,,,AW9T591E49DCX
1109,24,,1.0,4.0,2883256307-365057.jpg,2864904453-63933.jpg,3.0,,,,AW9T591E49DCX
1110,25,,1.0,5.0,2898634397-367080.jpg,2237944827-301472.jpg,1.0,,,,AW9T591E49DCX
1111,26,,1.0,6.0,2592379964-131054.jpg,2238479053-19457.jpg,2.0,,,,AW9T591E49DCX
1112,27,,1.0,7.0,2460547508-51571.jpg,2460547291-274110.jpg,1.0,,,,AW9T591E49DCX
1113,28,,1.0,8.0,2898635427-367120.jpg,2901946439-144040.jpg,1.0,,,,AW9T591E49DCX
1114,29,right,1.0,9.0,right.jpg,,,right,1.7445,,AW9T591E49DCX
1115,30,,1.0,10.0,2446759803-49249.jpg,2446760601-272099.jpg,1.0,,,,AW9T591E49DCX
1116,31,,1.0,11.0,2898618390-216538.jpg,2575120609-129862.jpg,3.0,,,,AW9T591E49DCX
1117,32,,1.0,12.0,2446759347-347016.jpg,2901951350-218702.jpg,2.0,,,,AW9T591E49DCX
1118,33,,1.0,13.0,2898624426-291546.jpg,2981235446-294900.jpg,3.0,,,,AW9T591E49DCX
1119,34,,1.0,14.0,2238425482-313537.jpg,2898633480-217190.jpg,3.0,,,,AW9T591E49DCX
1120,35,,1.0,15.0,2575120738-55529.jpg,2238531493-28260.jpg,3.0,,,,AW9T591E49DCX
1121,36,,1.0,16.0,2901948350-218459.jpg,2417208001-267065.jpg,2.0,,,,AW9T591E49DCX
1122,37,right,1.0,17.0,right.jpg,,,right,1.5465,,AW9T591E49DCX
1123,38,,1.0,18.0,2901947423-70311.jpg,2238573447-333826.jpg,2.0,,,,AW9T591E49DCX
1124,39,,1.0,19.0,2238481928-19949.jpg,2981241419-145844.jpg,3.0,,,,AW9T591E49DCX
1125,40,,1.0,20.0,2238580740-186218.jpg,2238550816-254000.jpg,1.0,,,,AW9T591E49DCX
1126,41,,1.0,21.0,2868475410-213219.jpg,2901946465-218350.jpg,1.0,,,,AW9T591E49DCX
1127,42,,1.0,22.0,2512875899-126682.jpg,2460547536-274179.jpg,1.0,,,,AW9T591E49DCX
1128,43,,1.0,23.0,2238560245-182099.jpg,2874314526-289684.jpg,2.0,,,,AW9T591E49DCX
1129,44,,1.0,24.0,2898618444-142233.jpg,2238555262-330312.jpg,2.0,,,,AW9T591E49DCX
1130,45,,1.0,25.0,2883254439-140941.jpg,2981231446-294730.jpg,3.0,,,,AW9T591E49DCX
1131,46,,1.0,26.0,2898617468-68274.jpg,2901943387-368037.jpg,2.0,,,,AW9T591E49DCX
1132,47,right,1.0,27.0,right.jpg,,,right,1.4816,,AW9T591E49DCX
1133,48,,1.0,28.0,2964216465-219242.jpg,2238544191-252422.jpg,1.0,,,,AW9T591E49DCX
1134,49,,1.0,29.0,2874302418-65978.jpg,2898633321-291943.jpg,3.0,,,,AW9T591E49DCX
1135,50,,1.0,30.0,2868474407-362883.jpg,2238516618-25604.jpg,1.0,,,,AW9T591E49DCX
1136,51,,1.0,31.0,2898633421-291973.jpg,2512876023-52283.jpg,1.0,,,,AW9T591E49DCX
1137,52,,1.0,32.0,2238480677-317399.jpg,2238481630-168218.jpg,1.0,,,,AW9T591E49DCX
1138,53,,1.0,33.0,2449442529-124445.jpg,2452380171-273112.jpg,1.0,,,,AW9T591E49DCX
1139,54,,1.0,34.0,2460547467-349422.jpg,2864909447-362146.jpg,3.0,,,,AW9T591E49DCX
1140,55,,1.0,35.0,2446758985-197609.jpg,2864909447-362144.jpg,2.0,,,,AW9T591E49DCX
1141,56,,1.0,36.0,2864910426-287204.jpg,2874299429-139694.jpg,2.0,,,,AW9T591E49DCX
1142,57,,1.0,37.0,2874301407-363895.jpg,2986397322-371109.jpg,2.0,,,,AW9T591E49DCX
1143,58,,1.0,38.0,2901941401-292798.jpg,2883273443-68193.jpg,3.0,,,,AW9T591E49DCX
1144,59,,1.0,39.0,2901939379-143479.jpg,2460547467-349423.jpg,1.0,,,,AW9T591E49DCX
1145,60,,1.0,40.0,2874303365-214262.jpg,2609793677-355397.jpg,1.0,,,,AW9T591E49DCX
1146,61,,1.0,41.0,2874302418-65979.jpg,2238578544-111698.jpg,3.0,,,,AW9T591E49DCX
1147,62,,1.0,42.0,2901952513-70703.jpg,2238481198-19821.jpg,3.0,,,,AW9T591E49DCX
1148,63,right,1.0,43.0,right.jpg,,,right,2.0465,,AW9T591E49DCX
1149,64,,1.0,44.0,2449442529-124446.jpg,2446759803-49251.jpg,1.0,,,,AW9T591E49DCX
1150,65,,1.0,45.0,2238572663-35822.jpg,2864903351-286874.jpg,3.0,,,,AW9T591E49DCX
1151,66,,1.0,46.0,2452381505-199546.jpg,2238567168-34916.jpg,2.0,,,,AW9T591E49DCX
1152,67,,1.0,47.0,2964223381-294447.jpg,2901941438-69836.jpg,2.0,,,,AW9T591E49DCX
1153,68,,1.0,48.0,2964218374-144967.jpg,2883254439-140940.jpg,2.0,,,,AW9T591E49DCX
1154,69,,1.0,49.0,2898635428-69104.jpg,2901943411-292945.jpg,2.0,,,,AW9T591E49DCX
1155,70,,1.0,50.0,2964213381-294060.jpg,2458348012-349114.jpg,2.0,,,,AW9T591E49DCX
1156,71,,1.0,51.0,2864907432-362042.jpg,2989726338-74002.jpg,3.0,,,,AW9T591E49DCX
1157,72,,1.0,52.0,2981231403-71642.jpg,2274829821-263682.jpg,1.0,,,,AW9T591E49DCX
1158,73,,1.0,53.0,2449441881-272368.jpg,2449441881-272367.jpg,3.0,,,,AW9T591E49DCX
1159,74,right,1.0,54.0,right.jpg,,,right,2.305,,AW9T591E49DCX
1160,75,,1.0,55.0,2874299429-139695.jpg,2901942443-69923.jpg,2.0,,,,AW9T591E49DCX
1161,76,,1.0,56.0,2460547467-349421.jpg,2981235446-294901.jpg,3.0,,,,AW9T591E49DCX
1162,77,,1.0,57.0,2458347385-199723.jpg,2458347252-348911.jpg,3.0,,,,AW9T591E49DCX
1163,78,,1.0,58.0,2592380177-354629.jpg,2898633421-291974.jpg,1.0,,,,AW9T591E49DCX
1164,79,,1.0,59.0,2981241414-145842.jpg,2856919327-359676.jpg,1.0,,,,AW9T591E49DCX
1165,80,,1.0,60.0,2883268471-290842.jpg,2883255450-215310.jpg,2.0,,,,AW9T591E49DCX
1166,81,,1.0,61.0,2874307433-66280.jpg,2981246400-220365.jpg,2.0,,,,AW9T591E49DCX
1167,82,,1.0,62.0,2238428357-313623.jpg,2575121987-353817.jpg,3.0,,,,AW9T591E49DCX
1168,83,,1.0,63.0,2238481198-19822.jpg,2238480803-19737.jpg,3.0,,,,AW9T591E49DCX
1169,84,,1.0,64.0,2883268412-365898.jpg,2984626312-370849.jpg,1.0,,,,AW9T591E49DCX
1170,20,,1.0,0.0,2238580740-186218.jpg,2964220333-71258.jpg,3.0,,,,AWIF3UAIE0O80
1171,21,,1.0,1.0,2460547467-349421.jpg,2452380166-273110.jpg,2.0,,,,AWIF3UAIE0O80
1172,22,,1.0,2.0,2901948350-218459.jpg,2981246360-220352.jpg,3.0,,,,AWIF3UAIE0O80
1173,23,,1.0,3.0,2901941401-292798.jpg,2883273443-68193.jpg,3.0,,,,AWIF3UAIE0O80
1174,24,,1.0,4.0,2592380177-354629.jpg,2512875587-350044.jpg,3.0,,,,AWIF3UAIE0O80
1175,25,,1.0,5.0,2460547508-51571.jpg,2901941438-69835.jpg,3.0,,,,AWIF3UAIE0O80
1176,26,left,1.0,6.0,left.jpg,,,left,1.2383,,AWIF3UAIE0O80
1177,27,,1.0,7.0,2901939379-143479.jpg,2981240424-145794.jpg,3.0,,,,AWIF3UAIE0O80
1178,28,,1.0,8.0,2964218374-144967.jpg,2964218374-144968.jpg,1.0,,,,AWIF3UAIE0O80
1179,29,,1.0,9.0,2238560245-182099.jpg,2549106624-127823.jpg,1.0,,,,AWIF3UAIE0O80
1180,30,,1.0,10.0,2864907432-362042.jpg,2901947423-70310.jpg,2.0,,,,AWIF3UAIE0O80
1181,31,,1.0,11.0,2446759803-49249.jpg,2446760601-272099.jpg,1.0,,,,AWIF3UAIE0O80
1182,32,,1.0,12.0,2460547467-349422.jpg,2898618440-216545.jpg,1.0,,,,AWIF3UAIE0O80
1183,33,,1.0,13.0,2864910426-287204.jpg,2874299429-139694.jpg,2.0,,,,AWIF3UAIE0O80
1184,34,,1.0,14.0,2238425482-313537.jpg,2238471391-240918.jpg,1.0,,,,AWIF3UAIE0O80
1185,35,,1.0,15.0,2874302418-65978.jpg,2898626385-216899.jpg,1.0,,,,AWIF3UAIE0O80
1186,36,,1.0,16.0,2449441881-272368.jpg,2449441881-272367.jpg,3.0,,,,AWIF3UAIE0O80
1187,37,,1.0,17.0,2592380177-354626.jpg,2238117096-228518.jpg,3.0,,,,AWIF3UAIE0O80
1188,38,left,1.0,18.0,left.jpg,,,left,1.4338,,AWIF3UAIE0O80
1189,39,,1.0,19.0,2446759347-347016.jpg,2964224310-219528.jpg,1.0,,,,AWIF3UAIE0O80
1190,40,,1.0,20.0,2458347385-199723.jpg,2427874554-121863.jpg,2.0,,,,AWIF3UAIE0O80
1191,41,,1.0,21.0,2238572663-35822.jpg,2986419333-73361.jpg,1.0,,,,AWIF3UAIE0O80
1192,42,,1.0,22.0,2883254439-140941.jpg,2981231446-294730.jpg,3.0,,,,AWIF3UAIE0O80
1193,43,,1.0,23.0,2575120738-55529.jpg,2575120738-55528.jpg,2.0,,,,AWIF3UAIE0O80
1194,44,,1.0,24.0,2901952513-70703.jpg,2864907361-287062.jpg,1.0,,,,AWIF3UAIE0O80
1195,45,,1.0,25.0,2901947423-70311.jpg,2238577590-185467.jpg,3.0,,,,AWIF3UAIE0O80
1196,46,,1.0,26.0,2874303365-214262.jpg,2609793677-355397.jpg,1.0,,,,AWIF3UAIE0O80
1197,47,right,1.0,27.0,right.jpg,,,right,1.2826,,AWIF3UAIE0O80
1198,48,,1.0,28.0,2981231403-71642.jpg,2981244403-72215.jpg,2.0,,,,AWIF3UAIE0O80
1199,49,,1.0,29.0,2898633421-291973.jpg,2238550049-105691.jpg,3.0,,,,AWIF3UAIE0O80
1200,50,,1.0,30.0,2898635428-69104.jpg,2446759803-49250.jpg,1.0,,,,AWIF3UAIE0O80
1201,51,,1.0,31.0,2964223381-294447.jpg,2898628438-68785.jpg,3.0,,,,AWIF3UAIE0O80
1202,52,,1.0,32.0,2238428357-313623.jpg,2984615361-295509.jpg,2.0,,,,AWIF3UAIE0O80
1203,53,,1.0,33.0,2901939379-143480.jpg,2981229442-369621.jpg,2.0,,,,AWIF3UAIE0O80
1204,54,,1.0,34.0,2883268412-365898.jpg,2238436252-314037.jpg,3.0,,,,AWIF3UAIE0O80
1205,55,,1.0,35.0,2883268471-290842.jpg,2883255450-215310.jpg,2.0,,,,AWIF3UAIE0O80
1206,56,,1.0,36.0,2868474407-362883.jpg,2238516618-25604.jpg,1.0,,,,AWIF3UAIE0O80
1207,57,,1.0,37.0,2964213381-294060.jpg,2981244394-145974.jpg,1.0,,,,AWIF3UAIE0O80
1208,58,,1.0,38.0,2874301407-363895.jpg,2901947323-70275.jpg,3.0,,,,AWIF3UAIE0O80
1209,59,right,1.0,39.0,right.jpg,,,right,1.4255,,AWIF3UAIE0O80
1210,60,,1.0,40.0,2238480677-317399.jpg,2238573546-258454.jpg,2.0,,,,AWIF3UAIE0O80
1211,61,,1.0,41.0,2898634397-367080.jpg,2964217461-294238.jpg,3.0,,,,AWIF3UAIE0O80
1212,62,,1.0,42.0,2898624426-291546.jpg,2981236443-71859.jpg,2.0,,,,AWIF3UAIE0O80
1213,63,,1.0,43.0,2512875899-126682.jpg,2460547536-274179.jpg,1.0,,,,AWIF3UAIE0O80
1214,64,,1.0,44.0,2868475410-213219.jpg,2238480803-19739.jpg,2.0,,,,AWIF3UAIE0O80
1215,65,,1.0,45.0,2898635427-367120.jpg,2898621427-366486.jpg,3.0,,,,AWIF3UAIE0O80
1216,66,left,1.0,46.0,left.jpg,,,left,1.4126,,AWIF3UAIE0O80
1217,67,,1.0,47.0,2449442529-124445.jpg,2898632385-217137.jpg,3.0,,,,AWIF3UAIE0O80
1218,68,,1.0,48.0,2898618444-142233.jpg,2898631359-142721.jpg,1.0,,,,AWIF3UAIE0O80
1219,69,,1.0,49.0,2449442529-124446.jpg,2460547536-274181.jpg,2.0,,,,AWIF3UAIE0O80
1220,70,,1.0,50.0,2446758985-197609.jpg,2864909447-362144.jpg,2.0,,,,AWIF3UAIE0O80
1221,71,,1.0,51.0,2964216465-219242.jpg,2864900319-137787.jpg,2.0,,,,AWIF3UAIE0O80
1222,72,,1.0,52.0,2874302418-65979.jpg,2413147898-43548.jpg,1.0,,,,AWIF3UAIE0O80
1223,73,,1.0,53.0,2986451363-73599.jpg,2860302315-210704.jpg,2.0,,,,AWIF3UAIE0O80
1224,74,,1.0,54.0,2874299429-139695.jpg,2883266388-67750.jpg,1.0,,,,AWIF3UAIE0O80
1225,75,,1.0,55.0,2898618390-216538.jpg,2901939327-367670.jpg,2.0,,,,AWIF3UAIE0O80
1226,76,,1.0,56.0,2981241414-145842.jpg,2856919327-359676.jpg,1.0,,,,AWIF3UAIE0O80
1227,77,,1.0,57.0,2874307433-66280.jpg,2981246400-220365.jpg,2.0,,,,AWIF3UAIE0O80
1228,78,,1.0,58.0,2452381505-199546.jpg,2238567168-34916.jpg,2.0,,,,AWIF3UAIE0O80
1229,79,,1.0,59.0,2592379964-131054.jpg,2592380272-354673.jpg,3.0,,,,AWIF3UAIE0O80
1230,80,,1.0,60.0,2238481928-19949.jpg,2864900357-361688.jpg,2.0,,,,AWIF3UAIE0O80
1231,81,,1.0,61.0,2883256307-365057.jpg,2864904453-63933.jpg,3.0,,,,AWIF3UAIE0O80
1232,82,,1.0,62.0,2898617468-68274.jpg,2864906345-212360.jpg,1.0,,,,AWIF3UAIE0O80
1233,83,,1.0,63.0,2452380832-348593.jpg,2449442181-272436.jpg,3.0,,,,AWIF3UAIE0O80
1234,84,,1.0,64.0,2238481198-19822.jpg,2862691449-137104.jpg,1.0,,,,AWIF3UAIE0O80
1235,20,,1.0,0.0,2238572663-35822.jpg,2238571930-184143.jpg,2.0,,,,AWRRM9NRX4TZX
1236,21,,1.0,1.0,2238481198-19822.jpg,2238480803-19737.jpg,3.0,,,,AWRRM9NRX4TZX
1237,22,,1.0,2.0,2874302418-65978.jpg,2898626385-216899.jpg,1.0,,,,AWRRM9NRX4TZX
1238,23,,1.0,3.0,2868474407-362883.jpg,2238516618-25604.jpg,1.0,,,,AWRRM9NRX4TZX
1239,24,,1.0,4.0,2901947423-70311.jpg,2860312398-62572.jpg,1.0,,,,AWRRM9NRX4TZX
1240,25,,1.0,5.0,2986451363-73599.jpg,2901939327-367669.jpg,1.0,,,,AWRRM9NRX4TZX
1241,26,,1.0,6.0,2898635427-367120.jpg,2898621427-366486.jpg,3.0,,,,AWRRM9NRX4TZX
