,index,demo_encoding_loop.thisTrialN,DemoImage,DemoCorrect,demo_encoding_response.rt,demo_encoding_response.keys,index,demo_test_response.keys,demo_test_response.corr,demo_test_response.rt,demo_test_loop.thisTrialN,DemoImage1,DemoImage2,DemoCorrectTest,subject
0,4,0.0,flower1.jpg,,,,12.0,right,0.0,1.9795,0.0,flower1.jpg,flower1_pair.jpg,left,A136K4YZY2OFTV
1,5,1.0,flower2.jpg,,,,13.0,right,1.0,1.7516,1.0,flower2_pair.jpg,flower2.jpg,right,A136K4YZY2OFTV
2,6,2.0,left.jpg,left,0.5551,left,14.0,left,1.0,1.2935,2.0,flower3.jpg,flower3_pair.jpg,left,A136K4YZY2OFTV
3,7,3.0,flower3.jpg,,,,15.0,right,0.0,1.459,3.0,flower4.jpg,flower4_pair.jpg,left,A136K4YZY2OFTV
4,8,4.0,flower4.jpg,,,,16.0,right,1.0,1.5762,4.0,flower5_pair.jpg,flower5.jpg,right,A136K4YZY2OFTV
5,9,5.0,flower5.jpg,,,,17.0,left,1.0,1.9971,5.0,flower6.jpg,flower6_pair.jpg,left,A136K4YZY2OFTV
6,10,6.0,flower6.jpg,,,,,,,,,,,,A136K4YZY2OFTV
7,4,0.0,flower1.jpg,,,,12.0,left,1.0,10.9798,0.0,flower1.jpg,flower1_pair.jpg,left,A1FDK83WDHKO9S
8,5,1.0,flower2.jpg,,,,13.0,left,0.0,7.3092,1.0,flower2_pair.jpg,flower2.jpg,right,A1FDK83WDHKO9S
9,6,2.0,left.jpg,left,1.6842,left,14.0,right,0.0,2.0053,2.0,flower3.jpg,flower3_pair.jpg,left,A1FDK83WDHKO9S
10,7,3.0,flower3.jpg,,,,15.0,right,0.0,2.3446,3.0,flower4.jpg,flower4_pair.jpg,left,A1FDK83WDHKO9S
11,8,4.0,flower4.jpg,,,,16.0,left,0.0,2.8243,4.0,flower5_pair.jpg,flower5.jpg,right,A1FDK83WDHKO9S
12,9,5.0,flower5.jpg,,,,17.0,right,0.0,3.1442,5.0,flower6.jpg,flower6_pair.jpg,left,A1FDK83WDHKO9S
13,10,6.0,flower6.jpg,,,,,,,,,,,,A1FDK83WDHKO9S
14,4,0.0,flower1.jpg,,,,12.0,left,1.0,9.8555,0.0,flower1.jpg,flower1_pair.jpg,left,A1FMVUYV72MUO3
15,5,1.0,flower2.jpg,,,,13.0,left,0.0,4.3865,1.0,flower2_pair.jpg,flower2.jpg,right,A1FMVUYV72MUO3
16,6,2.0,left.jpg,left,0.7591,left,14.0,left,1.0,3.7901,2.0,flower3.jpg,flower3_pair.jpg,left,A1FMVUYV72MUO3
17,7,3.0,flower3.jpg,,,,15.0,right,0.0,3.07,3.0,flower4.jpg,flower4_pair.jpg,left,A1FMVUYV72MUO3
18,8,4.0,flower4.jpg,,,,16.0,right,1.0,4.7601,4.0,flower5_pair.jpg,flower5.jpg,right,A1FMVUYV72MUO3
19,9,5.0,flower5.jpg,,,,17.0,left,1.0,2.2776,5.0,flower6.jpg,flower6_pair.jpg,left,A1FMVUYV72MUO3
20,10,6.0,flower6.jpg,,,,,,,,,,,,A1FMVUYV72MUO3
21,4,0.0,flower1.jpg,,,,12.0,left,1.0,22.4418,0.0,flower1.jpg,flower1_pair.jpg,left,A1ILCIHMXPNTMT
22,5,1.0,flower2.jpg,,,,13.0,left,0.0,1.1906,1.0,flower2_pair.jpg,flower2.jpg,right,A1ILCIHMXPNTMT
23,6,2.0,left.jpg,left,0.9044,left,14.0,right,0.0,1.1333,2.0,flower3.jpg,flower3_pair.jpg,left,A1ILCIHMXPNTMT
24,7,3.0,flower3.jpg,,,,15.0,right,0.0,1.4118,3.0,flower4.jpg,flower4_pair.jpg,left,A1ILCIHMXPNTMT
25,8,4.0,flower4.jpg,,,,16.0,right,1.0,1.5087,4.0,flower5_pair.jpg,flower5.jpg,right,A1ILCIHMXPNTMT
26,9,5.0,flower5.jpg,,,,17.0,right,0.0,1.2581,5.0,flower6.jpg,flower6_pair.jpg,left,A1ILCIHMXPNTMT
27,10,6.0,flower6.jpg,,,,,,,,,,,,A1ILCIHMXPNTMT
28,4,0.0,flower1.jpg,,,,12.0,left,1.0,3.768,0.0,flower1.jpg,flower1_pair.jpg,left,A2MV1R6YYOIO30
29,5,1.0,flower2.jpg,,,,13.0,right,1.0,1.803,1.0,flower2_pair.jpg,flower2.jpg,right,A2MV1R6YYOIO30
30,6,2.0,left.jpg,left,1.1574,left,14.0,left,1.0,2.0413,2.0,flower3.jpg,flower3_pair.jpg,left,A2MV1R6YYOIO30
31,7,3.0,flower3.jpg,,,,15.0,right,0.0,2.3027,3.0,flower4.jpg,flower4_pair.jpg,left,A2MV1R6YYOIO30
32,8,4.0,flower4.jpg,,,,16.0,right,1.0,2.4973,4.0,flower5_pair.jpg,flower5.jpg,right,A2MV1R6YYOIO30
33,9,5.0,flower5.jpg,,,,17.0,left,1.0,2.6332,5.0,flower6.jpg,flower6_pair.jpg,left,A2MV1R6YYOIO30
34,10,6.0,flower6.jpg,,,,,,,,,,,,A2MV1R6YYOIO30
35,4,0.0,flower1.jpg,,,,12.0,left,1.0,2.802,0.0,flower1.jpg,flower1_pair.jpg,left,A2O70SKSNWL8LQ
36,5,1.0,flower2.jpg,,,,13.0,right,1.0,5.374,1.0,flower2_pair.jpg,flower2.jpg,right,A2O70SKSNWL8LQ
37,6,2.0,left.jpg,left,1.302,left,14.0,left,1.0,2.161,2.0,flower3.jpg,flower3_pair.jpg,left,A2O70SKSNWL8LQ
38,7,3.0,flower3.jpg,,,,15.0,left,1.0,3.229,3.0,flower4.jpg,flower4_pair.jpg,left,A2O70SKSNWL8LQ
39,8,4.0,flower4.jpg,,,,16.0,left,0.0,2.991,4.0,flower5_pair.jpg,flower5.jpg,right,A2O70SKSNWL8LQ
40,9,5.0,flower5.jpg,,,,17.0,left,1.0,2.004,5.0,flower6.jpg,flower6_pair.jpg,left,A2O70SKSNWL8LQ
41,10,6.0,flower6.jpg,,,,,,,,,,,,A2O70SKSNWL8LQ
42,4,0.0,flower1.jpg,,,,12.0,left,1.0,1.7609,0.0,flower1.jpg,flower1_pair.jpg,left,A2T5CROJ0FWIJY
43,5,1.0,flower2.jpg,,,,13.0,left,0.0,2.1439,1.0,flower2_pair.jpg,flower2.jpg,right,A2T5CROJ0FWIJY
44,6,2.0,left.jpg,left,0.7489,left,14.0,left,1.0,1.7941,2.0,flower3.jpg,flower3_pair.jpg,left,A2T5CROJ0FWIJY
45,7,3.0,flower3.jpg,,,,15.0,left,1.0,1.794,3.0,flower4.jpg,flower4_pair.jpg,left,A2T5CROJ0FWIJY
46,8,4.0,flower4.jpg,,,,16.0,right,1.0,1.8928,4.0,flower5_pair.jpg,flower5.jpg,right,A2T5CROJ0FWIJY
47,9,5.0,flower5.jpg,,,,17.0,left,1.0,1.6611,5.0,flower6.jpg,flower6_pair.jpg,left,A2T5CROJ0FWIJY
48,10,6.0,flower6.jpg,,,,,,,,,,,,A2T5CROJ0FWIJY
49,4,0.0,flower1.jpg,,,,12.0,left,1.0,5.1411,0.0,flower1.jpg,flower1_pair.jpg,left,A387FNIV21H4T2
50,5,1.0,flower2.jpg,,,,13.0,left,0.0,3.391,1.0,flower2_pair.jpg,flower2.jpg,right,A387FNIV21H4T2
51,6,2.0,left.jpg,left,1.0552,left,14.0,left,1.0,2.5772,2.0,flower3.jpg,flower3_pair.jpg,left,A387FNIV21H4T2
52,7,3.0,flower3.jpg,,,,15.0,left,1.0,1.9457,3.0,flower4.jpg,flower4_pair.jpg,left,A387FNIV21H4T2
53,8,4.0,flower4.jpg,,,,16.0,right,1.0,1.5825,4.0,flower5_pair.jpg,flower5.jpg,right,A387FNIV21H4T2
54,9,5.0,flower5.jpg,,,,17.0,left,1.0,1.8061,5.0,flower6.jpg,flower6_pair.jpg,left,A387FNIV21H4T2
55,10,6.0,flower6.jpg,,,,,,,,,,,,A387FNIV21H4T2
56,4,0.0,flower1.jpg,,,,12.0,left,1.0,2.0571,0.0,flower1.jpg,flower1_pair.jpg,left,A3BM2QI9E6G3KS
57,5,1.0,flower2.jpg,,,,13.0,left,0.0,2.0056,1.0,flower2_pair.jpg,flower2.jpg,right,A3BM2QI9E6G3KS
58,6,2.0,left.jpg,left,0.9805,left,14.0,left,1.0,1.6841,2.0,flower3.jpg,flower3_pair.jpg,left,A3BM2QI9E6G3KS
59,7,3.0,flower3.jpg,,,,15.0,right,0.0,1.2695,3.0,flower4.jpg,flower4_pair.jpg,left,A3BM2QI9E6G3KS
60,8,4.0,flower4.jpg,,,,16.0,right,1.0,1.6655,4.0,flower5_pair.jpg,flower5.jpg,right,A3BM2QI9E6G3KS
61,9,5.0,flower5.jpg,,,,17.0,left,1.0,1.4397,5.0,flower6.jpg,flower6_pair.jpg,left,A3BM2QI9E6G3KS
62,10,6.0,flower6.jpg,,,,,,,,,,,,A3BM2QI9E6G3KS
63,4,0.0,flower1.jpg,,,,12.0,left,1.0,2.361,0.0,flower1.jpg,flower1_pair.jpg,left,A3EVLXA6P3XRBU
64,5,1.0,flower2.jpg,,,,13.0,right,1.0,3.287,1.0,flower2_pair.jpg,flower2.jpg,right,A3EVLXA6P3XRBU
65,6,2.0,left.jpg,left,1.244,left,14.0,left,1.0,2.131,2.0,flower3.jpg,flower3_pair.jpg,left,A3EVLXA6P3XRBU
66,7,3.0,flower3.jpg,,,,15.0,left,1.0,2.019,3.0,flower4.jpg,flower4_pair.jpg,left,A3EVLXA6P3XRBU
67,8,4.0,flower4.jpg,,,,16.0,right,1.0,2.496,4.0,flower5_pair.jpg,flower5.jpg,right,A3EVLXA6P3XRBU
68,9,5.0,flower5.jpg,,,,17.0,left,1.0,1.868,5.0,flower6.jpg,flower6_pair.jpg,left,A3EVLXA6P3XRBU
69,10,6.0,flower6.jpg,,,,,,,,,,,,A3EVLXA6P3XRBU
70,4,0.0,flower1.jpg,,,,12.0,left,1.0,3.3203,0.0,flower1.jpg,flower1_pair.jpg,left,A3TI4G63J6VCKV
71,5,1.0,flower2.jpg,,,,13.0,right,1.0,1.8955,1.0,flower2_pair.jpg,flower2.jpg,right,A3TI4G63J6VCKV
72,6,2.0,left.jpg,left,1.0748,left,14.0,left,1.0,2.8798,2.0,flower3.jpg,flower3_pair.jpg,left,A3TI4G63J6VCKV
73,7,3.0,flower3.jpg,,,,15.0,right,0.0,4.0659,3.0,flower4.jpg,flower4_pair.jpg,left,A3TI4G63J6VCKV
74,8,4.0,flower4.jpg,,,,16.0,right,1.0,1.8709,4.0,flower5_pair.jpg,flower5.jpg,right,A3TI4G63J6VCKV
75,9,5.0,flower5.jpg,,,,17.0,left,1.0,2.2026,5.0,flower6.jpg,flower6_pair.jpg,left,A3TI4G63J6VCKV
76,10,6.0,flower6.jpg,,,,,,,,,,,,A3TI4G63J6VCKV
77,4,0.0,flower1.jpg,,,,12.0,left,1.0,12.1498,0.0,flower1.jpg,flower1_pair.jpg,left,A6IKEWK6FWOLC
78,5,1.0,flower2.jpg,,,,13.0,left,0.0,17.7155,1.0,flower2_pair.jpg,flower2.jpg,right,A6IKEWK6FWOLC
79,6,2.0,left.jpg,left,1.5479,left,14.0,left,1.0,20.7723,2.0,flower3.jpg,flower3_pair.jpg,left,A6IKEWK6FWOLC
80,7,3.0,flower3.jpg,,,,15.0,left,1.0,30.3251,3.0,flower4.jpg,flower4_pair.jpg,left,A6IKEWK6FWOLC
81,8,4.0,flower4.jpg,,,,16.0,right,1.0,14.2697,4.0,flower5_pair.jpg,flower5.jpg,right,A6IKEWK6FWOLC
82,9,5.0,flower5.jpg,,,,17.0,left,1.0,12.6906,5.0,flower6.jpg,flower6_pair.jpg,left,A6IKEWK6FWOLC
83,10,6.0,flower6.jpg,,,,,,,,,,,,A6IKEWK6FWOLC
84,4,0.0,flower1.jpg,,,,12.0,left,1.0,3.3482,0.0,flower1.jpg,flower1_pair.jpg,left,AG053ALQ5ZNCU
85,5,1.0,flower2.jpg,,,,13.0,right,1.0,0.8216,1.0,flower2_pair.jpg,flower2.jpg,right,AG053ALQ5ZNCU
86,6,2.0,left.jpg,left,1.044,left,14.0,left,1.0,0.4903,2.0,flower3.jpg,flower3_pair.jpg,left,AG053ALQ5ZNCU
87,7,3.0,flower3.jpg,,,,15.0,right,0.0,0.011,3.0,flower4.jpg,flower4_pair.jpg,left,AG053ALQ5ZNCU
88,8,4.0,flower4.jpg,,,,16.0,left,0.0,0.0129,4.0,flower5_pair.jpg,flower5.jpg,right,AG053ALQ5ZNCU
89,9,5.0,flower5.jpg,,,,17.0,right,0.0,0.1944,5.0,flower6.jpg,flower6_pair.jpg,left,AG053ALQ5ZNCU
90,10,6.0,flower6.jpg,,,,,,,,,,,,AG053ALQ5ZNCU
91,4,0.0,flower1.jpg,,,,12.0,left,1.0,4.167,0.0,flower1.jpg,flower1_pair.jpg,left,AJZRDVBZ6TKGH
92,5,1.0,flower2.jpg,,,,13.0,left,0.0,3.826,1.0,flower2_pair.jpg,flower2.jpg,right,AJZRDVBZ6TKGH
93,6,2.0,left.jpg,left,1.087,left,14.0,left,1.0,1.61,2.0,flower3.jpg,flower3_pair.jpg,left,AJZRDVBZ6TKGH
94,7,3.0,flower3.jpg,,,,15.0,right,0.0,1.899,3.0,flower4.jpg,flower4_pair.jpg,left,AJZRDVBZ6TKGH
95,8,4.0,flower4.jpg,,,,16.0,right,1.0,1.513,4.0,flower5_pair.jpg,flower5.jpg,right,AJZRDVBZ6TKGH
96,9,5.0,flower5.jpg,,,,17.0,left,1.0,1.947,5.0,flower6.jpg,flower6_pair.jpg,left,AJZRDVBZ6TKGH
97,10,6.0,flower6.jpg,,,,,,,,,,,,AJZRDVBZ6TKGH
98,4,0.0,flower1.jpg,,,,12.0,left,1.0,2.3243,0.0,flower1.jpg,flower1_pair.jpg,left,AK8ONB60Q4RJ5
99,5,1.0,flower2.jpg,,,,13.0,left,0.0,2.3128,1.0,flower2_pair.jpg,flower2.jpg,right,AK8ONB60Q4RJ5
100,6,2.0,left.jpg,left,0.532,left,14.0,left,1.0,2.2035,2.0,flower3.jpg,flower3_pair.jpg,left,AK8ONB60Q4RJ5
101,7,3.0,flower3.jpg,,,,15.0,right,0.0,1.7729,3.0,flower4.jpg,flower4_pair.jpg,left,AK8ONB60Q4RJ5
102,8,4.0,flower4.jpg,,,,16.0,right,1.0,2.1957,4.0,flower5_pair.jpg,flower5.jpg,right,AK8ONB60Q4RJ5
103,9,5.0,flower5.jpg,,,,17.0,right,0.0,2.3003,5.0,flower6.jpg,flower6_pair.jpg,left,AK8ONB60Q4RJ5
104,10,6.0,flower6.jpg,,,,,,,,,,,,AK8ONB60Q4RJ5
105,4,0.0,flower1.jpg,,,,12.0,left,1.0,3.1853,0.0,flower1.jpg,flower1_pair.jpg,left,AQ5CSVCNBPSIJ
106,5,1.0,flower2.jpg,,,,13.0,right,1.0,2.5783,1.0,flower2_pair.jpg,flower2.jpg,right,AQ5CSVCNBPSIJ
107,6,2.0,left.jpg,left,1.2149,left,14.0,left,1.0,2.3632,2.0,flower3.jpg,flower3_pair.jpg,left,AQ5CSVCNBPSIJ
108,7,3.0,flower3.jpg,,,,15.0,right,0.0,3.3566,3.0,flower4.jpg,flower4_pair.jpg,left,AQ5CSVCNBPSIJ
109,8,4.0,flower4.jpg,,,,16.0,right,1.0,2.2167,4.0,flower5_pair.jpg,flower5.jpg,right,AQ5CSVCNBPSIJ
110,9,5.0,flower5.jpg,,,,17.0,right,0.0,2.0783,5.0,flower6.jpg,flower6_pair.jpg,left,AQ5CSVCNBPSIJ
111,10,6.0,flower6.jpg,,,,,,,,,,,,AQ5CSVCNBPSIJ
112,4,0.0,flower1.jpg,,,,12.0,right,0.0,2.893,0.0,flower1.jpg,flower1_pair.jpg,left,AR390VVG2FJKJ
113,5,1.0,flower2.jpg,,,,13.0,left,0.0,3.638,1.0,flower2_pair.jpg,flower2.jpg,right,AR390VVG2FJKJ
114,6,2.0,left.jpg,left,1.186,left,14.0,left,1.0,2.627,2.0,flower3.jpg,flower3_pair.jpg,left,AR390VVG2FJKJ
115,7,3.0,flower3.jpg,,,,15.0,right,0.0,3.927,3.0,flower4.jpg,flower4_pair.jpg,left,AR390VVG2FJKJ
116,8,4.0,flower4.jpg,,,,16.0,right,1.0,4.001,4.0,flower5_pair.jpg,flower5.jpg,right,AR390VVG2FJKJ
117,9,5.0,flower5.jpg,,,,17.0,left,1.0,2.157,5.0,flower6.jpg,flower6_pair.jpg,left,AR390VVG2FJKJ
118,10,6.0,flower6.jpg,,,,,,,,,,,,AR390VVG2FJKJ
119,4,0.0,flower1.jpg,,,,12.0,left,1.0,7.3157,0.0,flower1.jpg,flower1_pair.jpg,left,AW9T591E49DCX
120,5,1.0,flower2.jpg,,,,13.0,left,0.0,4.6988,1.0,flower2_pair.jpg,flower2.jpg,right,AW9T591E49DCX
121,6,2.0,left.jpg,left,2.6982,left,14.0,right,0.0,9.2098,2.0,flower3.jpg,flower3_pair.jpg,left,AW9T591E49DCX
122,7,3.0,flower3.jpg,,,,15.0,left,1.0,3.1879,3.0,flower4.jpg,flower4_pair.jpg,left,AW9T591E49DCX
123,8,4.0,flower4.jpg,,,,16.0,right,1.0,3.5864,4.0,flower5_pair.jpg,flower5.jpg,right,AW9T591E49DCX
124,9,5.0,flower5.jpg,,,,17.0,left,1.0,3.0097,5.0,flower6.jpg,flower6_pair.jpg,left,AW9T591E49DCX
125,10,6.0,flower6.jpg,,,,,,,,,,,,AW9T591E49DCX
126,4,0.0,flower1.jpg,,,,12.0,right,0.0,10.4533,0.0,flower1.jpg,flower1_pair.jpg,left,AWIF3UAIE0O80
127,5,1.0,flower2.jpg,,,,13.0,right,1.0,11.5753,1.0,flower2_pair.jpg,flower2.jpg,right,AWIF3UAIE0O80
128,6,2.0,left.jpg,left,2.1132,left,14.0,right,0.0,1.9147,2.0,flower3.jpg,flower3_pair.jpg,left,AWIF3UAIE0O80
129,7,3.0,flower3.jpg,,,,15.0,right,0.0,6.0995,3.0,flower4.jpg,flower4_pair.jpg,left,AWIF3UAIE0O80
130,8,4.0,flower4.jpg,,,,16.0,right,1.0,3.2769,4.0,flower5_pair.jpg,flower5.jpg,right,AWIF3UAIE0O80
131,9,5.0,flower5.jpg,,,,17.0,right,0.0,0.9976,5.0,flower6.jpg,flower6_pair.jpg,left,AWIF3UAIE0O80
132,10,6.0,flower6.jpg,,,,,,,,,,,,AWIF3UAIE0O80
133,4,0.0,flower1.jpg,,,,12.0,left,1.0,4.2399,0.0,flower1.jpg,flower1_pair.jpg,left,AWRRM9NRX4TZX
134,5,1.0,flower2.jpg,,,,13.0,right,1.0,1.5188,1.0,flower2_pair.jpg,flower2.jpg,right,AWRRM9NRX4TZX
135,6,2.0,left.jpg,left,0.8945,left,14.0,left,1.0,1.4511,2.0,flower3.jpg,flower3_pair.jpg,left,AWRRM9NRX4TZX
136,7,3.0,flower3.jpg,,,,15.0,right,0.0,2.1269,3.0,flower4.jpg,flower4_pair.jpg,left,AWRRM9NRX4TZX
137,8,4.0,flower4.jpg,,,,16.0,left,0.0,2.305,4.0,flower5_pair.jpg,flower5.jpg,right,AWRRM9NRX4TZX
138,9,5.0,flower5.jpg,,,,17.0,left,1.0,2.3757,5.0,flower6.jpg,flower6_pair.jpg,left,AWRRM9NRX4TZX
139,10,6.0,flower6.jpg,,,,,,,,,,,,AWRRM9NRX4TZX
