,layer,correct,test_test_response.keys,test_test_response.corr,test_test_response.rt,trials_2.thisRepN,trials_2.thisTrialN,trials_2.thisN,trials_2.thisIndex,trials_2.ran,image1,image2,subject
0,3.0,right,right,1.0,2.7482,0.0,0.0,0.0,0.0,1.0,2864911457-362260.jpg,2874303365-214262.jpg,A136K4YZY2OFTV
1,3.0,right,left,0.0,1.8474,0.0,1.0,1.0,1.0,1.0,2994401319-148290.jpg,2452381505-199546.jpg,A136K4YZY2OFTV
2,2.0,right,right,1.0,2.0504,0.0,2.0,2.0,2.0,1.0,2575118671-277663.jpg,2898633421-291973.jpg,A136K4YZY2OFTV
3,1.0,left,right,0.0,1.4693,0.0,3.0,3.0,3.0,1.0,2512875899-126682.jpg,2460547536-274179.jpg,A136K4YZY2OFTV
4,1.0,left,left,1.0,1.9959,0.0,4.0,4.0,4.0,1.0,2864907432-362042.jpg,2864901420-212147.jpg,A136K4YZY2OFTV
5,3.0,right,left,0.0,1.9959,0.0,5.0,5.0,5.0,1.0,2238578544-111698.jpg,2874302418-65979.jpg,A136K4YZY2OFTV
6,2.0,right,right,1.0,1.101,0.0,6.0,6.0,6.0,1.0,2238481813-19930.jpg,2452380832-348593.jpg,A136K4YZY2OFTV
7,2.0,right,right,1.0,2.4635,0.0,7.0,7.0,7.0,1.0,2874301404-139813.jpg,2981241414-145842.jpg,A136K4YZY2OFTV
8,3.0,left,left,1.0,1.6743,0.0,8.0,8.0,8.0,1.0,2238428357-313623.jpg,2575121987-353817.jpg,A136K4YZY2OFTV
9,2.0,left,left,1.0,1.1458,0.0,9.0,9.0,9.0,1.0,2898635428-69104.jpg,2901943411-292945.jpg,A136K4YZY2OFTV
10,3.0,right,left,0.0,2.2648,0.0,10.0,10.0,10.0,1.0,2883273443-68193.jpg,2901941401-292798.jpg,A136K4YZY2OFTV
11,3.0,left,right,0.0,1.2799,0.0,11.0,11.0,11.0,1.0,2446759347-347016.jpg,2238569117-333045.jpg,A136K4YZY2OFTV
12,3.0,left,left,1.0,2.0299,0.0,12.0,12.0,12.0,1.0,2874302418-65978.jpg,2898633321-291943.jpg,A136K4YZY2OFTV
13,3.0,left,left,1.0,1.166,0.0,13.0,13.0,13.0,1.0,2446758985-197609.jpg,2898624426-291544.jpg,A136K4YZY2OFTV
14,1.0,left,left,1.0,1.7361,0.0,14.0,14.0,14.0,1.0,2575120738-55529.jpg,2898632385-217138.jpg,A136K4YZY2OFTV
15,1.0,right,right,1.0,1.7643,0.0,15.0,15.0,15.0,1.0,2986447306-296584.jpg,2874307433-66280.jpg,A136K4YZY2OFTV
16,2.0,left,left,1.0,0.9651,0.0,16.0,16.0,16.0,1.0,2898617468-68274.jpg,2901943387-368037.jpg,A136K4YZY2OFTV
17,2.0,right,left,0.0,1.4176,0.0,17.0,17.0,17.0,1.0,2981244403-72215.jpg,2981231403-71642.jpg,A136K4YZY2OFTV
18,2.0,left,left,1.0,1.3377,0.0,18.0,18.0,18.0,1.0,2874299429-139695.jpg,2901942443-69923.jpg,A136K4YZY2OFTV
19,2.0,right,right,1.0,1.1528,0.0,19.0,19.0,19.0,1.0,2874299429-139694.jpg,2864910426-287204.jpg,A136K4YZY2OFTV
20,2.0,right,right,1.0,2.7017,0.0,20.0,20.0,20.0,1.0,2868469411-287540.jpg,2901952513-70703.jpg,A136K4YZY2OFTV
21,1.0,left,left,1.0,1.275,0.0,21.0,21.0,21.0,1.0,2460547467-349421.jpg,2898631394-142727.jpg,A136K4YZY2OFTV
22,3.0,left,left,1.0,0.8347,0.0,22.0,22.0,22.0,1.0,2460547467-349422.jpg,2864909447-362146.jpg,A136K4YZY2OFTV
23,3.0,left,right,0.0,2.0297,0.0,23.0,23.0,23.0,1.0,2874301407-363895.jpg,2901947323-70275.jpg,A136K4YZY2OFTV
24,3.0,left,left,1.0,1.5819,0.0,24.0,24.0,24.0,1.0,2238481928-19949.jpg,2981241419-145844.jpg,A136K4YZY2OFTV
25,3.0,right,left,0.0,1.5338,0.0,25.0,25.0,25.0,1.0,2864903351-286874.jpg,2238572663-35822.jpg,A136K4YZY2OFTV
26,1.0,right,right,1.0,1.7842,0.0,26.0,26.0,26.0,1.0,2984626312-370849.jpg,2883268412-365898.jpg,A136K4YZY2OFTV
27,1.0,left,left,1.0,2.1316,0.0,27.0,27.0,27.0,1.0,2458347385-199723.jpg,2238480434-93829.jpg,A136K4YZY2OFTV
28,2.0,left,right,0.0,2.0228,0.0,28.0,28.0,28.0,1.0,2901939379-143480.jpg,2981229442-369621.jpg,A136K4YZY2OFTV
29,1.0,right,left,0.0,1.9814,0.0,29.0,29.0,29.0,1.0,2981244394-145974.jpg,2964213381-294060.jpg,A136K4YZY2OFTV
30,2.0,right,left,0.0,1.0995,0.0,30.0,30.0,30.0,1.0,2883255450-215310.jpg,2883268471-290842.jpg,A136K4YZY2OFTV
31,1.0,right,left,0.0,1.8234,0.0,31.0,31.0,31.0,1.0,2460547291-274110.jpg,2460547508-51571.jpg,A136K4YZY2OFTV
32,1.0,left,left,1.0,2.5312,0.0,32.0,32.0,32.0,1.0,2592379964-131054.jpg,2575963989-130576.jpg,A136K4YZY2OFTV
33,1.0,left,right,0.0,2.2649,0.0,33.0,33.0,33.0,1.0,2868474407-362883.jpg,2238516618-25604.jpg,A136K4YZY2OFTV
34,1.0,right,right,1.0,1.9649,0.0,34.0,34.0,34.0,1.0,2986449336-296644.jpg,2898618390-216538.jpg,A136K4YZY2OFTV
35,1.0,left,left,1.0,2.0167,0.0,35.0,35.0,35.0,1.0,2449441881-272368.jpg,2883268412-365899.jpg,A136K4YZY2OFTV
36,1.0,left,left,1.0,1.1157,0.0,36.0,36.0,36.0,1.0,2238580740-186218.jpg,2238550816-254000.jpg,A136K4YZY2OFTV
37,3.0,right,right,1.0,3.4892,0.0,37.0,37.0,37.0,1.0,2898632385-217137.jpg,2449442529-124445.jpg,A136K4YZY2OFTV
38,3.0,left,right,0.0,1.7576,0.0,38.0,38.0,38.0,1.0,2898624426-291546.jpg,2981235446-294900.jpg,A136K4YZY2OFTV
39,3.0,left,right,0.0,1.9489,0.0,39.0,39.0,39.0,1.0,2986451363-73599.jpg,2238434559-90406.jpg,A136K4YZY2OFTV
40,3.0,right,right,1.0,1.7202,0.0,40.0,40.0,40.0,1.0,2981240424-145794.jpg,2901939379-143479.jpg,A136K4YZY2OFTV
41,3.0,left,left,1.0,1.5711,0.0,41.0,41.0,41.0,1.0,2964218374-144967.jpg,2981231446-294732.jpg,A136K4YZY2OFTV
42,2.0,right,left,0.0,1.3517,0.0,42.0,42.0,42.0,1.0,2864900319-137787.jpg,2964216465-219242.jpg,A136K4YZY2OFTV
43,1.0,left,right,0.0,0.9992,0.0,43.0,43.0,43.0,1.0,2898635427-367120.jpg,2901946439-144040.jpg,A136K4YZY2OFTV
44,3.0,left,left,1.0,2.7722,0.0,44.0,44.0,44.0,1.0,2898618444-142233.jpg,2898618444-142232.jpg,A136K4YZY2OFTV
45,1.0,right,left,0.0,1.3116,0.0,45.0,45.0,45.0,1.0,2860312398-62572.jpg,2901947423-70311.jpg,A136K4YZY2OFTV
46,1.0,right,right,1.0,1.6325,0.0,46.0,46.0,46.0,1.0,2549106624-127823.jpg,2238560245-182099.jpg,A136K4YZY2OFTV
47,2.0,left,left,1.0,1.3999,0.0,47.0,47.0,47.0,1.0,2238481198-19822.jpg,2901946436-293242.jpg,A136K4YZY2OFTV
48,2.0,right,right,1.0,1.2386,0.0,48.0,48.0,48.0,1.0,2417208001-267065.jpg,2901948350-218459.jpg,A136K4YZY2OFTV
49,2.0,right,right,1.0,1.1521,0.0,49.0,49.0,49.0,1.0,2579432534-130704.jpg,2592380177-354629.jpg,A136K4YZY2OFTV
50,2.0,left,left,1.0,0.9992,0.0,50.0,50.0,50.0,1.0,2238425482-313537.jpg,2238436322-314047.jpg,A136K4YZY2OFTV
51,2.0,right,left,0.0,1.0007,0.0,51.0,51.0,51.0,1.0,2898632385-217136.jpg,2883254439-140941.jpg,A136K4YZY2OFTV
52,1.0,left,left,1.0,0.9843,0.0,52.0,52.0,52.0,1.0,2964223381-294447.jpg,2427874231-269884.jpg,A136K4YZY2OFTV
53,3.0,left,left,1.0,1.3844,0.0,53.0,53.0,53.0,1.0,2883256307-365057.jpg,2864904453-63933.jpg,A136K4YZY2OFTV
54,2.0,left,right,0.0,1.1495,0.0,54.0,54.0,54.0,1.0,2238480677-317399.jpg,2238573546-258454.jpg,A136K4YZY2OFTV
55,3.0,right,left,0.0,1.0646,0.0,55.0,55.0,55.0,1.0,2964217461-294238.jpg,2898634397-367080.jpg,A136K4YZY2OFTV
56,2.0,left,left,1.0,0.6298,0.0,56.0,56.0,56.0,1.0,2449442529-124446.jpg,2460547536-274181.jpg,A136K4YZY2OFTV
57,2.0,left,right,0.0,1.0711,0.0,57.0,57.0,57.0,1.0,2592380177-354626.jpg,2864901386-286797.jpg,A136K4YZY2OFTV
58,1.0,left,left,1.0,1.8679,0.0,58.0,58.0,58.0,1.0,2868475410-213219.jpg,2901946465-218350.jpg,A136K4YZY2OFTV
59,1.0,left,left,1.0,1.1572,0.0,59.0,59.0,59.0,1.0,2446759803-49249.jpg,2446760601-272099.jpg,A136K4YZY2OFTV
60,1.0,left,left,1.0,40.0084,0.0,0.0,0.0,0.0,1.0,2898634397-367080.jpg,2237944827-301472.jpg,A1FDK83WDHKO9S
61,3.0,left,right,0.0,0.0051,0.0,1.0,1.0,1.0,1.0,2964223381-294447.jpg,2898628438-68785.jpg,A1FDK83WDHKO9S
62,3.0,right,left,0.0,2.693,0.0,2.0,2.0,2.0,1.0,2427873763-47290.jpg,2981231403-71642.jpg,A1FDK83WDHKO9S
63,2.0,left,right,0.0,2.7314,0.0,3.0,3.0,3.0,1.0,2238428357-313623.jpg,2984615361-295509.jpg,A1FDK83WDHKO9S
64,2.0,right,right,1.0,2.5286,0.0,4.0,4.0,4.0,1.0,2981246400-220363.jpg,2868474407-362883.jpg,A1FDK83WDHKO9S
65,3.0,right,left,0.0,2.1609,0.0,5.0,5.0,5.0,1.0,2238569117-333045.jpg,2446759347-347016.jpg,A1FDK83WDHKO9S
66,3.0,right,left,0.0,1.6323,0.0,6.0,6.0,6.0,1.0,2981235446-294901.jpg,2460547467-349421.jpg,A1FDK83WDHKO9S
67,1.0,right,right,1.0,1.4442,0.0,7.0,7.0,7.0,1.0,2512876023-52283.jpg,2898633421-291973.jpg,A1FDK83WDHKO9S
68,1.0,left,left,1.0,1.6084,0.0,8.0,8.0,8.0,1.0,2449442529-124446.jpg,2446759803-49251.jpg,A1FDK83WDHKO9S
69,1.0,right,left,0.0,1.4569,0.0,9.0,9.0,9.0,1.0,2898618440-216545.jpg,2460547467-349422.jpg,A1FDK83WDHKO9S
70,3.0,right,right,1.0,1.4706,0.0,10.0,10.0,10.0,1.0,2864904453-63933.jpg,2883256307-365057.jpg,A1FDK83WDHKO9S
71,3.0,left,left,1.0,2.7242,0.0,11.0,11.0,11.0,1.0,2901947423-70311.jpg,2238577590-185467.jpg,A1FDK83WDHKO9S
72,3.0,left,left,1.0,1.6255,0.0,12.0,12.0,12.0,1.0,2898635427-367120.jpg,2898621427-366486.jpg,A1FDK83WDHKO9S
73,1.0,left,right,0.0,1.8024,0.0,13.0,13.0,13.0,1.0,2874301407-363895.jpg,2883264368-67631.jpg,A1FDK83WDHKO9S
74,2.0,right,left,0.0,1.2682,0.0,14.0,14.0,14.0,1.0,2238480803-19739.jpg,2868475410-213219.jpg,A1FDK83WDHKO9S
75,2.0,right,right,1.0,1.0811,0.0,15.0,15.0,15.0,1.0,2986408373-73286.jpg,2449442529-124445.jpg,A1FDK83WDHKO9S
76,2.0,right,right,1.0,1.9802,0.0,16.0,16.0,16.0,1.0,2901947423-70310.jpg,2864907432-362042.jpg,A1FDK83WDHKO9S
77,2.0,left,left,1.0,1.0811,0.0,17.0,17.0,17.0,1.0,2883268412-365898.jpg,2984615361-295510.jpg,A1FDK83WDHKO9S
78,1.0,left,right,0.0,1.603,0.0,18.0,18.0,18.0,1.0,2452380832-348593.jpg,2238328478-11678.jpg,A1FDK83WDHKO9S
79,3.0,right,left,0.0,1.4524,0.0,19.0,19.0,19.0,1.0,2898625336-291572.jpg,2898635428-69104.jpg,A1FDK83WDHKO9S
80,2.0,left,left,1.0,2.5504,0.0,20.0,20.0,20.0,1.0,2898624426-291546.jpg,2981236443-71859.jpg,A1FDK83WDHKO9S
81,2.0,left,right,0.0,1.0881,0.0,21.0,21.0,21.0,1.0,2883254439-140941.jpg,2898632385-217136.jpg,A1FDK83WDHKO9S
82,3.0,right,left,0.0,1.1055,0.0,22.0,22.0,22.0,1.0,2238531493-28260.jpg,2575120738-55529.jpg,A1FDK83WDHKO9S
83,1.0,left,left,1.0,1.2559,0.0,23.0,23.0,23.0,1.0,2238580740-186218.jpg,2238550816-254000.jpg,A1FDK83WDHKO9S
84,1.0,right,right,1.0,1.9927,0.0,24.0,24.0,24.0,1.0,2901939327-367669.jpg,2986451363-73599.jpg,A1FDK83WDHKO9S
85,2.0,right,left,0.0,3.0576,0.0,25.0,25.0,25.0,1.0,2981246400-220365.jpg,2874307433-66280.jpg,A1FDK83WDHKO9S
86,3.0,left,left,1.0,1.4435,0.0,26.0,26.0,26.0,1.0,2901939379-143479.jpg,2981240424-145794.jpg,A1FDK83WDHKO9S
87,2.0,left,right,0.0,1.4566,0.0,27.0,27.0,27.0,1.0,2901952513-70703.jpg,2868469411-287540.jpg,A1FDK83WDHKO9S
88,1.0,left,left,1.0,1.2705,0.0,28.0,28.0,28.0,1.0,2964216465-219242.jpg,2238544191-252422.jpg,A1FDK83WDHKO9S
89,3.0,right,right,1.0,1.6207,0.0,29.0,29.0,29.0,1.0,2986447332-371497.jpg,2512875899-126682.jpg,A1FDK83WDHKO9S
90,1.0,left,left,1.0,1.0849,0.0,30.0,30.0,30.0,1.0,2238572663-35822.jpg,2986419333-73361.jpg,A1FDK83WDHKO9S
91,3.0,left,right,0.0,1.2714,0.0,31.0,31.0,31.0,1.0,2592380177-354629.jpg,2512875587-350044.jpg,A1FDK83WDHKO9S
92,2.0,left,right,0.0,0.1932,0.0,32.0,32.0,32.0,1.0,2238480677-317399.jpg,2238573546-258454.jpg,A1FDK83WDHKO9S
93,3.0,left,left,1.0,1.797,0.0,33.0,33.0,33.0,1.0,2898618390-216538.jpg,2575120609-129862.jpg,A1FDK83WDHKO9S
94,2.0,right,left,0.0,1.6259,0.0,34.0,34.0,34.0,1.0,2984615358-72439.jpg,2449441881-272368.jpg,A1FDK83WDHKO9S
95,1.0,left,left,1.0,1.4368,0.0,35.0,35.0,35.0,1.0,2883268471-290842.jpg,2883268471-290843.jpg,A1FDK83WDHKO9S
96,2.0,left,right,0.0,1.4649,0.0,36.0,36.0,36.0,1.0,2446759803-49249.jpg,2898618440-216547.jpg,A1FDK83WDHKO9S
97,1.0,right,right,1.0,1.4508,0.0,37.0,37.0,37.0,1.0,2856919327-359676.jpg,2981241414-145842.jpg,A1FDK83WDHKO9S
98,3.0,left,right,0.0,3.4235,0.0,38.0,38.0,38.0,1.0,2592380177-354626.jpg,2238117096-228518.jpg,A1FDK83WDHKO9S
99,1.0,right,left,0.0,1.6284,0.0,39.0,39.0,39.0,1.0,2238480434-93829.jpg,2458347385-199723.jpg,A1FDK83WDHKO9S
100,1.0,right,left,0.0,2.711,0.0,40.0,40.0,40.0,1.0,2901942428-69919.jpg,2901939379-143480.jpg,A1FDK83WDHKO9S
101,1.0,left,left,1.0,2.5081,0.0,41.0,41.0,41.0,1.0,2874302418-65979.jpg,2413147898-43548.jpg,A1FDK83WDHKO9S
102,1.0,left,left,1.0,1.641,0.0,42.0,42.0,42.0,1.0,2874302418-65978.jpg,2898626385-216899.jpg,A1FDK83WDHKO9S
103,3.0,right,right,1.0,1.7965,0.0,43.0,43.0,43.0,1.0,2981231446-294732.jpg,2964218374-144967.jpg,A1FDK83WDHKO9S
104,1.0,right,right,1.0,1.9828,0.0,44.0,44.0,44.0,1.0,2609793677-355397.jpg,2874303365-214262.jpg,A1FDK83WDHKO9S
105,1.0,right,right,1.0,2.1794,0.0,45.0,45.0,45.0,1.0,2883264367-365620.jpg,2238481928-19949.jpg,A1FDK83WDHKO9S
106,3.0,left,left,1.0,1.7926,0.0,46.0,46.0,46.0,1.0,2452381505-199546.jpg,2994401319-148290.jpg,A1FDK83WDHKO9S
107,2.0,right,left,0.0,2.873,0.0,47.0,47.0,47.0,1.0,2458348012-349114.jpg,2964213381-294060.jpg,A1FDK83WDHKO9S
108,2.0,left,left,1.0,1.9795,0.0,48.0,48.0,48.0,1.0,2592379964-131054.jpg,2238479053-19457.jpg,A1FDK83WDHKO9S
109,3.0,right,left,0.0,1.6384,0.0,49.0,49.0,49.0,1.0,2981246360-220352.jpg,2901948350-218459.jpg,A1FDK83WDHKO9S
110,2.0,left,right,0.0,1.9723,0.0,50.0,50.0,50.0,1.0,2446758985-197609.jpg,2864909447-362144.jpg,A1FDK83WDHKO9S
111,3.0,left,left,1.0,1.2605,0.0,51.0,51.0,51.0,1.0,2898617468-68274.jpg,2964207374-144577.jpg,A1FDK83WDHKO9S
112,2.0,right,left,0.0,1.9753,0.0,52.0,52.0,52.0,1.0,2238555262-330312.jpg,2898618444-142233.jpg,A1FDK83WDHKO9S
113,3.0,right,left,0.0,1.8054,0.0,53.0,53.0,53.0,1.0,2238480980-168129.jpg,2238560245-182099.jpg,A1FDK83WDHKO9S
114,3.0,left,left,1.0,2.7052,0.0,54.0,54.0,54.0,1.0,2874299429-139695.jpg,2446760917-347439.jpg,A1FDK83WDHKO9S
115,2.0,right,right,1.0,1.263,0.0,55.0,55.0,55.0,1.0,2901946436-293242.jpg,2238481198-19822.jpg,A1FDK83WDHKO9S
116,2.0,left,left,1.0,1.433,0.0,56.0,56.0,56.0,1.0,2901941401-292798.jpg,2981243412-370222.jpg,A1FDK83WDHKO9S
117,1.0,left,right,0.0,1.9699,0.0,57.0,57.0,57.0,1.0,2238425482-313537.jpg,2238471391-240918.jpg,A1FDK83WDHKO9S
118,2.0,left,left,1.0,1.7887,0.0,58.0,58.0,58.0,1.0,2864910426-287204.jpg,2874299429-139694.jpg,A1FDK83WDHKO9S
119,1.0,left,left,1.0,1.4413,0.0,59.0,59.0,59.0,1.0,2460547508-51571.jpg,2460547291-274110.jpg,A1FDK83WDHKO9S
120,1.0,right,right,1.0,2.2938,0.0,0.0,0.0,0.0,1.0,2611628310-206388.jpg,2883256307-365057.jpg,A1FMVUYV72MUO3
121,1.0,right,left,0.0,2.2667,0.0,1.0,1.0,1.0,1.0,2964218432-369263.jpg,2898624426-291546.jpg,A1FMVUYV72MUO3
122,3.0,right,left,0.0,2.2015,0.0,2.0,2.0,2.0,1.0,2964207374-144577.jpg,2898617468-68274.jpg,A1FMVUYV72MUO3
123,1.0,right,left,0.0,1.9436,0.0,3.0,3.0,3.0,1.0,2238499057-320266.jpg,2238428357-313623.jpg,A1FMVUYV72MUO3
124,2.0,right,right,1.0,1.6788,0.0,4.0,4.0,4.0,1.0,2984615361-295510.jpg,2883268412-365898.jpg,A1FMVUYV72MUO3
125,1.0,right,left,0.0,2.7775,0.0,5.0,5.0,5.0,1.0,2898618440-216545.jpg,2460547467-349422.jpg,A1FMVUYV72MUO3
126,1.0,right,right,1.0,2.4824,0.0,6.0,6.0,6.0,1.0,2981244394-145974.jpg,2964213381-294060.jpg,A1FMVUYV72MUO3
127,3.0,right,left,0.0,2.3882,0.0,7.0,7.0,7.0,1.0,2449441881-272367.jpg,2449441881-272368.jpg,A1FMVUYV72MUO3
128,3.0,left,right,0.0,2.5041,0.0,8.0,8.0,8.0,1.0,2592379964-131054.jpg,2592380272-354673.jpg,A1FMVUYV72MUO3
129,3.0,left,right,0.0,2.4226,0.0,9.0,9.0,9.0,1.0,2964216465-219242.jpg,2898619327-366362.jpg,A1FMVUYV72MUO3
130,1.0,right,right,1.0,2.6567,0.0,10.0,10.0,10.0,1.0,2413147898-43548.jpg,2874302418-65979.jpg,A1FMVUYV72MUO3
131,1.0,left,left,1.0,2.0336,0.0,11.0,11.0,11.0,1.0,2238572663-35822.jpg,2986419333-73361.jpg,A1FMVUYV72MUO3
132,3.0,left,right,0.0,2.5645,0.0,12.0,12.0,12.0,1.0,2901952513-70703.jpg,2238481198-19821.jpg,A1FMVUYV72MUO3
133,2.0,left,left,1.0,2.6453,0.0,13.0,13.0,13.0,1.0,2592380177-354626.jpg,2864901386-286797.jpg,A1FMVUYV72MUO3
134,3.0,right,right,1.0,1.6472,0.0,14.0,14.0,14.0,1.0,2449442181-272436.jpg,2452380832-348593.jpg,A1FMVUYV72MUO3
135,3.0,left,left,1.0,3.6644,0.0,15.0,15.0,15.0,1.0,2874307433-66280.jpg,2981231422-369714.jpg,A1FMVUYV72MUO3
136,2.0,right,left,0.0,1.7094,0.0,16.0,16.0,16.0,1.0,2460547536-274181.jpg,2449442529-124446.jpg,A1FMVUYV72MUO3
137,1.0,left,left,1.0,2.6621,0.0,17.0,17.0,17.0,1.0,2874303365-214262.jpg,2609793677-355397.jpg,A1FMVUYV72MUO3
138,3.0,left,right,0.0,2.5818,0.0,18.0,18.0,18.0,1.0,2864910426-287204.jpg,2901939433-69672.jpg,A1FMVUYV72MUO3
139,3.0,left,right,0.0,2.9955,0.0,19.0,19.0,19.0,1.0,2874299429-139695.jpg,2446760917-347439.jpg,A1FMVUYV72MUO3
140,1.0,right,right,1.0,1.945,0.0,20.0,20.0,20.0,1.0,2898631359-142721.jpg,2898618444-142233.jpg,A1FMVUYV72MUO3
141,1.0,right,right,1.0,1.4639,0.0,21.0,21.0,21.0,1.0,2883264368-67631.jpg,2874301407-363895.jpg,A1FMVUYV72MUO3
142,1.0,left,left,1.0,2.6528,0.0,22.0,22.0,22.0,1.0,2238560245-182099.jpg,2549106624-127823.jpg,A1FMVUYV72MUO3
143,1.0,right,right,1.0,2.7005,0.0,23.0,23.0,23.0,1.0,2238550816-254000.jpg,2238580740-186218.jpg,A1FMVUYV72MUO3
144,2.0,left,right,0.0,1.8638,0.0,24.0,24.0,24.0,1.0,2864907432-362042.jpg,2901947423-70310.jpg,A1FMVUYV72MUO3
145,1.0,left,left,1.0,3.1991,0.0,25.0,25.0,25.0,1.0,2898633421-291973.jpg,2512876023-52283.jpg,A1FMVUYV72MUO3
146,3.0,right,left,0.0,2.8454,0.0,26.0,26.0,26.0,1.0,2901947448-70314.jpg,2883268471-290842.jpg,A1FMVUYV72MUO3
147,2.0,right,right,1.0,3.2183,0.0,27.0,27.0,27.0,1.0,2981229442-369621.jpg,2901939379-143480.jpg,A1FMVUYV72MUO3
148,3.0,right,right,1.0,2.94,0.0,28.0,28.0,28.0,1.0,2427873848-47312.jpg,2981241414-145842.jpg,A1FMVUYV72MUO3
149,3.0,right,left,0.0,1.8297,0.0,29.0,29.0,29.0,1.0,2238577590-185467.jpg,2901947423-70311.jpg,A1FMVUYV72MUO3
150,2.0,left,left,1.0,1.9782,0.0,30.0,30.0,30.0,1.0,2575120738-55529.jpg,2575120738-55528.jpg,A1FMVUYV72MUO3
151,1.0,right,right,1.0,1.9016,0.0,31.0,31.0,31.0,1.0,2804906319-133082.jpg,2901948350-218459.jpg,A1FMVUYV72MUO3
152,2.0,left,left,1.0,1.7281,0.0,32.0,32.0,32.0,1.0,2460547508-51571.jpg,2981232437-369759.jpg,A1FMVUYV72MUO3
153,2.0,left,left,1.0,2.208,0.0,33.0,33.0,33.0,1.0,2874302418-65978.jpg,2238481198-19823.jpg,A1FMVUYV72MUO3
154,2.0,right,left,0.0,1.9738,0.0,34.0,34.0,34.0,1.0,2981244403-72215.jpg,2981231403-71642.jpg,A1FMVUYV72MUO3
155,2.0,left,left,1.0,2.623,0.0,35.0,35.0,35.0,1.0,2460547467-349421.jpg,2452380166-273110.jpg,A1FMVUYV72MUO3
156,1.0,left,right,0.0,1.6894,0.0,36.0,36.0,36.0,1.0,2898635427-367120.jpg,2901946439-144040.jpg,A1FMVUYV72MUO3
157,2.0,right,left,0.0,2.7926,0.0,37.0,37.0,37.0,1.0,2898632385-217136.jpg,2883254439-140941.jpg,A1FMVUYV72MUO3
158,3.0,left,left,1.0,3.3395,0.0,38.0,38.0,38.0,1.0,2898635428-69104.jpg,2898625336-291572.jpg,A1FMVUYV72MUO3
159,3.0,right,right,1.0,1.7752,0.0,39.0,39.0,39.0,1.0,2458347252-348911.jpg,2458347385-199723.jpg,A1FMVUYV72MUO3
160,1.0,right,right,1.0,2.7728,0.0,40.0,40.0,40.0,1.0,2901946465-218350.jpg,2868475410-213219.jpg,A1FMVUYV72MUO3
161,2.0,left,right,0.0,1.9027,0.0,41.0,41.0,41.0,1.0,2868474407-362883.jpg,2981246400-220363.jpg,A1FMVUYV72MUO3
162,1.0,right,left,0.0,1.6955,0.0,42.0,42.0,42.0,1.0,2460547536-274179.jpg,2512875899-126682.jpg,A1FMVUYV72MUO3
163,2.0,left,left,1.0,2.4194,0.0,43.0,43.0,43.0,1.0,2238425482-313537.jpg,2238436322-314047.jpg,A1FMVUYV72MUO3
164,3.0,right,right,1.0,2.2532,0.0,44.0,44.0,44.0,1.0,2981241419-145844.jpg,2238481928-19949.jpg,A1FMVUYV72MUO3
165,3.0,left,right,0.0,1.4401,0.0,45.0,45.0,45.0,1.0,2446758985-197609.jpg,2898624426-291544.jpg,A1FMVUYV72MUO3
166,2.0,left,right,0.0,4.0948,0.0,46.0,46.0,46.0,1.0,2592380177-354629.jpg,2579432534-130704.jpg,A1FMVUYV72MUO3
167,2.0,left,left,1.0,2.1953,0.0,47.0,47.0,47.0,1.0,2964223381-294447.jpg,2901941438-69836.jpg,A1FMVUYV72MUO3
168,2.0,right,right,1.0,3.6331,0.0,48.0,48.0,48.0,1.0,2860302315-210704.jpg,2986451363-73599.jpg,A1FMVUYV72MUO3
169,3.0,right,left,0.0,3.1663,0.0,49.0,49.0,49.0,1.0,2238569117-333045.jpg,2446759347-347016.jpg,A1FMVUYV72MUO3
170,2.0,right,right,1.0,1.9398,0.0,50.0,50.0,50.0,1.0,2898618440-216547.jpg,2446759803-49249.jpg,A1FMVUYV72MUO3
171,3.0,right,right,1.0,2.2766,0.0,51.0,51.0,51.0,1.0,2883273443-68193.jpg,2901941401-292798.jpg,A1FMVUYV72MUO3
172,2.0,left,left,1.0,2.6683,0.0,52.0,52.0,52.0,1.0,2452381505-199546.jpg,2238567168-34916.jpg,A1FMVUYV72MUO3
173,1.0,left,left,1.0,1.5404,0.0,53.0,53.0,53.0,1.0,2238481198-19822.jpg,2862691449-137104.jpg,A1FMVUYV72MUO3
174,1.0,right,left,0.0,2.976,0.0,54.0,54.0,54.0,1.0,2986449336-296644.jpg,2898618390-216538.jpg,A1FMVUYV72MUO3
175,1.0,left,left,1.0,2.6404,0.0,55.0,55.0,55.0,1.0,2898634397-367080.jpg,2237944827-301472.jpg,A1FMVUYV72MUO3
176,2.0,left,right,0.0,2.3527,0.0,56.0,56.0,56.0,1.0,2901939379-143479.jpg,2446758985-197610.jpg,A1FMVUYV72MUO3
177,3.0,left,left,1.0,2.16,0.0,57.0,57.0,57.0,1.0,2449442529-124445.jpg,2898632385-217137.jpg,A1FMVUYV72MUO3
178,2.0,left,left,1.0,1.5389,0.0,58.0,58.0,58.0,1.0,2964218374-144967.jpg,2883254439-140940.jpg,A1FMVUYV72MUO3
179,3.0,left,right,0.0,2.5395,0.0,59.0,59.0,59.0,1.0,2238480677-317399.jpg,2238480278-19661.jpg,A1FMVUYV72MUO3
180,2.0,right,left,0.0,9.6792,0.0,0.0,0.0,0.0,1.0,2901934408-69289.jpg,2898634397-367080.jpg,A1ILCIHMXPNTMT
181,1.0,right,right,1.0,2.4274,0.0,1.0,1.0,1.0,1.0,2986447306-296584.jpg,2874307433-66280.jpg,A1ILCIHMXPNTMT
182,1.0,right,left,0.0,2.3828,0.0,2.0,2.0,2.0,1.0,2898631394-142727.jpg,2460547467-349421.jpg,A1ILCIHMXPNTMT
183,3.0,left,left,1.0,2.2461,0.0,3.0,3.0,3.0,1.0,2449441881-272368.jpg,2449441881-272367.jpg,A1ILCIHMXPNTMT
184,3.0,right,left,0.0,2.0767,0.0,4.0,4.0,4.0,1.0,2898633480-217190.jpg,2238425482-313537.jpg,A1ILCIHMXPNTMT
185,2.0,left,left,1.0,1.9343,0.0,5.0,5.0,5.0,1.0,2238481928-19949.jpg,2864900357-361688.jpg,A1ILCIHMXPNTMT
186,3.0,right,right,1.0,2.8482,0.0,6.0,6.0,6.0,1.0,2864911457-362260.jpg,2874303365-214262.jpg,A1ILCIHMXPNTMT
187,2.0,left,right,0.0,1.8608,0.0,7.0,7.0,7.0,1.0,2898635428-69104.jpg,2901943411-292945.jpg,A1ILCIHMXPNTMT
188,2.0,right,left,0.0,2.8707,0.0,8.0,8.0,8.0,1.0,2874314526-289684.jpg,2238560245-182099.jpg,A1ILCIHMXPNTMT
189,2.0,left,left,1.0,3.5846,0.0,9.0,9.0,9.0,1.0,2460547508-51571.jpg,2981232437-369759.jpg,A1ILCIHMXPNTMT
190,1.0,left,right,0.0,2.1322,0.0,10.0,10.0,10.0,1.0,2868475410-213219.jpg,2901946465-218350.jpg,A1ILCIHMXPNTMT
191,1.0,right,right,1.0,2.3522,0.0,11.0,11.0,11.0,1.0,2898626385-216899.jpg,2874302418-65978.jpg,A1ILCIHMXPNTMT
192,1.0,left,left,1.0,3.4111,0.0,12.0,12.0,12.0,1.0,2981231403-71642.jpg,2274829821-263682.jpg,A1ILCIHMXPNTMT
193,2.0,left,left,1.0,2.4467,0.0,13.0,13.0,13.0,1.0,2452381505-199546.jpg,2238567168-34916.jpg,A1ILCIHMXPNTMT
194,2.0,right,right,1.0,1.9642,0.0,14.0,14.0,14.0,1.0,2874301404-139813.jpg,2981241414-145842.jpg,A1ILCIHMXPNTMT
195,2.0,left,right,0.0,3.1265,0.0,15.0,15.0,15.0,1.0,2901952513-70703.jpg,2868469411-287540.jpg,A1ILCIHMXPNTMT
196,3.0,right,right,1.0,2.4982,0.0,16.0,16.0,16.0,1.0,2981240424-145794.jpg,2901939379-143479.jpg,A1ILCIHMXPNTMT
197,3.0,right,right,1.0,2.4968,0.0,17.0,17.0,17.0,1.0,2592380272-354673.jpg,2592379964-131054.jpg,A1ILCIHMXPNTMT
198,2.0,right,left,0.0,2.5018,0.0,18.0,18.0,18.0,1.0,2868479517-363220.jpg,2898635427-367120.jpg,A1ILCIHMXPNTMT
199,3.0,left,left,1.0,2.4299,0.0,19.0,19.0,19.0,1.0,2883268471-290842.jpg,2901947448-70314.jpg,A1ILCIHMXPNTMT
200,1.0,right,right,1.0,1.6634,0.0,20.0,20.0,20.0,1.0,2901942428-69919.jpg,2901939379-143480.jpg,A1ILCIHMXPNTMT
201,2.0,right,left,0.0,1.9606,0.0,21.0,21.0,21.0,1.0,2238555262-330312.jpg,2898618444-142233.jpg,A1ILCIHMXPNTMT
202,2.0,right,left,0.0,2.0248,0.0,22.0,22.0,22.0,1.0,2901946436-293242.jpg,2238481198-19822.jpg,A1ILCIHMXPNTMT
203,1.0,left,right,0.0,2.5634,0.0,23.0,23.0,23.0,1.0,2458347385-199723.jpg,2238480434-93829.jpg,A1ILCIHMXPNTMT
204,2.0,left,left,1.0,1.9262,0.0,24.0,24.0,24.0,1.0,2964218374-144967.jpg,2883254439-140940.jpg,A1ILCIHMXPNTMT
205,1.0,right,left,0.0,3.9518,0.0,25.0,25.0,25.0,1.0,2238516618-25604.jpg,2868474407-362883.jpg,A1ILCIHMXPNTMT
206,3.0,left,left,1.0,1.7938,0.0,26.0,26.0,26.0,1.0,2964216465-219242.jpg,2898619327-366362.jpg,A1ILCIHMXPNTMT
207,1.0,left,left,1.0,2.1224,0.0,27.0,27.0,27.0,1.0,2575120738-55529.jpg,2898632385-217138.jpg,A1ILCIHMXPNTMT
208,3.0,left,left,1.0,4.4519,0.0,28.0,28.0,28.0,1.0,2238480677-317399.jpg,2238480278-19661.jpg,A1ILCIHMXPNTMT
209,1.0,right,right,1.0,1.9147,0.0,29.0,29.0,29.0,1.0,2898633421-291974.jpg,2592380177-354629.jpg,A1ILCIHMXPNTMT
210,3.0,right,left,0.0,1.9632,0.0,30.0,30.0,30.0,1.0,2981231446-294730.jpg,2883254439-140941.jpg,A1ILCIHMXPNTMT
211,3.0,right,left,0.0,3.3386,0.0,31.0,31.0,31.0,1.0,2964207374-144577.jpg,2898617468-68274.jpg,A1ILCIHMXPNTMT
212,1.0,right,right,1.0,5.477,0.0,32.0,32.0,32.0,1.0,2413147898-43548.jpg,2874302418-65979.jpg,A1ILCIHMXPNTMT
213,1.0,left,left,1.0,1.5263,0.0,33.0,33.0,33.0,1.0,2986451363-73599.jpg,2901939327-367669.jpg,A1ILCIHMXPNTMT
214,1.0,left,left,1.0,3.8429,0.0,34.0,34.0,34.0,1.0,2883268412-365898.jpg,2984626312-370849.jpg,A1ILCIHMXPNTMT
215,3.0,left,right,0.0,3.3227,0.0,35.0,35.0,35.0,1.0,2898633421-291973.jpg,2238550049-105691.jpg,A1ILCIHMXPNTMT
216,1.0,right,left,0.0,11.8103,0.0,36.0,36.0,36.0,1.0,2427874231-269884.jpg,2964223381-294447.jpg,A1ILCIHMXPNTMT
217,2.0,left,left,1.0,3.8276,0.0,37.0,37.0,37.0,1.0,2238572663-35822.jpg,2238571930-184143.jpg,A1ILCIHMXPNTMT
218,3.0,right,right,1.0,3.9199,0.0,38.0,38.0,38.0,1.0,2986447332-371497.jpg,2512875899-126682.jpg,A1ILCIHMXPNTMT
219,3.0,left,left,1.0,1.1838,0.0,39.0,39.0,39.0,1.0,2592380177-354626.jpg,2238117096-228518.jpg,A1ILCIHMXPNTMT
220,2.0,right,right,1.0,5.008,0.0,40.0,40.0,40.0,1.0,2981243412-370222.jpg,2901941401-292798.jpg,A1ILCIHMXPNTMT
221,2.0,right,left,0.0,1.4929,0.0,41.0,41.0,41.0,1.0,2460547536-274181.jpg,2449442529-124446.jpg,A1ILCIHMXPNTMT
222,2.0,right,right,1.0,1.6681,0.0,42.0,42.0,42.0,1.0,2984615361-295509.jpg,2238428357-313623.jpg,A1ILCIHMXPNTMT
223,2.0,left,left,1.0,1.6125,0.0,43.0,43.0,43.0,1.0,2460547467-349422.jpg,2868487415-213924.jpg,A1ILCIHMXPNTMT
224,3.0,right,right,1.0,2.3808,0.0,44.0,44.0,44.0,1.0,2449442181-272436.jpg,2452380832-348593.jpg,A1ILCIHMXPNTMT
225,1.0,right,left,0.0,1.9336,0.0,45.0,45.0,45.0,1.0,2981240424-145795.jpg,2446758985-197609.jpg,A1ILCIHMXPNTMT
226,1.0,left,right,0.0,2.321,0.0,46.0,46.0,46.0,1.0,2864907432-362042.jpg,2864901420-212147.jpg,A1ILCIHMXPNTMT
227,3.0,left,left,1.0,2.1833,0.0,47.0,47.0,47.0,1.0,2898618390-216538.jpg,2575120609-129862.jpg,A1ILCIHMXPNTMT
228,2.0,right,left,0.0,2.5205,0.0,48.0,48.0,48.0,1.0,2238573447-333826.jpg,2901947423-70311.jpg,A1ILCIHMXPNTMT
229,3.0,right,left,0.0,2.2447,0.0,49.0,49.0,49.0,1.0,2901939433-69672.jpg,2864910426-287204.jpg,A1ILCIHMXPNTMT
230,1.0,right,right,1.0,2.4137,0.0,50.0,50.0,50.0,1.0,2238550816-254000.jpg,2238580740-186218.jpg,A1ILCIHMXPNTMT
231,1.0,left,left,1.0,2.3827,0.0,51.0,51.0,51.0,1.0,2883256307-365057.jpg,2611628310-206388.jpg,A1ILCIHMXPNTMT
232,3.0,left,left,1.0,2.0118,0.0,52.0,52.0,52.0,1.0,2964213381-294060.jpg,2964213381-294061.jpg,A1ILCIHMXPNTMT
233,1.0,right,left,0.0,2.1997,0.0,53.0,53.0,53.0,1.0,2883266388-67750.jpg,2874299429-139695.jpg,A1ILCIHMXPNTMT
234,3.0,right,left,0.0,2.0543,0.0,54.0,54.0,54.0,1.0,2981235446-294900.jpg,2898624426-291546.jpg,A1ILCIHMXPNTMT
235,2.0,right,left,0.0,2.3643,0.0,55.0,55.0,55.0,1.0,2898618440-216547.jpg,2446759803-49249.jpg,A1ILCIHMXPNTMT
236,3.0,left,right,0.0,3.7154,0.0,56.0,56.0,56.0,1.0,2449442529-124445.jpg,2898632385-217137.jpg,A1ILCIHMXPNTMT
237,1.0,left,left,1.0,2.0405,0.0,57.0,57.0,57.0,1.0,2901948350-218459.jpg,2804906319-133082.jpg,A1ILCIHMXPNTMT
238,2.0,left,left,1.0,2.8673,0.0,58.0,58.0,58.0,1.0,2874301407-363895.jpg,2986397322-371109.jpg,A1ILCIHMXPNTMT
239,3.0,right,right,1.0,2.7105,0.0,59.0,59.0,59.0,1.0,2238569117-333045.jpg,2446759347-347016.jpg,A1ILCIHMXPNTMT
240,2.0,left,left,1.0,2.2462,0.0,0.0,0.0,0.0,1.0,2898618390-216538.jpg,2901939327-367670.jpg,A2MV1R6YYOIO30
241,2.0,right,left,0.0,2.4436,0.0,1.0,1.0,1.0,1.0,2901943387-368037.jpg,2898617468-68274.jpg,A2MV1R6YYOIO30
242,1.0,left,left,1.0,2.1342,0.0,2.0,2.0,2.0,1.0,2874302418-65979.jpg,2413147898-43548.jpg,A2MV1R6YYOIO30
243,2.0,left,left,1.0,2.1709,0.0,3.0,3.0,3.0,1.0,2458347385-199723.jpg,2427874554-121863.jpg,A2MV1R6YYOIO30
244,3.0,left,right,0.0,1.354,0.0,4.0,4.0,4.0,1.0,2238425482-313537.jpg,2898633480-217190.jpg,A2MV1R6YYOIO30
245,2.0,right,left,0.0,3.3886,0.0,5.0,5.0,5.0,1.0,2874314526-289684.jpg,2238560245-182099.jpg,A2MV1R6YYOIO30
246,3.0,right,left,0.0,2.0431,0.0,6.0,6.0,6.0,1.0,2864904453-63933.jpg,2883256307-365057.jpg,A2MV1R6YYOIO30
247,1.0,right,right,1.0,1.7478,0.0,7.0,7.0,7.0,1.0,2237944827-301472.jpg,2898634397-367080.jpg,A2MV1R6YYOIO30
248,1.0,left,left,1.0,2.4045,0.0,8.0,8.0,8.0,1.0,2446758985-197609.jpg,2981240424-145795.jpg,A2MV1R6YYOIO30
249,2.0,left,left,1.0,2.1957,0.0,9.0,9.0,9.0,1.0,2964216465-219242.jpg,2864900319-137787.jpg,A2MV1R6YYOIO30
250,3.0,left,left,1.0,3.0417,0.0,10.0,10.0,10.0,1.0,2460547508-51571.jpg,2901941438-69835.jpg,A2MV1R6YYOIO30
251,2.0,right,right,1.0,2.9206,0.0,11.0,11.0,11.0,1.0,2898618440-216547.jpg,2446759803-49249.jpg,A2MV1R6YYOIO30
252,1.0,left,left,1.0,2.5064,0.0,12.0,12.0,12.0,1.0,2460547467-349421.jpg,2898631394-142727.jpg,A2MV1R6YYOIO30
253,1.0,left,left,1.0,2.7274,0.0,13.0,13.0,13.0,1.0,2864907432-362042.jpg,2864901420-212147.jpg,A2MV1R6YYOIO30
254,1.0,right,right,1.0,2.6311,0.0,14.0,14.0,14.0,1.0,2860312398-62572.jpg,2901947423-70311.jpg,A2MV1R6YYOIO30
255,3.0,right,right,1.0,1.8033,0.0,15.0,15.0,15.0,1.0,2868474407-362885.jpg,2868475410-213219.jpg,A2MV1R6YYOIO30
256,1.0,right,left,0.0,2.0921,0.0,16.0,16.0,16.0,1.0,2986447306-296584.jpg,2874307433-66280.jpg,A2MV1R6YYOIO30
257,3.0,left,left,1.0,2.2714,0.0,17.0,17.0,17.0,1.0,2449442529-124445.jpg,2898632385-217137.jpg,A2MV1R6YYOIO30
258,3.0,left,right,0.0,3.1574,0.0,18.0,18.0,18.0,1.0,2898635428-69104.jpg,2898625336-291572.jpg,A2MV1R6YYOIO30
259,1.0,right,left,0.0,2.141,0.0,19.0,19.0,19.0,1.0,2238516618-25604.jpg,2868474407-362883.jpg,A2MV1R6YYOIO30
260,3.0,right,right,1.0,2.0647,0.0,20.0,20.0,20.0,1.0,2901939433-69672.jpg,2864910426-287204.jpg,A2MV1R6YYOIO30
261,3.0,left,left,1.0,2.3467,0.0,21.0,21.0,21.0,1.0,2874301407-363895.jpg,2901947323-70275.jpg,A2MV1R6YYOIO30
262,2.0,left,right,0.0,2.5383,0.0,22.0,22.0,22.0,1.0,2460547467-349422.jpg,2868487415-213924.jpg,A2MV1R6YYOIO30
263,2.0,left,left,1.0,2.9622,0.0,23.0,23.0,23.0,1.0,2898635427-367120.jpg,2868479517-363220.jpg,A2MV1R6YYOIO30
264,1.0,left,right,0.0,2.3609,0.0,24.0,24.0,24.0,1.0,2898618444-142233.jpg,2898631359-142721.jpg,A2MV1R6YYOIO30
265,2.0,left,left,1.0,2.3832,0.0,25.0,25.0,25.0,1.0,2452381505-199546.jpg,2238567168-34916.jpg,A2MV1R6YYOIO30
266,3.0,left,right,0.0,2.6519,0.0,26.0,26.0,26.0,1.0,2238481198-19822.jpg,2238480803-19737.jpg,A2MV1R6YYOIO30
267,2.0,left,left,1.0,2.8286,0.0,27.0,27.0,27.0,1.0,2986451363-73599.jpg,2860302315-210704.jpg,A2MV1R6YYOIO30
268,1.0,left,left,1.0,2.9475,0.0,28.0,28.0,28.0,1.0,2883268412-365898.jpg,2984626312-370849.jpg,A2MV1R6YYOIO30
269,3.0,right,right,1.0,1.4925,0.0,29.0,29.0,29.0,1.0,2449442181-272436.jpg,2452380832-348593.jpg,A2MV1R6YYOIO30
270,3.0,right,left,0.0,1.597,0.0,30.0,30.0,30.0,1.0,2901947448-70314.jpg,2883268471-290842.jpg,A2MV1R6YYOIO30
271,1.0,right,left,0.0,2.6377,0.0,31.0,31.0,31.0,1.0,2460547536-274179.jpg,2512875899-126682.jpg,A2MV1R6YYOIO30
272,2.0,left,left,1.0,1.8483,0.0,32.0,32.0,32.0,1.0,2964213381-294060.jpg,2458348012-349114.jpg,A2MV1R6YYOIO30
273,3.0,left,left,1.0,2.3955,0.0,33.0,33.0,33.0,1.0,2592379964-131054.jpg,2592380272-354673.jpg,A2MV1R6YYOIO30
274,2.0,right,right,1.0,1.7091,0.0,34.0,34.0,34.0,1.0,2984615361-295509.jpg,2238428357-313623.jpg,A2MV1R6YYOIO30
275,1.0,left,left,1.0,2.0506,0.0,35.0,35.0,35.0,1.0,2238580740-186218.jpg,2238550816-254000.jpg,A2MV1R6YYOIO30
276,3.0,left,left,1.0,2.3159,0.0,36.0,36.0,36.0,1.0,2901952513-70703.jpg,2238481198-19821.jpg,A2MV1R6YYOIO30
277,3.0,right,left,0.0,3.5893,0.0,37.0,37.0,37.0,1.0,2981246360-220352.jpg,2901948350-218459.jpg,A2MV1R6YYOIO30
278,2.0,right,right,1.0,1.6327,0.0,38.0,38.0,38.0,1.0,2874301404-139813.jpg,2981241414-145842.jpg,A2MV1R6YYOIO30
279,1.0,left,left,1.0,4.5599,0.0,39.0,39.0,39.0,1.0,2901941401-292798.jpg,2898618327-366317.jpg,A2MV1R6YYOIO30
280,2.0,left,left,1.0,4.0415,0.0,40.0,40.0,40.0,1.0,2883254439-140941.jpg,2898632385-217136.jpg,A2MV1R6YYOIO30
281,2.0,right,right,1.0,1.9785,0.0,41.0,41.0,41.0,1.0,2446758985-197610.jpg,2901939379-143479.jpg,A2MV1R6YYOIO30
282,2.0,left,left,1.0,3.4909,0.0,42.0,42.0,42.0,1.0,2238481928-19949.jpg,2864900357-361688.jpg,A2MV1R6YYOIO30
283,3.0,left,left,1.0,3.2191,0.0,43.0,43.0,43.0,1.0,2238480677-317399.jpg,2238480278-19661.jpg,A2MV1R6YYOIO30
284,3.0,right,left,0.0,1.9085,0.0,44.0,44.0,44.0,1.0,2898628438-68785.jpg,2964223381-294447.jpg,A2MV1R6YYOIO30
285,2.0,left,left,1.0,1.7793,0.0,45.0,45.0,45.0,1.0,2575120738-55529.jpg,2575120738-55528.jpg,A2MV1R6YYOIO30
286,3.0,left,left,1.0,2.301,0.0,46.0,46.0,46.0,1.0,2898633421-291973.jpg,2238550049-105691.jpg,A2MV1R6YYOIO30
287,2.0,left,left,1.0,2.0244,0.0,47.0,47.0,47.0,1.0,2874299429-139695.jpg,2901942443-69923.jpg,A2MV1R6YYOIO30
288,3.0,right,right,1.0,1.8641,0.0,48.0,48.0,48.0,1.0,2901938432-367629.jpg,2901939379-143480.jpg,A2MV1R6YYOIO30
289,1.0,right,right,1.0,2.3215,0.0,49.0,49.0,49.0,1.0,2964224310-219528.jpg,2446759347-347016.jpg,A2MV1R6YYOIO30
290,1.0,left,left,1.0,2.5477,0.0,50.0,50.0,50.0,1.0,2238572663-35822.jpg,2986419333-73361.jpg,A2MV1R6YYOIO30
291,1.0,right,right,1.0,2.3944,0.0,51.0,51.0,51.0,1.0,2446759803-49251.jpg,2449442529-124446.jpg,A2MV1R6YYOIO30
292,2.0,right,right,1.0,2.8206,0.0,52.0,52.0,52.0,1.0,2883254439-140940.jpg,2964218374-144967.jpg,A2MV1R6YYOIO30
293,3.0,left,left,1.0,3.3551,0.0,53.0,53.0,53.0,1.0,2874302418-65978.jpg,2898633321-291943.jpg,A2MV1R6YYOIO30
294,1.0,right,left,0.0,1.169,0.0,54.0,54.0,54.0,1.0,2274829821-263682.jpg,2981231403-71642.jpg,A2MV1R6YYOIO30
295,3.0,left,left,1.0,1.7151,0.0,55.0,55.0,55.0,1.0,2592380177-354626.jpg,2238117096-228518.jpg,A2MV1R6YYOIO30
296,1.0,right,left,0.0,0.735,0.0,56.0,56.0,56.0,1.0,2964218432-369263.jpg,2898624426-291546.jpg,A2MV1R6YYOIO30
297,1.0,right,left,0.0,2.2164,0.0,57.0,57.0,57.0,1.0,2883268412-365899.jpg,2449441881-272368.jpg,A2MV1R6YYOIO30
298,1.0,left,right,0.0,2.9146,0.0,58.0,58.0,58.0,1.0,2592380177-354629.jpg,2898633421-291974.jpg,A2MV1R6YYOIO30
299,2.0,right,right,1.0,1.997,0.0,59.0,59.0,59.0,1.0,2238563377-332054.jpg,2874303365-214262.jpg,A2MV1R6YYOIO30
300,1.0,left,left,1.0,5.371,0.0,0.0,0.0,0.0,1.0,2898634397-367080.jpg,2237944827-301472.jpg,A2O70SKSNWL8LQ
301,3.0,left,right,0.0,2.155,0.0,1.0,1.0,1.0,1.0,2964223381-294447.jpg,2898628438-68785.jpg,A2O70SKSNWL8LQ
302,3.0,right,left,0.0,2.947,0.0,2.0,2.0,2.0,1.0,2427873763-47290.jpg,2981231403-71642.jpg,A2O70SKSNWL8LQ
303,2.0,left,left,1.0,1.933,0.0,3.0,3.0,3.0,1.0,2238428357-313623.jpg,2984615361-295509.jpg,A2O70SKSNWL8LQ
304,2.0,right,right,1.0,1.709,0.0,4.0,4.0,4.0,1.0,2981246400-220363.jpg,2868474407-362883.jpg,A2O70SKSNWL8LQ
305,3.0,right,right,1.0,1.981,0.0,5.0,5.0,5.0,1.0,2238569117-333045.jpg,2446759347-347016.jpg,A2O70SKSNWL8LQ
306,3.0,right,right,1.0,1.637,0.0,6.0,6.0,6.0,1.0,2981235446-294901.jpg,2460547467-349421.jpg,A2O70SKSNWL8LQ
307,1.0,right,right,1.0,1.765,0.0,7.0,7.0,7.0,1.0,2512876023-52283.jpg,2898633421-291973.jpg,A2O70SKSNWL8LQ
308,1.0,left,left,1.0,2.231,0.0,8.0,8.0,8.0,1.0,2449442529-124446.jpg,2446759803-49251.jpg,A2O70SKSNWL8LQ
309,1.0,right,left,0.0,2.191,0.0,9.0,9.0,9.0,1.0,2898618440-216545.jpg,2460547467-349422.jpg,A2O70SKSNWL8LQ
310,3.0,right,left,0.0,2.091,0.0,10.0,10.0,10.0,1.0,2864904453-63933.jpg,2883256307-365057.jpg,A2O70SKSNWL8LQ
311,3.0,left,left,1.0,2.037,0.0,11.0,11.0,11.0,1.0,2901947423-70311.jpg,2238577590-185467.jpg,A2O70SKSNWL8LQ
312,3.0,left,right,0.0,1.558,0.0,12.0,12.0,12.0,1.0,2898635427-367120.jpg,2898621427-366486.jpg,A2O70SKSNWL8LQ
313,1.0,left,left,1.0,2.257,0.0,13.0,13.0,13.0,1.0,2874301407-363895.jpg,2883264368-67631.jpg,A2O70SKSNWL8LQ
314,2.0,right,right,1.0,1.587,0.0,14.0,14.0,14.0,1.0,2238480803-19739.jpg,2868475410-213219.jpg,A2O70SKSNWL8LQ
315,2.0,right,right,1.0,2.991,0.0,15.0,15.0,15.0,1.0,2986408373-73286.jpg,2449442529-124445.jpg,A2O70SKSNWL8LQ
316,2.0,right,left,0.0,2.012,0.0,16.0,16.0,16.0,1.0,2901947423-70310.jpg,2864907432-362042.jpg,A2O70SKSNWL8LQ
317,2.0,left,left,1.0,2.365,0.0,17.0,17.0,17.0,1.0,2883268412-365898.jpg,2984615361-295510.jpg,A2O70SKSNWL8LQ
318,1.0,left,right,0.0,2.686,0.0,18.0,18.0,18.0,1.0,2452380832-348593.jpg,2238328478-11678.jpg,A2O70SKSNWL8LQ
319,3.0,right,right,1.0,3.09,0.0,19.0,19.0,19.0,1.0,2898625336-291572.jpg,2898635428-69104.jpg,A2O70SKSNWL8LQ
320,2.0,left,right,0.0,3.033,0.0,20.0,20.0,20.0,1.0,2898624426-291546.jpg,2981236443-71859.jpg,A2O70SKSNWL8LQ
321,2.0,left,right,0.0,2.75,0.0,21.0,21.0,21.0,1.0,2883254439-140941.jpg,2898632385-217136.jpg,A2O70SKSNWL8LQ
322,3.0,right,left,0.0,2.942,0.0,22.0,22.0,22.0,1.0,2238531493-28260.jpg,2575120738-55529.jpg,A2O70SKSNWL8LQ
323,1.0,left,right,0.0,2.513,0.0,23.0,23.0,23.0,1.0,2238580740-186218.jpg,2238550816-254000.jpg,A2O70SKSNWL8LQ
324,1.0,right,left,0.0,2.946,0.0,24.0,24.0,24.0,1.0,2901939327-367669.jpg,2986451363-73599.jpg,A2O70SKSNWL8LQ
325,2.0,right,right,1.0,2.633,0.0,25.0,25.0,25.0,1.0,2981246400-220365.jpg,2874307433-66280.jpg,A2O70SKSNWL8LQ
326,3.0,left,left,1.0,2.566,0.0,26.0,26.0,26.0,1.0,2901939379-143479.jpg,2981240424-145794.jpg,A2O70SKSNWL8LQ
327,2.0,left,right,0.0,2.47,0.0,27.0,27.0,27.0,1.0,2901952513-70703.jpg,2868469411-287540.jpg,A2O70SKSNWL8LQ
328,1.0,left,left,1.0,2.281,0.0,28.0,28.0,28.0,1.0,2964216465-219242.jpg,2238544191-252422.jpg,A2O70SKSNWL8LQ
329,3.0,right,left,0.0,1.979,0.0,29.0,29.0,29.0,1.0,2986447332-371497.jpg,2512875899-126682.jpg,A2O70SKSNWL8LQ
330,1.0,left,left,1.0,2.705,0.0,30.0,30.0,30.0,1.0,2238572663-35822.jpg,2986419333-73361.jpg,A2O70SKSNWL8LQ
331,3.0,left,left,1.0,2.76,0.0,31.0,31.0,31.0,1.0,2592380177-354629.jpg,2512875587-350044.jpg,A2O70SKSNWL8LQ
332,2.0,left,left,1.0,2.794,0.0,32.0,32.0,32.0,1.0,2238480677-317399.jpg,2238573546-258454.jpg,A2O70SKSNWL8LQ
333,3.0,left,right,0.0,2.526,0.0,33.0,33.0,33.0,1.0,2898618390-216538.jpg,2575120609-129862.jpg,A2O70SKSNWL8LQ
334,2.0,right,left,0.0,2.886,0.0,34.0,34.0,34.0,1.0,2984615358-72439.jpg,2449441881-272368.jpg,A2O70SKSNWL8LQ
335,1.0,left,left,1.0,3.231,0.0,35.0,35.0,35.0,1.0,2883268471-290842.jpg,2883268471-290843.jpg,A2O70SKSNWL8LQ
336,2.0,left,right,0.0,2.735,0.0,36.0,36.0,36.0,1.0,2446759803-49249.jpg,2898618440-216547.jpg,A2O70SKSNWL8LQ
337,1.0,right,right,1.0,2.557,0.0,37.0,37.0,37.0,1.0,2856919327-359676.jpg,2981241414-145842.jpg,A2O70SKSNWL8LQ
338,3.0,left,left,1.0,3.0,0.0,38.0,38.0,38.0,1.0,2592380177-354626.jpg,2238117096-228518.jpg,A2O70SKSNWL8LQ
339,1.0,right,left,0.0,2.936,0.0,39.0,39.0,39.0,1.0,2238480434-93829.jpg,2458347385-199723.jpg,A2O70SKSNWL8LQ
340,1.0,right,right,1.0,2.599,0.0,40.0,40.0,40.0,1.0,2901942428-69919.jpg,2901939379-143480.jpg,A2O70SKSNWL8LQ
341,1.0,left,left,1.0,2.833,0.0,41.0,41.0,41.0,1.0,2874302418-65979.jpg,2413147898-43548.jpg,A2O70SKSNWL8LQ
342,1.0,left,left,1.0,2.437,0.0,42.0,42.0,42.0,1.0,2874302418-65978.jpg,2898626385-216899.jpg,A2O70SKSNWL8LQ
343,3.0,right,right,1.0,2.964,0.0,43.0,43.0,43.0,1.0,2981231446-294732.jpg,2964218374-144967.jpg,A2O70SKSNWL8LQ
344,1.0,right,right,1.0,2.61,0.0,44.0,44.0,44.0,1.0,2609793677-355397.jpg,2874303365-214262.jpg,A2O70SKSNWL8LQ
345,1.0,right,right,1.0,3.58,0.0,45.0,45.0,45.0,1.0,2883264367-365620.jpg,2238481928-19949.jpg,A2O70SKSNWL8LQ
346,3.0,left,left,1.0,2.963,0.0,46.0,46.0,46.0,1.0,2452381505-199546.jpg,2994401319-148290.jpg,A2O70SKSNWL8LQ
347,2.0,right,right,1.0,3.412,0.0,47.0,47.0,47.0,1.0,2458348012-349114.jpg,2964213381-294060.jpg,A2O70SKSNWL8LQ
348,2.0,left,right,0.0,2.285,0.0,48.0,48.0,48.0,1.0,2592379964-131054.jpg,2238479053-19457.jpg,A2O70SKSNWL8LQ
349,3.0,right,left,0.0,3.679,0.0,49.0,49.0,49.0,1.0,2981246360-220352.jpg,2901948350-218459.jpg,A2O70SKSNWL8LQ
350,2.0,left,right,0.0,3.919,0.0,50.0,50.0,50.0,1.0,2446758985-197609.jpg,2864909447-362144.jpg,A2O70SKSNWL8LQ
351,3.0,left,left,1.0,3.092,0.0,51.0,51.0,51.0,1.0,2898617468-68274.jpg,2964207374-144577.jpg,A2O70SKSNWL8LQ
352,2.0,right,left,0.0,3.036,0.0,52.0,52.0,52.0,1.0,2238555262-330312.jpg,2898618444-142233.jpg,A2O70SKSNWL8LQ
353,3.0,right,left,0.0,2.624,0.0,53.0,53.0,53.0,1.0,2238480980-168129.jpg,2238560245-182099.jpg,A2O70SKSNWL8LQ
354,3.0,left,right,0.0,3.081,0.0,54.0,54.0,54.0,1.0,2874299429-139695.jpg,2446760917-347439.jpg,A2O70SKSNWL8LQ
355,2.0,right,right,1.0,2.729,0.0,55.0,55.0,55.0,1.0,2901946436-293242.jpg,2238481198-19822.jpg,A2O70SKSNWL8LQ
356,2.0,left,right,0.0,2.958,0.0,56.0,56.0,56.0,1.0,2901941401-292798.jpg,2981243412-370222.jpg,A2O70SKSNWL8LQ
357,1.0,left,left,1.0,2.355,0.0,57.0,57.0,57.0,1.0,2238425482-313537.jpg,2238471391-240918.jpg,A2O70SKSNWL8LQ
358,2.0,left,left,1.0,2.488,0.0,58.0,58.0,58.0,1.0,2864910426-287204.jpg,2874299429-139694.jpg,A2O70SKSNWL8LQ
359,1.0,left,left,1.0,3.498,0.0,59.0,59.0,59.0,1.0,2460547508-51571.jpg,2460547291-274110.jpg,A2O70SKSNWL8LQ
360,2.0,left,right,0.0,1.3871,0.0,0.0,0.0,0.0,1.0,2898618390-216538.jpg,2901939327-367670.jpg,A2T5CROJ0FWIJY
361,2.0,right,left,0.0,1.7007,0.0,1.0,1.0,1.0,1.0,2901943387-368037.jpg,2898617468-68274.jpg,A2T5CROJ0FWIJY
362,1.0,left,left,1.0,1.9695,0.0,2.0,2.0,2.0,1.0,2874302418-65979.jpg,2413147898-43548.jpg,A2T5CROJ0FWIJY
363,2.0,left,right,0.0,1.9639,0.0,3.0,3.0,3.0,1.0,2458347385-199723.jpg,2427874554-121863.jpg,A2T5CROJ0FWIJY
364,3.0,left,left,1.0,1.9238,0.0,4.0,4.0,4.0,1.0,2238425482-313537.jpg,2898633480-217190.jpg,A2T5CROJ0FWIJY
365,2.0,right,left,0.0,3.3843,0.0,5.0,5.0,5.0,1.0,2874314526-289684.jpg,2238560245-182099.jpg,A2T5CROJ0FWIJY
366,3.0,right,left,0.0,1.7745,0.0,6.0,6.0,6.0,1.0,2864904453-63933.jpg,2883256307-365057.jpg,A2T5CROJ0FWIJY
367,1.0,right,left,0.0,2.598,0.0,7.0,7.0,7.0,1.0,2237944827-301472.jpg,2898634397-367080.jpg,A2T5CROJ0FWIJY
368,1.0,left,left,1.0,1.4801,0.0,8.0,8.0,8.0,1.0,2446758985-197609.jpg,2981240424-145795.jpg,A2T5CROJ0FWIJY
369,2.0,left,right,0.0,1.2734,0.0,9.0,9.0,9.0,1.0,2964216465-219242.jpg,2864900319-137787.jpg,A2T5CROJ0FWIJY
370,3.0,left,left,1.0,1.6575,0.0,10.0,10.0,10.0,1.0,2460547508-51571.jpg,2901941438-69835.jpg,A2T5CROJ0FWIJY
371,2.0,right,right,1.0,1.9299,0.0,11.0,11.0,11.0,1.0,2898618440-216547.jpg,2446759803-49249.jpg,A2T5CROJ0FWIJY
372,1.0,left,left,1.0,1.9646,0.0,12.0,12.0,12.0,1.0,2460547467-349421.jpg,2898631394-142727.jpg,A2T5CROJ0FWIJY
373,1.0,left,left,1.0,1.7344,0.0,13.0,13.0,13.0,1.0,2864907432-362042.jpg,2864901420-212147.jpg,A2T5CROJ0FWIJY
374,1.0,right,right,1.0,1.799,0.0,14.0,14.0,14.0,1.0,2860312398-62572.jpg,2901947423-70311.jpg,A2T5CROJ0FWIJY
375,3.0,right,left,0.0,3.0143,0.0,15.0,15.0,15.0,1.0,2868474407-362885.jpg,2868475410-213219.jpg,A2T5CROJ0FWIJY
376,1.0,right,left,0.0,1.4128,0.0,16.0,16.0,16.0,1.0,2986447306-296584.jpg,2874307433-66280.jpg,A2T5CROJ0FWIJY
377,3.0,left,left,1.0,1.9472,0.0,17.0,17.0,17.0,1.0,2449442529-124445.jpg,2898632385-217137.jpg,A2T5CROJ0FWIJY
378,3.0,left,right,0.0,1.5569,0.0,18.0,18.0,18.0,1.0,2898635428-69104.jpg,2898625336-291572.jpg,A2T5CROJ0FWIJY
379,1.0,right,right,1.0,1.5888,0.0,19.0,19.0,19.0,1.0,2238516618-25604.jpg,2868474407-362883.jpg,A2T5CROJ0FWIJY
380,3.0,right,left,0.0,4.1337,0.0,20.0,20.0,20.0,1.0,2901939433-69672.jpg,2864910426-287204.jpg,A2T5CROJ0FWIJY
381,3.0,left,left,1.0,1.3352,0.0,21.0,21.0,21.0,1.0,2874301407-363895.jpg,2901947323-70275.jpg,A2T5CROJ0FWIJY
382,2.0,left,left,1.0,2.4036,0.0,22.0,22.0,22.0,1.0,2460547467-349422.jpg,2868487415-213924.jpg,A2T5CROJ0FWIJY
383,2.0,left,left,1.0,1.6645,0.0,23.0,23.0,23.0,1.0,2898635427-367120.jpg,2868479517-363220.jpg,A2T5CROJ0FWIJY
384,1.0,left,left,1.0,1.9405,0.0,24.0,24.0,24.0,1.0,2898618444-142233.jpg,2898631359-142721.jpg,A2T5CROJ0FWIJY
385,2.0,left,right,0.0,1.3045,0.0,25.0,25.0,25.0,1.0,2452381505-199546.jpg,2238567168-34916.jpg,A2T5CROJ0FWIJY
386,3.0,left,left,1.0,1.552,0.0,26.0,26.0,26.0,1.0,2238481198-19822.jpg,2238480803-19737.jpg,A2T5CROJ0FWIJY
387,2.0,left,right,0.0,2.3541,0.0,27.0,27.0,27.0,1.0,2986451363-73599.jpg,2860302315-210704.jpg,A2T5CROJ0FWIJY
388,1.0,left,left,1.0,2.1469,0.0,28.0,28.0,28.0,1.0,2883268412-365898.jpg,2984626312-370849.jpg,A2T5CROJ0FWIJY
389,3.0,right,right,1.0,2.0007,0.0,29.0,29.0,29.0,1.0,2449442181-272436.jpg,2452380832-348593.jpg,A2T5CROJ0FWIJY
390,3.0,right,left,0.0,1.6492,0.0,30.0,30.0,30.0,1.0,2901947448-70314.jpg,2883268471-290842.jpg,A2T5CROJ0FWIJY
391,1.0,right,left,0.0,1.6856,0.0,31.0,31.0,31.0,1.0,2460547536-274179.jpg,2512875899-126682.jpg,A2T5CROJ0FWIJY
392,2.0,left,right,0.0,2.0355,0.0,32.0,32.0,32.0,1.0,2964213381-294060.jpg,2458348012-349114.jpg,A2T5CROJ0FWIJY
393,3.0,left,right,0.0,2.9775,0.0,33.0,33.0,33.0,1.0,2592379964-131054.jpg,2592380272-354673.jpg,A2T5CROJ0FWIJY
394,2.0,right,left,0.0,1.8007,0.0,34.0,34.0,34.0,1.0,2984615361-295509.jpg,2238428357-313623.jpg,A2T5CROJ0FWIJY
395,1.0,left,right,0.0,2.0844,0.0,35.0,35.0,35.0,1.0,2238580740-186218.jpg,2238550816-254000.jpg,A2T5CROJ0FWIJY
396,3.0,left,left,1.0,2.0243,0.0,36.0,36.0,36.0,1.0,2901952513-70703.jpg,2238481198-19821.jpg,A2T5CROJ0FWIJY
397,3.0,right,left,0.0,1.7039,0.0,37.0,37.0,37.0,1.0,2981246360-220352.jpg,2901948350-218459.jpg,A2T5CROJ0FWIJY
398,2.0,right,right,1.0,1.667,0.0,38.0,38.0,38.0,1.0,2874301404-139813.jpg,2981241414-145842.jpg,A2T5CROJ0FWIJY
399,1.0,left,left,1.0,1.5463,0.0,39.0,39.0,39.0,1.0,2901941401-292798.jpg,2898618327-366317.jpg,A2T5CROJ0FWIJY
400,2.0,left,left,1.0,1.8197,0.0,40.0,40.0,40.0,1.0,2883254439-140941.jpg,2898632385-217136.jpg,A2T5CROJ0FWIJY
401,2.0,right,right,1.0,2.6684,0.0,41.0,41.0,41.0,1.0,2446758985-197610.jpg,2901939379-143479.jpg,A2T5CROJ0FWIJY
402,2.0,left,left,1.0,2.4552,0.0,42.0,42.0,42.0,1.0,2238481928-19949.jpg,2864900357-361688.jpg,A2T5CROJ0FWIJY
403,3.0,left,right,0.0,2.1646,0.0,43.0,43.0,43.0,1.0,2238480677-317399.jpg,2238480278-19661.jpg,A2T5CROJ0FWIJY
404,3.0,right,left,0.0,2.2736,0.0,44.0,44.0,44.0,1.0,2898628438-68785.jpg,2964223381-294447.jpg,A2T5CROJ0FWIJY
405,2.0,left,left,1.0,1.9946,0.0,45.0,45.0,45.0,1.0,2575120738-55529.jpg,2575120738-55528.jpg,A2T5CROJ0FWIJY
406,3.0,left,left,1.0,2.7644,0.0,46.0,46.0,46.0,1.0,2898633421-291973.jpg,2238550049-105691.jpg,A2T5CROJ0FWIJY
407,2.0,left,right,0.0,2.1241,0.0,47.0,47.0,47.0,1.0,2874299429-139695.jpg,2901942443-69923.jpg,A2T5CROJ0FWIJY
408,3.0,right,right,1.0,2.6137,0.0,48.0,48.0,48.0,1.0,2901938432-367629.jpg,2901939379-143480.jpg,A2T5CROJ0FWIJY
409,1.0,right,left,0.0,2.2175,0.0,49.0,49.0,49.0,1.0,2964224310-219528.jpg,2446759347-347016.jpg,A2T5CROJ0FWIJY
410,1.0,left,right,0.0,2.2878,0.0,50.0,50.0,50.0,1.0,2238572663-35822.jpg,2986419333-73361.jpg,A2T5CROJ0FWIJY
411,1.0,right,right,1.0,1.8138,0.0,51.0,51.0,51.0,1.0,2446759803-49251.jpg,2449442529-124446.jpg,A2T5CROJ0FWIJY
412,2.0,right,right,1.0,1.7697,0.0,52.0,52.0,52.0,1.0,2883254439-140940.jpg,2964218374-144967.jpg,A2T5CROJ0FWIJY
413,3.0,left,left,1.0,1.7872,0.0,53.0,53.0,53.0,1.0,2874302418-65978.jpg,2898633321-291943.jpg,A2T5CROJ0FWIJY
414,1.0,right,left,0.0,1.6193,0.0,54.0,54.0,54.0,1.0,2274829821-263682.jpg,2981231403-71642.jpg,A2T5CROJ0FWIJY
415,3.0,left,left,1.0,2.8083,0.0,55.0,55.0,55.0,1.0,2592380177-354626.jpg,2238117096-228518.jpg,A2T5CROJ0FWIJY
416,1.0,right,right,1.0,2.0915,0.0,56.0,56.0,56.0,1.0,2964218432-369263.jpg,2898624426-291546.jpg,A2T5CROJ0FWIJY
417,1.0,right,right,1.0,1.8069,0.0,57.0,57.0,57.0,1.0,2883268412-365899.jpg,2449441881-272368.jpg,A2T5CROJ0FWIJY
418,1.0,left,right,0.0,2.3091,0.0,58.0,58.0,58.0,1.0,2592380177-354629.jpg,2898633421-291974.jpg,A2T5CROJ0FWIJY
419,2.0,right,right,1.0,2.7131,0.0,59.0,59.0,59.0,1.0,2238563377-332054.jpg,2874303365-214262.jpg,A2T5CROJ0FWIJY
420,3.0,left,left,1.0,3.4282,0.0,0.0,0.0,0.0,1.0,2874302418-65979.jpg,2238578544-111698.jpg,A387FNIV21H4T2
421,2.0,left,right,0.0,2.1283,0.0,1.0,1.0,1.0,1.0,2898618390-216538.jpg,2901939327-367670.jpg,A387FNIV21H4T2
422,2.0,right,left,0.0,1.7731,0.0,2.0,2.0,2.0,1.0,2860302315-210704.jpg,2986451363-73599.jpg,A387FNIV21H4T2
423,2.0,right,right,1.0,2.6369,0.0,3.0,3.0,3.0,1.0,2460547536-274181.jpg,2449442529-124446.jpg,A387FNIV21H4T2
424,3.0,right,left,0.0,1.9921,0.0,4.0,4.0,4.0,1.0,2981231422-369714.jpg,2874307433-66280.jpg,A387FNIV21H4T2
425,1.0,right,right,1.0,1.7848,0.0,5.0,5.0,5.0,1.0,2512876023-52283.jpg,2898633421-291973.jpg,A387FNIV21H4T2
426,2.0,left,right,0.0,2.1303,0.0,6.0,6.0,6.0,1.0,2238560245-182099.jpg,2874314526-289684.jpg,A387FNIV21H4T2
427,3.0,left,left,1.0,1.7486,0.0,7.0,7.0,7.0,1.0,2460547467-349422.jpg,2864909447-362146.jpg,A387FNIV21H4T2
428,1.0,left,left,1.0,2.0098,0.0,8.0,8.0,8.0,1.0,2874299429-139695.jpg,2883266388-67750.jpg,A387FNIV21H4T2
429,1.0,left,right,0.0,1.9082,0.0,9.0,9.0,9.0,1.0,2901952513-70703.jpg,2864907361-287062.jpg,A387FNIV21H4T2
430,2.0,left,right,0.0,1.9341,0.0,10.0,10.0,10.0,1.0,2592379964-131054.jpg,2238479053-19457.jpg,A387FNIV21H4T2
431,1.0,right,left,0.0,1.463,0.0,11.0,11.0,11.0,1.0,2986408339-146952.jpg,2592380177-354626.jpg,A387FNIV21H4T2
432,3.0,left,left,1.0,1.6818,0.0,12.0,12.0,12.0,1.0,2238481198-19822.jpg,2238480803-19737.jpg,A387FNIV21H4T2
433,3.0,left,right,0.0,2.1258,0.0,13.0,13.0,13.0,1.0,2575120738-55529.jpg,2238531493-28260.jpg,A387FNIV21H4T2
434,2.0,right,left,0.0,1.8823,0.0,14.0,14.0,14.0,1.0,2901943411-292945.jpg,2898635428-69104.jpg,A387FNIV21H4T2
435,2.0,right,right,1.0,1.8091,0.0,15.0,15.0,15.0,1.0,2427874554-121863.jpg,2458347385-199723.jpg,A387FNIV21H4T2
436,3.0,left,right,0.0,1.8383,0.0,16.0,16.0,16.0,1.0,2874302418-65978.jpg,2898633321-291943.jpg,A387FNIV21H4T2
437,3.0,left,left,1.0,1.9832,0.0,17.0,17.0,17.0,1.0,2238480677-317399.jpg,2238480278-19661.jpg,A387FNIV21H4T2
438,2.0,right,right,1.0,1.6585,0.0,18.0,18.0,18.0,1.0,2901941438-69836.jpg,2964223381-294447.jpg,A387FNIV21H4T2
439,1.0,left,left,1.0,1.8064,0.0,19.0,19.0,19.0,1.0,2981241414-145842.jpg,2856919327-359676.jpg,A387FNIV21H4T2
440,2.0,right,right,1.0,1.6975,0.0,20.0,20.0,20.0,1.0,2984615361-295509.jpg,2238428357-313623.jpg,A387FNIV21H4T2
441,2.0,right,left,0.0,1.7454,0.0,21.0,21.0,21.0,1.0,2981244403-72215.jpg,2981231403-71642.jpg,A387FNIV21H4T2
442,3.0,right,right,1.0,1.3685,0.0,22.0,22.0,22.0,1.0,2512875587-350044.jpg,2592380177-354629.jpg,A387FNIV21H4T2
443,3.0,right,right,1.0,1.5801,0.0,23.0,23.0,23.0,1.0,2981235446-294900.jpg,2898624426-291546.jpg,A387FNIV21H4T2
444,1.0,right,right,1.0,1.3608,0.0,24.0,24.0,24.0,1.0,2452380171-273112.jpg,2449442529-124445.jpg,A387FNIV21H4T2
445,1.0,right,left,0.0,1.6904,0.0,25.0,25.0,25.0,1.0,2883268412-365899.jpg,2449441881-272368.jpg,A387FNIV21H4T2
446,3.0,left,left,1.0,1.4018,0.0,26.0,26.0,26.0,1.0,2901948350-218459.jpg,2981246360-220352.jpg,A387FNIV21H4T2
447,3.0,left,left,1.0,1.7054,0.0,27.0,27.0,27.0,1.0,2964218374-144967.jpg,2981231446-294732.jpg,A387FNIV21H4T2
448,2.0,right,right,1.0,1.2641,0.0,28.0,28.0,28.0,1.0,2446758985-197610.jpg,2901939379-143479.jpg,A387FNIV21H4T2
449,2.0,left,right,0.0,1.7931,0.0,29.0,29.0,29.0,1.0,2901941401-292798.jpg,2981243412-370222.jpg,A387FNIV21H4T2
450,1.0,left,left,1.0,1.6186,0.0,30.0,30.0,30.0,1.0,2868475410-213219.jpg,2901946465-218350.jpg,A387FNIV21H4T2
451,1.0,right,left,0.0,1.8601,0.0,31.0,31.0,31.0,1.0,2883264368-67631.jpg,2874301407-363895.jpg,A387FNIV21H4T2
452,2.0,left,left,1.0,1.636,0.0,32.0,32.0,32.0,1.0,2446759347-347016.jpg,2901951350-218702.jpg,A387FNIV21H4T2
453,2.0,left,right,0.0,1.5365,0.0,33.0,33.0,33.0,1.0,2883256307-365057.jpg,2964210336-293945.jpg,A387FNIV21H4T2
454,1.0,right,left,0.0,1.656,0.0,34.0,34.0,34.0,1.0,2883264367-365620.jpg,2238481928-19949.jpg,A387FNIV21H4T2
455,2.0,left,right,0.0,1.3912,0.0,35.0,35.0,35.0,1.0,2874303365-214262.jpg,2238563377-332054.jpg,A387FNIV21H4T2
456,3.0,right,left,0.0,1.5545,0.0,36.0,36.0,36.0,1.0,2898633480-217190.jpg,2238425482-313537.jpg,A387FNIV21H4T2
457,1.0,left,right,0.0,1.6238,0.0,37.0,37.0,37.0,1.0,2883254439-140941.jpg,2446760844-124088.jpg,A387FNIV21H4T2
458,1.0,right,left,0.0,1.6458,0.0,38.0,38.0,38.0,1.0,2238516618-25604.jpg,2868474407-362883.jpg,A387FNIV21H4T2
459,2.0,right,right,1.0,1.2993,0.0,39.0,39.0,39.0,1.0,2864900319-137787.jpg,2964216465-219242.jpg,A387FNIV21H4T2
460,1.0,right,left,0.0,1.7421,0.0,40.0,40.0,40.0,1.0,2984626312-370849.jpg,2883268412-365898.jpg,A387FNIV21H4T2
461,1.0,left,left,1.0,1.4633,0.0,41.0,41.0,41.0,1.0,2452381505-199546.jpg,2901938432-367627.jpg,A387FNIV21H4T2
462,3.0,left,left,1.0,1.6719,0.0,42.0,42.0,42.0,1.0,2446758985-197609.jpg,2898624426-291544.jpg,A387FNIV21H4T2
463,2.0,right,left,0.0,2.0116,0.0,43.0,43.0,43.0,1.0,2883255450-215310.jpg,2883268471-290842.jpg,A387FNIV21H4T2
464,3.0,right,right,1.0,1.3394,0.0,44.0,44.0,44.0,1.0,2964220333-71258.jpg,2238580740-186218.jpg,A387FNIV21H4T2
465,2.0,left,left,1.0,1.556,0.0,45.0,45.0,45.0,1.0,2898618444-142233.jpg,2238555262-330312.jpg,A387FNIV21H4T2
466,1.0,left,right,0.0,1.3134,0.0,46.0,46.0,46.0,1.0,2898617468-68274.jpg,2864906345-212360.jpg,A387FNIV21H4T2
467,3.0,right,right,1.0,1.3221,0.0,47.0,47.0,47.0,1.0,2981235446-294901.jpg,2460547467-349421.jpg,A387FNIV21H4T2
468,3.0,left,right,0.0,1.6322,0.0,48.0,48.0,48.0,1.0,2512875899-126682.jpg,2986447332-371497.jpg,A387FNIV21H4T2
469,3.0,left,right,0.0,1.6176,0.0,49.0,49.0,49.0,1.0,2238572663-35822.jpg,2864903351-286874.jpg,A387FNIV21H4T2
470,1.0,left,left,1.0,1.4012,0.0,50.0,50.0,50.0,1.0,2898634397-367080.jpg,2237944827-301472.jpg,A387FNIV21H4T2
471,1.0,left,right,0.0,1.2876,0.0,51.0,51.0,51.0,1.0,2898635427-367120.jpg,2901946439-144040.jpg,A387FNIV21H4T2
472,3.0,right,right,1.0,1.3253,0.0,52.0,52.0,52.0,1.0,2452380166-273109.jpg,2446759803-49249.jpg,A387FNIV21H4T2
473,3.0,left,right,0.0,1.2874,0.0,53.0,53.0,53.0,1.0,2901939379-143480.jpg,2901938432-367629.jpg,A387FNIV21H4T2
474,3.0,right,right,1.0,1.461,0.0,54.0,54.0,54.0,1.0,2901939433-69672.jpg,2864910426-287204.jpg,A387FNIV21H4T2
475,1.0,left,left,1.0,1.2008,0.0,55.0,55.0,55.0,1.0,2460547508-51571.jpg,2460547291-274110.jpg,A387FNIV21H4T2
476,1.0,right,left,0.0,1.4761,0.0,56.0,56.0,56.0,1.0,2981244394-145974.jpg,2964213381-294060.jpg,A387FNIV21H4T2
477,1.0,left,left,1.0,1.5102,0.0,57.0,57.0,57.0,1.0,2864907432-362042.jpg,2864901420-212147.jpg,A387FNIV21H4T2
478,2.0,left,left,1.0,1.357,0.0,58.0,58.0,58.0,1.0,2901947423-70311.jpg,2238573447-333826.jpg,A387FNIV21H4T2
479,2.0,right,right,1.0,2.1778,0.0,59.0,59.0,59.0,1.0,2238481813-19930.jpg,2452380832-348593.jpg,A387FNIV21H4T2
480,2.0,left,right,0.0,6.831,0.0,0.0,0.0,0.0,1.0,2874302418-65979.jpg,2238480648-19714.jpg,A3BM2QI9E6G3KS
481,3.0,right,right,1.0,0.0901,0.0,1.0,1.0,1.0,1.0,2986447332-371497.jpg,2512875899-126682.jpg,A3BM2QI9E6G3KS
482,2.0,left,left,1.0,3.1833,0.0,2.0,2.0,2.0,1.0,2986451363-73599.jpg,2860302315-210704.jpg,A3BM2QI9E6G3KS
483,1.0,left,right,0.0,3.8976,0.0,3.0,3.0,3.0,1.0,2238481928-19949.jpg,2883264367-365620.jpg,A3BM2QI9E6G3KS
484,3.0,left,left,1.0,2.9982,0.0,4.0,4.0,4.0,1.0,2883268412-365898.jpg,2238436252-314037.jpg,A3BM2QI9E6G3KS
485,3.0,left,left,1.0,2.7416,0.0,5.0,5.0,5.0,1.0,2575120738-55529.jpg,2238531493-28260.jpg,A3BM2QI9E6G3KS
486,3.0,left,right,0.0,2.2676,0.0,6.0,6.0,6.0,1.0,2964223381-294447.jpg,2898628438-68785.jpg,A3BM2QI9E6G3KS
487,1.0,right,right,1.0,2.5001,0.0,7.0,7.0,7.0,1.0,2864902304-137862.jpg,2864910426-287204.jpg,A3BM2QI9E6G3KS
488,3.0,left,left,1.0,2.7265,0.0,8.0,8.0,8.0,1.0,2898617468-68274.jpg,2964207374-144577.jpg,A3BM2QI9E6G3KS
489,3.0,left,left,1.0,2.1832,0.0,9.0,9.0,9.0,1.0,2460547467-349421.jpg,2981235446-294901.jpg,A3BM2QI9E6G3KS
490,2.0,right,left,0.0,2.5036,0.0,10.0,10.0,10.0,1.0,2901947423-70310.jpg,2864907432-362042.jpg,A3BM2QI9E6G3KS
491,2.0,left,right,0.0,1.5944,0.0,11.0,11.0,11.0,1.0,2981231403-71642.jpg,2981244403-72215.jpg,A3BM2QI9E6G3KS
492,2.0,right,right,1.0,1.7074,0.0,12.0,12.0,12.0,1.0,2238555262-330312.jpg,2898618444-142233.jpg,A3BM2QI9E6G3KS
493,3.0,left,left,1.0,1.5031,0.0,13.0,13.0,13.0,1.0,2238425482-313537.jpg,2898633480-217190.jpg,A3BM2QI9E6G3KS
494,3.0,left,left,1.0,1.7397,0.0,14.0,14.0,14.0,1.0,2901939379-143479.jpg,2981240424-145794.jpg,A3BM2QI9E6G3KS
495,2.0,left,left,1.0,2.6383,0.0,15.0,15.0,15.0,1.0,2449441881-272368.jpg,2984615358-72439.jpg,A3BM2QI9E6G3KS
496,2.0,left,left,1.0,2.1655,0.0,16.0,16.0,16.0,1.0,2446759803-49249.jpg,2898618440-216547.jpg,A3BM2QI9E6G3KS
497,1.0,right,right,1.0,1.8029,0.0,17.0,17.0,17.0,1.0,2898618440-216545.jpg,2460547467-349422.jpg,A3BM2QI9E6G3KS
498,3.0,right,right,1.0,2.2213,0.0,18.0,18.0,18.0,1.0,2449442181-272436.jpg,2452380832-348593.jpg,A3BM2QI9E6G3KS
499,2.0,right,right,1.0,3.9054,0.0,19.0,19.0,19.0,1.0,2986397322-371109.jpg,2874301407-363895.jpg,A3BM2QI9E6G3KS
500,1.0,left,left,1.0,1.8328,0.0,20.0,20.0,20.0,1.0,2901948350-218459.jpg,2804906319-133082.jpg,A3BM2QI9E6G3KS
501,1.0,right,left,0.0,1.836,0.0,21.0,21.0,21.0,1.0,2901946465-218350.jpg,2868475410-213219.jpg,A3BM2QI9E6G3KS
502,1.0,left,right,0.0,1.7598,0.0,22.0,22.0,22.0,1.0,2898635428-69104.jpg,2446759803-49250.jpg,A3BM2QI9E6G3KS
503,1.0,left,left,1.0,1.5595,0.0,23.0,23.0,23.0,1.0,2981241414-145842.jpg,2856919327-359676.jpg,A3BM2QI9E6G3KS
504,2.0,left,left,1.0,2.586,0.0,24.0,24.0,24.0,1.0,2874299429-139695.jpg,2901942443-69923.jpg,A3BM2QI9E6G3KS
505,2.0,left,right,0.0,2.1536,0.0,25.0,25.0,25.0,1.0,2883268471-290842.jpg,2883255450-215310.jpg,A3BM2QI9E6G3KS
506,1.0,left,left,1.0,2.169,0.0,26.0,26.0,26.0,1.0,2901947423-70311.jpg,2860312398-62572.jpg,A3BM2QI9E6G3KS
507,1.0,left,left,1.0,2.0709,0.0,27.0,27.0,27.0,1.0,2238481198-19822.jpg,2862691449-137104.jpg,A3BM2QI9E6G3KS
508,1.0,left,left,1.0,1.6568,0.0,28.0,28.0,28.0,1.0,2883254439-140941.jpg,2446760844-124088.jpg,A3BM2QI9E6G3KS
509,1.0,right,right,1.0,1.6361,0.0,29.0,29.0,29.0,1.0,2238481630-168218.jpg,2238480677-317399.jpg,A3BM2QI9E6G3KS
510,3.0,right,right,1.0,1.651,0.0,30.0,30.0,30.0,1.0,2864911457-362260.jpg,2874303365-214262.jpg,A3BM2QI9E6G3KS
511,3.0,right,right,1.0,1.3144,0.0,31.0,31.0,31.0,1.0,2238117096-228518.jpg,2592380177-354626.jpg,A3BM2QI9E6G3KS
512,3.0,right,right,1.0,3.8755,0.0,32.0,32.0,32.0,1.0,2901938432-367629.jpg,2901939379-143480.jpg,A3BM2QI9E6G3KS
513,2.0,right,right,1.0,1.7426,0.0,33.0,33.0,33.0,1.0,2575118671-277663.jpg,2898633421-291973.jpg,A3BM2QI9E6G3KS
514,1.0,left,left,1.0,2.0095,0.0,34.0,34.0,34.0,1.0,2238428357-313623.jpg,2238499057-320266.jpg,A3BM2QI9E6G3KS
515,2.0,right,left,0.0,2.1259,0.0,35.0,35.0,35.0,1.0,2238521193-26285.jpg,2238580740-186218.jpg,A3BM2QI9E6G3KS
516,3.0,left,right,0.0,2.6957,0.0,36.0,36.0,36.0,1.0,2238560245-182099.jpg,2238480980-168129.jpg,A3BM2QI9E6G3KS
517,2.0,right,right,1.0,1.4298,0.0,37.0,37.0,37.0,1.0,2458348012-349114.jpg,2964213381-294060.jpg,A3BM2QI9E6G3KS
518,2.0,right,right,1.0,3.0647,0.0,38.0,38.0,38.0,1.0,2981246400-220365.jpg,2874307433-66280.jpg,A3BM2QI9E6G3KS
519,1.0,left,right,0.0,2.1523,0.0,39.0,39.0,39.0,1.0,2460547508-51571.jpg,2460547291-274110.jpg,A3BM2QI9E6G3KS
520,2.0,left,left,1.0,1.746,0.0,40.0,40.0,40.0,1.0,2898618390-216538.jpg,2901939327-367670.jpg,A3BM2QI9E6G3KS
521,1.0,right,left,0.0,1.9746,0.0,41.0,41.0,41.0,1.0,2898618327-366317.jpg,2901941401-292798.jpg,A3BM2QI9E6G3KS
522,1.0,left,left,1.0,1.9133,0.0,42.0,42.0,42.0,1.0,2883256307-365057.jpg,2611628310-206388.jpg,A3BM2QI9E6G3KS
523,2.0,right,right,1.0,1.842,0.0,43.0,43.0,43.0,1.0,2579432534-130704.jpg,2592380177-354629.jpg,A3BM2QI9E6G3KS
524,1.0,left,left,1.0,2.6651,0.0,44.0,44.0,44.0,1.0,2901952513-70703.jpg,2864907361-287062.jpg,A3BM2QI9E6G3KS
525,2.0,left,left,1.0,1.3965,0.0,45.0,45.0,45.0,1.0,2898635427-367120.jpg,2868479517-363220.jpg,A3BM2QI9E6G3KS
526,3.0,right,right,1.0,1.2666,0.0,46.0,46.0,46.0,1.0,2898624426-291544.jpg,2446758985-197609.jpg,A3BM2QI9E6G3KS
527,1.0,right,right,1.0,1.8137,0.0,47.0,47.0,47.0,1.0,2446759803-49251.jpg,2449442529-124446.jpg,A3BM2QI9E6G3KS
528,2.0,right,right,1.0,1.6663,0.0,48.0,48.0,48.0,1.0,2883254439-140940.jpg,2964218374-144967.jpg,A3BM2QI9E6G3KS
529,2.0,left,left,1.0,1.7299,0.0,49.0,49.0,49.0,1.0,2449442529-124445.jpg,2986408373-73286.jpg,A3BM2QI9E6G3KS
530,1.0,right,right,1.0,1.657,0.0,50.0,50.0,50.0,1.0,2986419333-73361.jpg,2238572663-35822.jpg,A3BM2QI9E6G3KS
531,3.0,right,right,1.0,1.9944,0.0,51.0,51.0,51.0,1.0,2898633321-291943.jpg,2874302418-65978.jpg,A3BM2QI9E6G3KS
532,2.0,right,left,0.0,2.1503,0.0,52.0,52.0,52.0,1.0,2901951350-218702.jpg,2446759347-347016.jpg,A3BM2QI9E6G3KS
533,3.0,right,right,1.0,1.9854,0.0,53.0,53.0,53.0,1.0,2994401319-148290.jpg,2452381505-199546.jpg,A3BM2QI9E6G3KS
534,3.0,right,right,1.0,2.2061,0.0,54.0,54.0,54.0,1.0,2964217461-294238.jpg,2898634397-367080.jpg,A3BM2QI9E6G3KS
535,3.0,right,left,0.0,1.8332,0.0,55.0,55.0,55.0,1.0,2898619327-366362.jpg,2964216465-219242.jpg,A3BM2QI9E6G3KS
536,3.0,left,right,0.0,1.6578,0.0,56.0,56.0,56.0,1.0,2868474407-362883.jpg,2901948383-70363.jpg,A3BM2QI9E6G3KS
537,3.0,right,right,1.0,1.2676,0.0,57.0,57.0,57.0,1.0,2592380272-354673.jpg,2592379964-131054.jpg,A3BM2QI9E6G3KS
538,1.0,right,right,1.0,1.9906,0.0,58.0,58.0,58.0,1.0,2238480434-93829.jpg,2458347385-199723.jpg,A3BM2QI9E6G3KS
539,1.0,left,left,1.0,1.741,0.0,59.0,59.0,59.0,1.0,2898624426-291546.jpg,2964218432-369263.jpg,A3BM2QI9E6G3KS
540,1.0,left,left,1.0,2.891,0.0,0.0,0.0,0.0,1.0,2964216465-219242.jpg,2238544191-252422.jpg,A3EVLXA6P3XRBU
541,1.0,left,left,1.0,2.604,0.0,1.0,1.0,1.0,1.0,2883268471-290842.jpg,2883268471-290843.jpg,A3EVLXA6P3XRBU
542,2.0,right,left,0.0,2.65,0.0,2.0,2.0,2.0,1.0,2981243412-370222.jpg,2901941401-292798.jpg,A3EVLXA6P3XRBU
543,1.0,left,right,0.0,2.431,0.0,3.0,3.0,3.0,1.0,2874302418-65978.jpg,2898626385-216899.jpg,A3EVLXA6P3XRBU
544,2.0,right,right,1.0,2.448,0.0,4.0,4.0,4.0,1.0,2427874554-121863.jpg,2458347385-199723.jpg,A3EVLXA6P3XRBU
545,2.0,right,right,1.0,1.918,0.0,5.0,5.0,5.0,1.0,2901947423-70310.jpg,2864907432-362042.jpg,A3EVLXA6P3XRBU
546,1.0,left,left,1.0,3.647,0.0,6.0,6.0,6.0,1.0,2901948350-218459.jpg,2804906319-133082.jpg,A3EVLXA6P3XRBU
547,3.0,right,right,1.0,1.905,0.0,7.0,7.0,7.0,1.0,2238531493-28260.jpg,2575120738-55529.jpg,A3EVLXA6P3XRBU
548,2.0,right,right,1.0,1.999,0.0,8.0,8.0,8.0,1.0,2238480803-19739.jpg,2868475410-213219.jpg,A3EVLXA6P3XRBU
549,3.0,right,right,1.0,1.901,0.0,9.0,9.0,9.0,1.0,2864909447-362146.jpg,2460547467-349422.jpg,A3EVLXA6P3XRBU
550,2.0,right,right,1.0,1.911,0.0,10.0,10.0,10.0,1.0,2238481813-19930.jpg,2452380832-348593.jpg,A3EVLXA6P3XRBU
551,3.0,left,left,1.0,2.007,0.0,11.0,11.0,11.0,1.0,2238425482-313537.jpg,2898633480-217190.jpg,A3EVLXA6P3XRBU
552,3.0,left,right,0.0,2.196,0.0,12.0,12.0,12.0,1.0,2964223381-294447.jpg,2898628438-68785.jpg,A3EVLXA6P3XRBU
553,3.0,left,left,1.0,2.1,0.0,13.0,13.0,13.0,1.0,2986451363-73599.jpg,2238434559-90406.jpg,A3EVLXA6P3XRBU
554,2.0,left,right,0.0,2.268,0.0,14.0,14.0,14.0,1.0,2901947423-70311.jpg,2238573447-333826.jpg,A3EVLXA6P3XRBU
555,3.0,left,right,0.0,1.748,0.0,15.0,15.0,15.0,1.0,2898634397-367080.jpg,2964217461-294238.jpg,A3EVLXA6P3XRBU
556,3.0,left,left,1.0,2.188,0.0,16.0,16.0,16.0,1.0,2981241414-145842.jpg,2427873848-47312.jpg,A3EVLXA6P3XRBU
557,1.0,left,left,1.0,2.395,0.0,17.0,17.0,17.0,1.0,2901939379-143479.jpg,2460547467-349423.jpg,A3EVLXA6P3XRBU
558,1.0,right,left,0.0,1.964,0.0,18.0,18.0,18.0,1.0,2964218374-144968.jpg,2964218374-144967.jpg,A3EVLXA6P3XRBU
559,1.0,right,right,1.0,2.256,0.0,19.0,19.0,19.0,1.0,2575963989-130576.jpg,2592379964-131054.jpg,A3EVLXA6P3XRBU
560,1.0,left,left,1.0,2.378,0.0,20.0,20.0,20.0,1.0,2898635428-69104.jpg,2446759803-49250.jpg,A3EVLXA6P3XRBU
561,3.0,right,right,1.0,2.625,0.0,21.0,21.0,21.0,1.0,2898618444-142232.jpg,2898618444-142233.jpg,A3EVLXA6P3XRBU
562,1.0,right,left,0.0,1.98,0.0,22.0,22.0,22.0,1.0,2901946439-144040.jpg,2898635427-367120.jpg,A3EVLXA6P3XRBU
563,2.0,right,right,1.0,2.209,0.0,23.0,23.0,23.0,1.0,2864900357-361688.jpg,2238481928-19949.jpg,A3EVLXA6P3XRBU
564,3.0,right,left,0.0,2.842,0.0,24.0,24.0,24.0,1.0,2575120609-129862.jpg,2898618390-216538.jpg,A3EVLXA6P3XRBU
565,1.0,left,left,1.0,2.086,0.0,25.0,25.0,25.0,1.0,2238428357-313623.jpg,2238499057-320266.jpg,A3EVLXA6P3XRBU
566,2.0,left,left,1.0,2.629,0.0,26.0,26.0,26.0,1.0,2874299429-139695.jpg,2901942443-69923.jpg,A3EVLXA6P3XRBU
567,1.0,left,left,1.0,2.035,0.0,27.0,27.0,27.0,1.0,2864910426-287204.jpg,2864902304-137862.jpg,A3EVLXA6P3XRBU
568,2.0,right,left,0.0,2.161,0.0,28.0,28.0,28.0,1.0,2981232437-369759.jpg,2460547508-51571.jpg,A3EVLXA6P3XRBU
569,1.0,right,right,1.0,1.989,0.0,29.0,29.0,29.0,1.0,2238550816-254000.jpg,2238580740-186218.jpg,A3EVLXA6P3XRBU
570,3.0,left,left,1.0,1.901,0.0,30.0,30.0,30.0,1.0,2238572663-35822.jpg,2864903351-286874.jpg,A3EVLXA6P3XRBU
571,3.0,left,left,1.0,2.133,0.0,31.0,31.0,31.0,1.0,2883268412-365898.jpg,2238436252-314037.jpg,A3EVLXA6P3XRBU
572,2.0,left,left,1.0,1.883,0.0,32.0,32.0,32.0,1.0,2449442529-124446.jpg,2460547536-274181.jpg,A3EVLXA6P3XRBU
573,3.0,right,left,0.0,1.847,0.0,33.0,33.0,33.0,1.0,2994401319-148290.jpg,2452381505-199546.jpg,A3EVLXA6P3XRBU
574,2.0,left,right,0.0,2.377,0.0,34.0,34.0,34.0,1.0,2449441881-272368.jpg,2984615358-72439.jpg,A3EVLXA6P3XRBU
575,1.0,left,left,1.0,1.693,0.0,35.0,35.0,35.0,1.0,2981231403-71642.jpg,2274829821-263682.jpg,A3EVLXA6P3XRBU
576,2.0,left,right,0.0,1.783,0.0,36.0,36.0,36.0,1.0,2238481198-19822.jpg,2901946436-293242.jpg,A3EVLXA6P3XRBU
577,2.0,left,right,0.0,2.168,0.0,37.0,37.0,37.0,1.0,2460547467-349421.jpg,2452380166-273110.jpg,A3EVLXA6P3XRBU
578,1.0,right,right,1.0,2.401,0.0,38.0,38.0,38.0,1.0,2901942428-69919.jpg,2901939379-143480.jpg,A3EVLXA6P3XRBU
579,3.0,left,left,1.0,2.034,0.0,39.0,39.0,39.0,1.0,2883254439-140941.jpg,2981231446-294730.jpg,A3EVLXA6P3XRBU
580,1.0,left,left,1.0,1.537,0.0,40.0,40.0,40.0,1.0,2868474407-362883.jpg,2238516618-25604.jpg,A3EVLXA6P3XRBU
581,3.0,right,right,1.0,1.63,0.0,41.0,41.0,41.0,1.0,2452380166-273109.jpg,2446759803-49249.jpg,A3EVLXA6P3XRBU
582,3.0,right,right,1.0,1.707,0.0,42.0,42.0,42.0,1.0,2964213381-294061.jpg,2964213381-294060.jpg,A3EVLXA6P3XRBU
583,1.0,right,right,1.0,2.009,0.0,43.0,43.0,43.0,1.0,2549106624-127823.jpg,2238560245-182099.jpg,A3EVLXA6P3XRBU
584,3.0,left,left,1.0,2.35,0.0,44.0,44.0,44.0,1.0,2898633421-291973.jpg,2238550049-105691.jpg,A3EVLXA6P3XRBU
585,2.0,left,left,1.0,1.738,0.0,45.0,45.0,45.0,1.0,2446759347-347016.jpg,2901951350-218702.jpg,A3EVLXA6P3XRBU
586,2.0,left,left,1.0,1.785,0.0,46.0,46.0,46.0,1.0,2874303365-214262.jpg,2238563377-332054.jpg,A3EVLXA6P3XRBU
587,1.0,left,right,0.0,1.652,0.0,47.0,47.0,47.0,1.0,2592380177-354626.jpg,2986408339-146952.jpg,A3EVLXA6P3XRBU
588,3.0,left,left,1.0,1.66,0.0,48.0,48.0,48.0,1.0,2874307433-66280.jpg,2981231422-369714.jpg,A3EVLXA6P3XRBU
589,1.0,right,right,1.0,2.183,0.0,49.0,49.0,49.0,1.0,2883264368-67631.jpg,2874301407-363895.jpg,A3EVLXA6P3XRBU
590,1.0,right,left,0.0,2.105,0.0,50.0,50.0,50.0,1.0,2864907361-287062.jpg,2901952513-70703.jpg,A3EVLXA6P3XRBU
591,2.0,left,left,1.0,2.03,0.0,51.0,51.0,51.0,1.0,2446758985-197609.jpg,2864909447-362144.jpg,A3EVLXA6P3XRBU
592,3.0,left,right,0.0,2.862,0.0,52.0,52.0,52.0,1.0,2874302418-65979.jpg,2238578544-111698.jpg,A3EVLXA6P3XRBU
593,1.0,right,left,0.0,1.956,0.0,53.0,53.0,53.0,1.0,2898633421-291974.jpg,2592380177-354629.jpg,A3EVLXA6P3XRBU
594,2.0,left,left,1.0,1.615,0.0,54.0,54.0,54.0,1.0,2449442529-124445.jpg,2986408373-73286.jpg,A3EVLXA6P3XRBU
595,2.0,right,right,1.0,1.778,0.0,55.0,55.0,55.0,1.0,2901943387-368037.jpg,2898617468-68274.jpg,A3EVLXA6P3XRBU
596,2.0,right,left,0.0,1.528,0.0,56.0,56.0,56.0,1.0,2964210336-293945.jpg,2883256307-365057.jpg,A3EVLXA6P3XRBU
597,3.0,right,right,1.0,1.87,0.0,57.0,57.0,57.0,1.0,2238480278-19661.jpg,2238480677-317399.jpg,A3EVLXA6P3XRBU
598,2.0,right,left,0.0,2.246,0.0,58.0,58.0,58.0,1.0,2981236443-71859.jpg,2898624426-291546.jpg,A3EVLXA6P3XRBU
599,3.0,right,right,1.0,2.212,0.0,59.0,59.0,59.0,1.0,2986447332-371497.jpg,2512875899-126682.jpg,A3EVLXA6P3XRBU
600,1.0,left,left,1.0,13.5365,0.0,0.0,0.0,0.0,1.0,2883268471-290842.jpg,2883268471-290843.jpg,A3TI4G63J6VCKV
601,1.0,left,left,1.0,2.0995,0.0,1.0,1.0,1.0,1.0,2592380177-354626.jpg,2986408339-146952.jpg,A3TI4G63J6VCKV
602,3.0,right,left,0.0,2.1107,0.0,2.0,2.0,2.0,1.0,2994401319-148290.jpg,2452381505-199546.jpg,A3TI4G63J6VCKV
603,1.0,left,right,0.0,1.498,0.0,3.0,3.0,3.0,1.0,2981231403-71642.jpg,2274829821-263682.jpg,A3TI4G63J6VCKV
604,1.0,right,left,0.0,1.3633,0.0,4.0,4.0,4.0,1.0,2446760844-124088.jpg,2883254439-140941.jpg,A3TI4G63J6VCKV
605,1.0,left,left,1.0,1.4689,0.0,5.0,5.0,5.0,1.0,2592379964-131054.jpg,2575963989-130576.jpg,A3TI4G63J6VCKV
606,3.0,right,right,1.0,2.4273,0.0,6.0,6.0,6.0,1.0,2883273443-68193.jpg,2901941401-292798.jpg,A3TI4G63J6VCKV
607,1.0,left,right,0.0,2.5716,0.0,7.0,7.0,7.0,1.0,2460547467-349422.jpg,2898618440-216545.jpg,A3TI4G63J6VCKV
608,3.0,right,left,0.0,2.9182,0.0,8.0,8.0,8.0,1.0,2238480278-19661.jpg,2238480677-317399.jpg,A3TI4G63J6VCKV
609,1.0,right,right,1.0,1.7094,0.0,9.0,9.0,9.0,1.0,2804906319-133082.jpg,2901948350-218459.jpg,A3TI4G63J6VCKV
610,2.0,right,left,0.0,1.4756,0.0,10.0,10.0,10.0,1.0,2868469411-287540.jpg,2901952513-70703.jpg,A3TI4G63J6VCKV
611,2.0,right,left,0.0,1.5937,0.0,11.0,11.0,11.0,1.0,2984615361-295509.jpg,2238428357-313623.jpg,A3TI4G63J6VCKV
612,3.0,right,right,1.0,1.8263,0.0,12.0,12.0,12.0,1.0,2898621427-366486.jpg,2898635427-367120.jpg,A3TI4G63J6VCKV
613,1.0,left,left,1.0,2.0582,0.0,13.0,13.0,13.0,1.0,2864910426-287204.jpg,2864902304-137862.jpg,A3TI4G63J6VCKV
614,1.0,left,left,1.0,1.6014,0.0,14.0,14.0,14.0,1.0,2898634397-367080.jpg,2237944827-301472.jpg,A3TI4G63J6VCKV
615,3.0,right,right,1.0,1.9452,0.0,15.0,15.0,15.0,1.0,2238550049-105691.jpg,2898633421-291973.jpg,A3TI4G63J6VCKV
616,2.0,right,right,1.0,1.5908,0.0,16.0,16.0,16.0,1.0,2981229442-369621.jpg,2901939379-143480.jpg,A3TI4G63J6VCKV
617,1.0,left,left,1.0,1.5877,0.0,17.0,17.0,17.0,1.0,2981241414-145842.jpg,2856919327-359676.jpg,A3TI4G63J6VCKV
618,3.0,right,left,0.0,5.3345,0.0,18.0,18.0,18.0,1.0,2446760917-347439.jpg,2874299429-139695.jpg,A3TI4G63J6VCKV
619,1.0,left,left,1.0,1.7161,0.0,19.0,19.0,19.0,1.0,2898618390-216538.jpg,2986449336-296644.jpg,A3TI4G63J6VCKV
620,2.0,left,left,1.0,1.715,0.0,20.0,20.0,20.0,1.0,2449442529-124446.jpg,2460547536-274181.jpg,A3TI4G63J6VCKV
621,3.0,left,right,0.0,1.4698,0.0,21.0,21.0,21.0,1.0,2238425482-313537.jpg,2898633480-217190.jpg,A3TI4G63J6VCKV
622,2.0,right,left,0.0,1.3642,0.0,22.0,22.0,22.0,1.0,2901946436-293242.jpg,2238481198-19822.jpg,A3TI4G63J6VCKV
623,1.0,left,left,1.0,1.0947,0.0,23.0,23.0,23.0,1.0,2592380177-354629.jpg,2898633421-291974.jpg,A3TI4G63J6VCKV
624,3.0,left,left,1.0,2.5636,0.0,24.0,24.0,24.0,1.0,2874307433-66280.jpg,2981231422-369714.jpg,A3TI4G63J6VCKV
625,2.0,right,right,1.0,2.0723,0.0,25.0,25.0,25.0,1.0,2238521193-26285.jpg,2238580740-186218.jpg,A3TI4G63J6VCKV
626,1.0,right,right,1.0,2.5484,0.0,26.0,26.0,26.0,1.0,2460547291-274110.jpg,2460547508-51571.jpg,A3TI4G63J6VCKV
627,3.0,right,right,1.0,1.8136,0.0,27.0,27.0,27.0,1.0,2864911457-362260.jpg,2874303365-214262.jpg,A3TI4G63J6VCKV
628,2.0,right,right,1.0,1.4542,0.0,28.0,28.0,28.0,1.0,2964210336-293945.jpg,2883256307-365057.jpg,A3TI4G63J6VCKV
629,1.0,right,right,1.0,1.8117,0.0,29.0,29.0,29.0,1.0,2898626385-216899.jpg,2874302418-65978.jpg,A3TI4G63J6VCKV
630,3.0,left,left,1.0,3.2673,0.0,30.0,30.0,30.0,1.0,2446758985-197609.jpg,2898624426-291544.jpg,A3TI4G63J6VCKV
631,3.0,right,left,0.0,4.0235,0.0,31.0,31.0,31.0,1.0,2989726338-74002.jpg,2864907432-362042.jpg,A3TI4G63J6VCKV
632,2.0,right,right,1.0,1.5669,0.0,32.0,32.0,32.0,1.0,2458348012-349114.jpg,2964213381-294060.jpg,A3TI4G63J6VCKV
633,3.0,left,right,0.0,1.3492,0.0,33.0,33.0,33.0,1.0,2446759347-347016.jpg,2238569117-333045.jpg,A3TI4G63J6VCKV
634,2.0,left,right,0.0,1.1038,0.0,34.0,34.0,34.0,1.0,2512875899-126682.jpg,2592380177-354628.jpg,A3TI4G63J6VCKV
635,3.0,left,left,1.0,1.5912,0.0,35.0,35.0,35.0,1.0,2898624426-291546.jpg,2981235446-294900.jpg,A3TI4G63J6VCKV
636,2.0,left,left,1.0,1.2215,0.0,36.0,36.0,36.0,1.0,2449442529-124445.jpg,2986408373-73286.jpg,A3TI4G63J6VCKV
637,3.0,right,left,0.0,1.3596,0.0,37.0,37.0,37.0,1.0,2864903351-286874.jpg,2238572663-35822.jpg,A3TI4G63J6VCKV
638,3.0,right,left,0.0,2.3127,0.0,38.0,38.0,38.0,1.0,2981241419-145844.jpg,2238481928-19949.jpg,A3TI4G63J6VCKV
639,3.0,right,right,1.0,1.4674,0.0,39.0,39.0,39.0,1.0,2964207374-144577.jpg,2898617468-68274.jpg,A3TI4G63J6VCKV
640,1.0,right,left,0.0,1.2296,0.0,40.0,40.0,40.0,1.0,2964218374-144968.jpg,2964218374-144967.jpg,A3TI4G63J6VCKV
641,2.0,right,left,0.0,1.2133,0.0,41.0,41.0,41.0,1.0,2984615358-72439.jpg,2449441881-272368.jpg,A3TI4G63J6VCKV
642,1.0,left,right,0.0,1.4553,0.0,42.0,42.0,42.0,1.0,2452380832-348593.jpg,2238328478-11678.jpg,A3TI4G63J6VCKV
643,3.0,right,right,1.0,1.3555,0.0,43.0,43.0,43.0,1.0,2898618444-142232.jpg,2898618444-142233.jpg,A3TI4G63J6VCKV
644,3.0,right,right,1.0,1.4534,0.0,44.0,44.0,44.0,1.0,2238436252-314037.jpg,2883268412-365898.jpg,A3TI4G63J6VCKV
645,2.0,left,right,0.0,1.5683,0.0,45.0,45.0,45.0,1.0,2446759803-49249.jpg,2898618440-216547.jpg,A3TI4G63J6VCKV
646,1.0,right,right,1.0,1.5875,0.0,46.0,46.0,46.0,1.0,2238544191-252422.jpg,2964216465-219242.jpg,A3TI4G63J6VCKV
647,3.0,left,left,1.0,1.2314,0.0,47.0,47.0,47.0,1.0,2868474407-362883.jpg,2901948383-70363.jpg,A3TI4G63J6VCKV
648,2.0,left,left,1.0,1.4577,0.0,48.0,48.0,48.0,1.0,2460547467-349421.jpg,2452380166-273110.jpg,A3TI4G63J6VCKV
649,2.0,left,left,1.0,1.1917,0.0,49.0,49.0,49.0,1.0,2874301407-363895.jpg,2986397322-371109.jpg,A3TI4G63J6VCKV
650,1.0,left,left,1.0,1.3383,0.0,50.0,50.0,50.0,1.0,2874302418-65979.jpg,2413147898-43548.jpg,A3TI4G63J6VCKV
651,2.0,left,right,0.0,1.3458,0.0,51.0,51.0,51.0,1.0,2901939379-143479.jpg,2446758985-197610.jpg,A3TI4G63J6VCKV
652,1.0,left,left,1.0,1.4589,0.0,52.0,52.0,52.0,1.0,2868475410-213219.jpg,2901946465-218350.jpg,A3TI4G63J6VCKV
653,2.0,right,left,0.0,1.2059,0.0,53.0,53.0,53.0,1.0,2874314526-289684.jpg,2238560245-182099.jpg,A3TI4G63J6VCKV
654,2.0,left,left,1.0,1.445,0.0,54.0,54.0,54.0,1.0,2458347385-199723.jpg,2427874554-121863.jpg,A3TI4G63J6VCKV
655,1.0,right,left,0.0,1.5708,0.0,55.0,55.0,55.0,1.0,2427874231-269884.jpg,2964223381-294447.jpg,A3TI4G63J6VCKV
656,2.0,right,right,1.0,1.4584,0.0,56.0,56.0,56.0,1.0,2901943411-292945.jpg,2898635428-69104.jpg,A3TI4G63J6VCKV
657,2.0,left,left,1.0,1.2226,0.0,57.0,57.0,57.0,1.0,2575120738-55529.jpg,2575120738-55528.jpg,A3TI4G63J6VCKV
658,2.0,left,right,0.0,1.5816,0.0,58.0,58.0,58.0,1.0,2901947423-70311.jpg,2238573447-333826.jpg,A3TI4G63J6VCKV
659,3.0,left,left,1.0,1.2326,0.0,59.0,59.0,59.0,1.0,2986451363-73599.jpg,2238434559-90406.jpg,A3TI4G63J6VCKV
660,3.0,left,right,0.0,280.2117,0.0,0.0,0.0,0.0,1.0,2898634397-367080.jpg,2964217461-294238.jpg,A6IKEWK6FWOLC
661,2.0,left,right,0.0,171.7319,0.0,1.0,1.0,1.0,1.0,2883268471-290842.jpg,2883255450-215310.jpg,A6IKEWK6FWOLC
662,2.0,left,right,0.0,5.6394,0.0,2.0,2.0,2.0,1.0,2592380177-354626.jpg,2864901386-286797.jpg,A6IKEWK6FWOLC
663,2.0,left,right,0.0,2.1689,0.0,3.0,3.0,3.0,1.0,2238572663-35822.jpg,2238571930-184143.jpg,A6IKEWK6FWOLC
664,1.0,right,right,1.0,5.606799999,0.0,4.0,4.0,4.0,1.0,2964218374-144968.jpg,2964218374-144967.jpg,A6IKEWK6FWOLC
665,2.0,left,right,0.0,5.1736,0.0,5.0,5.0,5.0,1.0,2981231403-71642.jpg,2981244403-72215.jpg,A6IKEWK6FWOLC
666,1.0,right,right,1.0,3.3581,0.0,6.0,6.0,6.0,1.0,2901942428-69919.jpg,2901939379-143480.jpg,A6IKEWK6FWOLC
667,3.0,right,right,1.0,2.133699999,0.0,7.0,7.0,7.0,1.0,2898621427-366486.jpg,2898635427-367120.jpg,A6IKEWK6FWOLC
668,1.0,right,right,1.0,2.399200001,0.0,8.0,8.0,8.0,1.0,2238544191-252422.jpg,2964216465-219242.jpg,A6IKEWK6FWOLC
669,3.0,right,right,1.0,2.3605,0.0,9.0,9.0,9.0,1.0,2898632385-217137.jpg,2449442529-124445.jpg,A6IKEWK6FWOLC
670,2.0,left,right,0.0,4.103,0.0,10.0,10.0,10.0,1.0,2238580740-186218.jpg,2238521193-26285.jpg,A6IKEWK6FWOLC
671,3.0,left,right,0.0,6.827799999,0.0,11.0,11.0,11.0,1.0,2868475410-213219.jpg,2868474407-362885.jpg,A6IKEWK6FWOLC
672,1.0,right,right,1.0,4.8414,0.0,12.0,12.0,12.0,1.0,2898626385-216899.jpg,2874302418-65978.jpg,A6IKEWK6FWOLC
673,1.0,right,right,1.0,10.493,0.0,13.0,13.0,13.0,1.0,2238499057-320266.jpg,2238428357-313623.jpg,A6IKEWK6FWOLC
674,3.0,left,right,0.0,2.5039,0.0,14.0,14.0,14.0,1.0,2460547508-51571.jpg,2901941438-69835.jpg,A6IKEWK6FWOLC
675,3.0,right,right,1.0,2.5806,0.0,15.0,15.0,15.0,1.0,2964213381-294061.jpg,2964213381-294060.jpg,A6IKEWK6FWOLC
676,3.0,right,right,1.0,6.153200001,0.0,16.0,16.0,16.0,1.0,2238569117-333045.jpg,2446759347-347016.jpg,A6IKEWK6FWOLC
677,2.0,right,right,1.0,7.989700001,0.0,17.0,17.0,17.0,1.0,2864900357-361688.jpg,2238481928-19949.jpg,A6IKEWK6FWOLC
678,2.0,left,left,1.0,2.589199999,0.0,18.0,18.0,18.0,1.0,2898617468-68274.jpg,2901943387-368037.jpg,A6IKEWK6FWOLC
679,2.0,right,right,1.0,2.333299999,0.0,19.0,19.0,19.0,1.0,2592380177-354628.jpg,2512875899-126682.jpg,A6IKEWK6FWOLC
680,1.0,left,left,1.0,4.027099998,0.0,20.0,20.0,20.0,1.0,2901939379-143479.jpg,2460547467-349423.jpg,A6IKEWK6FWOLC
681,1.0,right,right,1.0,6.663200001,0.0,21.0,21.0,21.0,1.0,2413147898-43548.jpg,2874302418-65979.jpg,A6IKEWK6FWOLC
682,2.0,left,left,1.0,3.837700001,0.0,22.0,22.0,22.0,1.0,2575120738-55529.jpg,2575120738-55528.jpg,A6IKEWK6FWOLC
683,1.0,right,left,0.0,7.8319,0.0,23.0,23.0,23.0,1.0,2898631359-142721.jpg,2898618444-142233.jpg,A6IKEWK6FWOLC
684,3.0,right,right,1.0,3.117300001,0.0,24.0,24.0,24.0,1.0,2512875587-350044.jpg,2592380177-354629.jpg,A6IKEWK6FWOLC
685,3.0,right,left,0.0,4.160200001,0.0,25.0,25.0,25.0,1.0,2238480278-19661.jpg,2238480677-317399.jpg,A6IKEWK6FWOLC
686,1.0,left,left,1.0,2.5886,0.0,26.0,26.0,26.0,1.0,2883268412-365898.jpg,2984626312-370849.jpg,A6IKEWK6FWOLC
687,3.0,left,right,0.0,2.2121,0.0,27.0,27.0,27.0,1.0,2868474407-362883.jpg,2901948383-70363.jpg,A6IKEWK6FWOLC
688,2.0,right,right,1.0,2.1444,0.0,28.0,28.0,28.0,1.0,2238481813-19930.jpg,2452380832-348593.jpg,A6IKEWK6FWOLC
689,2.0,right,right,1.0,2.3864,0.0,29.0,29.0,29.0,1.0,2901941438-69836.jpg,2964223381-294447.jpg,A6IKEWK6FWOLC
690,2.0,right,right,1.0,2.694,0.0,30.0,30.0,30.0,1.0,2981246400-220365.jpg,2874307433-66280.jpg,A6IKEWK6FWOLC
691,3.0,left,left,1.0,1.832,0.0,31.0,31.0,31.0,1.0,2446759803-49249.jpg,2452380166-273109.jpg,A6IKEWK6FWOLC
692,2.0,right,right,1.0,3.371400002,0.0,32.0,32.0,32.0,1.0,2868469411-287540.jpg,2901952513-70703.jpg,A6IKEWK6FWOLC
693,2.0,left,left,1.0,2.521299999,0.0,33.0,33.0,33.0,1.0,2864907432-362042.jpg,2901947423-70310.jpg,A6IKEWK6FWOLC
694,1.0,left,left,1.0,2.2309,0.0,34.0,34.0,34.0,1.0,2449442529-124446.jpg,2446759803-49251.jpg,A6IKEWK6FWOLC
695,3.0,left,left,1.0,4.080200001,0.0,35.0,35.0,35.0,1.0,2981241414-145842.jpg,2427873848-47312.jpg,A6IKEWK6FWOLC
696,1.0,right,right,1.0,2.9404,0.0,36.0,36.0,36.0,1.0,2446760844-124088.jpg,2883254439-140941.jpg,A6IKEWK6FWOLC
697,1.0,right,right,1.0,3.758799999,0.0,37.0,37.0,37.0,1.0,2611628310-206388.jpg,2883256307-365057.jpg,A6IKEWK6FWOLC
698,1.0,left,left,1.0,3.260199999,0.0,38.0,38.0,38.0,1.0,2901948350-218459.jpg,2804906319-133082.jpg,A6IKEWK6FWOLC
699,3.0,left,left,1.0,2.7885,0.0,39.0,39.0,39.0,1.0,2874303365-214262.jpg,2864911457-362260.jpg,A6IKEWK6FWOLC
700,3.0,left,right,0.0,3.823099998,0.0,40.0,40.0,40.0,1.0,2446758985-197609.jpg,2898624426-291544.jpg,A6IKEWK6FWOLC
701,2.0,left,left,1.0,4.617700001,0.0,41.0,41.0,41.0,1.0,2449441881-272368.jpg,2984615358-72439.jpg,A6IKEWK6FWOLC
702,3.0,left,left,1.0,1.786799999,0.0,42.0,42.0,42.0,1.0,2874299429-139695.jpg,2446760917-347439.jpg,A6IKEWK6FWOLC
703,2.0,left,left,1.0,4.049800001,0.0,43.0,43.0,43.0,1.0,2238425482-313537.jpg,2238436322-314047.jpg,A6IKEWK6FWOLC
704,3.0,right,right,1.0,3.484299999,0.0,44.0,44.0,44.0,1.0,2238434559-90406.jpg,2986451363-73599.jpg,A6IKEWK6FWOLC
705,1.0,left,left,1.0,4.846699999,0.0,45.0,45.0,45.0,1.0,2238560245-182099.jpg,2549106624-127823.jpg,A6IKEWK6FWOLC
706,3.0,right,right,1.0,2.498400002,0.0,46.0,46.0,46.0,1.0,2238480803-19737.jpg,2238481198-19822.jpg,A6IKEWK6FWOLC
707,2.0,right,left,0.0,3.3451,0.0,47.0,47.0,47.0,1.0,2981243412-370222.jpg,2901941401-292798.jpg,A6IKEWK6FWOLC
708,2.0,left,left,1.0,9.961299999,0.0,48.0,48.0,48.0,1.0,2898624426-291546.jpg,2981236443-71859.jpg,A6IKEWK6FWOLC
709,1.0,right,right,1.0,1.5014,0.0,49.0,49.0,49.0,1.0,2512876023-52283.jpg,2898633421-291973.jpg,A6IKEWK6FWOLC
710,1.0,right,right,1.0,3.433800001,0.0,50.0,50.0,50.0,1.0,2860312398-62572.jpg,2901947423-70311.jpg,A6IKEWK6FWOLC
711,3.0,left,left,1.0,7.642199999,0.0,51.0,51.0,51.0,1.0,2898618390-216538.jpg,2575120609-129862.jpg,A6IKEWK6FWOLC
712,3.0,left,right,0.0,8.263699999,0.0,52.0,52.0,52.0,1.0,2458347385-199723.jpg,2458347252-348911.jpg,A6IKEWK6FWOLC
713,1.0,left,left,1.0,3.055200001,0.0,53.0,53.0,53.0,1.0,2898635428-69104.jpg,2446759803-49250.jpg,A6IKEWK6FWOLC
714,3.0,right,right,1.0,4.4935,0.0,54.0,54.0,54.0,1.0,2994401319-148290.jpg,2452381505-199546.jpg,A6IKEWK6FWOLC
715,1.0,left,left,1.0,4.490099998,0.0,55.0,55.0,55.0,1.0,2460547467-349421.jpg,2898631394-142727.jpg,A6IKEWK6FWOLC
716,1.0,right,right,1.0,1.935,0.0,56.0,56.0,56.0,1.0,2883264368-67631.jpg,2874301407-363895.jpg,A6IKEWK6FWOLC
717,2.0,left,left,1.0,3.559799999,0.0,57.0,57.0,57.0,1.0,2460547467-349422.jpg,2868487415-213924.jpg,A6IKEWK6FWOLC
718,2.0,right,left,0.0,2.662300001,0.0,58.0,58.0,58.0,1.0,2238479053-19457.jpg,2592379964-131054.jpg,A6IKEWK6FWOLC
719,1.0,right,right,1.0,3.9474,0.0,59.0,59.0,59.0,1.0,2864902304-137862.jpg,2864910426-287204.jpg,A6IKEWK6FWOLC
720,3.0,left,right,0.0,2.1896,0.0,0.0,0.0,0.0,1.0,2901947423-70311.jpg,2238577590-185467.jpg,AG053ALQ5ZNCU
721,1.0,left,left,1.0,1.2008,0.0,1.0,1.0,1.0,1.0,2898618444-142233.jpg,2898631359-142721.jpg,AG053ALQ5ZNCU
722,3.0,right,left,0.0,1.6624,0.0,2.0,2.0,2.0,1.0,2901939433-69672.jpg,2864910426-287204.jpg,AG053ALQ5ZNCU
723,2.0,right,left,0.0,12.0444,0.0,3.0,3.0,3.0,1.0,2238481813-19930.jpg,2452380832-348593.jpg,AG053ALQ5ZNCU
724,2.0,left,left,1.0,1.7437,0.0,4.0,4.0,4.0,1.0,2901939379-143479.jpg,2446758985-197610.jpg,AG053ALQ5ZNCU
725,1.0,left,left,1.0,3.7759,0.0,5.0,5.0,5.0,1.0,2238425482-313537.jpg,2238471391-240918.jpg,AG053ALQ5ZNCU
726,3.0,left,left,1.0,8.2211,0.0,6.0,6.0,6.0,1.0,2575120738-55529.jpg,2238531493-28260.jpg,AG053ALQ5ZNCU
727,3.0,right,left,0.0,1.7154,0.0,7.0,7.0,7.0,1.0,2964217461-294238.jpg,2898634397-367080.jpg,AG053ALQ5ZNCU
728,1.0,left,left,1.0,25.1546,0.0,8.0,8.0,8.0,1.0,2460547508-51571.jpg,2460547291-274110.jpg,AG053ALQ5ZNCU
729,2.0,left,left,1.0,1.6065,0.0,9.0,9.0,9.0,1.0,2238481928-19949.jpg,2864900357-361688.jpg,AG053ALQ5ZNCU
730,3.0,right,right,1.0,1.2046,0.0,10.0,10.0,10.0,1.0,2964207374-144577.jpg,2898617468-68274.jpg,AG053ALQ5ZNCU
731,1.0,left,left,1.0,1.1808,0.0,11.0,11.0,11.0,1.0,2864907432-362042.jpg,2864901420-212147.jpg,AG053ALQ5ZNCU
732,1.0,right,left,0.0,1.3077,0.0,12.0,12.0,12.0,1.0,2898618327-366317.jpg,2901941401-292798.jpg,AG053ALQ5ZNCU
733,2.0,left,right,0.0,1.0823,0.0,13.0,13.0,13.0,1.0,2964218374-144967.jpg,2883254439-140940.jpg,AG053ALQ5ZNCU
734,2.0,left,left,1.0,1.4013,0.0,14.0,14.0,14.0,1.0,2898633421-291973.jpg,2575118671-277663.jpg,AG053ALQ5ZNCU
735,1.0,right,left,0.0,1.2898,0.0,15.0,15.0,15.0,1.0,2446759803-49251.jpg,2449442529-124446.jpg,AG053ALQ5ZNCU
736,3.0,right,left,0.0,1.1944,0.0,16.0,16.0,16.0,1.0,2964220333-71258.jpg,2238580740-186218.jpg,AG053ALQ5ZNCU
737,3.0,right,right,1.0,1.173,0.0,17.0,17.0,17.0,1.0,2901947448-70314.jpg,2883268471-290842.jpg,AG053ALQ5ZNCU
738,1.0,left,left,1.0,12.6918,0.0,18.0,18.0,18.0,1.0,2452381505-199546.jpg,2901938432-367627.jpg,AG053ALQ5ZNCU
739,3.0,left,right,0.0,1.5398,0.0,19.0,19.0,19.0,1.0,2512875899-126682.jpg,2986447332-371497.jpg,AG053ALQ5ZNCU
740,2.0,left,right,0.0,28.0403,0.0,20.0,20.0,20.0,1.0,2238481198-19822.jpg,2901946436-293242.jpg,AG053ALQ5ZNCU
741,1.0,left,left,1.0,10.0276,0.0,21.0,21.0,21.0,1.0,2238560245-182099.jpg,2549106624-127823.jpg,AG053ALQ5ZNCU
742,3.0,left,right,0.0,22.9739,0.0,22.0,22.0,22.0,1.0,2898635428-69104.jpg,2898625336-291572.jpg,AG053ALQ5ZNCU
743,3.0,left,left,1.0,13.7398,0.0,23.0,23.0,23.0,1.0,2592380177-354629.jpg,2512875587-350044.jpg,AG053ALQ5ZNCU
744,2.0,left,right,0.0,2.3593,0.0,24.0,24.0,24.0,1.0,2446759347-347016.jpg,2901951350-218702.jpg,AG053ALQ5ZNCU
745,3.0,right,left,0.0,1.4836,0.0,25.0,25.0,25.0,1.0,2898632385-217137.jpg,2449442529-124445.jpg,AG053ALQ5ZNCU
746,3.0,right,left,0.0,2.624,0.0,26.0,26.0,26.0,1.0,2238117096-228518.jpg,2592380177-354626.jpg,AG053ALQ5ZNCU
747,3.0,right,left,0.0,1.4012,0.0,27.0,27.0,27.0,1.0,2864903351-286874.jpg,2238572663-35822.jpg,AG053ALQ5ZNCU
748,1.0,right,right,1.0,1.1848,0.0,28.0,28.0,28.0,1.0,2898618440-216545.jpg,2460547467-349422.jpg,AG053ALQ5ZNCU
749,1.0,left,left,1.0,1.5117,0.0,29.0,29.0,29.0,1.0,2592379964-131054.jpg,2575963989-130576.jpg,AG053ALQ5ZNCU
750,2.0,right,left,0.0,1.2108,0.0,30.0,30.0,30.0,1.0,2458348012-349114.jpg,2964213381-294060.jpg,AG053ALQ5ZNCU
751,1.0,right,right,1.0,1.6181,0.0,31.0,31.0,31.0,1.0,2238480434-93829.jpg,2458347385-199723.jpg,AG053ALQ5ZNCU
752,1.0,right,right,1.0,2.3508,0.0,32.0,32.0,32.0,1.0,2446760601-272099.jpg,2446759803-49249.jpg,AG053ALQ5ZNCU
753,2.0,left,left,1.0,10.0249,0.0,33.0,33.0,33.0,1.0,2874303365-214262.jpg,2238563377-332054.jpg,AG053ALQ5ZNCU
754,2.0,right,right,1.0,4.3814,0.0,34.0,34.0,34.0,1.0,2981244403-72215.jpg,2981231403-71642.jpg,AG053ALQ5ZNCU
755,1.0,left,right,0.0,3.0421,0.0,35.0,35.0,35.0,1.0,2460547467-349421.jpg,2898631394-142727.jpg,AG053ALQ5ZNCU
756,3.0,left,left,1.0,1.1914,0.0,36.0,36.0,36.0,1.0,2883268412-365898.jpg,2238436252-314037.jpg,AG053ALQ5ZNCU
757,1.0,right,right,1.0,1.2237,0.0,37.0,37.0,37.0,1.0,2238544191-252422.jpg,2964216465-219242.jpg,AG053ALQ5ZNCU
758,1.0,right,right,1.0,1.3074,0.0,38.0,38.0,38.0,1.0,2981240424-145795.jpg,2446758985-197609.jpg,AG053ALQ5ZNCU
759,2.0,right,right,1.0,1.6657,0.0,39.0,39.0,39.0,1.0,2417208001-267065.jpg,2901948350-218459.jpg,AG053ALQ5ZNCU
760,2.0,right,left,0.0,1.0242,0.0,40.0,40.0,40.0,1.0,2984615361-295509.jpg,2238428357-313623.jpg,AG053ALQ5ZNCU
761,2.0,right,left,0.0,1.1764,0.0,41.0,41.0,41.0,1.0,2981246400-220365.jpg,2874307433-66280.jpg,AG053ALQ5ZNCU
762,1.0,right,right,1.0,1.4087,0.0,42.0,42.0,42.0,1.0,2898626385-216899.jpg,2874302418-65978.jpg,AG053ALQ5ZNCU
763,2.0,right,left,0.0,1.203,0.0,43.0,43.0,43.0,1.0,2901941438-69836.jpg,2964223381-294447.jpg,AG053ALQ5ZNCU
764,1.0,left,left,1.0,1.0976,0.0,44.0,44.0,44.0,1.0,2874302418-65979.jpg,2413147898-43548.jpg,AG053ALQ5ZNCU
765,1.0,right,left,0.0,2.2096,0.0,45.0,45.0,45.0,1.0,2901942428-69919.jpg,2901939379-143480.jpg,AG053ALQ5ZNCU
766,3.0,left,left,1.0,1.7642,0.0,46.0,46.0,46.0,1.0,2874299429-139695.jpg,2446760917-347439.jpg,AG053ALQ5ZNCU
767,3.0,left,right,0.0,1.4025,0.0,47.0,47.0,47.0,1.0,2981241414-145842.jpg,2427873848-47312.jpg,AG053ALQ5ZNCU
768,3.0,right,left,0.0,1.0074,0.0,48.0,48.0,48.0,1.0,2868474407-362885.jpg,2868475410-213219.jpg,AG053ALQ5ZNCU
769,3.0,left,left,1.0,1.0973,0.0,49.0,49.0,49.0,1.0,2898624426-291546.jpg,2981235446-294900.jpg,AG053ALQ5ZNCU
770,2.0,right,left,0.0,52.4912,0.0,50.0,50.0,50.0,1.0,2964210336-293945.jpg,2883256307-365057.jpg,AG053ALQ5ZNCU
771,2.0,right,left,0.0,1.47,0.0,51.0,51.0,51.0,1.0,2984615358-72439.jpg,2449441881-272368.jpg,AG053ALQ5ZNCU
772,1.0,left,left,1.0,1.4337,0.0,52.0,52.0,52.0,1.0,2898618390-216538.jpg,2986449336-296644.jpg,AG053ALQ5ZNCU
773,2.0,left,right,0.0,1.4436,0.0,53.0,53.0,53.0,1.0,2868474407-362883.jpg,2981246400-220363.jpg,AG053ALQ5ZNCU
774,2.0,right,left,0.0,1.1997,0.0,54.0,54.0,54.0,1.0,2868469411-287540.jpg,2901952513-70703.jpg,AG053ALQ5ZNCU
775,1.0,left,left,1.0,1.4186,0.0,55.0,55.0,55.0,1.0,2238480677-317399.jpg,2238481630-168218.jpg,AG053ALQ5ZNCU
776,3.0,right,left,0.0,1.3111,0.0,56.0,56.0,56.0,1.0,2901947323-70275.jpg,2874301407-363895.jpg,AG053ALQ5ZNCU
777,2.0,right,right,1.0,1.1999,0.0,57.0,57.0,57.0,1.0,2868479517-363220.jpg,2898635427-367120.jpg,AG053ALQ5ZNCU
778,2.0,left,left,1.0,1.2037,0.0,58.0,58.0,58.0,1.0,2986451363-73599.jpg,2860302315-210704.jpg,AG053ALQ5ZNCU
779,3.0,right,right,1.0,1.3931,0.0,59.0,59.0,59.0,1.0,2981231446-294730.jpg,2883254439-140941.jpg,AG053ALQ5ZNCU
780,1.0,left,left,1.0,2.291,0.0,0.0,0.0,0.0,1.0,2238480677-317399.jpg,2238481630-168218.jpg,AJZRDVBZ6TKGH
781,3.0,left,left,1.0,2.96,0.0,1.0,1.0,1.0,1.0,2458347385-199723.jpg,2458347252-348911.jpg,AJZRDVBZ6TKGH
782,3.0,right,right,1.0,1.708,0.0,2.0,2.0,2.0,1.0,2238480803-19737.jpg,2238481198-19822.jpg,AJZRDVBZ6TKGH
783,3.0,right,left,0.0,2.23,0.0,3.0,3.0,3.0,1.0,2238117096-228518.jpg,2592380177-354626.jpg,AJZRDVBZ6TKGH
784,2.0,left,right,0.0,2.865,0.0,4.0,4.0,4.0,1.0,2901952513-70703.jpg,2868469411-287540.jpg,AJZRDVBZ6TKGH
785,2.0,left,right,0.0,1.675,0.0,5.0,5.0,5.0,1.0,2901947423-70311.jpg,2238573447-333826.jpg,AJZRDVBZ6TKGH
786,1.0,left,right,0.0,2.392,0.0,6.0,6.0,6.0,1.0,2238428357-313623.jpg,2238499057-320266.jpg,AJZRDVBZ6TKGH
787,3.0,right,left,0.0,2.235,0.0,7.0,7.0,7.0,1.0,2981235446-294900.jpg,2898624426-291546.jpg,AJZRDVBZ6TKGH
788,3.0,right,left,0.0,2.299,0.0,8.0,8.0,8.0,1.0,2575120609-129862.jpg,2898618390-216538.jpg,AJZRDVBZ6TKGH
789,1.0,left,right,0.0,2.873,0.0,9.0,9.0,9.0,1.0,2449441881-272368.jpg,2883268412-365899.jpg,AJZRDVBZ6TKGH
790,3.0,left,right,0.0,2.35,0.0,10.0,10.0,10.0,1.0,2901941401-292798.jpg,2883273443-68193.jpg,AJZRDVBZ6TKGH
791,1.0,left,right,0.0,2.411,0.0,11.0,11.0,11.0,1.0,2449442529-124445.jpg,2452380171-273112.jpg,AJZRDVBZ6TKGH
792,1.0,left,left,1.0,3.416,0.0,12.0,12.0,12.0,1.0,2898617468-68274.jpg,2864906345-212360.jpg,AJZRDVBZ6TKGH
793,1.0,left,right,0.0,2.134,0.0,13.0,13.0,13.0,1.0,2446759803-49249.jpg,2446760601-272099.jpg,AJZRDVBZ6TKGH
794,3.0,left,left,1.0,2.162,0.0,14.0,14.0,14.0,1.0,2460547508-51571.jpg,2901941438-69835.jpg,AJZRDVBZ6TKGH
795,2.0,right,right,1.0,1.774,0.0,15.0,15.0,15.0,1.0,2901947423-70310.jpg,2864907432-362042.jpg,AJZRDVBZ6TKGH
796,1.0,left,left,1.0,3.985,0.0,16.0,16.0,16.0,1.0,2460547467-349421.jpg,2898631394-142727.jpg,AJZRDVBZ6TKGH
797,1.0,right,right,1.0,2.439,0.0,17.0,17.0,17.0,1.0,2427874231-269884.jpg,2964223381-294447.jpg,AJZRDVBZ6TKGH
798,2.0,left,right,0.0,3.264,0.0,18.0,18.0,18.0,1.0,2238572663-35822.jpg,2238571930-184143.jpg,AJZRDVBZ6TKGH
799,2.0,left,left,1.0,2.184,0.0,19.0,19.0,19.0,1.0,2981231403-71642.jpg,2981244403-72215.jpg,AJZRDVBZ6TKGH
800,2.0,left,left,1.0,5.69,0.0,20.0,20.0,20.0,1.0,2964213381-294060.jpg,2458348012-349114.jpg,AJZRDVBZ6TKGH
801,3.0,right,right,1.0,2.895,0.0,21.0,21.0,21.0,1.0,2238578544-111698.jpg,2874302418-65979.jpg,AJZRDVBZ6TKGH
802,2.0,left,left,1.0,2.279,0.0,22.0,22.0,22.0,1.0,2452380832-348593.jpg,2238481813-19930.jpg,AJZRDVBZ6TKGH
803,3.0,left,right,0.0,1.778,0.0,23.0,23.0,23.0,1.0,2981241414-145842.jpg,2427873848-47312.jpg,AJZRDVBZ6TKGH
804,1.0,right,right,1.0,1.687,0.0,24.0,24.0,24.0,1.0,2901942428-69919.jpg,2901939379-143480.jpg,AJZRDVBZ6TKGH
805,1.0,right,left,0.0,3.366,0.0,25.0,25.0,25.0,1.0,2901946465-218350.jpg,2868475410-213219.jpg,AJZRDVBZ6TKGH
806,3.0,left,right,0.0,1.76,0.0,26.0,26.0,26.0,1.0,2898633421-291973.jpg,2238550049-105691.jpg,AJZRDVBZ6TKGH
807,2.0,left,right,0.0,1.656,0.0,27.0,27.0,27.0,1.0,2449442529-124446.jpg,2460547536-274181.jpg,AJZRDVBZ6TKGH
808,2.0,left,left,1.0,1.721,0.0,28.0,28.0,28.0,1.0,2874301407-363895.jpg,2986397322-371109.jpg,AJZRDVBZ6TKGH
809,1.0,left,left,1.0,1.778,0.0,29.0,29.0,29.0,1.0,2874299429-139695.jpg,2883266388-67750.jpg,AJZRDVBZ6TKGH
810,2.0,left,left,1.0,3.289,0.0,30.0,30.0,30.0,1.0,2874303365-214262.jpg,2238563377-332054.jpg,AJZRDVBZ6TKGH
811,1.0,left,left,1.0,1.781,0.0,31.0,31.0,31.0,1.0,2883256307-365057.jpg,2611628310-206388.jpg,AJZRDVBZ6TKGH
812,2.0,left,right,0.0,1.69,0.0,32.0,32.0,32.0,1.0,2238481928-19949.jpg,2864900357-361688.jpg,AJZRDVBZ6TKGH
813,1.0,left,left,1.0,1.99,0.0,33.0,33.0,33.0,1.0,2901948350-218459.jpg,2804906319-133082.jpg,AJZRDVBZ6TKGH
814,2.0,left,right,0.0,1.738,0.0,34.0,34.0,34.0,1.0,2238560245-182099.jpg,2874314526-289684.jpg,AJZRDVBZ6TKGH
815,3.0,right,left,0.0,1.75,0.0,35.0,35.0,35.0,1.0,2864909447-362146.jpg,2460547467-349422.jpg,AJZRDVBZ6TKGH
816,3.0,right,right,1.0,2.304,0.0,36.0,36.0,36.0,1.0,2898621427-366486.jpg,2898635427-367120.jpg,AJZRDVBZ6TKGH
817,2.0,right,left,0.0,2.206,0.0,37.0,37.0,37.0,1.0,2874299429-139694.jpg,2864910426-287204.jpg,AJZRDVBZ6TKGH
818,3.0,right,left,0.0,2.347,0.0,38.0,38.0,38.0,1.0,2898625336-291572.jpg,2898635428-69104.jpg,AJZRDVBZ6TKGH
819,1.0,left,left,1.0,2.273,0.0,39.0,39.0,39.0,1.0,2901939379-143479.jpg,2460547467-349423.jpg,AJZRDVBZ6TKGH
820,3.0,left,right,0.0,1.765,0.0,40.0,40.0,40.0,1.0,2868474407-362883.jpg,2901948383-70363.jpg,AJZRDVBZ6TKGH
821,2.0,left,left,1.0,2.826,0.0,41.0,41.0,41.0,1.0,2898634397-367080.jpg,2901934408-69289.jpg,AJZRDVBZ6TKGH
822,3.0,right,right,1.0,2.353,0.0,42.0,42.0,42.0,1.0,2964220333-71258.jpg,2238580740-186218.jpg,AJZRDVBZ6TKGH
823,2.0,left,left,1.0,2.227,0.0,43.0,43.0,43.0,1.0,2512875899-126682.jpg,2592380177-354628.jpg,AJZRDVBZ6TKGH
824,3.0,right,left,0.0,2.743,0.0,44.0,44.0,44.0,1.0,2898618444-142232.jpg,2898618444-142233.jpg,AJZRDVBZ6TKGH
825,2.0,right,right,1.0,2.355,0.0,45.0,45.0,45.0,1.0,2883254439-140940.jpg,2964218374-144967.jpg,AJZRDVBZ6TKGH
826,2.0,right,right,1.0,3.791,0.0,46.0,46.0,46.0,1.0,2898632385-217136.jpg,2883254439-140941.jpg,AJZRDVBZ6TKGH
827,3.0,right,left,0.0,3.364,0.0,47.0,47.0,47.0,1.0,2898633480-217190.jpg,2238425482-313537.jpg,AJZRDVBZ6TKGH
828,1.0,right,left,0.0,2.398,0.0,48.0,48.0,48.0,1.0,2883268471-290843.jpg,2883268471-290842.jpg,AJZRDVBZ6TKGH
829,1.0,left,right,0.0,1.803,0.0,49.0,49.0,49.0,1.0,2986451363-73599.jpg,2901939327-367669.jpg,AJZRDVBZ6TKGH
830,1.0,left,right,0.0,2.165,0.0,50.0,50.0,50.0,1.0,2446758985-197609.jpg,2981240424-145795.jpg,AJZRDVBZ6TKGH
831,2.0,right,right,1.0,2.842,0.0,51.0,51.0,51.0,1.0,2238479053-19457.jpg,2592379964-131054.jpg,AJZRDVBZ6TKGH
832,1.0,left,left,1.0,1.6,0.0,52.0,52.0,52.0,1.0,2452381505-199546.jpg,2901938432-367627.jpg,AJZRDVBZ6TKGH
833,3.0,right,right,1.0,1.713,0.0,53.0,53.0,53.0,1.0,2238531493-28260.jpg,2575120738-55529.jpg,AJZRDVBZ6TKGH
834,3.0,right,left,0.0,1.809,0.0,54.0,54.0,54.0,1.0,2898619327-366362.jpg,2964216465-219242.jpg,AJZRDVBZ6TKGH
835,1.0,left,left,1.0,2.396,0.0,55.0,55.0,55.0,1.0,2874302418-65978.jpg,2898626385-216899.jpg,AJZRDVBZ6TKGH
836,3.0,left,left,1.0,2.301,0.0,56.0,56.0,56.0,1.0,2446759347-347016.jpg,2238569117-333045.jpg,AJZRDVBZ6TKGH
837,2.0,right,left,0.0,2.501,0.0,57.0,57.0,57.0,1.0,2984615361-295510.jpg,2883268412-365898.jpg,AJZRDVBZ6TKGH
838,1.0,left,right,0.0,1.767,0.0,58.0,58.0,58.0,1.0,2874307433-66280.jpg,2986447306-296584.jpg,AJZRDVBZ6TKGH
839,2.0,left,left,1.0,2.421,0.0,59.0,59.0,59.0,1.0,2592380177-354629.jpg,2579432534-130704.jpg,AJZRDVBZ6TKGH
840,1.0,right,left,0.0,2.7096,0.0,0.0,0.0,0.0,1.0,2804906319-133082.jpg,2901948350-218459.jpg,AK8ONB60Q4RJ5
841,2.0,left,left,1.0,1.8233,0.0,1.0,1.0,1.0,1.0,2868474407-362883.jpg,2981246400-220363.jpg,AK8ONB60Q4RJ5
842,2.0,right,right,1.0,1.967,0.0,2.0,2.0,2.0,1.0,2964210336-293945.jpg,2883256307-365057.jpg,AK8ONB60Q4RJ5
843,2.0,left,right,0.0,2.057,0.0,3.0,3.0,3.0,1.0,2883268412-365898.jpg,2984615361-295510.jpg,AK8ONB60Q4RJ5
844,2.0,left,left,1.0,2.1736,0.0,4.0,4.0,4.0,1.0,2446759803-49249.jpg,2898618440-216547.jpg,AK8ONB60Q4RJ5
845,2.0,right,left,0.0,2.5103,0.0,5.0,5.0,5.0,1.0,2458348012-349114.jpg,2964213381-294060.jpg,AK8ONB60Q4RJ5
846,3.0,right,left,0.0,1.6441,0.0,6.0,6.0,6.0,1.0,2964220333-71258.jpg,2238580740-186218.jpg,AK8ONB60Q4RJ5
847,3.0,left,left,1.0,1.5893,0.0,7.0,7.0,7.0,1.0,2964223381-294447.jpg,2898628438-68785.jpg,AK8ONB60Q4RJ5
848,3.0,right,right,1.0,2.4192,0.0,8.0,8.0,8.0,1.0,2238569117-333045.jpg,2446759347-347016.jpg,AK8ONB60Q4RJ5
849,3.0,right,left,0.0,1.9271,0.0,9.0,9.0,9.0,1.0,2986447332-371497.jpg,2512875899-126682.jpg,AK8ONB60Q4RJ5
850,2.0,right,left,0.0,2.3921,0.0,10.0,10.0,10.0,1.0,2901943387-368037.jpg,2898617468-68274.jpg,AK8ONB60Q4RJ5
851,2.0,left,left,1.0,2.7085,0.0,11.0,11.0,11.0,1.0,2238560245-182099.jpg,2874314526-289684.jpg,AK8ONB60Q4RJ5
852,2.0,right,right,1.0,2.8536,0.0,12.0,12.0,12.0,1.0,2883254439-140940.jpg,2964218374-144967.jpg,AK8ONB60Q4RJ5
853,1.0,right,left,0.0,2.4912,0.0,13.0,13.0,13.0,1.0,2460547467-349423.jpg,2901939379-143479.jpg,AK8ONB60Q4RJ5
854,3.0,left,right,0.0,2.757,0.0,14.0,14.0,14.0,1.0,2452380832-348593.jpg,2449442181-272436.jpg,AK8ONB60Q4RJ5
855,2.0,right,left,0.0,2.3522,0.0,15.0,15.0,15.0,1.0,2901942443-69923.jpg,2874299429-139695.jpg,AK8ONB60Q4RJ5
856,2.0,right,right,1.0,2.8736,0.0,16.0,16.0,16.0,1.0,2238573546-258454.jpg,2238480677-317399.jpg,AK8ONB60Q4RJ5
857,1.0,right,left,0.0,3.6567,0.0,17.0,17.0,17.0,1.0,2856919327-359676.jpg,2981241414-145842.jpg,AK8ONB60Q4RJ5
858,1.0,left,left,1.0,2.1254,0.0,18.0,18.0,18.0,1.0,2898635428-69104.jpg,2446759803-49250.jpg,AK8ONB60Q4RJ5
859,3.0,left,right,0.0,3.0806,0.0,19.0,19.0,19.0,1.0,2868475410-213219.jpg,2868474407-362885.jpg,AK8ONB60Q4RJ5
860,3.0,left,left,1.0,2.0702,0.0,20.0,20.0,20.0,1.0,2874302418-65978.jpg,2898633321-291943.jpg,AK8ONB60Q4RJ5
861,1.0,left,right,0.0,2.4285,0.0,21.0,21.0,21.0,1.0,2238428357-313623.jpg,2238499057-320266.jpg,AK8ONB60Q4RJ5
862,3.0,right,left,0.0,3.213,0.0,22.0,22.0,22.0,1.0,2898633480-217190.jpg,2238425482-313537.jpg,AK8ONB60Q4RJ5
863,3.0,left,left,1.0,2.3723,0.0,23.0,23.0,23.0,1.0,2449441881-272368.jpg,2449441881-272367.jpg,AK8ONB60Q4RJ5
864,2.0,left,left,1.0,2.3718,0.0,24.0,24.0,24.0,1.0,2460547508-51571.jpg,2981232437-369759.jpg,AK8ONB60Q4RJ5
865,1.0,left,left,1.0,3.8685,0.0,25.0,25.0,25.0,1.0,2460547467-349422.jpg,2898618440-216545.jpg,AK8ONB60Q4RJ5
866,2.0,right,right,1.0,2.6078,0.0,26.0,26.0,26.0,1.0,2981244403-72215.jpg,2981231403-71642.jpg,AK8ONB60Q4RJ5
867,1.0,left,right,0.0,1.9173,0.0,27.0,27.0,27.0,1.0,2592380177-354629.jpg,2898633421-291974.jpg,AK8ONB60Q4RJ5
868,1.0,left,right,0.0,1.6546,0.0,28.0,28.0,28.0,1.0,2898618444-142233.jpg,2898631359-142721.jpg,AK8ONB60Q4RJ5
869,1.0,right,left,0.0,2.621,0.0,29.0,29.0,29.0,1.0,2512876023-52283.jpg,2898633421-291973.jpg,AK8ONB60Q4RJ5
870,2.0,left,right,0.0,2.1311,0.0,30.0,30.0,30.0,1.0,2874303365-214262.jpg,2238563377-332054.jpg,AK8ONB60Q4RJ5
871,3.0,left,left,1.0,1.6811,0.0,31.0,31.0,31.0,1.0,2898634397-367080.jpg,2964217461-294238.jpg,AK8ONB60Q4RJ5
872,3.0,right,left,0.0,1.7118,0.0,32.0,32.0,32.0,1.0,2901938432-367629.jpg,2901939379-143480.jpg,AK8ONB60Q4RJ5
873,1.0,left,left,1.0,1.4448,0.0,33.0,33.0,33.0,1.0,2592380177-354626.jpg,2986408339-146952.jpg,AK8ONB60Q4RJ5
874,2.0,right,right,1.0,2.2374,0.0,34.0,34.0,34.0,1.0,2868479517-363220.jpg,2898635427-367120.jpg,AK8ONB60Q4RJ5
875,2.0,left,right,0.0,4.3204,0.0,35.0,35.0,35.0,1.0,2238481198-19822.jpg,2901946436-293242.jpg,AK8ONB60Q4RJ5
876,1.0,right,left,0.0,1.3566,0.0,36.0,36.0,36.0,1.0,2452380171-273112.jpg,2449442529-124445.jpg,AK8ONB60Q4RJ5
877,2.0,right,left,0.0,2.8583,0.0,37.0,37.0,37.0,1.0,2238479053-19457.jpg,2592379964-131054.jpg,AK8ONB60Q4RJ5
878,2.0,left,left,1.0,1.7252,0.0,38.0,38.0,38.0,1.0,2458347385-199723.jpg,2427874554-121863.jpg,AK8ONB60Q4RJ5
879,1.0,right,right,1.0,3.7258,0.0,39.0,39.0,39.0,1.0,2864907361-287062.jpg,2901952513-70703.jpg,AK8ONB60Q4RJ5
880,3.0,right,right,1.0,2.0272,0.0,40.0,40.0,40.0,1.0,2898632385-217139.jpg,2449442529-124446.jpg,AK8ONB60Q4RJ5
881,3.0,left,right,0.0,3.0642,0.0,41.0,41.0,41.0,1.0,2238572663-35822.jpg,2864903351-286874.jpg,AK8ONB60Q4RJ5
882,3.0,right,left,0.0,2.3494,0.0,42.0,42.0,42.0,1.0,2883273443-68193.jpg,2901941401-292798.jpg,AK8ONB60Q4RJ5
883,1.0,right,left,0.0,2.7054,0.0,43.0,43.0,43.0,1.0,2964218432-369263.jpg,2898624426-291546.jpg,AK8ONB60Q4RJ5
884,3.0,right,left,0.0,1.725,0.0,44.0,44.0,44.0,1.0,2901939433-69672.jpg,2864910426-287204.jpg,AK8ONB60Q4RJ5
885,1.0,left,left,1.0,2.1828,0.0,45.0,45.0,45.0,1.0,2446758985-197609.jpg,2981240424-145795.jpg,AK8ONB60Q4RJ5
886,2.0,left,left,1.0,2.2296,0.0,46.0,46.0,46.0,1.0,2901947423-70311.jpg,2238573447-333826.jpg,AK8ONB60Q4RJ5
887,3.0,right,left,0.0,3.308,0.0,47.0,47.0,47.0,1.0,2981231446-294730.jpg,2883254439-140941.jpg,AK8ONB60Q4RJ5
888,2.0,left,left,1.0,3.6976,0.0,48.0,48.0,48.0,1.0,2874301407-363895.jpg,2986397322-371109.jpg,AK8ONB60Q4RJ5
889,1.0,right,right,1.0,2.7014,0.0,49.0,49.0,49.0,1.0,2898632385-217138.jpg,2575120738-55529.jpg,AK8ONB60Q4RJ5
890,1.0,right,left,0.0,3.3003,0.0,50.0,50.0,50.0,1.0,2986447306-296584.jpg,2874307433-66280.jpg,AK8ONB60Q4RJ5
891,3.0,left,left,1.0,2.3976,0.0,51.0,51.0,51.0,1.0,2864907432-362042.jpg,2989726338-74002.jpg,AK8ONB60Q4RJ5
892,1.0,left,right,0.0,3.5259,0.0,52.0,52.0,52.0,1.0,2883268471-290842.jpg,2883268471-290843.jpg,AK8ONB60Q4RJ5
893,3.0,right,left,0.0,3.7985,0.0,53.0,53.0,53.0,1.0,2898619327-366362.jpg,2964216465-219242.jpg,AK8ONB60Q4RJ5
894,3.0,right,left,0.0,2.5055,0.0,54.0,54.0,54.0,1.0,2981235446-294901.jpg,2460547467-349421.jpg,AK8ONB60Q4RJ5
895,1.0,right,right,1.0,3.7683,0.0,55.0,55.0,55.0,1.0,2901939327-367669.jpg,2986451363-73599.jpg,AK8ONB60Q4RJ5
896,1.0,right,left,0.0,1.823,0.0,56.0,56.0,56.0,1.0,2883264367-365620.jpg,2238481928-19949.jpg,AK8ONB60Q4RJ5
897,3.0,right,right,1.0,3.6029,0.0,57.0,57.0,57.0,1.0,2238578544-111698.jpg,2874302418-65979.jpg,AK8ONB60Q4RJ5
898,2.0,right,left,0.0,2.0552,0.0,58.0,58.0,58.0,1.0,2901939327-367670.jpg,2898618390-216538.jpg,AK8ONB60Q4RJ5
899,1.0,left,right,0.0,1.9266,0.0,59.0,59.0,59.0,1.0,2452381505-199546.jpg,2901938432-367627.jpg,AK8ONB60Q4RJ5
900,1.0,left,left,1.0,4.7613,0.0,0.0,0.0,0.0,1.0,2901939379-143480.jpg,2901942428-69919.jpg,AQ5CSVCNBPSIJ
901,2.0,left,left,1.0,2.0003,0.0,1.0,1.0,1.0,1.0,2868475410-213219.jpg,2238480803-19739.jpg,AQ5CSVCNBPSIJ
902,1.0,left,right,0.0,3.1812,0.0,2.0,2.0,2.0,1.0,2575120738-55529.jpg,2898632385-217138.jpg,AQ5CSVCNBPSIJ
903,1.0,left,left,1.0,1.7868,0.0,3.0,3.0,3.0,1.0,2460547467-349422.jpg,2898618440-216545.jpg,AQ5CSVCNBPSIJ
