,layer,correct,test_test_response.keys,test_test_response.corr,test_test_response.rt,trials_2.thisRepN,trials_2.thisTrialN,trials_2.thisN,trials_2.thisIndex,trials_2.ran,image1,image2,subject
0,3.0,right,right,1.0,9.1912,0.0,0.0,0.0,0.0,1.0,2864911457-362260.jpg,2874303365-214262.jpg,A15B4KZ3S04HS8
1,3.0,right,left,0.0,1.1568,0.0,1.0,1.0,1.0,1.0,2994401319-148290.jpg,2452381505-199546.jpg,A15B4KZ3S04HS8
2,2.0,right,right,1.0,1.6708,0.0,2.0,2.0,2.0,1.0,2575118671-277663.jpg,2898633421-291973.jpg,A15B4KZ3S04HS8
3,1.0,left,left,1.0,2.5987,0.0,3.0,3.0,3.0,1.0,2512875899-126682.jpg,2460547536-274179.jpg,A15B4KZ3S04HS8
4,1.0,left,left,1.0,1.6051,0.0,4.0,4.0,4.0,1.0,2864907432-362042.jpg,2864901420-212147.jpg,A15B4KZ3S04HS8
5,3.0,right,right,1.0,1.6417,0.0,5.0,5.0,5.0,1.0,2238578544-111698.jpg,2874302418-65979.jpg,A15B4KZ3S04HS8
6,2.0,right,right,1.0,1.249,0.0,6.0,6.0,6.0,1.0,2238481813-19930.jpg,2452380832-348593.jpg,A15B4KZ3S04HS8
7,2.0,right,right,1.0,1.875,0.0,7.0,7.0,7.0,1.0,2874301404-139813.jpg,2981241414-145842.jpg,A15B4KZ3S04HS8
8,3.0,left,left,1.0,1.3383,0.0,8.0,8.0,8.0,1.0,2238428357-313623.jpg,2575121987-353817.jpg,A15B4KZ3S04HS8
9,2.0,left,left,1.0,1.39,0.0,9.0,9.0,9.0,1.0,2898635428-69104.jpg,2901943411-292945.jpg,A15B4KZ3S04HS8
10,3.0,right,right,1.0,1.6253,0.0,10.0,10.0,10.0,1.0,2883273443-68193.jpg,2901941401-292798.jpg,A15B4KZ3S04HS8
11,3.0,left,right,0.0,2.884,0.0,11.0,11.0,11.0,1.0,2446759347-347016.jpg,2238569117-333045.jpg,A15B4KZ3S04HS8
12,3.0,left,left,1.0,1.6311,0.0,12.0,12.0,12.0,1.0,2874302418-65978.jpg,2898633321-291943.jpg,A15B4KZ3S04HS8
13,3.0,left,right,0.0,2.3838,0.0,13.0,13.0,13.0,1.0,2446758985-197609.jpg,2898624426-291544.jpg,A15B4KZ3S04HS8
14,1.0,left,right,0.0,1.6297,0.0,14.0,14.0,14.0,1.0,2575120738-55529.jpg,2898632385-217138.jpg,A15B4KZ3S04HS8
15,1.0,right,right,1.0,1.1787,0.0,15.0,15.0,15.0,1.0,2986447306-296584.jpg,2874307433-66280.jpg,A15B4KZ3S04HS8
16,2.0,left,left,1.0,1.2688,0.0,16.0,16.0,16.0,1.0,2898617468-68274.jpg,2901943387-368037.jpg,A15B4KZ3S04HS8
17,2.0,right,left,0.0,1.3297,0.0,17.0,17.0,17.0,1.0,2981244403-72215.jpg,2981231403-71642.jpg,A15B4KZ3S04HS8
18,2.0,left,right,0.0,2.7922,0.0,18.0,18.0,18.0,1.0,2874299429-139695.jpg,2901942443-69923.jpg,A15B4KZ3S04HS8
19,2.0,right,left,0.0,0.984,0.0,19.0,19.0,19.0,1.0,2874299429-139694.jpg,2864910426-287204.jpg,A15B4KZ3S04HS8
20,2.0,right,right,1.0,1.6351,0.0,20.0,20.0,20.0,1.0,2868469411-287540.jpg,2901952513-70703.jpg,A15B4KZ3S04HS8
21,1.0,left,left,1.0,1.8594,0.0,21.0,21.0,21.0,1.0,2460547467-349421.jpg,2898631394-142727.jpg,A15B4KZ3S04HS8
22,3.0,left,left,1.0,1.5474,0.0,22.0,22.0,22.0,1.0,2460547467-349422.jpg,2864909447-362146.jpg,A15B4KZ3S04HS8
23,3.0,left,right,0.0,1.6668,0.0,23.0,23.0,23.0,1.0,2874301407-363895.jpg,2901947323-70275.jpg,A15B4KZ3S04HS8
24,3.0,left,left,1.0,1.9838,0.0,24.0,24.0,24.0,1.0,2238481928-19949.jpg,2981241419-145844.jpg,A15B4KZ3S04HS8
25,3.0,right,right,1.0,1.7282,0.0,25.0,25.0,25.0,1.0,2864903351-286874.jpg,2238572663-35822.jpg,A15B4KZ3S04HS8
26,1.0,right,right,1.0,1.9386,0.0,26.0,26.0,26.0,1.0,2984626312-370849.jpg,2883268412-365898.jpg,A15B4KZ3S04HS8
27,1.0,left,left,1.0,1.8684,0.0,27.0,27.0,27.0,1.0,2458347385-199723.jpg,2238480434-93829.jpg,A15B4KZ3S04HS8
28,2.0,left,left,1.0,1.4893,0.0,28.0,28.0,28.0,1.0,2901939379-143480.jpg,2981229442-369621.jpg,A15B4KZ3S04HS8
29,1.0,right,right,1.0,1.4427,0.0,29.0,29.0,29.0,1.0,2981244394-145974.jpg,2964213381-294060.jpg,A15B4KZ3S04HS8
30,2.0,right,right,1.0,1.657,0.0,30.0,30.0,30.0,1.0,2883255450-215310.jpg,2883268471-290842.jpg,A15B4KZ3S04HS8
31,1.0,right,right,1.0,1.7322,0.0,31.0,31.0,31.0,1.0,2460547291-274110.jpg,2460547508-51571.jpg,A15B4KZ3S04HS8
32,1.0,left,left,1.0,1.754,0.0,32.0,32.0,32.0,1.0,2592379964-131054.jpg,2575963989-130576.jpg,A15B4KZ3S04HS8
33,1.0,left,left,1.0,2.2641,0.0,33.0,33.0,33.0,1.0,2868474407-362883.jpg,2238516618-25604.jpg,A15B4KZ3S04HS8
34,1.0,right,right,1.0,1.9586,0.0,34.0,34.0,34.0,1.0,2986449336-296644.jpg,2898618390-216538.jpg,A15B4KZ3S04HS8
35,1.0,left,right,0.0,1.705,0.0,35.0,35.0,35.0,1.0,2449441881-272368.jpg,2883268412-365899.jpg,A15B4KZ3S04HS8
36,1.0,left,left,1.0,11.4086,0.0,36.0,36.0,36.0,1.0,2238580740-186218.jpg,2238550816-254000.jpg,A15B4KZ3S04HS8
37,3.0,right,left,0.0,1.2629,0.0,37.0,37.0,37.0,1.0,2898632385-217137.jpg,2449442529-124445.jpg,A15B4KZ3S04HS8
38,3.0,left,left,1.0,2.2893,0.0,38.0,38.0,38.0,1.0,2898624426-291546.jpg,2981235446-294900.jpg,A15B4KZ3S04HS8
39,3.0,left,right,0.0,1.3736,0.0,39.0,39.0,39.0,1.0,2986451363-73599.jpg,2238434559-90406.jpg,A15B4KZ3S04HS8
40,3.0,right,right,1.0,1.4937,0.0,40.0,40.0,40.0,1.0,2981240424-145794.jpg,2901939379-143479.jpg,A15B4KZ3S04HS8
41,3.0,left,right,0.0,1.6543,0.0,41.0,41.0,41.0,1.0,2964218374-144967.jpg,2981231446-294732.jpg,A15B4KZ3S04HS8
42,2.0,right,right,1.0,1.5286,0.0,42.0,42.0,42.0,1.0,2864900319-137787.jpg,2964216465-219242.jpg,A15B4KZ3S04HS8
43,1.0,left,right,0.0,1.3368,0.0,43.0,43.0,43.0,1.0,2898635427-367120.jpg,2901946439-144040.jpg,A15B4KZ3S04HS8
44,3.0,left,left,1.0,1.688,0.0,44.0,44.0,44.0,1.0,2898618444-142233.jpg,2898618444-142232.jpg,A15B4KZ3S04HS8
45,1.0,right,right,1.0,3.2504,0.0,45.0,45.0,45.0,1.0,2860312398-62572.jpg,2901947423-70311.jpg,A15B4KZ3S04HS8
46,1.0,right,right,1.0,2.0295,0.0,46.0,46.0,46.0,1.0,2549106624-127823.jpg,2238560245-182099.jpg,A15B4KZ3S04HS8
47,2.0,left,left,1.0,1.4089,0.0,47.0,47.0,47.0,1.0,2238481198-19822.jpg,2901946436-293242.jpg,A15B4KZ3S04HS8
48,2.0,right,left,0.0,1.589,0.0,48.0,48.0,48.0,1.0,2417208001-267065.jpg,2901948350-218459.jpg,A15B4KZ3S04HS8
49,2.0,right,right,1.0,2.1158,0.0,49.0,49.0,49.0,1.0,2579432534-130704.jpg,2592380177-354629.jpg,A15B4KZ3S04HS8
50,2.0,left,left,1.0,1.627,0.0,50.0,50.0,50.0,1.0,2238425482-313537.jpg,2238436322-314047.jpg,A15B4KZ3S04HS8
51,2.0,right,left,0.0,1.5472,0.0,51.0,51.0,51.0,1.0,2898632385-217136.jpg,2883254439-140941.jpg,A15B4KZ3S04HS8
52,1.0,left,left,1.0,1.9529,0.0,52.0,52.0,52.0,1.0,2964223381-294447.jpg,2427874231-269884.jpg,A15B4KZ3S04HS8
53,3.0,left,right,0.0,2.9934,0.0,53.0,53.0,53.0,1.0,2883256307-365057.jpg,2864904453-63933.jpg,A15B4KZ3S04HS8
54,2.0,left,left,1.0,1.7086,0.0,54.0,54.0,54.0,1.0,2238480677-317399.jpg,2238573546-258454.jpg,A15B4KZ3S04HS8
55,3.0,right,left,0.0,1.6172,0.0,55.0,55.0,55.0,1.0,2964217461-294238.jpg,2898634397-367080.jpg,A15B4KZ3S04HS8
56,2.0,left,left,1.0,1.7665,0.0,56.0,56.0,56.0,1.0,2449442529-124446.jpg,2460547536-274181.jpg,A15B4KZ3S04HS8
57,2.0,left,right,0.0,1.8384,0.0,57.0,57.0,57.0,1.0,2592380177-354626.jpg,2864901386-286797.jpg,A15B4KZ3S04HS8
58,1.0,left,left,1.0,1.3064,0.0,58.0,58.0,58.0,1.0,2868475410-213219.jpg,2901946465-218350.jpg,A15B4KZ3S04HS8
59,1.0,left,left,1.0,1.6734,0.0,59.0,59.0,59.0,1.0,2446759803-49249.jpg,2446760601-272099.jpg,A15B4KZ3S04HS8
60,3.0,left,left,1.0,3.2661,0.0,0.0,0.0,0.0,1.0,2874302418-65979.jpg,2238578544-111698.jpg,A1LA6CIGBNDOH9
61,2.0,left,left,1.0,2.6233,0.0,1.0,1.0,1.0,1.0,2898618390-216538.jpg,2901939327-367670.jpg,A1LA6CIGBNDOH9
62,2.0,right,right,1.0,1.9141,0.0,2.0,2.0,2.0,1.0,2860302315-210704.jpg,2986451363-73599.jpg,A1LA6CIGBNDOH9
63,2.0,right,right,1.0,2.983,0.0,3.0,3.0,3.0,1.0,2460547536-274181.jpg,2449442529-124446.jpg,A1LA6CIGBNDOH9
64,3.0,right,right,1.0,4.9197,0.0,4.0,4.0,4.0,1.0,2981231422-369714.jpg,2874307433-66280.jpg,A1LA6CIGBNDOH9
65,1.0,right,right,1.0,1.7651,0.0,5.0,5.0,5.0,1.0,2512876023-52283.jpg,2898633421-291973.jpg,A1LA6CIGBNDOH9
66,2.0,left,right,0.0,3.7675,0.0,6.0,6.0,6.0,1.0,2238560245-182099.jpg,2874314526-289684.jpg,A1LA6CIGBNDOH9
67,3.0,left,left,1.0,1.1905,0.0,7.0,7.0,7.0,1.0,2460547467-349422.jpg,2864909447-362146.jpg,A1LA6CIGBNDOH9
68,1.0,left,right,0.0,4.1679,0.0,8.0,8.0,8.0,1.0,2874299429-139695.jpg,2883266388-67750.jpg,A1LA6CIGBNDOH9
69,1.0,left,left,1.0,2.1198,0.0,9.0,9.0,9.0,1.0,2901952513-70703.jpg,2864907361-287062.jpg,A1LA6CIGBNDOH9
70,2.0,left,left,1.0,3.3934,0.0,10.0,10.0,10.0,1.0,2592379964-131054.jpg,2238479053-19457.jpg,A1LA6CIGBNDOH9
71,1.0,right,right,1.0,2.179,0.0,11.0,11.0,11.0,1.0,2986408339-146952.jpg,2592380177-354626.jpg,A1LA6CIGBNDOH9
72,3.0,left,left,1.0,1.7598,0.0,12.0,12.0,12.0,1.0,2238481198-19822.jpg,2238480803-19737.jpg,A1LA6CIGBNDOH9
73,3.0,left,left,1.0,2.8107,0.0,13.0,13.0,13.0,1.0,2575120738-55529.jpg,2238531493-28260.jpg,A1LA6CIGBNDOH9
74,2.0,right,right,1.0,2.44,0.0,14.0,14.0,14.0,1.0,2901943411-292945.jpg,2898635428-69104.jpg,A1LA6CIGBNDOH9
75,2.0,right,right,1.0,5.0073,0.0,15.0,15.0,15.0,1.0,2427874554-121863.jpg,2458347385-199723.jpg,A1LA6CIGBNDOH9
76,3.0,left,left,1.0,1.8085,0.0,16.0,16.0,16.0,1.0,2874302418-65978.jpg,2898633321-291943.jpg,A1LA6CIGBNDOH9
77,3.0,left,left,1.0,3.799,0.0,17.0,17.0,17.0,1.0,2238480677-317399.jpg,2238480278-19661.jpg,A1LA6CIGBNDOH9
78,2.0,right,left,0.0,3.1564,0.0,18.0,18.0,18.0,1.0,2901941438-69836.jpg,2964223381-294447.jpg,A1LA6CIGBNDOH9
79,1.0,left,left,1.0,2.0015,0.0,19.0,19.0,19.0,1.0,2981241414-145842.jpg,2856919327-359676.jpg,A1LA6CIGBNDOH9
80,2.0,right,right,1.0,1.3277,0.0,20.0,20.0,20.0,1.0,2984615361-295509.jpg,2238428357-313623.jpg,A1LA6CIGBNDOH9
81,2.0,right,left,0.0,1.8887,0.0,21.0,21.0,21.0,1.0,2981244403-72215.jpg,2981231403-71642.jpg,A1LA6CIGBNDOH9
82,3.0,right,right,1.0,1.758,0.0,22.0,22.0,22.0,1.0,2512875587-350044.jpg,2592380177-354629.jpg,A1LA6CIGBNDOH9
83,3.0,right,left,0.0,2.3071,0.0,23.0,23.0,23.0,1.0,2981235446-294900.jpg,2898624426-291546.jpg,A1LA6CIGBNDOH9
84,1.0,right,right,1.0,2.8178,0.0,24.0,24.0,24.0,1.0,2452380171-273112.jpg,2449442529-124445.jpg,A1LA6CIGBNDOH9
85,1.0,right,right,1.0,2.2682,0.0,25.0,25.0,25.0,1.0,2883268412-365899.jpg,2449441881-272368.jpg,A1LA6CIGBNDOH9
86,3.0,left,right,0.0,1.4495,0.0,26.0,26.0,26.0,1.0,2901948350-218459.jpg,2981246360-220352.jpg,A1LA6CIGBNDOH9
87,3.0,left,left,1.0,1.6877,0.0,27.0,27.0,27.0,1.0,2964218374-144967.jpg,2981231446-294732.jpg,A1LA6CIGBNDOH9
88,2.0,right,right,1.0,3.0089,0.0,28.0,28.0,28.0,1.0,2446758985-197610.jpg,2901939379-143479.jpg,A1LA6CIGBNDOH9
89,2.0,left,right,0.0,1.2415,0.0,29.0,29.0,29.0,1.0,2901941401-292798.jpg,2981243412-370222.jpg,A1LA6CIGBNDOH9
90,1.0,left,left,1.0,2.8242,0.0,30.0,30.0,30.0,1.0,2868475410-213219.jpg,2901946465-218350.jpg,A1LA6CIGBNDOH9
91,1.0,right,right,1.0,3.1338,0.0,31.0,31.0,31.0,1.0,2883264368-67631.jpg,2874301407-363895.jpg,A1LA6CIGBNDOH9
92,2.0,left,left,1.0,4.8524,0.0,32.0,32.0,32.0,1.0,2446759347-347016.jpg,2901951350-218702.jpg,A1LA6CIGBNDOH9
93,2.0,left,left,1.0,1.9421,0.0,33.0,33.0,33.0,1.0,2883256307-365057.jpg,2964210336-293945.jpg,A1LA6CIGBNDOH9
94,1.0,right,left,0.0,3.2319,0.0,34.0,34.0,34.0,1.0,2883264367-365620.jpg,2238481928-19949.jpg,A1LA6CIGBNDOH9
95,2.0,left,left,1.0,2.6767,0.0,35.0,35.0,35.0,1.0,2874303365-214262.jpg,2238563377-332054.jpg,A1LA6CIGBNDOH9
96,3.0,right,left,0.0,3.1029,0.0,36.0,36.0,36.0,1.0,2898633480-217190.jpg,2238425482-313537.jpg,A1LA6CIGBNDOH9
97,1.0,left,right,0.0,6.418,0.0,37.0,37.0,37.0,1.0,2883254439-140941.jpg,2446760844-124088.jpg,A1LA6CIGBNDOH9
98,1.0,right,right,1.0,1.9117,0.0,38.0,38.0,38.0,1.0,2238516618-25604.jpg,2868474407-362883.jpg,A1LA6CIGBNDOH9
99,2.0,right,right,1.0,3.7761,0.0,39.0,39.0,39.0,1.0,2864900319-137787.jpg,2964216465-219242.jpg,A1LA6CIGBNDOH9
100,1.0,right,right,1.0,1.9637,0.0,40.0,40.0,40.0,1.0,2984626312-370849.jpg,2883268412-365898.jpg,A1LA6CIGBNDOH9
101,1.0,left,left,1.0,4.5545,0.0,41.0,41.0,41.0,1.0,2452381505-199546.jpg,2901938432-367627.jpg,A1LA6CIGBNDOH9
102,3.0,left,left,1.0,1.2292,0.0,42.0,42.0,42.0,1.0,2446758985-197609.jpg,2898624426-291544.jpg,A1LA6CIGBNDOH9
103,2.0,right,right,1.0,2.37,0.0,43.0,43.0,43.0,1.0,2883255450-215310.jpg,2883268471-290842.jpg,A1LA6CIGBNDOH9
104,3.0,right,right,1.0,3.4537,0.0,44.0,44.0,44.0,1.0,2964220333-71258.jpg,2238580740-186218.jpg,A1LA6CIGBNDOH9
105,2.0,left,left,1.0,2.351,0.0,45.0,45.0,45.0,1.0,2898618444-142233.jpg,2238555262-330312.jpg,A1LA6CIGBNDOH9
106,1.0,left,left,1.0,1.9117,0.0,46.0,46.0,46.0,1.0,2898617468-68274.jpg,2864906345-212360.jpg,A1LA6CIGBNDOH9
107,3.0,right,right,1.0,4.3383,0.0,47.0,47.0,47.0,1.0,2981235446-294901.jpg,2460547467-349421.jpg,A1LA6CIGBNDOH9
108,3.0,left,right,0.0,1.7168,0.0,48.0,48.0,48.0,1.0,2512875899-126682.jpg,2986447332-371497.jpg,A1LA6CIGBNDOH9
109,3.0,left,left,1.0,2.2884,0.0,49.0,49.0,49.0,1.0,2238572663-35822.jpg,2864903351-286874.jpg,A1LA6CIGBNDOH9
110,1.0,left,right,0.0,4.1242,0.0,50.0,50.0,50.0,1.0,2898634397-367080.jpg,2237944827-301472.jpg,A1LA6CIGBNDOH9
111,1.0,left,right,0.0,4.37,0.0,51.0,51.0,51.0,1.0,2898635427-367120.jpg,2901946439-144040.jpg,A1LA6CIGBNDOH9
112,3.0,right,right,1.0,2.6806,0.0,52.0,52.0,52.0,1.0,2452380166-273109.jpg,2446759803-49249.jpg,A1LA6CIGBNDOH9
113,3.0,left,left,1.0,2.1923,0.0,53.0,53.0,53.0,1.0,2901939379-143480.jpg,2901938432-367629.jpg,A1LA6CIGBNDOH9
114,3.0,right,right,1.0,4.509,0.0,54.0,54.0,54.0,1.0,2901939433-69672.jpg,2864910426-287204.jpg,A1LA6CIGBNDOH9
115,1.0,left,right,0.0,2.3299,0.0,55.0,55.0,55.0,1.0,2460547508-51571.jpg,2460547291-274110.jpg,A1LA6CIGBNDOH9
116,1.0,right,left,0.0,4.0845,0.0,56.0,56.0,56.0,1.0,2981244394-145974.jpg,2964213381-294060.jpg,A1LA6CIGBNDOH9
117,1.0,left,left,1.0,3.6875,0.0,57.0,57.0,57.0,1.0,2864907432-362042.jpg,2864901420-212147.jpg,A1LA6CIGBNDOH9
118,2.0,left,right,0.0,5.3711,0.0,58.0,58.0,58.0,1.0,2901947423-70311.jpg,2238573447-333826.jpg,A1LA6CIGBNDOH9
119,2.0,right,right,1.0,1.7957,0.0,59.0,59.0,59.0,1.0,2238481813-19930.jpg,2452380832-348593.jpg,A1LA6CIGBNDOH9
120,2.0,right,right,1.0,7.7897,0.0,0.0,0.0,0.0,1.0,2901934408-69289.jpg,2898634397-367080.jpg,A22HIX1M4QXZBB
121,1.0,right,right,1.0,6.3998,0.0,1.0,1.0,1.0,1.0,2986447306-296584.jpg,2874307433-66280.jpg,A22HIX1M4QXZBB
122,1.0,right,right,1.0,8.4419,0.0,2.0,2.0,2.0,1.0,2898631394-142727.jpg,2460547467-349421.jpg,A22HIX1M4QXZBB
123,3.0,left,left,1.0,3.2008,0.0,3.0,3.0,3.0,1.0,2449441881-272368.jpg,2449441881-272367.jpg,A22HIX1M4QXZBB
124,3.0,right,left,0.0,2.342,0.0,4.0,4.0,4.0,1.0,2898633480-217190.jpg,2238425482-313537.jpg,A22HIX1M4QXZBB
125,2.0,left,left,1.0,1.7309,0.0,5.0,5.0,5.0,1.0,2238481928-19949.jpg,2864900357-361688.jpg,A22HIX1M4QXZBB
126,3.0,right,left,0.0,2.684,0.0,6.0,6.0,6.0,1.0,2864911457-362260.jpg,2874303365-214262.jpg,A22HIX1M4QXZBB
127,2.0,left,right,0.0,4.4923,0.0,7.0,7.0,7.0,1.0,2898635428-69104.jpg,2901943411-292945.jpg,A22HIX1M4QXZBB
128,2.0,right,right,1.0,2.0082,0.0,8.0,8.0,8.0,1.0,2874314526-289684.jpg,2238560245-182099.jpg,A22HIX1M4QXZBB
129,2.0,left,left,1.0,2.8159,0.0,9.0,9.0,9.0,1.0,2460547508-51571.jpg,2981232437-369759.jpg,A22HIX1M4QXZBB
130,1.0,left,left,1.0,3.7073,0.0,10.0,10.0,10.0,1.0,2868475410-213219.jpg,2901946465-218350.jpg,A22HIX1M4QXZBB
131,1.0,right,right,1.0,2.3884,0.0,11.0,11.0,11.0,1.0,2898626385-216899.jpg,2874302418-65978.jpg,A22HIX1M4QXZBB
132,1.0,left,left,1.0,2.638,0.0,12.0,12.0,12.0,1.0,2981231403-71642.jpg,2274829821-263682.jpg,A22HIX1M4QXZBB
133,2.0,left,right,0.0,2.2787,0.0,13.0,13.0,13.0,1.0,2452381505-199546.jpg,2238567168-34916.jpg,A22HIX1M4QXZBB
134,2.0,right,right,1.0,2.8536,0.0,14.0,14.0,14.0,1.0,2874301404-139813.jpg,2981241414-145842.jpg,A22HIX1M4QXZBB
135,2.0,left,right,0.0,2.708,0.0,15.0,15.0,15.0,1.0,2901952513-70703.jpg,2868469411-287540.jpg,A22HIX1M4QXZBB
136,3.0,right,right,1.0,5.3681,0.0,16.0,16.0,16.0,1.0,2981240424-145794.jpg,2901939379-143479.jpg,A22HIX1M4QXZBB
137,3.0,right,left,0.0,1.6562,0.0,17.0,17.0,17.0,1.0,2592380272-354673.jpg,2592379964-131054.jpg,A22HIX1M4QXZBB
138,2.0,right,right,1.0,3.8354,0.0,18.0,18.0,18.0,1.0,2868479517-363220.jpg,2898635427-367120.jpg,A22HIX1M4QXZBB
139,3.0,left,left,1.0,2.3279,0.0,19.0,19.0,19.0,1.0,2883268471-290842.jpg,2901947448-70314.jpg,A22HIX1M4QXZBB
140,1.0,right,right,1.0,3.6023,0.0,20.0,20.0,20.0,1.0,2901942428-69919.jpg,2901939379-143480.jpg,A22HIX1M4QXZBB
141,2.0,right,left,0.0,1.4278,0.0,21.0,21.0,21.0,1.0,2238555262-330312.jpg,2898618444-142233.jpg,A22HIX1M4QXZBB
142,2.0,right,left,0.0,3.4837,0.0,22.0,22.0,22.0,1.0,2901946436-293242.jpg,2238481198-19822.jpg,A22HIX1M4QXZBB
143,1.0,left,left,1.0,3.2838,0.0,23.0,23.0,23.0,1.0,2458347385-199723.jpg,2238480434-93829.jpg,A22HIX1M4QXZBB
144,2.0,left,left,1.0,1.9835,0.0,24.0,24.0,24.0,1.0,2964218374-144967.jpg,2883254439-140940.jpg,A22HIX1M4QXZBB
145,1.0,right,right,1.0,3.2812,0.0,25.0,25.0,25.0,1.0,2238516618-25604.jpg,2868474407-362883.jpg,A22HIX1M4QXZBB
146,3.0,left,right,0.0,2.1641,0.0,26.0,26.0,26.0,1.0,2964216465-219242.jpg,2898619327-366362.jpg,A22HIX1M4QXZBB
147,1.0,left,right,0.0,2.01,0.0,27.0,27.0,27.0,1.0,2575120738-55529.jpg,2898632385-217138.jpg,A22HIX1M4QXZBB
148,3.0,left,right,0.0,2.0298,0.0,28.0,28.0,28.0,1.0,2238480677-317399.jpg,2238480278-19661.jpg,A22HIX1M4QXZBB
149,1.0,right,left,0.0,1.5158,0.0,29.0,29.0,29.0,1.0,2898633421-291974.jpg,2592380177-354629.jpg,A22HIX1M4QXZBB
150,3.0,right,left,0.0,2.6939,0.0,30.0,30.0,30.0,1.0,2981231446-294730.jpg,2883254439-140941.jpg,A22HIX1M4QXZBB
151,3.0,right,right,1.0,2.6782,0.0,31.0,31.0,31.0,1.0,2964207374-144577.jpg,2898617468-68274.jpg,A22HIX1M4QXZBB
152,1.0,right,right,1.0,1.9143,0.0,32.0,32.0,32.0,1.0,2413147898-43548.jpg,2874302418-65979.jpg,A22HIX1M4QXZBB
153,1.0,left,left,1.0,2.0616,0.0,33.0,33.0,33.0,1.0,2986451363-73599.jpg,2901939327-367669.jpg,A22HIX1M4QXZBB
154,1.0,left,left,1.0,2.3935,0.0,34.0,34.0,34.0,1.0,2883268412-365898.jpg,2984626312-370849.jpg,A22HIX1M4QXZBB
155,3.0,left,left,1.0,1.4714,0.0,35.0,35.0,35.0,1.0,2898633421-291973.jpg,2238550049-105691.jpg,A22HIX1M4QXZBB
156,1.0,right,right,1.0,3.5619,0.0,36.0,36.0,36.0,1.0,2427874231-269884.jpg,2964223381-294447.jpg,A22HIX1M4QXZBB
157,2.0,left,right,0.0,3.2044,0.0,37.0,37.0,37.0,1.0,2238572663-35822.jpg,2238571930-184143.jpg,A22HIX1M4QXZBB
158,3.0,right,left,0.0,8.0699,0.0,38.0,38.0,38.0,1.0,2986447332-371497.jpg,2512875899-126682.jpg,A22HIX1M4QXZBB
159,3.0,left,left,1.0,4.9599,0.0,39.0,39.0,39.0,1.0,2592380177-354626.jpg,2238117096-228518.jpg,A22HIX1M4QXZBB
160,2.0,right,left,0.0,2.2912,0.0,40.0,40.0,40.0,1.0,2981243412-370222.jpg,2901941401-292798.jpg,A22HIX1M4QXZBB
161,2.0,right,left,0.0,4.9495,0.0,41.0,41.0,41.0,1.0,2460547536-274181.jpg,2449442529-124446.jpg,A22HIX1M4QXZBB
162,2.0,right,right,1.0,2.4505,0.0,42.0,42.0,42.0,1.0,2984615361-295509.jpg,2238428357-313623.jpg,A22HIX1M4QXZBB
163,2.0,left,right,0.0,3.7825,0.0,43.0,43.0,43.0,1.0,2460547467-349422.jpg,2868487415-213924.jpg,A22HIX1M4QXZBB
164,3.0,right,right,1.0,3.3961,0.0,44.0,44.0,44.0,1.0,2449442181-272436.jpg,2452380832-348593.jpg,A22HIX1M4QXZBB
165,1.0,right,left,0.0,4.2054,0.0,45.0,45.0,45.0,1.0,2981240424-145795.jpg,2446758985-197609.jpg,A22HIX1M4QXZBB
166,1.0,left,right,0.0,3.0103,0.0,46.0,46.0,46.0,1.0,2864907432-362042.jpg,2864901420-212147.jpg,A22HIX1M4QXZBB
167,3.0,left,left,1.0,1.8826,0.0,47.0,47.0,47.0,1.0,2898618390-216538.jpg,2575120609-129862.jpg,A22HIX1M4QXZBB
168,2.0,right,left,0.0,7.2203,0.0,48.0,48.0,48.0,1.0,2238573447-333826.jpg,2901947423-70311.jpg,A22HIX1M4QXZBB
169,3.0,right,right,1.0,2.0923,0.0,49.0,49.0,49.0,1.0,2901939433-69672.jpg,2864910426-287204.jpg,A22HIX1M4QXZBB
170,1.0,right,right,1.0,5.694,0.0,50.0,50.0,50.0,1.0,2238550816-254000.jpg,2238580740-186218.jpg,A22HIX1M4QXZBB
171,1.0,left,left,1.0,1.7581,0.0,51.0,51.0,51.0,1.0,2883256307-365057.jpg,2611628310-206388.jpg,A22HIX1M4QXZBB
172,3.0,left,left,1.0,1.5005,0.0,52.0,52.0,52.0,1.0,2964213381-294060.jpg,2964213381-294061.jpg,A22HIX1M4QXZBB
173,1.0,right,right,1.0,2.4306,0.0,53.0,53.0,53.0,1.0,2883266388-67750.jpg,2874299429-139695.jpg,A22HIX1M4QXZBB
174,3.0,right,right,1.0,4.0251,0.0,54.0,54.0,54.0,1.0,2981235446-294900.jpg,2898624426-291546.jpg,A22HIX1M4QXZBB
175,2.0,right,left,0.0,1.6642,0.0,55.0,55.0,55.0,1.0,2898618440-216547.jpg,2446759803-49249.jpg,A22HIX1M4QXZBB
176,3.0,left,right,0.0,2.3465,0.0,56.0,56.0,56.0,1.0,2449442529-124445.jpg,2898632385-217137.jpg,A22HIX1M4QXZBB
177,1.0,left,right,0.0,3.1566,0.0,57.0,57.0,57.0,1.0,2901948350-218459.jpg,2804906319-133082.jpg,A22HIX1M4QXZBB
178,2.0,left,left,1.0,1.4401,0.0,58.0,58.0,58.0,1.0,2874301407-363895.jpg,2986397322-371109.jpg,A22HIX1M4QXZBB
179,3.0,right,left,0.0,2.236,0.0,59.0,59.0,59.0,1.0,2238569117-333045.jpg,2446759347-347016.jpg,A22HIX1M4QXZBB
180,1.0,left,left,1.0,3.4612,0.0,0.0,0.0,0.0,1.0,2238480677-317399.jpg,2238481630-168218.jpg,A248QG4DPULP46
181,3.0,left,left,1.0,3.0901,0.0,1.0,1.0,1.0,1.0,2458347385-199723.jpg,2458347252-348911.jpg,A248QG4DPULP46
182,3.0,right,right,1.0,3.4954,0.0,2.0,2.0,2.0,1.0,2238480803-19737.jpg,2238481198-19822.jpg,A248QG4DPULP46
183,3.0,right,right,1.0,2.1717,0.0,3.0,3.0,3.0,1.0,2238117096-228518.jpg,2592380177-354626.jpg,A248QG4DPULP46
184,2.0,left,left,1.0,1.3965,0.0,4.0,4.0,4.0,1.0,2901952513-70703.jpg,2868469411-287540.jpg,A248QG4DPULP46
185,2.0,left,right,0.0,4.708,0.0,5.0,5.0,5.0,1.0,2901947423-70311.jpg,2238573447-333826.jpg,A248QG4DPULP46
186,1.0,left,left,1.0,2.1461,0.0,6.0,6.0,6.0,1.0,2238428357-313623.jpg,2238499057-320266.jpg,A248QG4DPULP46
187,3.0,right,right,1.0,2.9836,0.0,7.0,7.0,7.0,1.0,2981235446-294900.jpg,2898624426-291546.jpg,A248QG4DPULP46
188,3.0,right,left,0.0,2.8743,0.0,8.0,8.0,8.0,1.0,2575120609-129862.jpg,2898618390-216538.jpg,A248QG4DPULP46
189,1.0,left,left,1.0,4.7968,0.0,9.0,9.0,9.0,1.0,2449441881-272368.jpg,2883268412-365899.jpg,A248QG4DPULP46
190,3.0,left,right,0.0,4.156,0.0,10.0,10.0,10.0,1.0,2901941401-292798.jpg,2883273443-68193.jpg,A248QG4DPULP46
191,1.0,left,left,1.0,2.2293,0.0,11.0,11.0,11.0,1.0,2449442529-124445.jpg,2452380171-273112.jpg,A248QG4DPULP46
192,1.0,left,left,1.0,2.567,0.0,12.0,12.0,12.0,1.0,2898617468-68274.jpg,2864906345-212360.jpg,A248QG4DPULP46
193,1.0,left,left,1.0,2.9682,0.0,13.0,13.0,13.0,1.0,2446759803-49249.jpg,2446760601-272099.jpg,A248QG4DPULP46
194,3.0,left,left,1.0,3.1708,0.0,14.0,14.0,14.0,1.0,2460547508-51571.jpg,2901941438-69835.jpg,A248QG4DPULP46
195,2.0,right,left,0.0,3.6974,0.0,15.0,15.0,15.0,1.0,2901947423-70310.jpg,2864907432-362042.jpg,A248QG4DPULP46
196,1.0,left,right,0.0,3.2271,0.0,16.0,16.0,16.0,1.0,2460547467-349421.jpg,2898631394-142727.jpg,A248QG4DPULP46
197,1.0,right,right,1.0,7.7313,0.0,17.0,17.0,17.0,1.0,2427874231-269884.jpg,2964223381-294447.jpg,A248QG4DPULP46
198,2.0,left,right,0.0,2.1825,0.0,18.0,18.0,18.0,1.0,2238572663-35822.jpg,2238571930-184143.jpg,A248QG4DPULP46
199,2.0,left,right,0.0,6.328,0.0,19.0,19.0,19.0,1.0,2981231403-71642.jpg,2981244403-72215.jpg,A248QG4DPULP46
200,2.0,left,left,1.0,2.0564,0.0,20.0,20.0,20.0,1.0,2964213381-294060.jpg,2458348012-349114.jpg,A248QG4DPULP46
201,3.0,right,right,1.0,5.1803,0.0,21.0,21.0,21.0,1.0,2238578544-111698.jpg,2874302418-65979.jpg,A248QG4DPULP46
202,2.0,left,left,1.0,1.5801,0.0,22.0,22.0,22.0,1.0,2452380832-348593.jpg,2238481813-19930.jpg,A248QG4DPULP46
203,3.0,left,left,1.0,4.4303,0.0,23.0,23.0,23.0,1.0,2981241414-145842.jpg,2427873848-47312.jpg,A248QG4DPULP46
204,1.0,right,left,0.0,5.5436,0.0,24.0,24.0,24.0,1.0,2901942428-69919.jpg,2901939379-143480.jpg,A248QG4DPULP46
205,1.0,right,right,1.0,8.7113,0.0,25.0,25.0,25.0,1.0,2901946465-218350.jpg,2868475410-213219.jpg,A248QG4DPULP46
206,3.0,left,left,1.0,1.729,0.0,26.0,26.0,26.0,1.0,2898633421-291973.jpg,2238550049-105691.jpg,A248QG4DPULP46
207,2.0,left,left,1.0,3.844,0.0,27.0,27.0,27.0,1.0,2449442529-124446.jpg,2460547536-274181.jpg,A248QG4DPULP46
208,2.0,left,left,1.0,3.4152,0.0,28.0,28.0,28.0,1.0,2874301407-363895.jpg,2986397322-371109.jpg,A248QG4DPULP46
209,1.0,left,right,0.0,5.4142,0.0,29.0,29.0,29.0,1.0,2874299429-139695.jpg,2883266388-67750.jpg,A248QG4DPULP46
210,2.0,left,right,0.0,2.9403,0.0,30.0,30.0,30.0,1.0,2874303365-214262.jpg,2238563377-332054.jpg,A248QG4DPULP46
211,1.0,left,left,1.0,1.9594,0.0,31.0,31.0,31.0,1.0,2883256307-365057.jpg,2611628310-206388.jpg,A248QG4DPULP46
212,2.0,left,left,1.0,2.2324,0.0,32.0,32.0,32.0,1.0,2238481928-19949.jpg,2864900357-361688.jpg,A248QG4DPULP46
213,1.0,left,right,0.0,3.2577,0.0,33.0,33.0,33.0,1.0,2901948350-218459.jpg,2804906319-133082.jpg,A248QG4DPULP46
214,2.0,left,right,0.0,3.1145,0.0,34.0,34.0,34.0,1.0,2238560245-182099.jpg,2874314526-289684.jpg,A248QG4DPULP46
215,3.0,right,right,1.0,2.6551,0.0,35.0,35.0,35.0,1.0,2864909447-362146.jpg,2460547467-349422.jpg,A248QG4DPULP46
216,3.0,right,right,1.0,3.6055,0.0,36.0,36.0,36.0,1.0,2898621427-366486.jpg,2898635427-367120.jpg,A248QG4DPULP46
217,2.0,right,left,0.0,4.4607,0.0,37.0,37.0,37.0,1.0,2874299429-139694.jpg,2864910426-287204.jpg,A248QG4DPULP46
218,3.0,right,right,1.0,1.7939,0.0,38.0,38.0,38.0,1.0,2898625336-291572.jpg,2898635428-69104.jpg,A248QG4DPULP46
219,1.0,left,left,1.0,3.2891,0.0,39.0,39.0,39.0,1.0,2901939379-143479.jpg,2460547467-349423.jpg,A248QG4DPULP46
220,3.0,left,left,1.0,3.409,0.0,40.0,40.0,40.0,1.0,2868474407-362883.jpg,2901948383-70363.jpg,A248QG4DPULP46
221,2.0,left,left,1.0,2.8813,0.0,41.0,41.0,41.0,1.0,2898634397-367080.jpg,2901934408-69289.jpg,A248QG4DPULP46
222,3.0,right,left,0.0,3.7644,0.0,42.0,42.0,42.0,1.0,2964220333-71258.jpg,2238580740-186218.jpg,A248QG4DPULP46
223,2.0,left,left,1.0,2.4746,0.0,43.0,43.0,43.0,1.0,2512875899-126682.jpg,2592380177-354628.jpg,A248QG4DPULP46
224,3.0,right,right,1.0,3.879,0.0,44.0,44.0,44.0,1.0,2898618444-142232.jpg,2898618444-142233.jpg,A248QG4DPULP46
225,2.0,right,right,1.0,3.7054,0.0,45.0,45.0,45.0,1.0,2883254439-140940.jpg,2964218374-144967.jpg,A248QG4DPULP46
226,2.0,right,left,0.0,3.1667,0.0,46.0,46.0,46.0,1.0,2898632385-217136.jpg,2883254439-140941.jpg,A248QG4DPULP46
227,3.0,right,left,0.0,5.8595,0.0,47.0,47.0,47.0,1.0,2898633480-217190.jpg,2238425482-313537.jpg,A248QG4DPULP46
228,1.0,right,right,1.0,3.0664,0.0,48.0,48.0,48.0,1.0,2883268471-290843.jpg,2883268471-290842.jpg,A248QG4DPULP46
229,1.0,left,right,0.0,3.4314,0.0,49.0,49.0,49.0,1.0,2986451363-73599.jpg,2901939327-367669.jpg,A248QG4DPULP46
230,1.0,left,left,1.0,3.0757,0.0,50.0,50.0,50.0,1.0,2446758985-197609.jpg,2981240424-145795.jpg,A248QG4DPULP46
231,2.0,right,right,1.0,1.7488,0.0,51.0,51.0,51.0,1.0,2238479053-19457.jpg,2592379964-131054.jpg,A248QG4DPULP46
232,1.0,left,left,1.0,3.5434,0.0,52.0,52.0,52.0,1.0,2452381505-199546.jpg,2901938432-367627.jpg,A248QG4DPULP46
233,3.0,right,right,1.0,4.7183,0.0,53.0,53.0,53.0,1.0,2238531493-28260.jpg,2575120738-55529.jpg,A248QG4DPULP46
234,3.0,right,right,1.0,3.8144,0.0,54.0,54.0,54.0,1.0,2898619327-366362.jpg,2964216465-219242.jpg,A248QG4DPULP46
235,1.0,left,left,1.0,3.4636,0.0,55.0,55.0,55.0,1.0,2874302418-65978.jpg,2898626385-216899.jpg,A248QG4DPULP46
236,3.0,left,right,0.0,3.8495,0.0,56.0,56.0,56.0,1.0,2446759347-347016.jpg,2238569117-333045.jpg,A248QG4DPULP46
237,2.0,right,right,1.0,3.6589,0.0,57.0,57.0,57.0,1.0,2984615361-295510.jpg,2883268412-365898.jpg,A248QG4DPULP46
238,1.0,left,right,0.0,2.969,0.0,58.0,58.0,58.0,1.0,2874307433-66280.jpg,2986447306-296584.jpg,A248QG4DPULP46
239,2.0,left,left,1.0,2.4501,0.0,59.0,59.0,59.0,1.0,2592380177-354629.jpg,2579432534-130704.jpg,A248QG4DPULP46
240,3.0,left,left,1.0,5.093,0.0,0.0,0.0,0.0,1.0,2460547467-349422.jpg,2864909447-362146.jpg,A25Y3D2Y2DR8WM
241,2.0,left,right,0.0,2.407,0.0,1.0,1.0,1.0,1.0,2898624426-291546.jpg,2981236443-71859.jpg,A25Y3D2Y2DR8WM
242,2.0,right,left,0.0,2.872,0.0,2.0,2.0,2.0,1.0,2238573447-333826.jpg,2901947423-70311.jpg,A25Y3D2Y2DR8WM
243,2.0,right,left,0.0,3.685,0.0,3.0,3.0,3.0,1.0,2901934408-69289.jpg,2898634397-367080.jpg,A25Y3D2Y2DR8WM
244,3.0,left,right,0.0,1.532,0.0,4.0,4.0,4.0,1.0,2238481198-19822.jpg,2238480803-19737.jpg,A25Y3D2Y2DR8WM
245,3.0,right,left,0.0,1.556,0.0,5.0,5.0,5.0,1.0,2964220333-71258.jpg,2238580740-186218.jpg,A25Y3D2Y2DR8WM
246,2.0,right,right,1.0,2.662,0.0,6.0,6.0,6.0,1.0,2575120738-55528.jpg,2575120738-55529.jpg,A25Y3D2Y2DR8WM
247,2.0,right,right,1.0,2.451,0.0,7.0,7.0,7.0,1.0,2238480648-19714.jpg,2874302418-65979.jpg,A25Y3D2Y2DR8WM
248,3.0,left,left,1.0,1.528,0.0,8.0,8.0,8.0,1.0,2868475410-213219.jpg,2868474407-362885.jpg,A25Y3D2Y2DR8WM
249,3.0,right,right,1.0,4.285,0.0,9.0,9.0,9.0,1.0,2986447332-371497.jpg,2512875899-126682.jpg,A25Y3D2Y2DR8WM
250,3.0,left,left,1.0,0.274,0.0,10.0,10.0,10.0,1.0,2864910426-287204.jpg,2901939433-69672.jpg,A25Y3D2Y2DR8WM
251,2.0,left,right,0.0,1.529,0.0,11.0,11.0,11.0,1.0,2964218374-144967.jpg,2883254439-140940.jpg,A25Y3D2Y2DR8WM
252,3.0,left,left,1.0,7.595,0.0,12.0,12.0,12.0,1.0,2883254439-140941.jpg,2981231446-294730.jpg,A25Y3D2Y2DR8WM
253,1.0,left,right,0.0,2.788,0.0,13.0,13.0,13.0,1.0,2981231403-71642.jpg,2274829821-263682.jpg,A25Y3D2Y2DR8WM
254,3.0,right,left,0.0,0.991,0.0,14.0,14.0,14.0,1.0,2901947448-70314.jpg,2883268471-290842.jpg,A25Y3D2Y2DR8WM
255,1.0,right,right,1.0,3.409,0.0,15.0,15.0,15.0,1.0,2611628310-206388.jpg,2883256307-365057.jpg,A25Y3D2Y2DR8WM
256,3.0,left,right,0.0,4.617,0.0,16.0,16.0,16.0,1.0,2238481928-19949.jpg,2981241419-145844.jpg,A25Y3D2Y2DR8WM
257,3.0,right,right,1.0,4.333,0.0,17.0,17.0,17.0,1.0,2238569117-333045.jpg,2446759347-347016.jpg,A25Y3D2Y2DR8WM
258,1.0,left,right,0.0,1.067,0.0,18.0,18.0,18.0,1.0,2449442529-124445.jpg,2452380171-273112.jpg,A25Y3D2Y2DR8WM
259,1.0,right,right,1.0,3.341,0.0,19.0,19.0,19.0,1.0,2986419333-73361.jpg,2238572663-35822.jpg,A25Y3D2Y2DR8WM
260,1.0,right,left,0.0,1.407,0.0,20.0,20.0,20.0,1.0,2901946439-144040.jpg,2898635427-367120.jpg,A25Y3D2Y2DR8WM
261,2.0,right,right,1.0,7.899,0.0,21.0,21.0,21.0,1.0,2238481813-19930.jpg,2452380832-348593.jpg,A25Y3D2Y2DR8WM
262,1.0,right,left,0.0,0.011,0.0,22.0,22.0,22.0,1.0,2901938432-367627.jpg,2452381505-199546.jpg,A25Y3D2Y2DR8WM
263,1.0,right,right,1.0,1.298,0.0,23.0,23.0,23.0,1.0,2427874231-269884.jpg,2964223381-294447.jpg,A25Y3D2Y2DR8WM
264,1.0,right,right,1.0,2.916,0.0,24.0,24.0,24.0,1.0,2238471391-240918.jpg,2238425482-313537.jpg,A25Y3D2Y2DR8WM
265,1.0,left,right,0.0,3.534,0.0,25.0,25.0,25.0,1.0,2238560245-182099.jpg,2549106624-127823.jpg,A25Y3D2Y2DR8WM
266,2.0,right,right,1.0,1.258,0.0,26.0,26.0,26.0,1.0,2460547536-274181.jpg,2449442529-124446.jpg,A25Y3D2Y2DR8WM
267,3.0,left,left,1.0,1.326,0.0,27.0,27.0,27.0,1.0,2874302418-65978.jpg,2898633321-291943.jpg,A25Y3D2Y2DR8WM
268,2.0,left,left,1.0,1.502,0.0,28.0,28.0,28.0,1.0,2901939379-143480.jpg,2981229442-369621.jpg,A25Y3D2Y2DR8WM
269,2.0,left,right,0.0,1.329,0.0,29.0,29.0,29.0,1.0,2898618390-216538.jpg,2901939327-367670.jpg,A25Y3D2Y2DR8WM
270,1.0,right,right,1.0,1.323,0.0,30.0,30.0,30.0,1.0,2446759803-49250.jpg,2898635428-69104.jpg,A25Y3D2Y2DR8WM
271,1.0,left,left,1.0,1.145,0.0,31.0,31.0,31.0,1.0,2874303365-214262.jpg,2609793677-355397.jpg,A25Y3D2Y2DR8WM
272,3.0,left,right,0.0,1.027,0.0,32.0,32.0,32.0,1.0,2986451363-73599.jpg,2238434559-90406.jpg,A25Y3D2Y2DR8WM
273,2.0,left,left,1.0,0.969,0.0,33.0,33.0,33.0,1.0,2238480677-317399.jpg,2238573546-258454.jpg,A25Y3D2Y2DR8WM
274,1.0,right,left,0.0,1.221,0.0,34.0,34.0,34.0,1.0,2446760601-272099.jpg,2446759803-49249.jpg,A25Y3D2Y2DR8WM
275,2.0,left,left,1.0,1.832,0.0,35.0,35.0,35.0,1.0,2901939379-143479.jpg,2446758985-197610.jpg,A25Y3D2Y2DR8WM
276,2.0,left,right,0.0,2.881,0.0,36.0,36.0,36.0,1.0,2449441881-272368.jpg,2984615358-72439.jpg,A25Y3D2Y2DR8WM
277,2.0,right,right,1.0,4.935,0.0,37.0,37.0,37.0,1.0,2981246400-220365.jpg,2874307433-66280.jpg,A25Y3D2Y2DR8WM
278,1.0,left,left,1.0,1.832,0.0,38.0,38.0,38.0,1.0,2901952513-70703.jpg,2864907361-287062.jpg,A25Y3D2Y2DR8WM
279,1.0,left,left,1.0,1.838,0.0,39.0,39.0,39.0,1.0,2901941401-292798.jpg,2898618327-366317.jpg,A25Y3D2Y2DR8WM
280,1.0,left,left,1.0,4.997,0.0,40.0,40.0,40.0,1.0,2883268412-365898.jpg,2984626312-370849.jpg,A25Y3D2Y2DR8WM
281,2.0,right,right,1.0,1.597,0.0,41.0,41.0,41.0,1.0,2579432534-130704.jpg,2592380177-354629.jpg,A25Y3D2Y2DR8WM
282,3.0,right,right,1.0,1.485,0.0,42.0,42.0,42.0,1.0,2989726338-74002.jpg,2864907432-362042.jpg,A25Y3D2Y2DR8WM
283,3.0,right,left,0.0,3.136,0.0,43.0,43.0,43.0,1.0,2964213381-294061.jpg,2964213381-294060.jpg,A25Y3D2Y2DR8WM
284,3.0,right,left,0.0,2.921,0.0,44.0,44.0,44.0,1.0,2981246360-220352.jpg,2901948350-218459.jpg,A25Y3D2Y2DR8WM
285,1.0,right,right,1.0,3.085,0.0,45.0,45.0,45.0,1.0,2512876023-52283.jpg,2898633421-291973.jpg,A25Y3D2Y2DR8WM
286,3.0,right,left,0.0,4.616,0.0,46.0,46.0,46.0,1.0,2446760917-347439.jpg,2874299429-139695.jpg,A25Y3D2Y2DR8WM
287,1.0,right,left,0.0,2.239,0.0,47.0,47.0,47.0,1.0,2238499057-320266.jpg,2238428357-313623.jpg,A25Y3D2Y2DR8WM
288,2.0,right,right,1.0,4.319,0.0,48.0,48.0,48.0,1.0,2452380166-273110.jpg,2460547467-349421.jpg,A25Y3D2Y2DR8WM
289,3.0,right,left,0.0,2.532,0.0,49.0,49.0,49.0,1.0,2964207374-144577.jpg,2898617468-68274.jpg,A25Y3D2Y2DR8WM
290,1.0,right,right,1.0,1.539,0.0,50.0,50.0,50.0,1.0,2238480434-93829.jpg,2458347385-199723.jpg,A25Y3D2Y2DR8WM
291,2.0,left,right,0.0,2.898,0.0,51.0,51.0,51.0,1.0,2964216465-219242.jpg,2864900319-137787.jpg,A25Y3D2Y2DR8WM
292,3.0,left,left,1.0,2.0,0.0,52.0,52.0,52.0,1.0,2874301407-363895.jpg,2901947323-70275.jpg,A25Y3D2Y2DR8WM
293,2.0,left,right,0.0,2.795,0.0,53.0,53.0,53.0,1.0,2592379964-131054.jpg,2238479053-19457.jpg,A25Y3D2Y2DR8WM
294,2.0,left,right,0.0,1.282,0.0,54.0,54.0,54.0,1.0,2868474407-362883.jpg,2981246400-220363.jpg,A25Y3D2Y2DR8WM
295,1.0,right,right,1.0,2.009,0.0,55.0,55.0,55.0,1.0,2981240424-145795.jpg,2446758985-197609.jpg,A25Y3D2Y2DR8WM
296,1.0,left,left,1.0,2.387,0.0,56.0,56.0,56.0,1.0,2898618444-142233.jpg,2898631359-142721.jpg,A25Y3D2Y2DR8WM
297,3.0,right,right,1.0,3.458,0.0,57.0,57.0,57.0,1.0,2901941438-69835.jpg,2460547508-51571.jpg,A25Y3D2Y2DR8WM
298,3.0,left,left,1.0,1.325,0.0,58.0,58.0,58.0,1.0,2981241414-145842.jpg,2427873848-47312.jpg,A25Y3D2Y2DR8WM
299,2.0,left,right,0.0,2.98,0.0,59.0,59.0,59.0,1.0,2592380177-354626.jpg,2864901386-286797.jpg,A25Y3D2Y2DR8WM
300,3.0,left,right,0.0,23.722,0.0,0.0,0.0,0.0,1.0,2898634397-367080.jpg,2964217461-294238.jpg,A2D05J2CGBANHB
301,2.0,left,right,0.0,6.022,0.0,1.0,1.0,1.0,1.0,2883268471-290842.jpg,2883255450-215310.jpg,A2D05J2CGBANHB
302,2.0,left,right,0.0,0.017,0.0,2.0,2.0,2.0,1.0,2592380177-354626.jpg,2864901386-286797.jpg,A2D05J2CGBANHB
303,2.0,left,right,0.0,5.113,0.0,3.0,3.0,3.0,1.0,2238572663-35822.jpg,2238571930-184143.jpg,A2D05J2CGBANHB
304,1.0,right,right,1.0,0.013,0.0,4.0,4.0,4.0,1.0,2964218374-144968.jpg,2964218374-144967.jpg,A2D05J2CGBANHB
305,2.0,left,right,0.0,1.927,0.0,5.0,5.0,5.0,1.0,2981231403-71642.jpg,2981244403-72215.jpg,A2D05J2CGBANHB
306,1.0,right,left,0.0,1.567,0.0,6.0,6.0,6.0,1.0,2901942428-69919.jpg,2901939379-143480.jpg,A2D05J2CGBANHB
307,3.0,right,right,1.0,1.169,0.0,7.0,7.0,7.0,1.0,2898621427-366486.jpg,2898635427-367120.jpg,A2D05J2CGBANHB
308,1.0,right,right,1.0,1.299,0.0,8.0,8.0,8.0,1.0,2238544191-252422.jpg,2964216465-219242.jpg,A2D05J2CGBANHB
309,3.0,right,left,0.0,1.275,0.0,9.0,9.0,9.0,1.0,2898632385-217137.jpg,2449442529-124445.jpg,A2D05J2CGBANHB
310,2.0,left,right,0.0,1.132,0.0,10.0,10.0,10.0,1.0,2238580740-186218.jpg,2238521193-26285.jpg,A2D05J2CGBANHB
311,3.0,left,right,0.0,1.114,0.0,11.0,11.0,11.0,1.0,2868475410-213219.jpg,2868474407-362885.jpg,A2D05J2CGBANHB
312,1.0,right,right,1.0,2.821,0.0,12.0,12.0,12.0,1.0,2898626385-216899.jpg,2874302418-65978.jpg,A2D05J2CGBANHB
313,1.0,right,right,1.0,2.501,0.0,13.0,13.0,13.0,1.0,2238499057-320266.jpg,2238428357-313623.jpg,A2D05J2CGBANHB
314,3.0,left,right,0.0,1.754,0.0,14.0,14.0,14.0,1.0,2460547508-51571.jpg,2901941438-69835.jpg,A2D05J2CGBANHB
315,3.0,right,right,1.0,3.485,0.0,15.0,15.0,15.0,1.0,2964213381-294061.jpg,2964213381-294060.jpg,A2D05J2CGBANHB
316,3.0,right,right,1.0,1.767,0.0,16.0,16.0,16.0,1.0,2238569117-333045.jpg,2446759347-347016.jpg,A2D05J2CGBANHB
317,2.0,right,right,1.0,2.604,0.0,17.0,17.0,17.0,1.0,2864900357-361688.jpg,2238481928-19949.jpg,A2D05J2CGBANHB
318,2.0,left,left,1.0,4.556,0.0,18.0,18.0,18.0,1.0,2898617468-68274.jpg,2901943387-368037.jpg,A2D05J2CGBANHB
319,2.0,right,right,1.0,1.002,0.0,19.0,19.0,19.0,1.0,2592380177-354628.jpg,2512875899-126682.jpg,A2D05J2CGBANHB
320,1.0,left,left,1.0,1.075,0.0,20.0,20.0,20.0,1.0,2901939379-143479.jpg,2460547467-349423.jpg,A2D05J2CGBANHB
321,1.0,right,right,1.0,1.392,0.0,21.0,21.0,21.0,1.0,2413147898-43548.jpg,2874302418-65979.jpg,A2D05J2CGBANHB
322,2.0,left,left,1.0,1.221,0.0,22.0,22.0,22.0,1.0,2575120738-55529.jpg,2575120738-55528.jpg,A2D05J2CGBANHB
323,1.0,right,right,1.0,1.209,0.0,23.0,23.0,23.0,1.0,2898631359-142721.jpg,2898618444-142233.jpg,A2D05J2CGBANHB
324,3.0,right,right,1.0,1.251,0.0,24.0,24.0,24.0,1.0,2512875587-350044.jpg,2592380177-354629.jpg,A2D05J2CGBANHB
325,3.0,right,left,0.0,1.122,0.0,25.0,25.0,25.0,1.0,2238480278-19661.jpg,2238480677-317399.jpg,A2D05J2CGBANHB
326,1.0,left,right,0.0,1.405,0.0,26.0,26.0,26.0,1.0,2883268412-365898.jpg,2984626312-370849.jpg,A2D05J2CGBANHB
327,3.0,left,left,1.0,1.771,0.0,27.0,27.0,27.0,1.0,2868474407-362883.jpg,2901948383-70363.jpg,A2D05J2CGBANHB
328,2.0,right,right,1.0,1.379,0.0,28.0,28.0,28.0,1.0,2238481813-19930.jpg,2452380832-348593.jpg,A2D05J2CGBANHB
329,2.0,right,right,1.0,1.328,0.0,29.0,29.0,29.0,1.0,2901941438-69836.jpg,2964223381-294447.jpg,A2D05J2CGBANHB
330,2.0,right,left,0.0,1.906,0.0,30.0,30.0,30.0,1.0,2981246400-220365.jpg,2874307433-66280.jpg,A2D05J2CGBANHB
331,3.0,left,right,0.0,1.333,0.0,31.0,31.0,31.0,1.0,2446759803-49249.jpg,2452380166-273109.jpg,A2D05J2CGBANHB
332,2.0,right,left,0.0,1.304,0.0,32.0,32.0,32.0,1.0,2868469411-287540.jpg,2901952513-70703.jpg,A2D05J2CGBANHB
333,2.0,left,right,0.0,1.628,0.0,33.0,33.0,33.0,1.0,2864907432-362042.jpg,2901947423-70310.jpg,A2D05J2CGBANHB
334,1.0,left,left,1.0,1.288,0.0,34.0,34.0,34.0,1.0,2449442529-124446.jpg,2446759803-49251.jpg,A2D05J2CGBANHB
335,3.0,left,right,0.0,1.416,0.0,35.0,35.0,35.0,1.0,2981241414-145842.jpg,2427873848-47312.jpg,A2D05J2CGBANHB
336,1.0,right,right,1.0,1.362,0.0,36.0,36.0,36.0,1.0,2446760844-124088.jpg,2883254439-140941.jpg,A2D05J2CGBANHB
337,1.0,right,left,0.0,1.131,0.0,37.0,37.0,37.0,1.0,2611628310-206388.jpg,2883256307-365057.jpg,A2D05J2CGBANHB
338,1.0,left,right,0.0,1.428,0.0,38.0,38.0,38.0,1.0,2901948350-218459.jpg,2804906319-133082.jpg,A2D05J2CGBANHB
339,3.0,left,right,0.0,1.38,0.0,39.0,39.0,39.0,1.0,2874303365-214262.jpg,2864911457-362260.jpg,A2D05J2CGBANHB
340,3.0,left,left,1.0,1.26,0.0,40.0,40.0,40.0,1.0,2446758985-197609.jpg,2898624426-291544.jpg,A2D05J2CGBANHB
341,2.0,left,right,0.0,1.194,0.0,41.0,41.0,41.0,1.0,2449441881-272368.jpg,2984615358-72439.jpg,A2D05J2CGBANHB
342,3.0,left,right,0.0,1.489,0.0,42.0,42.0,42.0,1.0,2874299429-139695.jpg,2446760917-347439.jpg,A2D05J2CGBANHB
343,2.0,left,left,1.0,1.738,0.0,43.0,43.0,43.0,1.0,2238425482-313537.jpg,2238436322-314047.jpg,A2D05J2CGBANHB
344,3.0,right,right,1.0,1.94,0.0,44.0,44.0,44.0,1.0,2238434559-90406.jpg,2986451363-73599.jpg,A2D05J2CGBANHB
345,1.0,left,left,1.0,3.581,0.0,45.0,45.0,45.0,1.0,2238560245-182099.jpg,2549106624-127823.jpg,A2D05J2CGBANHB
346,3.0,right,right,1.0,1.498,0.0,46.0,46.0,46.0,1.0,2238480803-19737.jpg,2238481198-19822.jpg,A2D05J2CGBANHB
347,2.0,right,left,0.0,1.464,0.0,47.0,47.0,47.0,1.0,2981243412-370222.jpg,2901941401-292798.jpg,A2D05J2CGBANHB
348,2.0,left,left,1.0,1.523,0.0,48.0,48.0,48.0,1.0,2898624426-291546.jpg,2981236443-71859.jpg,A2D05J2CGBANHB
349,1.0,right,left,0.0,1.919,0.0,49.0,49.0,49.0,1.0,2512876023-52283.jpg,2898633421-291973.jpg,A2D05J2CGBANHB
350,1.0,right,left,0.0,2.042,0.0,50.0,50.0,50.0,1.0,2860312398-62572.jpg,2901947423-70311.jpg,A2D05J2CGBANHB
351,3.0,left,left,1.0,1.56,0.0,51.0,51.0,51.0,1.0,2898618390-216538.jpg,2575120609-129862.jpg,A2D05J2CGBANHB
352,3.0,left,left,1.0,1.471,0.0,52.0,52.0,52.0,1.0,2458347385-199723.jpg,2458347252-348911.jpg,A2D05J2CGBANHB
353,1.0,left,right,0.0,1.204,0.0,53.0,53.0,53.0,1.0,2898635428-69104.jpg,2446759803-49250.jpg,A2D05J2CGBANHB
354,3.0,right,left,0.0,1.485,0.0,54.0,54.0,54.0,1.0,2994401319-148290.jpg,2452381505-199546.jpg,A2D05J2CGBANHB
355,1.0,left,left,1.0,1.527,0.0,55.0,55.0,55.0,1.0,2460547467-349421.jpg,2898631394-142727.jpg,A2D05J2CGBANHB
356,1.0,right,left,0.0,1.523,0.0,56.0,56.0,56.0,1.0,2883264368-67631.jpg,2874301407-363895.jpg,A2D05J2CGBANHB
357,2.0,left,right,0.0,1.435,0.0,57.0,57.0,57.0,1.0,2460547467-349422.jpg,2868487415-213924.jpg,A2D05J2CGBANHB
358,2.0,right,left,0.0,2.839,0.0,58.0,58.0,58.0,1.0,2238479053-19457.jpg,2592379964-131054.jpg,A2D05J2CGBANHB
359,1.0,right,left,0.0,1.142,0.0,59.0,59.0,59.0,1.0,2864902304-137862.jpg,2864910426-287204.jpg,A2D05J2CGBANHB
360,1.0,right,right,1.0,5.7181,0.0,0.0,0.0,0.0,1.0,2446760844-124088.jpg,2883254439-140941.jpg,A2DM8RFS86D7ZK
361,3.0,left,right,0.0,1.4526,0.0,1.0,1.0,1.0,1.0,2238580740-186218.jpg,2964220333-71258.jpg,A2DM8RFS86D7ZK
362,2.0,left,right,0.0,1.3022,0.0,2.0,2.0,2.0,1.0,2449442529-124445.jpg,2986408373-73286.jpg,A2DM8RFS86D7ZK
363,2.0,right,left,0.0,2.8232,0.0,3.0,3.0,3.0,1.0,2238481813-19930.jpg,2452380832-348593.jpg,A2DM8RFS86D7ZK
364,2.0,right,right,1.0,1.4679,0.0,4.0,4.0,4.0,1.0,2592380177-354628.jpg,2512875899-126682.jpg,A2DM8RFS86D7ZK
365,1.0,right,right,1.0,2.7923,0.0,5.0,5.0,5.0,1.0,2964224310-219528.jpg,2446759347-347016.jpg,A2DM8RFS86D7ZK
366,1.0,right,right,1.0,2.302,0.0,6.0,6.0,6.0,1.0,2460547291-274110.jpg,2460547508-51571.jpg,A2DM8RFS86D7ZK
367,2.0,left,left,1.0,1.7435,0.0,7.0,7.0,7.0,1.0,2981241414-145842.jpg,2874301404-139813.jpg,A2DM8RFS86D7ZK
368,2.0,right,left,0.0,1.3333,0.0,8.0,8.0,8.0,1.0,2874314526-289684.jpg,2238560245-182099.jpg,A2DM8RFS86D7ZK
369,1.0,left,right,0.0,1.1464,0.0,9.0,9.0,9.0,1.0,2898617468-68274.jpg,2864906345-212360.jpg,A2DM8RFS86D7ZK
370,3.0,left,right,0.0,1.8607,0.0,10.0,10.0,10.0,1.0,2874307433-66280.jpg,2981231422-369714.jpg,A2DM8RFS86D7ZK
371,3.0,right,left,0.0,1.6493,0.0,11.0,11.0,11.0,1.0,2981235446-294901.jpg,2460547467-349421.jpg,A2DM8RFS86D7ZK
372,3.0,right,right,1.0,1.3463,0.0,12.0,12.0,12.0,1.0,2238480803-19737.jpg,2238481198-19822.jpg,A2DM8RFS86D7ZK
373,3.0,left,right,0.0,1.7355,0.0,13.0,13.0,13.0,1.0,2238480677-317399.jpg,2238480278-19661.jpg,A2DM8RFS86D7ZK
374,2.0,right,left,0.0,1.6431,0.0,14.0,14.0,14.0,1.0,2901947423-70310.jpg,2864907432-362042.jpg,A2DM8RFS86D7ZK
375,3.0,right,left,0.0,1.3754,0.0,15.0,15.0,15.0,1.0,2238117096-228518.jpg,2592380177-354626.jpg,A2DM8RFS86D7ZK
376,3.0,left,right,0.0,2.1076,0.0,16.0,16.0,16.0,1.0,2898635427-367120.jpg,2898621427-366486.jpg,A2DM8RFS86D7ZK
377,2.0,left,left,1.0,2.1679,0.0,17.0,17.0,17.0,1.0,2238425482-313537.jpg,2238436322-314047.jpg,A2DM8RFS86D7ZK
378,2.0,right,right,1.0,1.1951,0.0,18.0,18.0,18.0,1.0,2575120738-55528.jpg,2575120738-55529.jpg,A2DM8RFS86D7ZK
379,3.0,left,left,1.0,1.9585,0.0,19.0,19.0,19.0,1.0,2898633421-291973.jpg,2238550049-105691.jpg,A2DM8RFS86D7ZK
380,1.0,left,left,1.0,2.5943,0.0,20.0,20.0,20.0,1.0,2883256307-365057.jpg,2611628310-206388.jpg,A2DM8RFS86D7ZK
381,2.0,right,right,1.0,1.4717,0.0,21.0,21.0,21.0,1.0,2238563377-332054.jpg,2874303365-214262.jpg,A2DM8RFS86D7ZK
382,2.0,left,right,0.0,1.1866,0.0,22.0,22.0,22.0,1.0,2981231403-71642.jpg,2981244403-72215.jpg,A2DM8RFS86D7ZK
383,2.0,right,right,1.0,2.3698,0.0,23.0,23.0,23.0,1.0,2874299429-139694.jpg,2864910426-287204.jpg,A2DM8RFS86D7ZK
384,3.0,left,right,0.0,2.146,0.0,24.0,24.0,24.0,1.0,2898618444-142233.jpg,2898618444-142232.jpg,A2DM8RFS86D7ZK
385,3.0,right,left,0.0,3.0503,0.0,25.0,25.0,25.0,1.0,2898625336-291572.jpg,2898635428-69104.jpg,A2DM8RFS86D7ZK
386,3.0,left,right,0.0,1.2641,0.0,26.0,26.0,26.0,1.0,2898618390-216538.jpg,2575120609-129862.jpg,A2DM8RFS86D7ZK
387,2.0,left,right,0.0,1.3206,0.0,27.0,27.0,27.0,1.0,2446759803-49249.jpg,2898618440-216547.jpg,A2DM8RFS86D7ZK
388,1.0,right,left,0.0,1.4071,0.0,28.0,28.0,28.0,1.0,2883264368-67631.jpg,2874301407-363895.jpg,A2DM8RFS86D7ZK
389,1.0,left,right,0.0,1.167,0.0,29.0,29.0,29.0,1.0,2901939379-143480.jpg,2901942428-69919.jpg,A2DM8RFS86D7ZK
390,3.0,left,left,1.0,2.8662,0.0,30.0,30.0,30.0,1.0,2458347385-199723.jpg,2458347252-348911.jpg,A2DM8RFS86D7ZK
391,1.0,left,right,0.0,1.3392,0.0,31.0,31.0,31.0,1.0,2238481928-19949.jpg,2883264367-365620.jpg,A2DM8RFS86D7ZK
392,3.0,left,right,0.0,2.2016,0.0,32.0,32.0,32.0,1.0,2964218374-144967.jpg,2981231446-294732.jpg,A2DM8RFS86D7ZK
393,1.0,right,right,1.0,1.2071,0.0,33.0,33.0,33.0,1.0,2238544191-252422.jpg,2964216465-219242.jpg,A2DM8RFS86D7ZK
394,3.0,right,left,0.0,1.3789,0.0,34.0,34.0,34.0,1.0,2898632385-217139.jpg,2449442529-124446.jpg,A2DM8RFS86D7ZK
395,1.0,left,right,0.0,1.5714,0.0,35.0,35.0,35.0,1.0,2898624426-291546.jpg,2964218432-369263.jpg,A2DM8RFS86D7ZK
396,2.0,right,left,0.0,2.0426,0.0,36.0,36.0,36.0,1.0,2238571930-184143.jpg,2238572663-35822.jpg,A2DM8RFS86D7ZK
397,1.0,left,right,0.0,1.1361,0.0,37.0,37.0,37.0,1.0,2986451363-73599.jpg,2901939327-367669.jpg,A2DM8RFS86D7ZK
398,3.0,left,left,1.0,1.5096,0.0,38.0,38.0,38.0,1.0,2901952513-70703.jpg,2238481198-19821.jpg,A2DM8RFS86D7ZK
399,2.0,right,right,1.0,1.3106,0.0,39.0,39.0,39.0,1.0,2238480803-19739.jpg,2868475410-213219.jpg,A2DM8RFS86D7ZK
400,1.0,right,right,1.0,1.3462,0.0,40.0,40.0,40.0,1.0,2883268471-290843.jpg,2883268471-290842.jpg,A2DM8RFS86D7ZK
401,2.0,right,left,0.0,1.2566,0.0,41.0,41.0,41.0,1.0,2864909447-362144.jpg,2446758985-197609.jpg,A2DM8RFS86D7ZK
402,3.0,right,right,1.0,1.0589,0.0,42.0,42.0,42.0,1.0,2898628438-68785.jpg,2964223381-294447.jpg,A2DM8RFS86D7ZK
403,1.0,right,left,0.0,1.3395,0.0,43.0,43.0,43.0,1.0,2238516618-25604.jpg,2868474407-362883.jpg,A2DM8RFS86D7ZK
404,1.0,right,right,1.0,0.9775,0.0,44.0,44.0,44.0,1.0,2237944827-301472.jpg,2898634397-367080.jpg,A2DM8RFS86D7ZK
405,1.0,left,left,1.0,1.36,0.0,45.0,45.0,45.0,1.0,2874302418-65978.jpg,2898626385-216899.jpg,A2DM8RFS86D7ZK
406,1.0,right,right,1.0,1.1908,0.0,46.0,46.0,46.0,1.0,2575963989-130576.jpg,2592379964-131054.jpg,A2DM8RFS86D7ZK
407,3.0,right,right,1.0,1.2836,0.0,47.0,47.0,47.0,1.0,2238436252-314037.jpg,2883268412-365898.jpg,A2DM8RFS86D7ZK
408,3.0,right,right,1.0,1.5618,0.0,48.0,48.0,48.0,1.0,2994401319-148290.jpg,2452381505-199546.jpg,A2DM8RFS86D7ZK
409,3.0,right,left,0.0,1.7883,0.0,49.0,49.0,49.0,1.0,2575121987-353817.jpg,2238428357-313623.jpg,A2DM8RFS86D7ZK
410,2.0,left,left,1.0,1.4965,0.0,50.0,50.0,50.0,1.0,2874302418-65979.jpg,2238480648-19714.jpg,A2DM8RFS86D7ZK
411,1.0,right,left,0.0,1.8125,0.0,51.0,51.0,51.0,1.0,2883268412-365899.jpg,2449441881-272368.jpg,A2DM8RFS86D7ZK
412,2.0,right,left,0.0,1.7275,0.0,52.0,52.0,52.0,1.0,2417208001-267065.jpg,2901948350-218459.jpg,A2DM8RFS86D7ZK
413,2.0,right,left,0.0,1.8412,0.0,53.0,53.0,53.0,1.0,2981243412-370222.jpg,2901941401-292798.jpg,A2DM8RFS86D7ZK
414,2.0,right,right,1.0,1.4057,0.0,54.0,54.0,54.0,1.0,2579432534-130704.jpg,2592380177-354629.jpg,A2DM8RFS86D7ZK
415,3.0,right,right,1.0,1.7175,0.0,55.0,55.0,55.0,1.0,2964213381-294061.jpg,2964213381-294060.jpg,A2DM8RFS86D7ZK
416,1.0,left,left,1.0,1.6997,0.0,56.0,56.0,56.0,1.0,2901939379-143479.jpg,2460547467-349423.jpg,A2DM8RFS86D7ZK
417,2.0,right,right,1.0,1.2658,0.0,57.0,57.0,57.0,1.0,2868487415-213924.jpg,2460547467-349422.jpg,A2DM8RFS86D7ZK
418,1.0,right,right,1.0,1.1626,0.0,58.0,58.0,58.0,1.0,2883266388-67750.jpg,2874299429-139695.jpg,A2DM8RFS86D7ZK
419,1.0,right,left,0.0,2.43,0.0,59.0,59.0,59.0,1.0,2860312398-62572.jpg,2901947423-70311.jpg,A2DM8RFS86D7ZK
420,3.0,left,left,1.0,4.6033,0.0,0.0,0.0,0.0,1.0,2874299429-139695.jpg,2446760917-347439.jpg,A2J1DNVMJ56JG1
421,2.0,left,left,1.0,3.5282,0.0,1.0,1.0,1.0,1.0,2446758985-197609.jpg,2864909447-362144.jpg,A2J1DNVMJ56JG1
422,2.0,right,right,1.0,1.8835,0.0,2.0,2.0,2.0,1.0,2901934408-69289.jpg,2898634397-367080.jpg,A2J1DNVMJ56JG1
423,2.0,right,left,0.0,3.7114,0.0,3.0,3.0,3.0,1.0,2964210336-293945.jpg,2883256307-365057.jpg,A2J1DNVMJ56JG1
424,2.0,right,right,1.0,2.8444,0.0,4.0,4.0,4.0,1.0,2575118671-277663.jpg,2898633421-291973.jpg,A2J1DNVMJ56JG1
425,3.0,right,left,0.0,3.5117,0.0,5.0,5.0,5.0,1.0,2901941438-69835.jpg,2460547508-51571.jpg,A2J1DNVMJ56JG1
426,2.0,left,left,1.0,3.1778,0.0,6.0,6.0,6.0,1.0,2883268471-290842.jpg,2883255450-215310.jpg,A2J1DNVMJ56JG1
427,1.0,left,left,1.0,2.0512,0.0,7.0,7.0,7.0,1.0,2901948350-218459.jpg,2804906319-133082.jpg,A2J1DNVMJ56JG1
428,2.0,left,left,1.0,2.0536,0.0,8.0,8.0,8.0,1.0,2460547467-349421.jpg,2452380166-273110.jpg,A2J1DNVMJ56JG1
429,1.0,right,right,1.0,5.1593,0.0,9.0,9.0,9.0,1.0,2460547467-349423.jpg,2901939379-143479.jpg,A2J1DNVMJ56JG1
430,1.0,left,left,1.0,3.1865,0.0,10.0,10.0,10.0,1.0,2898617468-68274.jpg,2864906345-212360.jpg,A2J1DNVMJ56JG1
431,2.0,left,left,1.0,2.0456,0.0,11.0,11.0,11.0,1.0,2883268412-365898.jpg,2984615361-295510.jpg,A2J1DNVMJ56JG1
432,2.0,left,left,1.0,3.1427,0.0,12.0,12.0,12.0,1.0,2898618444-142233.jpg,2238555262-330312.jpg,A2J1DNVMJ56JG1
433,1.0,left,left,1.0,2.8262,0.0,13.0,13.0,13.0,1.0,2874303365-214262.jpg,2609793677-355397.jpg,A2J1DNVMJ56JG1
434,2.0,left,left,1.0,2.6,0.0,14.0,14.0,14.0,1.0,2874307433-66280.jpg,2981246400-220365.jpg,A2J1DNVMJ56JG1
435,1.0,left,left,1.0,3.9641,0.0,15.0,15.0,15.0,1.0,2592379964-131054.jpg,2575963989-130576.jpg,A2J1DNVMJ56JG1
436,3.0,left,right,0.0,3.002,0.0,16.0,16.0,16.0,1.0,2238580740-186218.jpg,2964220333-71258.jpg,A2J1DNVMJ56JG1
437,1.0,left,left,1.0,1.9017,0.0,17.0,17.0,17.0,1.0,2449442529-124446.jpg,2446759803-49251.jpg,A2J1DNVMJ56JG1
438,1.0,right,right,1.0,3.781,0.0,18.0,18.0,18.0,1.0,2860312398-62572.jpg,2901947423-70311.jpg,A2J1DNVMJ56JG1
439,3.0,left,left,1.0,2.078,0.0,19.0,19.0,19.0,1.0,2238428357-313623.jpg,2575121987-353817.jpg,A2J1DNVMJ56JG1
440,3.0,left,left,1.0,2.4635,0.0,20.0,20.0,20.0,1.0,2898635428-69104.jpg,2898625336-291572.jpg,A2J1DNVMJ56JG1
441,2.0,right,left,0.0,2.1199,0.0,21.0,21.0,21.0,1.0,2898618440-216547.jpg,2446759803-49249.jpg,A2J1DNVMJ56JG1
442,3.0,right,right,1.0,2.069,0.0,22.0,22.0,22.0,1.0,2427873763-47290.jpg,2981231403-71642.jpg,A2J1DNVMJ56JG1
443,3.0,left,right,0.0,2.643,0.0,23.0,23.0,23.0,1.0,2901941401-292798.jpg,2883273443-68193.jpg,A2J1DNVMJ56JG1
444,3.0,left,left,1.0,1.3524,0.0,24.0,24.0,24.0,1.0,2964218374-144967.jpg,2981231446-294732.jpg,A2J1DNVMJ56JG1
445,1.0,left,left,1.0,2.4512,0.0,25.0,25.0,25.0,1.0,2592380177-354629.jpg,2898633421-291974.jpg,A2J1DNVMJ56JG1
446,1.0,right,right,1.0,2.1073,0.0,26.0,26.0,26.0,1.0,2856919327-359676.jpg,2981241414-145842.jpg,A2J1DNVMJ56JG1
447,1.0,left,right,0.0,2.2285,0.0,27.0,27.0,27.0,1.0,2446759347-347016.jpg,2964224310-219528.jpg,A2J1DNVMJ56JG1
448,3.0,left,left,1.0,3.3303,0.0,28.0,28.0,28.0,1.0,2901939379-143480.jpg,2901938432-367629.jpg,A2J1DNVMJ56JG1
449,2.0,right,left,0.0,1.7064,0.0,29.0,29.0,29.0,1.0,2238573546-258454.jpg,2238480677-317399.jpg,A2J1DNVMJ56JG1
450,3.0,left,left,1.0,1.7798,0.0,30.0,30.0,30.0,1.0,2238572663-35822.jpg,2864903351-286874.jpg,A2J1DNVMJ56JG1
451,1.0,left,right,0.0,3.3591,0.0,31.0,31.0,31.0,1.0,2868475410-213219.jpg,2901946465-218350.jpg,A2J1DNVMJ56JG1
452,3.0,left,left,1.0,2.0617,0.0,32.0,32.0,32.0,1.0,2986451363-73599.jpg,2238434559-90406.jpg,A2J1DNVMJ56JG1
453,1.0,left,left,1.0,1.3135,0.0,33.0,33.0,33.0,1.0,2868474407-362883.jpg,2238516618-25604.jpg,A2J1DNVMJ56JG1
454,2.0,left,left,1.0,3.1835,0.0,34.0,34.0,34.0,1.0,2864907432-362042.jpg,2901947423-70310.jpg,A2J1DNVMJ56JG1
455,2.0,left,left,1.0,2.1981,0.0,35.0,35.0,35.0,1.0,2238425482-313537.jpg,2238436322-314047.jpg,A2J1DNVMJ56JG1
456,2.0,left,left,1.0,2.6367,0.0,36.0,36.0,36.0,1.0,2898618390-216538.jpg,2901939327-367670.jpg,A2J1DNVMJ56JG1
457,3.0,left,left,1.0,1.5232,0.0,37.0,37.0,37.0,1.0,2575120738-55529.jpg,2238531493-28260.jpg,A2J1DNVMJ56JG1
458,3.0,left,left,1.0,2.0446,0.0,38.0,38.0,38.0,1.0,2901952513-70703.jpg,2238481198-19821.jpg,A2J1DNVMJ56JG1
459,3.0,left,left,1.0,2.4183,0.0,39.0,39.0,39.0,1.0,2874302418-65979.jpg,2238578544-111698.jpg,A2J1DNVMJ56JG1
460,2.0,right,right,1.0,1.5485,0.0,40.0,40.0,40.0,1.0,2874299429-139694.jpg,2864910426-287204.jpg,A2J1DNVMJ56JG1
461,1.0,right,right,1.0,2.258,0.0,41.0,41.0,41.0,1.0,2238544191-252422.jpg,2964216465-219242.jpg,A2J1DNVMJ56JG1
462,1.0,left,right,0.0,2.2571,0.0,42.0,42.0,42.0,1.0,2512875899-126682.jpg,2460547536-274179.jpg,A2J1DNVMJ56JG1
463,3.0,right,right,1.0,2.5925,0.0,43.0,43.0,43.0,1.0,2449442181-272436.jpg,2452380832-348593.jpg,A2J1DNVMJ56JG1
464,1.0,right,left,0.0,1.6629,0.0,44.0,44.0,44.0,1.0,2549106624-127823.jpg,2238560245-182099.jpg,A2J1DNVMJ56JG1
465,3.0,left,left,1.0,1.2913,0.0,45.0,45.0,45.0,1.0,2883254439-140941.jpg,2981231446-294730.jpg,A2J1DNVMJ56JG1
466,3.0,left,left,1.0,3.2834,0.0,46.0,46.0,46.0,1.0,2458347385-199723.jpg,2458347252-348911.jpg,A2J1DNVMJ56JG1
467,2.0,right,left,0.0,2.3934,0.0,47.0,47.0,47.0,1.0,2986397322-371109.jpg,2874301407-363895.jpg,A2J1DNVMJ56JG1
468,3.0,left,left,1.0,1.5183,0.0,48.0,48.0,48.0,1.0,2460547467-349422.jpg,2864909447-362146.jpg,A2J1DNVMJ56JG1
469,3.0,right,right,1.0,1.6877,0.0,49.0,49.0,49.0,1.0,2898632385-217137.jpg,2449442529-124445.jpg,A2J1DNVMJ56JG1
470,1.0,left,left,1.0,1.2875,0.0,50.0,50.0,50.0,1.0,2898624426-291546.jpg,2964218432-369263.jpg,A2J1DNVMJ56JG1
471,1.0,left,right,0.0,1.3053,0.0,51.0,51.0,51.0,1.0,2964213381-294060.jpg,2981244394-145974.jpg,A2J1DNVMJ56JG1
472,3.0,right,right,1.0,1.5336,0.0,52.0,52.0,52.0,1.0,2898633321-291943.jpg,2874302418-65978.jpg,A2J1DNVMJ56JG1
473,1.0,right,right,1.0,2.3642,0.0,53.0,53.0,53.0,1.0,2901946439-144040.jpg,2898635427-367120.jpg,A2J1DNVMJ56JG1
474,2.0,left,left,1.0,2.5507,0.0,54.0,54.0,54.0,1.0,2592380177-354626.jpg,2864901386-286797.jpg,A2J1DNVMJ56JG1
475,1.0,right,left,0.0,2.7187,0.0,55.0,55.0,55.0,1.0,2901938432-367627.jpg,2452381505-199546.jpg,A2J1DNVMJ56JG1
476,2.0,left,left,1.0,2.2402,0.0,56.0,56.0,56.0,1.0,2238481928-19949.jpg,2864900357-361688.jpg,A2J1DNVMJ56JG1
477,1.0,right,left,0.0,1.8715,0.0,57.0,57.0,57.0,1.0,2883268412-365899.jpg,2449441881-272368.jpg,A2J1DNVMJ56JG1
478,2.0,right,left,0.0,4.3871,0.0,58.0,58.0,58.0,1.0,2901946436-293242.jpg,2238481198-19822.jpg,A2J1DNVMJ56JG1
479,2.0,right,left,0.0,2.3799,0.0,59.0,59.0,59.0,1.0,2901941438-69836.jpg,2964223381-294447.jpg,A2J1DNVMJ56JG1
480,3.0,right,right,1.0,2.687,0.0,0.0,0.0,0.0,1.0,2981235446-294901.jpg,2460547467-349421.jpg,A2J57IBR2XIWLS
481,3.0,left,right,0.0,1.63,0.0,1.0,1.0,1.0,1.0,2964216465-219242.jpg,2898619327-366362.jpg,A2J57IBR2XIWLS
482,2.0,left,right,0.0,2.035,0.0,2.0,2.0,2.0,1.0,2592380177-354626.jpg,2864901386-286797.jpg,A2J57IBR2XIWLS
483,1.0,left,left,1.0,1.466,0.0,3.0,3.0,3.0,1.0,2901939379-143480.jpg,2901942428-69919.jpg,A2J57IBR2XIWLS
484,2.0,right,right,1.0,1.853,0.0,4.0,4.0,4.0,1.0,2868487415-213924.jpg,2460547467-349422.jpg,A2J57IBR2XIWLS
485,1.0,right,right,1.0,1.449,0.0,5.0,5.0,5.0,1.0,2238499057-320266.jpg,2238428357-313623.jpg,A2J57IBR2XIWLS
486,3.0,right,right,1.0,1.575,0.0,6.0,6.0,6.0,1.0,2238436252-314037.jpg,2883268412-365898.jpg,A2J57IBR2XIWLS
487,2.0,right,left,0.0,1.413,0.0,7.0,7.0,7.0,1.0,2981246400-220363.jpg,2868474407-362883.jpg,A2J57IBR2XIWLS
488,2.0,right,right,1.0,1.286,0.0,8.0,8.0,8.0,1.0,2860302315-210704.jpg,2986451363-73599.jpg,A2J57IBR2XIWLS
489,1.0,left,right,0.0,1.439,0.0,9.0,9.0,9.0,1.0,2898624426-291546.jpg,2964218432-369263.jpg,A2J57IBR2XIWLS
490,3.0,left,right,0.0,1.264,0.0,10.0,10.0,10.0,1.0,2868475410-213219.jpg,2868474407-362885.jpg,A2J57IBR2XIWLS
491,3.0,left,left,1.0,2.327,0.0,11.0,11.0,11.0,1.0,2238480677-317399.jpg,2238480278-19661.jpg,A2J57IBR2XIWLS
492,1.0,right,right,1.0,1.465,0.0,12.0,12.0,12.0,1.0,2575963989-130576.jpg,2592379964-131054.jpg,A2J57IBR2XIWLS
493,1.0,left,right,0.0,1.514,0.0,13.0,13.0,13.0,1.0,2864907432-362042.jpg,2864901420-212147.jpg,A2J57IBR2XIWLS
494,3.0,right,right,1.0,1.62,0.0,14.0,14.0,14.0,1.0,2981231446-294730.jpg,2883254439-140941.jpg,A2J57IBR2XIWLS
495,1.0,left,right,0.0,1.851,0.0,15.0,15.0,15.0,1.0,2575120738-55529.jpg,2898632385-217138.jpg,A2J57IBR2XIWLS
496,2.0,right,left,0.0,1.316,0.0,16.0,16.0,16.0,1.0,2981243412-370222.jpg,2901941401-292798.jpg,A2J57IBR2XIWLS
497,3.0,right,left,0.0,1.874,0.0,17.0,17.0,17.0,1.0,2986447332-371497.jpg,2512875899-126682.jpg,A2J57IBR2XIWLS
498,2.0,left,left,1.0,1.33,0.0,18.0,18.0,18.0,1.0,2898633421-291973.jpg,2575118671-277663.jpg,A2J57IBR2XIWLS
499,3.0,right,right,1.0,1.112,0.0,19.0,19.0,19.0,1.0,2994401319-148290.jpg,2452381505-199546.jpg,A2J57IBR2XIWLS
500,3.0,right,right,1.0,1.564,0.0,20.0,20.0,20.0,1.0,2981231446-294732.jpg,2964218374-144967.jpg,A2J57IBR2XIWLS
501,2.0,left,right,0.0,1.99,0.0,21.0,21.0,21.0,1.0,2460547508-51571.jpg,2981232437-369759.jpg,A2J57IBR2XIWLS
502,2.0,left,left,1.0,1.521,0.0,22.0,22.0,22.0,1.0,2592380177-354629.jpg,2579432534-130704.jpg,A2J57IBR2XIWLS
503,2.0,left,left,1.0,2.06,0.0,23.0,23.0,23.0,1.0,2452380832-348593.jpg,2238481813-19930.jpg,A2J57IBR2XIWLS
504,2.0,left,right,0.0,1.15,0.0,24.0,24.0,24.0,1.0,2446759803-49249.jpg,2898618440-216547.jpg,A2J57IBR2XIWLS
505,1.0,right,right,1.0,1.867,0.0,25.0,25.0,25.0,1.0,2883266388-67750.jpg,2874299429-139695.jpg,A2J57IBR2XIWLS
506,3.0,right,left,0.0,1.508,0.0,26.0,26.0,26.0,1.0,2964213381-294061.jpg,2964213381-294060.jpg,A2J57IBR2XIWLS
507,1.0,right,left,0.0,1.68,0.0,27.0,27.0,27.0,1.0,2864902304-137862.jpg,2864910426-287204.jpg,A2J57IBR2XIWLS
508,1.0,right,right,1.0,1.525,0.0,28.0,28.0,28.0,1.0,2427874231-269884.jpg,2964223381-294447.jpg,A2J57IBR2XIWLS
509,3.0,right,right,1.0,1.891,0.0,29.0,29.0,29.0,1.0,2427873763-47290.jpg,2981231403-71642.jpg,A2J57IBR2XIWLS
510,3.0,right,right,1.0,1.752,0.0,30.0,30.0,30.0,1.0,2898633321-291943.jpg,2874302418-65978.jpg,A2J57IBR2XIWLS
511,3.0,left,left,1.0,1.377,0.0,31.0,31.0,31.0,1.0,2458347385-199723.jpg,2458347252-348911.jpg,A2J57IBR2XIWLS
512,2.0,right,left,0.0,2.079,0.0,32.0,32.0,32.0,1.0,2874314526-289684.jpg,2238560245-182099.jpg,A2J57IBR2XIWLS
513,2.0,right,right,1.0,1.808,0.0,33.0,33.0,33.0,1.0,2460547536-274181.jpg,2449442529-124446.jpg,A2J57IBR2XIWLS
514,1.0,left,right,0.0,1.607,0.0,34.0,34.0,34.0,1.0,2874307433-66280.jpg,2986447306-296584.jpg,A2J57IBR2XIWLS
515,1.0,left,left,1.0,1.43,0.0,35.0,35.0,35.0,1.0,2898634397-367080.jpg,2237944827-301472.jpg,A2J57IBR2XIWLS
516,3.0,left,left,1.0,1.694,0.0,36.0,36.0,36.0,1.0,2898618444-142233.jpg,2898618444-142232.jpg,A2J57IBR2XIWLS
517,2.0,right,left,0.0,2.343,0.0,37.0,37.0,37.0,1.0,2238571930-184143.jpg,2238572663-35822.jpg,A2J57IBR2XIWLS
518,3.0,right,right,1.0,1.395,0.0,38.0,38.0,38.0,1.0,2898621427-366486.jpg,2898635427-367120.jpg,A2J57IBR2XIWLS
519,1.0,left,left,1.0,1.935,0.0,39.0,39.0,39.0,1.0,2898617468-68274.jpg,2864906345-212360.jpg,A2J57IBR2XIWLS
520,1.0,left,left,1.0,2.028,0.0,40.0,40.0,40.0,1.0,2238481928-19949.jpg,2883264367-365620.jpg,A2J57IBR2XIWLS
521,2.0,right,left,0.0,1.721,0.0,41.0,41.0,41.0,1.0,2901943411-292945.jpg,2898635428-69104.jpg,A2J57IBR2XIWLS
522,1.0,right,right,1.0,1.814,0.0,42.0,42.0,42.0,1.0,2611628310-206388.jpg,2883256307-365057.jpg,A2J57IBR2XIWLS
523,2.0,left,left,1.0,1.767,0.0,43.0,43.0,43.0,1.0,2449442529-124445.jpg,2986408373-73286.jpg,A2J57IBR2XIWLS
524,3.0,left,right,0.0,1.668,0.0,44.0,44.0,44.0,1.0,2901952513-70703.jpg,2238481198-19821.jpg,A2J57IBR2XIWLS
525,3.0,left,right,0.0,1.534,0.0,45.0,45.0,45.0,1.0,2449441881-272368.jpg,2449441881-272367.jpg,A2J57IBR2XIWLS
526,3.0,right,right,1.0,1.781,0.0,46.0,46.0,46.0,1.0,2864911457-362260.jpg,2874303365-214262.jpg,A2J57IBR2XIWLS
527,3.0,left,left,1.0,1.459,0.0,47.0,47.0,47.0,1.0,2901948350-218459.jpg,2981246360-220352.jpg,A2J57IBR2XIWLS
528,2.0,left,right,0.0,1.555,0.0,48.0,48.0,48.0,1.0,2898618390-216538.jpg,2901939327-367670.jpg,A2J57IBR2XIWLS
529,1.0,right,right,1.0,1.819,0.0,49.0,49.0,49.0,1.0,2413147898-43548.jpg,2874302418-65979.jpg,A2J57IBR2XIWLS
530,1.0,right,right,1.0,1.55,0.0,50.0,50.0,50.0,1.0,2460547467-349423.jpg,2901939379-143479.jpg,A2J57IBR2XIWLS
531,1.0,left,left,1.0,1.469,0.0,51.0,51.0,51.0,1.0,2446758985-197609.jpg,2981240424-145795.jpg,A2J57IBR2XIWLS
532,2.0,left,left,1.0,1.633,0.0,52.0,52.0,52.0,1.0,2874301407-363895.jpg,2986397322-371109.jpg,A2J57IBR2XIWLS
533,1.0,left,left,1.0,1.475,0.0,53.0,53.0,53.0,1.0,2238425482-313537.jpg,2238471391-240918.jpg,A2J57IBR2XIWLS
534,1.0,left,left,1.0,1.342,0.0,54.0,54.0,54.0,1.0,2883268471-290842.jpg,2883268471-290843.jpg,A2J57IBR2XIWLS
535,2.0,right,right,1.0,1.723,0.0,55.0,55.0,55.0,1.0,2901951350-218702.jpg,2446759347-347016.jpg,A2J57IBR2XIWLS
536,3.0,right,left,0.0,1.722,0.0,56.0,56.0,56.0,1.0,2964220333-71258.jpg,2238580740-186218.jpg,A2J57IBR2XIWLS
537,2.0,right,left,0.0,1.604,0.0,57.0,57.0,57.0,1.0,2238573447-333826.jpg,2901947423-70311.jpg,A2J57IBR2XIWLS
538,1.0,left,left,1.0,1.722,0.0,58.0,58.0,58.0,1.0,2238481198-19822.jpg,2862691449-137104.jpg,A2J57IBR2XIWLS
539,2.0,left,right,0.0,1.552,0.0,59.0,59.0,59.0,1.0,2981241414-145842.jpg,2874301404-139813.jpg,A2J57IBR2XIWLS
540,1.0,left,left,1.0,2.759,0.0,0.0,0.0,0.0,1.0,2901939379-143480.jpg,2901942428-69919.jpg,A2QCULU8SNUD1R
541,2.0,left,left,1.0,2.061,0.0,1.0,1.0,1.0,1.0,2868475410-213219.jpg,2238480803-19739.jpg,A2QCULU8SNUD1R
542,1.0,left,right,0.0,1.586,0.0,2.0,2.0,2.0,1.0,2575120738-55529.jpg,2898632385-217138.jpg,A2QCULU8SNUD1R
543,1.0,left,right,0.0,1.947,0.0,3.0,3.0,3.0,1.0,2460547467-349422.jpg,2898618440-216545.jpg,A2QCULU8SNUD1R
544,2.0,left,right,0.0,2.043,0.0,4.0,4.0,4.0,1.0,2874302418-65979.jpg,2238480648-19714.jpg,A2QCULU8SNUD1R
545,3.0,left,left,1.0,1.86,0.0,5.0,5.0,5.0,1.0,2452381505-199546.jpg,2994401319-148290.jpg,A2QCULU8SNUD1R
546,1.0,left,right,0.0,1.953,0.0,6.0,6.0,6.0,1.0,2238580740-186218.jpg,2238550816-254000.jpg,A2QCULU8SNUD1R
547,2.0,right,right,1.0,1.795,0.0,7.0,7.0,7.0,1.0,2238481198-19823.jpg,2874302418-65978.jpg,A2QCULU8SNUD1R
548,2.0,right,right,1.0,1.861,0.0,8.0,8.0,8.0,1.0,2575118671-277663.jpg,2898633421-291973.jpg,A2QCULU8SNUD1R
549,2.0,right,right,1.0,1.977,0.0,9.0,9.0,9.0,1.0,2874301404-139813.jpg,2981241414-145842.jpg,A2QCULU8SNUD1R
550,3.0,right,right,1.0,1.523,0.0,10.0,10.0,10.0,1.0,2449442181-272436.jpg,2452380832-348593.jpg,A2QCULU8SNUD1R
551,2.0,right,left,0.0,1.188,0.0,11.0,11.0,11.0,1.0,2238555262-330312.jpg,2898618444-142233.jpg,A2QCULU8SNUD1R
552,1.0,right,right,1.0,1.197,0.0,12.0,12.0,12.0,1.0,2864907361-287062.jpg,2901952513-70703.jpg,A2QCULU8SNUD1R
553,3.0,right,right,1.0,1.411,0.0,13.0,13.0,13.0,1.0,2981231422-369714.jpg,2874307433-66280.jpg,A2QCULU8SNUD1R
554,1.0,left,left,1.0,1.516,0.0,14.0,14.0,14.0,1.0,2986451363-73599.jpg,2901939327-367669.jpg,A2QCULU8SNUD1R
555,3.0,left,right,0.0,0.789,0.0,15.0,15.0,15.0,1.0,2446759803-49249.jpg,2452380166-273109.jpg,A2QCULU8SNUD1R
556,1.0,left,right,0.0,1.359,0.0,16.0,16.0,16.0,1.0,2901941401-292798.jpg,2898618327-366317.jpg,A2QCULU8SNUD1R
557,2.0,left,left,1.0,0.908,0.0,17.0,17.0,17.0,1.0,2883256307-365057.jpg,2964210336-293945.jpg,A2QCULU8SNUD1R
558,2.0,left,right,0.0,0.679,0.0,18.0,18.0,18.0,1.0,2460547508-51571.jpg,2981232437-369759.jpg,A2QCULU8SNUD1R
559,1.0,right,left,0.0,1.343,0.0,19.0,19.0,19.0,1.0,2237944827-301472.jpg,2898634397-367080.jpg,A2QCULU8SNUD1R
560,3.0,right,right,1.0,0.727,0.0,20.0,20.0,20.0,1.0,2901948383-70363.jpg,2868474407-362883.jpg,A2QCULU8SNUD1R
561,3.0,left,left,1.0,1.257,0.0,21.0,21.0,21.0,1.0,2883268412-365898.jpg,2238436252-314037.jpg,A2QCULU8SNUD1R
562,2.0,left,right,0.0,0.558,0.0,22.0,22.0,22.0,1.0,2238481198-19822.jpg,2901946436-293242.jpg,A2QCULU8SNUD1R
563,2.0,left,right,0.0,2.159,0.0,23.0,23.0,23.0,1.0,2446759347-347016.jpg,2901951350-218702.jpg,A2QCULU8SNUD1R
564,3.0,right,right,1.0,2.079,0.0,24.0,24.0,24.0,1.0,2901939433-69672.jpg,2864910426-287204.jpg,A2QCULU8SNUD1R
565,2.0,right,left,0.0,1.613,0.0,25.0,25.0,25.0,1.0,2238479053-19457.jpg,2592379964-131054.jpg,A2QCULU8SNUD1R
566,2.0,left,left,1.0,2.138,0.0,26.0,26.0,26.0,1.0,2901948350-218459.jpg,2417208001-267065.jpg,A2QCULU8SNUD1R
567,2.0,left,right,0.0,1.162,0.0,27.0,27.0,27.0,1.0,2883268471-290842.jpg,2883255450-215310.jpg,A2QCULU8SNUD1R
568,3.0,right,left,0.0,1.311,0.0,28.0,28.0,28.0,1.0,2964207374-144577.jpg,2898617468-68274.jpg,A2QCULU8SNUD1R
569,2.0,left,right,0.0,0.789,0.0,29.0,29.0,29.0,1.0,2238560245-182099.jpg,2874314526-289684.jpg,A2QCULU8SNUD1R
570,3.0,right,left,0.0,1.054,0.0,30.0,30.0,30.0,1.0,2898632385-217139.jpg,2449442529-124446.jpg,A2QCULU8SNUD1R
571,2.0,right,left,0.0,1.194,0.0,31.0,31.0,31.0,1.0,2901939327-367670.jpg,2898618390-216538.jpg,A2QCULU8SNUD1R
572,1.0,right,right,1.0,0.752,0.0,32.0,32.0,32.0,1.0,2460547536-274179.jpg,2512875899-126682.jpg,A2QCULU8SNUD1R
573,1.0,left,left,1.0,0.26,0.0,33.0,33.0,33.0,1.0,2449442529-124445.jpg,2452380171-273112.jpg,A2QCULU8SNUD1R
574,2.0,right,left,0.0,1.074,0.0,34.0,34.0,34.0,1.0,2864900319-137787.jpg,2964216465-219242.jpg,A2QCULU8SNUD1R
575,1.0,left,right,0.0,1.438,0.0,35.0,35.0,35.0,1.0,2238572663-35822.jpg,2986419333-73361.jpg,A2QCULU8SNUD1R
576,2.0,left,left,1.0,0.768,0.0,36.0,36.0,36.0,1.0,2238425482-313537.jpg,2238436322-314047.jpg,A2QCULU8SNUD1R
577,3.0,left,left,1.0,1.389,0.0,37.0,37.0,37.0,1.0,2964213381-294060.jpg,2964213381-294061.jpg,A2QCULU8SNUD1R
578,3.0,left,left,1.0,1.709,0.0,38.0,38.0,38.0,1.0,2238480677-317399.jpg,2238480278-19661.jpg,A2QCULU8SNUD1R
579,1.0,left,right,0.0,0.719,0.0,39.0,39.0,39.0,1.0,2592380177-354629.jpg,2898633421-291974.jpg,A2QCULU8SNUD1R
580,3.0,left,left,1.0,1.521,0.0,40.0,40.0,40.0,1.0,2446758985-197609.jpg,2898624426-291544.jpg,A2QCULU8SNUD1R
581,3.0,left,right,0.0,0.486,0.0,41.0,41.0,41.0,1.0,2238481928-19949.jpg,2981241419-145844.jpg,A2QCULU8SNUD1R
582,2.0,right,left,0.0,1.264,0.0,42.0,42.0,42.0,1.0,2981244403-72215.jpg,2981231403-71642.jpg,A2QCULU8SNUD1R
583,1.0,right,right,1.0,0.972,0.0,43.0,43.0,43.0,1.0,2864901420-212147.jpg,2864907432-362042.jpg,A2QCULU8SNUD1R
584,1.0,right,left,0.0,1.405,0.0,44.0,44.0,44.0,1.0,2898631394-142727.jpg,2460547467-349421.jpg,A2QCULU8SNUD1R
585,3.0,left,right,0.0,1.465,0.0,45.0,45.0,45.0,1.0,2964223381-294447.jpg,2898628438-68785.jpg,A2QCULU8SNUD1R
586,3.0,right,left,0.0,1.191,0.0,46.0,46.0,46.0,1.0,2981235446-294900.jpg,2898624426-291546.jpg,A2QCULU8SNUD1R
587,2.0,right,right,1.0,1.66,0.0,47.0,47.0,47.0,1.0,2446758985-197610.jpg,2901939379-143479.jpg,A2QCULU8SNUD1R
588,3.0,left,left,1.0,2.045,0.0,48.0,48.0,48.0,1.0,2238428357-313623.jpg,2575121987-353817.jpg,A2QCULU8SNUD1R
589,3.0,right,left,0.0,1.854,0.0,49.0,49.0,49.0,1.0,2898625336-291572.jpg,2898635428-69104.jpg,A2QCULU8SNUD1R
590,1.0,left,left,1.0,1.022,0.0,50.0,50.0,50.0,1.0,2874299429-139695.jpg,2883266388-67750.jpg,A2QCULU8SNUD1R
591,1.0,right,right,1.0,1.176,0.0,51.0,51.0,51.0,1.0,2964218374-144968.jpg,2964218374-144967.jpg,A2QCULU8SNUD1R
592,2.0,left,left,1.0,1.446,0.0,52.0,52.0,52.0,1.0,2449441881-272368.jpg,2984615358-72439.jpg,A2QCULU8SNUD1R
593,3.0,right,right,1.0,2.221,0.0,53.0,53.0,53.0,1.0,2458347252-348911.jpg,2458347385-199723.jpg,A2QCULU8SNUD1R
594,3.0,left,left,1.0,1.381,0.0,54.0,54.0,54.0,1.0,2874303365-214262.jpg,2864911457-362260.jpg,A2QCULU8SNUD1R
595,1.0,left,right,0.0,1.609,0.0,55.0,55.0,55.0,1.0,2592380177-354626.jpg,2986408339-146952.jpg,A2QCULU8SNUD1R
596,3.0,right,left,0.0,1.537,0.0,56.0,56.0,56.0,1.0,2901947323-70275.jpg,2874301407-363895.jpg,A2QCULU8SNUD1R
597,1.0,right,right,1.0,2.127,0.0,57.0,57.0,57.0,1.0,2446760844-124088.jpg,2883254439-140941.jpg,A2QCULU8SNUD1R
598,1.0,left,left,1.0,1.702,0.0,58.0,58.0,58.0,1.0,2901947423-70311.jpg,2860312398-62572.jpg,A2QCULU8SNUD1R
599,1.0,left,right,0.0,0.806,0.0,59.0,59.0,59.0,1.0,2898635427-367120.jpg,2901946439-144040.jpg,A2QCULU8SNUD1R
600,2.0,left,left,1.0,24.5332,0.0,0.0,0.0,0.0,1.0,2238425482-313537.jpg,2238436322-314047.jpg,A2VY5GKTXHLC8Q
601,3.0,right,left,0.0,5.3717,0.0,1.0,1.0,1.0,1.0,2898632385-217137.jpg,2449442529-124445.jpg,A2VY5GKTXHLC8Q
602,3.0,left,left,1.0,2.6573,0.0,2.0,2.0,2.0,1.0,2874303365-214262.jpg,2864911457-362260.jpg,A2VY5GKTXHLC8Q
603,2.0,left,right,0.0,6.5591,0.0,3.0,3.0,3.0,1.0,2874302418-65978.jpg,2238481198-19823.jpg,A2VY5GKTXHLC8Q
604,2.0,right,left,0.0,4.5851,0.0,4.0,4.0,4.0,1.0,2981236443-71859.jpg,2898624426-291546.jpg,A2VY5GKTXHLC8Q
605,1.0,left,right,0.0,4.244,0.0,5.0,5.0,5.0,1.0,2868475410-213219.jpg,2901946465-218350.jpg,A2VY5GKTXHLC8Q
606,1.0,left,left,1.0,4.9709,0.0,6.0,6.0,6.0,1.0,2575120738-55529.jpg,2898632385-217138.jpg,A2VY5GKTXHLC8Q
607,3.0,right,left,0.0,3.1438,0.0,7.0,7.0,7.0,1.0,2238550049-105691.jpg,2898633421-291973.jpg,A2VY5GKTXHLC8Q
608,1.0,left,left,1.0,2.7621,0.0,8.0,8.0,8.0,1.0,2446758985-197609.jpg,2981240424-145795.jpg,A2VY5GKTXHLC8Q
609,1.0,left,left,1.0,1.998,0.0,9.0,9.0,9.0,1.0,2898635427-367120.jpg,2901946439-144040.jpg,A2VY5GKTXHLC8Q
610,1.0,right,right,1.0,2.7731,0.0,10.0,10.0,10.0,1.0,2460547291-274110.jpg,2460547508-51571.jpg,A2VY5GKTXHLC8Q
611,3.0,left,right,0.0,2.7075,0.0,11.0,11.0,11.0,1.0,2964218374-144967.jpg,2981231446-294732.jpg,A2VY5GKTXHLC8Q
612,2.0,left,left,1.0,2.005,0.0,12.0,12.0,12.0,1.0,2238480677-317399.jpg,2238573546-258454.jpg,A2VY5GKTXHLC8Q
613,3.0,left,left,1.0,1.6162,0.0,13.0,13.0,13.0,1.0,2964223381-294447.jpg,2898628438-68785.jpg,A2VY5GKTXHLC8Q
614,3.0,right,left,0.0,1.8686,0.0,14.0,14.0,14.0,1.0,2981231422-369714.jpg,2874307433-66280.jpg,A2VY5GKTXHLC8Q
615,1.0,left,left,1.0,5.0012,0.0,15.0,15.0,15.0,1.0,2898618444-142233.jpg,2898631359-142721.jpg,A2VY5GKTXHLC8Q
616,2.0,right,left,0.0,2.082,0.0,16.0,16.0,16.0,1.0,2417208001-267065.jpg,2901948350-218459.jpg,A2VY5GKTXHLC8Q
617,1.0,left,left,1.0,1.7827,0.0,17.0,17.0,17.0,1.0,2901941401-292798.jpg,2898618327-366317.jpg,A2VY5GKTXHLC8Q
618,2.0,right,left,0.0,2.3766,0.0,18.0,18.0,18.0,1.0,2427874554-121863.jpg,2458347385-199723.jpg,A2VY5GKTXHLC8Q
619,1.0,left,right,0.0,2.1516,0.0,19.0,19.0,19.0,1.0,2898634397-367080.jpg,2237944827-301472.jpg,A2VY5GKTXHLC8Q
620,3.0,right,right,1.0,2.1421,0.0,20.0,20.0,20.0,1.0,2449442181-272436.jpg,2452380832-348593.jpg,A2VY5GKTXHLC8Q
621,1.0,right,right,1.0,1.8722,0.0,21.0,21.0,21.0,1.0,2964224310-219528.jpg,2446759347-347016.jpg,A2VY5GKTXHLC8Q
622,3.0,left,right,0.0,2.8309,0.0,22.0,22.0,22.0,1.0,2898617468-68274.jpg,2964207374-144577.jpg,A2VY5GKTXHLC8Q
623,1.0,left,right,0.0,3.1322,0.0,23.0,23.0,23.0,1.0,2864907432-362042.jpg,2864901420-212147.jpg,A2VY5GKTXHLC8Q
624,3.0,left,right,0.0,2.5564,0.0,24.0,24.0,24.0,1.0,2883256307-365057.jpg,2864904453-63933.jpg,A2VY5GKTXHLC8Q
625,3.0,right,left,0.0,2.2096,0.0,25.0,25.0,25.0,1.0,2238481198-19821.jpg,2901952513-70703.jpg,A2VY5GKTXHLC8Q
626,1.0,left,left,1.0,1.7732,0.0,26.0,26.0,26.0,1.0,2901939379-143480.jpg,2901942428-69919.jpg,A2VY5GKTXHLC8Q
627,1.0,left,right,0.0,1.8407,0.0,27.0,27.0,27.0,1.0,2238481198-19822.jpg,2862691449-137104.jpg,A2VY5GKTXHLC8Q
628,2.0,left,right,0.0,1.9402,0.0,28.0,28.0,28.0,1.0,2460547467-349422.jpg,2868487415-213924.jpg,A2VY5GKTXHLC8Q
629,2.0,right,left,0.0,2.313,0.0,29.0,29.0,29.0,1.0,2981244403-72215.jpg,2981231403-71642.jpg,A2VY5GKTXHLC8Q
630,3.0,right,left,0.0,2.2983,0.0,30.0,30.0,30.0,1.0,2238578544-111698.jpg,2874302418-65979.jpg,A2VY5GKTXHLC8Q
631,1.0,right,left,0.0,1.8708,0.0,31.0,31.0,31.0,1.0,2549106624-127823.jpg,2238560245-182099.jpg,A2VY5GKTXHLC8Q
632,2.0,left,left,1.0,1.8106,0.0,32.0,32.0,32.0,1.0,2449442529-124446.jpg,2460547536-274181.jpg,A2VY5GKTXHLC8Q
633,3.0,left,right,0.0,1.9778,0.0,33.0,33.0,33.0,1.0,2874301407-363895.jpg,2901947323-70275.jpg,A2VY5GKTXHLC8Q
634,1.0,left,right,0.0,3.1445,0.0,34.0,34.0,34.0,1.0,2864910426-287204.jpg,2864902304-137862.jpg,A2VY5GKTXHLC8Q
635,2.0,right,right,1.0,2.3007,0.0,35.0,35.0,35.0,1.0,2901942443-69923.jpg,2874299429-139695.jpg,A2VY5GKTXHLC8Q
636,2.0,left,right,0.0,1.8441,0.0,36.0,36.0,36.0,1.0,2452381505-199546.jpg,2238567168-34916.jpg,A2VY5GKTXHLC8Q
637,3.0,right,right,1.0,2.0557,0.0,37.0,37.0,37.0,1.0,2898619327-366362.jpg,2964216465-219242.jpg,A2VY5GKTXHLC8Q
638,3.0,right,right,1.0,2.2652,0.0,38.0,38.0,38.0,1.0,2449441881-272367.jpg,2449441881-272368.jpg,A2VY5GKTXHLC8Q
639,2.0,right,right,1.0,2.126,0.0,39.0,39.0,39.0,1.0,2238479053-19457.jpg,2592379964-131054.jpg,A2VY5GKTXHLC8Q
640,1.0,right,right,1.0,1.861,0.0,40.0,40.0,40.0,1.0,2898633421-291974.jpg,2592380177-354629.jpg,A2VY5GKTXHLC8Q
641,3.0,right,right,1.0,1.9535,0.0,41.0,41.0,41.0,1.0,2575121987-353817.jpg,2238428357-313623.jpg,A2VY5GKTXHLC8Q
642,2.0,left,right,0.0,5.1418,0.0,42.0,42.0,42.0,1.0,2238481928-19949.jpg,2864900357-361688.jpg,A2VY5GKTXHLC8Q
643,3.0,left,left,1.0,2.4468,0.0,43.0,43.0,43.0,1.0,2460547467-349421.jpg,2981235446-294901.jpg,A2VY5GKTXHLC8Q
644,3.0,left,left,1.0,2.1537,0.0,44.0,44.0,44.0,1.0,2238580740-186218.jpg,2964220333-71258.jpg,A2VY5GKTXHLC8Q
645,1.0,right,left,0.0,2.2279,0.0,45.0,45.0,45.0,1.0,2986449336-296644.jpg,2898618390-216538.jpg,A2VY5GKTXHLC8Q
646,3.0,left,left,1.0,1.6455,0.0,46.0,46.0,46.0,1.0,2901947423-70311.jpg,2238577590-185467.jpg,A2VY5GKTXHLC8Q
647,2.0,left,left,1.0,2.1311,0.0,47.0,47.0,47.0,1.0,2981241414-145842.jpg,2874301404-139813.jpg,A2VY5GKTXHLC8Q
648,2.0,left,left,1.0,1.8939,0.0,48.0,48.0,48.0,1.0,2986451363-73599.jpg,2860302315-210704.jpg,A2VY5GKTXHLC8Q
649,3.0,left,right,0.0,2.3437,0.0,49.0,49.0,49.0,1.0,2964213381-294060.jpg,2964213381-294061.jpg,A2VY5GKTXHLC8Q
650,3.0,right,right,1.0,3.6215,0.0,50.0,50.0,50.0,1.0,2986447332-371497.jpg,2512875899-126682.jpg,A2VY5GKTXHLC8Q
651,2.0,right,left,0.0,1.9695,0.0,51.0,51.0,51.0,1.0,2238571930-184143.jpg,2238572663-35822.jpg,A2VY5GKTXHLC8Q
652,2.0,right,left,0.0,1.4987,0.0,52.0,52.0,52.0,1.0,2984615361-295510.jpg,2883268412-365898.jpg,A2VY5GKTXHLC8Q
653,2.0,right,left,0.0,2.1562,0.0,53.0,53.0,53.0,1.0,2901943411-292945.jpg,2898635428-69104.jpg,A2VY5GKTXHLC8Q
654,1.0,left,left,1.0,1.4666,0.0,54.0,54.0,54.0,1.0,2592380177-354626.jpg,2986408339-146952.jpg,A2VY5GKTXHLC8Q
655,2.0,right,right,1.0,4.6555,0.0,55.0,55.0,55.0,1.0,2898632385-217136.jpg,2883254439-140941.jpg,A2VY5GKTXHLC8Q
656,1.0,right,right,1.0,2.2383,0.0,56.0,56.0,56.0,1.0,2238516618-25604.jpg,2868474407-362883.jpg,A2VY5GKTXHLC8Q
657,1.0,right,right,1.0,2.2384,0.0,57.0,57.0,57.0,1.0,2446760601-272099.jpg,2446759803-49249.jpg,A2VY5GKTXHLC8Q
658,1.0,right,left,0.0,2.2398,0.0,58.0,58.0,58.0,1.0,2883268471-290843.jpg,2883268471-290842.jpg,A2VY5GKTXHLC8Q
659,2.0,right,right,1.0,4.5656,0.0,59.0,59.0,59.0,1.0,2446758985-197610.jpg,2901939379-143479.jpg,A2VY5GKTXHLC8Q
660,1.0,right,right,1.0,13.6051,0.0,0.0,0.0,0.0,1.0,2611628310-206388.jpg,2883256307-365057.jpg,A30MACY2H1OFFY
661,1.0,right,right,1.0,3.7248,0.0,1.0,1.0,1.0,1.0,2964218432-369263.jpg,2898624426-291546.jpg,A30MACY2H1OFFY
662,3.0,right,right,1.0,2.6993,0.0,2.0,2.0,2.0,1.0,2964207374-144577.jpg,2898617468-68274.jpg,A30MACY2H1OFFY
663,1.0,right,right,1.0,1.8074,0.0,3.0,3.0,3.0,1.0,2238499057-320266.jpg,2238428357-313623.jpg,A30MACY2H1OFFY
664,2.0,right,left,0.0,6.4521,0.0,4.0,4.0,4.0,1.0,2984615361-295510.jpg,2883268412-365898.jpg,A30MACY2H1OFFY
665,1.0,right,right,1.0,2.709400001,0.0,5.0,5.0,5.0,1.0,2898618440-216545.jpg,2460547467-349422.jpg,A30MACY2H1OFFY
666,1.0,right,left,0.0,2.7711,0.0,6.0,6.0,6.0,1.0,2981244394-145974.jpg,2964213381-294060.jpg,A30MACY2H1OFFY
667,3.0,right,left,0.0,3.854099999,0.0,7.0,7.0,7.0,1.0,2449441881-272367.jpg,2449441881-272368.jpg,A30MACY2H1OFFY
668,3.0,left,left,1.0,2.581299999,0.0,8.0,8.0,8.0,1.0,2592379964-131054.jpg,2592380272-354673.jpg,A30MACY2H1OFFY
669,3.0,left,right,0.0,2.182599999,0.0,9.0,9.0,9.0,1.0,2964216465-219242.jpg,2898619327-366362.jpg,A30MACY2H1OFFY
670,1.0,right,left,0.0,4.0068,0.0,10.0,10.0,10.0,1.0,2413147898-43548.jpg,2874302418-65979.jpg,A30MACY2H1OFFY
671,1.0,left,right,0.0,2.000599999,0.0,11.0,11.0,11.0,1.0,2238572663-35822.jpg,2986419333-73361.jpg,A30MACY2H1OFFY
672,3.0,left,right,0.0,2.277,0.0,12.0,12.0,12.0,1.0,2901952513-70703.jpg,2238481198-19821.jpg,A30MACY2H1OFFY
673,2.0,left,left,1.0,1.8538,0.0,13.0,13.0,13.0,1.0,2592380177-354626.jpg,2864901386-286797.jpg,A30MACY2H1OFFY
674,3.0,right,right,1.0,1.53,0.0,14.0,14.0,14.0,1.0,2449442181-272436.jpg,2452380832-348593.jpg,A30MACY2H1OFFY
675,3.0,left,left,1.0,5.237299999,0.0,15.0,15.0,15.0,1.0,2874307433-66280.jpg,2981231422-369714.jpg,A30MACY2H1OFFY
676,2.0,right,right,1.0,1.8906,0.0,16.0,16.0,16.0,1.0,2460547536-274181.jpg,2449442529-124446.jpg,A30MACY2H1OFFY
677,1.0,left,right,0.0,2.0322,0.0,17.0,17.0,17.0,1.0,2874303365-214262.jpg,2609793677-355397.jpg,A30MACY2H1OFFY
678,3.0,left,left,1.0,2.398,0.0,18.0,18.0,18.0,1.0,2864910426-287204.jpg,2901939433-69672.jpg,A30MACY2H1OFFY
679,3.0,left,right,0.0,2.0768,0.0,19.0,19.0,19.0,1.0,2874299429-139695.jpg,2446760917-347439.jpg,A30MACY2H1OFFY
680,1.0,right,left,0.0,1.971099999,0.0,20.0,20.0,20.0,1.0,2898631359-142721.jpg,2898618444-142233.jpg,A30MACY2H1OFFY
681,1.0,right,left,0.0,2.5982,0.0,21.0,21.0,21.0,1.0,2883264368-67631.jpg,2874301407-363895.jpg,A30MACY2H1OFFY
682,1.0,left,right,0.0,3.033200001,0.0,22.0,22.0,22.0,1.0,2238560245-182099.jpg,2549106624-127823.jpg,A30MACY2H1OFFY
683,1.0,right,left,0.0,2.4703,0.0,23.0,23.0,23.0,1.0,2238550816-254000.jpg,2238580740-186218.jpg,A30MACY2H1OFFY
684,2.0,left,right,0.0,2.2198,0.0,24.0,24.0,24.0,1.0,2864907432-362042.jpg,2901947423-70310.jpg,A30MACY2H1OFFY
685,1.0,left,left,1.0,2.8028,0.0,25.0,25.0,25.0,1.0,2898633421-291973.jpg,2512876023-52283.jpg,A30MACY2H1OFFY
686,3.0,right,left,0.0,3.6567,0.0,26.0,26.0,26.0,1.0,2901947448-70314.jpg,2883268471-290842.jpg,A30MACY2H1OFFY
687,2.0,right,right,1.0,2.384,0.0,27.0,27.0,27.0,1.0,2981229442-369621.jpg,2901939379-143480.jpg,A30MACY2H1OFFY
688,3.0,right,right,1.0,2.0912,0.0,28.0,28.0,28.0,1.0,2427873848-47312.jpg,2981241414-145842.jpg,A30MACY2H1OFFY
689,3.0,right,left,0.0,2.5264,0.0,29.0,29.0,29.0,1.0,2238577590-185467.jpg,2901947423-70311.jpg,A30MACY2H1OFFY
690,2.0,left,right,0.0,1.8522,0.0,30.0,30.0,30.0,1.0,2575120738-55529.jpg,2575120738-55528.jpg,A30MACY2H1OFFY
691,1.0,right,left,0.0,1.9205,0.0,31.0,31.0,31.0,1.0,2804906319-133082.jpg,2901948350-218459.jpg,A30MACY2H1OFFY
692,2.0,left,right,0.0,2.219900001,0.0,32.0,32.0,32.0,1.0,2460547508-51571.jpg,2981232437-369759.jpg,A30MACY2H1OFFY
693,2.0,left,left,1.0,2.106200001,0.0,33.0,33.0,33.0,1.0,2874302418-65978.jpg,2238481198-19823.jpg,A30MACY2H1OFFY
694,2.0,right,right,1.0,2.136,0.0,34.0,34.0,34.0,1.0,2981244403-72215.jpg,2981231403-71642.jpg,A30MACY2H1OFFY
695,2.0,left,left,1.0,2.4083,0.0,35.0,35.0,35.0,1.0,2460547467-349421.jpg,2452380166-273110.jpg,A30MACY2H1OFFY
696,1.0,left,right,0.0,2.5533,0.0,36.0,36.0,36.0,1.0,2898635427-367120.jpg,2901946439-144040.jpg,A30MACY2H1OFFY
697,2.0,right,left,0.0,9.793099999,0.0,37.0,37.0,37.0,1.0,2898632385-217136.jpg,2883254439-140941.jpg,A30MACY2H1OFFY
698,3.0,left,right,0.0,2.1526,0.0,38.0,38.0,38.0,1.0,2898635428-69104.jpg,2898625336-291572.jpg,A30MACY2H1OFFY
699,3.0,right,left,0.0,2.8938,0.0,39.0,39.0,39.0,1.0,2458347252-348911.jpg,2458347385-199723.jpg,A30MACY2H1OFFY
700,1.0,right,left,0.0,2.8285,0.0,40.0,40.0,40.0,1.0,2901946465-218350.jpg,2868475410-213219.jpg,A30MACY2H1OFFY
701,2.0,left,right,0.0,1.9985,0.0,41.0,41.0,41.0,1.0,2868474407-362883.jpg,2981246400-220363.jpg,A30MACY2H1OFFY
702,1.0,right,left,0.0,1.6062,0.0,42.0,42.0,42.0,1.0,2460547536-274179.jpg,2512875899-126682.jpg,A30MACY2H1OFFY
703,2.0,left,left,1.0,2.2266,0.0,43.0,43.0,43.0,1.0,2238425482-313537.jpg,2238436322-314047.jpg,A30MACY2H1OFFY
704,3.0,right,right,1.0,1.7592,0.0,44.0,44.0,44.0,1.0,2981241419-145844.jpg,2238481928-19949.jpg,A30MACY2H1OFFY
705,3.0,left,left,1.0,3.305900001,0.0,45.0,45.0,45.0,1.0,2446758985-197609.jpg,2898624426-291544.jpg,A30MACY2H1OFFY
706,2.0,left,left,1.0,4.4766,0.0,46.0,46.0,46.0,1.0,2592380177-354629.jpg,2579432534-130704.jpg,A30MACY2H1OFFY
707,2.0,left,left,1.0,10.2311,0.0,47.0,47.0,47.0,1.0,2964223381-294447.jpg,2901941438-69836.jpg,A30MACY2H1OFFY
708,2.0,right,right,1.0,1.918099999,0.0,48.0,48.0,48.0,1.0,2860302315-210704.jpg,2986451363-73599.jpg,A30MACY2H1OFFY
709,3.0,right,left,0.0,3.955,0.0,49.0,49.0,49.0,1.0,2238569117-333045.jpg,2446759347-347016.jpg,A30MACY2H1OFFY
710,2.0,right,right,1.0,3.3529,0.0,50.0,50.0,50.0,1.0,2898618440-216547.jpg,2446759803-49249.jpg,A30MACY2H1OFFY
711,3.0,right,left,0.0,3.9482,0.0,51.0,51.0,51.0,1.0,2883273443-68193.jpg,2901941401-292798.jpg,A30MACY2H1OFFY
712,2.0,left,right,0.0,1.9234,0.0,52.0,52.0,52.0,1.0,2452381505-199546.jpg,2238567168-34916.jpg,A30MACY2H1OFFY
713,1.0,left,right,0.0,3.3505,0.0,53.0,53.0,53.0,1.0,2238481198-19822.jpg,2862691449-137104.jpg,A30MACY2H1OFFY
714,1.0,right,right,1.0,1.8208,0.0,54.0,54.0,54.0,1.0,2986449336-296644.jpg,2898618390-216538.jpg,A30MACY2H1OFFY
715,1.0,left,left,1.0,1.83,0.0,55.0,55.0,55.0,1.0,2898634397-367080.jpg,2237944827-301472.jpg,A30MACY2H1OFFY
716,2.0,left,left,1.0,3.742700001,0.0,56.0,56.0,56.0,1.0,2901939379-143479.jpg,2446758985-197610.jpg,A30MACY2H1OFFY
717,3.0,left,right,0.0,3.1395,0.0,57.0,57.0,57.0,1.0,2449442529-124445.jpg,2898632385-217137.jpg,A30MACY2H1OFFY
718,2.0,left,left,1.0,2.521,0.0,58.0,58.0,58.0,1.0,2964218374-144967.jpg,2883254439-140940.jpg,A30MACY2H1OFFY
719,3.0,left,right,0.0,1.836,0.0,59.0,59.0,59.0,1.0,2238480677-317399.jpg,2238480278-19661.jpg,A30MACY2H1OFFY
720,3.0,left,left,1.0,2.2781,0.0,0.0,0.0,0.0,1.0,2874301407-363895.jpg,2901947323-70275.jpg,A3MIDLO5S7FU06
721,2.0,right,left,0.0,2.588,0.0,1.0,1.0,1.0,1.0,2901939327-367670.jpg,2898618390-216538.jpg,A3MIDLO5S7FU06
722,1.0,left,left,1.0,1.5297,0.0,2.0,2.0,2.0,1.0,2238560245-182099.jpg,2549106624-127823.jpg,A3MIDLO5S7FU06
723,3.0,left,left,1.0,1.3813,0.0,3.0,3.0,3.0,1.0,2964213381-294060.jpg,2964213381-294061.jpg,A3MIDLO5S7FU06
724,2.0,left,right,0.0,3.9812,0.0,4.0,4.0,4.0,1.0,2883256307-365057.jpg,2964210336-293945.jpg,A3MIDLO5S7FU06
725,3.0,right,left,0.0,0.9218,0.0,5.0,5.0,5.0,1.0,2901947448-70314.jpg,2883268471-290842.jpg,A3MIDLO5S7FU06
726,3.0,right,right,1.0,1.4831,0.0,6.0,6.0,6.0,1.0,2238550049-105691.jpg,2898633421-291973.jpg,A3MIDLO5S7FU06
727,1.0,right,right,1.0,1.1602,0.0,7.0,7.0,7.0,1.0,2446759803-49251.jpg,2449442529-124446.jpg,A3MIDLO5S7FU06
728,1.0,left,right,0.0,1.2822,0.0,8.0,8.0,8.0,1.0,2512875899-126682.jpg,2460547536-274179.jpg,A3MIDLO5S7FU06
729,1.0,left,left,1.0,3.8776,0.0,9.0,9.0,9.0,1.0,2238481928-19949.jpg,2883264367-365620.jpg,A3MIDLO5S7FU06
730,3.0,right,right,1.0,1.3132,0.0,10.0,10.0,10.0,1.0,2449441881-272367.jpg,2449441881-272368.jpg,A3MIDLO5S7FU06
731,1.0,right,left,0.0,0.9186,0.0,11.0,11.0,11.0,1.0,2901946439-144040.jpg,2898635427-367120.jpg,A3MIDLO5S7FU06
732,3.0,right,right,1.0,2.8074,0.0,12.0,12.0,12.0,1.0,2452380166-273109.jpg,2446759803-49249.jpg,A3MIDLO5S7FU06
733,2.0,left,right,0.0,0.9818,0.0,13.0,13.0,13.0,1.0,2901952513-70703.jpg,2868469411-287540.jpg,A3MIDLO5S7FU06
734,3.0,left,right,0.0,2.633,0.0,14.0,14.0,14.0,1.0,2874303365-214262.jpg,2864911457-362260.jpg,A3MIDLO5S7FU06
735,1.0,right,right,1.0,3.6604,0.0,15.0,15.0,15.0,1.0,2901942428-69919.jpg,2901939379-143480.jpg,A3MIDLO5S7FU06
736,2.0,right,right,1.0,1.3954,0.0,16.0,16.0,16.0,1.0,2238481198-19823.jpg,2874302418-65978.jpg,A3MIDLO5S7FU06
737,2.0,left,left,1.0,4.6685,0.0,17.0,17.0,17.0,1.0,2964218374-144967.jpg,2883254439-140940.jpg,A3MIDLO5S7FU06
738,1.0,right,right,1.0,1.1175,0.0,18.0,18.0,18.0,1.0,2964224310-219528.jpg,2446759347-347016.jpg,A3MIDLO5S7FU06
739,3.0,left,left,1.0,1.8786,0.0,19.0,19.0,19.0,1.0,2864910426-287204.jpg,2901939433-69672.jpg,A3MIDLO5S7FU06
740,2.0,right,right,1.0,5.0352,0.0,20.0,20.0,20.0,1.0,2864900319-137787.jpg,2964216465-219242.jpg,A3MIDLO5S7FU06
741,1.0,left,left,1.0,1.0637,0.0,21.0,21.0,21.0,1.0,2592380177-354626.jpg,2986408339-146952.jpg,A3MIDLO5S7FU06
742,3.0,right,right,1.0,1.21,0.0,22.0,22.0,22.0,1.0,2446760917-347439.jpg,2874299429-139695.jpg,A3MIDLO5S7FU06
743,2.0,right,right,1.0,1.7944,0.0,23.0,23.0,23.0,1.0,2874301404-139813.jpg,2981241414-145842.jpg,A3MIDLO5S7FU06
744,3.0,right,right,1.0,2.9789,0.0,24.0,24.0,24.0,1.0,2898618444-142232.jpg,2898618444-142233.jpg,A3MIDLO5S7FU06
745,2.0,right,right,1.0,1.3316,0.0,25.0,25.0,25.0,1.0,2901943387-368037.jpg,2898617468-68274.jpg,A3MIDLO5S7FU06
746,2.0,right,right,1.0,1.892,0.0,26.0,26.0,26.0,1.0,2981232437-369759.jpg,2460547508-51571.jpg,A3MIDLO5S7FU06
747,1.0,right,left,0.0,1.5128,0.0,27.0,27.0,27.0,1.0,2446759803-49250.jpg,2898635428-69104.jpg,A3MIDLO5S7FU06
748,2.0,right,left,0.0,1.5125,0.0,28.0,28.0,28.0,1.0,2901941438-69836.jpg,2964223381-294447.jpg,A3MIDLO5S7FU06
749,2.0,left,left,1.0,0.9923,0.0,29.0,29.0,29.0,1.0,2898624426-291546.jpg,2981236443-71859.jpg,A3MIDLO5S7FU06
750,1.0,right,right,1.0,2.1992,0.0,30.0,30.0,30.0,1.0,2901946465-218350.jpg,2868475410-213219.jpg,A3MIDLO5S7FU06
751,1.0,left,left,1.0,2.9864,0.0,31.0,31.0,31.0,1.0,2460547467-349422.jpg,2898618440-216545.jpg,A3MIDLO5S7FU06
752,1.0,left,right,0.0,6.3527,0.0,32.0,32.0,32.0,1.0,2592379964-131054.jpg,2575963989-130576.jpg,A3MIDLO5S7FU06
753,2.0,left,left,1.0,2.6153,0.0,33.0,33.0,33.0,1.0,2452380832-348593.jpg,2238481813-19930.jpg,A3MIDLO5S7FU06
754,2.0,left,right,0.0,1.9662,0.0,34.0,34.0,34.0,1.0,2238480677-317399.jpg,2238573546-258454.jpg,A3MIDLO5S7FU06
755,3.0,left,right,0.0,2.2593,0.0,35.0,35.0,35.0,1.0,2898634397-367080.jpg,2964217461-294238.jpg,A3MIDLO5S7FU06
756,3.0,left,left,1.0,1.4582,0.0,36.0,36.0,36.0,1.0,2901939379-143479.jpg,2981240424-145794.jpg,A3MIDLO5S7FU06
757,3.0,left,right,0.0,3.0426,0.0,37.0,37.0,37.0,1.0,2874302418-65979.jpg,2238578544-111698.jpg,A3MIDLO5S7FU06
758,1.0,left,right,0.0,1.4449,0.0,38.0,38.0,38.0,1.0,2901941401-292798.jpg,2898618327-366317.jpg,A3MIDLO5S7FU06
759,2.0,left,left,1.0,1.3744,0.0,39.0,39.0,39.0,1.0,2986451363-73599.jpg,2860302315-210704.jpg,A3MIDLO5S7FU06
760,3.0,left,right,0.0,1.74,0.0,40.0,40.0,40.0,1.0,2864907432-362042.jpg,2989726338-74002.jpg,A3MIDLO5S7FU06
761,2.0,right,left,0.0,2.0952,0.0,41.0,41.0,41.0,1.0,2898632385-217136.jpg,2883254439-140941.jpg,A3MIDLO5S7FU06
762,3.0,left,left,1.0,1.2185,0.0,42.0,42.0,42.0,1.0,2238572663-35822.jpg,2864903351-286874.jpg,A3MIDLO5S7FU06
763,3.0,left,right,0.0,2.342,0.0,43.0,43.0,43.0,1.0,2901948350-218459.jpg,2981246360-220352.jpg,A3MIDLO5S7FU06
764,1.0,right,right,1.0,0.9893,0.0,44.0,44.0,44.0,1.0,2986447306-296584.jpg,2874307433-66280.jpg,A3MIDLO5S7FU06
765,3.0,left,right,0.0,1.5199,0.0,45.0,45.0,45.0,1.0,2446758985-197609.jpg,2898624426-291544.jpg,A3MIDLO5S7FU06
766,1.0,right,right,1.0,1.1899,0.0,46.0,46.0,46.0,1.0,2860312398-62572.jpg,2901947423-70311.jpg,A3MIDLO5S7FU06
767,2.0,right,right,1.0,1.3147,0.0,47.0,47.0,47.0,1.0,2452380166-273110.jpg,2460547467-349421.jpg,A3MIDLO5S7FU06
768,3.0,right,right,1.0,1.6813,0.0,48.0,48.0,48.0,1.0,2512875587-350044.jpg,2592380177-354629.jpg,A3MIDLO5S7FU06
769,1.0,left,left,1.0,1.1638,0.0,49.0,49.0,49.0,1.0,2981231403-71642.jpg,2274829821-263682.jpg,A3MIDLO5S7FU06
770,1.0,right,right,1.0,2.1709,0.0,50.0,50.0,50.0,1.0,2452380171-273112.jpg,2449442529-124445.jpg,A3MIDLO5S7FU06
771,2.0,right,right,1.0,1.4814,0.0,51.0,51.0,51.0,1.0,2575120738-55528.jpg,2575120738-55529.jpg,A3MIDLO5S7FU06
772,2.0,right,left,0.0,1.4347,0.0,52.0,52.0,52.0,1.0,2981246400-220363.jpg,2868474407-362883.jpg,A3MIDLO5S7FU06
773,1.0,left,left,1.0,1.1579,0.0,53.0,53.0,53.0,1.0,2458347385-199723.jpg,2238480434-93829.jpg,A3MIDLO5S7FU06
774,2.0,left,left,1.0,1.8156,0.0,54.0,54.0,54.0,1.0,2452381505-199546.jpg,2238567168-34916.jpg,A3MIDLO5S7FU06
775,1.0,left,right,0.0,2.0559,0.0,55.0,55.0,55.0,1.0,2238428357-313623.jpg,2238499057-320266.jpg,A3MIDLO5S7FU06
776,3.0,left,left,1.0,1.322,0.0,56.0,56.0,56.0,1.0,2883268412-365898.jpg,2238436252-314037.jpg,A3MIDLO5S7FU06
777,3.0,left,right,0.0,3.1083,0.0,57.0,57.0,57.0,1.0,2238425482-313537.jpg,2898633480-217190.jpg,A3MIDLO5S7FU06
778,2.0,left,right,0.0,1.1288,0.0,58.0,58.0,58.0,1.0,2238580740-186218.jpg,2238521193-26285.jpg,A3MIDLO5S7FU06
779,1.0,right,right,1.0,1.5157,0.0,59.0,59.0,59.0,1.0,2862691449-137104.jpg,2238481198-19822.jpg,A3MIDLO5S7FU06
780,1.0,left,left,1.0,3.226599999,0.0,0.0,0.0,0.0,1.0,2883268471-290842.jpg,2883268471-290843.jpg,A3U0GQGAPN2DAV
781,1.0,left,left,1.0,2.0084,0.0,1.0,1.0,1.0,1.0,2592380177-354626.jpg,2986408339-146952.jpg,A3U0GQGAPN2DAV
782,3.0,right,right,1.0,1.5288,0.0,2.0,2.0,2.0,1.0,2994401319-148290.jpg,2452381505-199546.jpg,A3U0GQGAPN2DAV
783,1.0,left,left,1.0,1.6938,0.0,3.0,3.0,3.0,1.0,2981231403-71642.jpg,2274829821-263682.jpg,A3U0GQGAPN2DAV
784,1.0,right,right,1.0,1.7825,0.0,4.0,4.0,4.0,1.0,2446760844-124088.jpg,2883254439-140941.jpg,A3U0GQGAPN2DAV
785,1.0,left,left,1.0,1.063400001,0.0,5.0,5.0,5.0,1.0,2592379964-131054.jpg,2575963989-130576.jpg,A3U0GQGAPN2DAV
786,3.0,right,right,1.0,1.293,0.0,6.0,6.0,6.0,1.0,2883273443-68193.jpg,2901941401-292798.jpg,A3U0GQGAPN2DAV
787,1.0,left,left,1.0,1.905,0.0,7.0,7.0,7.0,1.0,2460547467-349422.jpg,2898618440-216545.jpg,A3U0GQGAPN2DAV
788,3.0,right,left,0.0,1.5638,0.0,8.0,8.0,8.0,1.0,2238480278-19661.jpg,2238480677-317399.jpg,A3U0GQGAPN2DAV
789,1.0,right,right,1.0,2.0336,0.0,9.0,9.0,9.0,1.0,2804906319-133082.jpg,2901948350-218459.jpg,A3U0GQGAPN2DAV
790,2.0,right,right,1.0,1.0585,0.0,10.0,10.0,10.0,1.0,2868469411-287540.jpg,2901952513-70703.jpg,A3U0GQGAPN2DAV
791,2.0,right,right,1.0,1.268599999,0.0,11.0,11.0,11.0,1.0,2984615361-295509.jpg,2238428357-313623.jpg,A3U0GQGAPN2DAV
792,3.0,right,right,1.0,1.769599999,0.0,12.0,12.0,12.0,1.0,2898621427-366486.jpg,2898635427-367120.jpg,A3U0GQGAPN2DAV
793,1.0,left,left,1.0,1.5571,0.0,13.0,13.0,13.0,1.0,2864910426-287204.jpg,2864902304-137862.jpg,A3U0GQGAPN2DAV
794,1.0,left,right,0.0,1.9392,0.0,14.0,14.0,14.0,1.0,2898634397-367080.jpg,2237944827-301472.jpg,A3U0GQGAPN2DAV
795,3.0,right,right,1.0,2.3033,0.0,15.0,15.0,15.0,1.0,2238550049-105691.jpg,2898633421-291973.jpg,A3U0GQGAPN2DAV
796,2.0,right,right,1.0,1.5591,0.0,16.0,16.0,16.0,1.0,2981229442-369621.jpg,2901939379-143480.jpg,A3U0GQGAPN2DAV
797,1.0,left,left,1.0,1.6671,0.0,17.0,17.0,17.0,1.0,2981241414-145842.jpg,2856919327-359676.jpg,A3U0GQGAPN2DAV
798,3.0,right,left,0.0,3.0879,0.0,18.0,18.0,18.0,1.0,2446760917-347439.jpg,2874299429-139695.jpg,A3U0GQGAPN2DAV
799,1.0,left,left,1.0,1.906700001,0.0,19.0,19.0,19.0,1.0,2898618390-216538.jpg,2986449336-296644.jpg,A3U0GQGAPN2DAV
800,2.0,left,left,1.0,1.5987,0.0,20.0,20.0,20.0,1.0,2449442529-124446.jpg,2460547536-274181.jpg,A3U0GQGAPN2DAV
801,3.0,left,left,1.0,1.416,0.0,21.0,21.0,21.0,1.0,2238425482-313537.jpg,2898633480-217190.jpg,A3U0GQGAPN2DAV
802,2.0,right,right,1.0,1.8644,0.0,22.0,22.0,22.0,1.0,2901946436-293242.jpg,2238481198-19822.jpg,A3U0GQGAPN2DAV
803,1.0,left,left,1.0,1.871,0.0,23.0,23.0,23.0,1.0,2592380177-354629.jpg,2898633421-291974.jpg,A3U0GQGAPN2DAV
804,3.0,left,right,0.0,2.0848,0.0,24.0,24.0,24.0,1.0,2874307433-66280.jpg,2981231422-369714.jpg,A3U0GQGAPN2DAV
805,2.0,right,right,1.0,2.9238,0.0,25.0,25.0,25.0,1.0,2238521193-26285.jpg,2238580740-186218.jpg,A3U0GQGAPN2DAV
806,1.0,right,right,1.0,5.2585,0.0,26.0,26.0,26.0,1.0,2460547291-274110.jpg,2460547508-51571.jpg,A3U0GQGAPN2DAV
807,3.0,right,left,0.0,2.015400001,0.0,27.0,27.0,27.0,1.0,2864911457-362260.jpg,2874303365-214262.jpg,A3U0GQGAPN2DAV
808,2.0,right,left,0.0,1.9298,0.0,28.0,28.0,28.0,1.0,2964210336-293945.jpg,2883256307-365057.jpg,A3U0GQGAPN2DAV
809,1.0,right,right,1.0,1.5279,0.0,29.0,29.0,29.0,1.0,2898626385-216899.jpg,2874302418-65978.jpg,A3U0GQGAPN2DAV
810,3.0,left,left,1.0,1.505,0.0,30.0,30.0,30.0,1.0,2446758985-197609.jpg,2898624426-291544.jpg,A3U0GQGAPN2DAV
811,3.0,right,left,0.0,1.76,0.0,31.0,31.0,31.0,1.0,2989726338-74002.jpg,2864907432-362042.jpg,A3U0GQGAPN2DAV
812,2.0,right,right,1.0,1.511099999,0.0,32.0,32.0,32.0,1.0,2458348012-349114.jpg,2964213381-294060.jpg,A3U0GQGAPN2DAV
813,3.0,left,left,1.0,1.9025,0.0,33.0,33.0,33.0,1.0,2446759347-347016.jpg,2238569117-333045.jpg,A3U0GQGAPN2DAV
814,2.0,left,left,1.0,1.138799999,0.0,34.0,34.0,34.0,1.0,2512875899-126682.jpg,2592380177-354628.jpg,A3U0GQGAPN2DAV
815,3.0,left,left,1.0,2.1808,0.0,35.0,35.0,35.0,1.0,2898624426-291546.jpg,2981235446-294900.jpg,A3U0GQGAPN2DAV
816,2.0,left,left,1.0,1.3139,0.0,36.0,36.0,36.0,1.0,2449442529-124445.jpg,2986408373-73286.jpg,A3U0GQGAPN2DAV
817,3.0,right,left,0.0,1.942400001,0.0,37.0,37.0,37.0,1.0,2864903351-286874.jpg,2238572663-35822.jpg,A3U0GQGAPN2DAV
818,3.0,right,right,1.0,1.537,0.0,38.0,38.0,38.0,1.0,2981241419-145844.jpg,2238481928-19949.jpg,A3U0GQGAPN2DAV
819,3.0,right,right,1.0,2.016,0.0,39.0,39.0,39.0,1.0,2964207374-144577.jpg,2898617468-68274.jpg,A3U0GQGAPN2DAV
820,1.0,right,right,1.0,2.8495,0.0,40.0,40.0,40.0,1.0,2964218374-144968.jpg,2964218374-144967.jpg,A3U0GQGAPN2DAV
821,2.0,right,left,0.0,1.8895,0.0,41.0,41.0,41.0,1.0,2984615358-72439.jpg,2449441881-272368.jpg,A3U0GQGAPN2DAV
822,1.0,left,left,1.0,1.2246,0.0,42.0,42.0,42.0,1.0,2452380832-348593.jpg,2238328478-11678.jpg,A3U0GQGAPN2DAV
823,3.0,right,right,1.0,1.6069,0.0,43.0,43.0,43.0,1.0,2898618444-142232.jpg,2898618444-142233.jpg,A3U0GQGAPN2DAV
824,3.0,right,left,0.0,1.415700001,0.0,44.0,44.0,44.0,1.0,2238436252-314037.jpg,2883268412-365898.jpg,A3U0GQGAPN2DAV
825,2.0,left,left,1.0,1.557700001,0.0,45.0,45.0,45.0,1.0,2446759803-49249.jpg,2898618440-216547.jpg,A3U0GQGAPN2DAV
826,1.0,right,right,1.0,1.3421,0.0,46.0,46.0,46.0,1.0,2238544191-252422.jpg,2964216465-219242.jpg,A3U0GQGAPN2DAV
827,3.0,left,left,1.0,1.9212,0.0,47.0,47.0,47.0,1.0,2868474407-362883.jpg,2901948383-70363.jpg,A3U0GQGAPN2DAV
828,2.0,left,left,1.0,1.4311,0.0,48.0,48.0,48.0,1.0,2460547467-349421.jpg,2452380166-273110.jpg,A3U0GQGAPN2DAV
829,2.0,left,left,1.0,2.2254,0.0,49.0,49.0,49.0,1.0,2874301407-363895.jpg,2986397322-371109.jpg,A3U0GQGAPN2DAV
830,1.0,left,left,1.0,2.9449,0.0,50.0,50.0,50.0,1.0,2874302418-65979.jpg,2413147898-43548.jpg,A3U0GQGAPN2DAV
831,2.0,left,left,1.0,1.3384,0.0,51.0,51.0,51.0,1.0,2901939379-143479.jpg,2446758985-197610.jpg,A3U0GQGAPN2DAV
832,1.0,left,left,1.0,2.3782,0.0,52.0,52.0,52.0,1.0,2868475410-213219.jpg,2901946465-218350.jpg,A3U0GQGAPN2DAV
833,2.0,right,right,1.0,1.4436,0.0,53.0,53.0,53.0,1.0,2874314526-289684.jpg,2238560245-182099.jpg,A3U0GQGAPN2DAV
834,2.0,left,left,1.0,1.4104,0.0,54.0,54.0,54.0,1.0,2458347385-199723.jpg,2427874554-121863.jpg,A3U0GQGAPN2DAV
835,1.0,right,right,1.0,2.1955,0.0,55.0,55.0,55.0,1.0,2427874231-269884.jpg,2964223381-294447.jpg,A3U0GQGAPN2DAV
836,2.0,right,right,1.0,1.5976,0.0,56.0,56.0,56.0,1.0,2901943411-292945.jpg,2898635428-69104.jpg,A3U0GQGAPN2DAV
837,2.0,left,left,1.0,2.1118,0.0,57.0,57.0,57.0,1.0,2575120738-55529.jpg,2575120738-55528.jpg,A3U0GQGAPN2DAV
838,2.0,left,left,1.0,1.871599999,0.0,58.0,58.0,58.0,1.0,2901947423-70311.jpg,2238573447-333826.jpg,A3U0GQGAPN2DAV
839,3.0,left,left,1.0,1.2762,0.0,59.0,59.0,59.0,1.0,2986451363-73599.jpg,2238434559-90406.jpg,A3U0GQGAPN2DAV
840,1.0,right,right,1.0,6.6736,0.0,0.0,0.0,0.0,1.0,2611628310-206388.jpg,2883256307-365057.jpg,A5P12YJP805RG
841,1.0,right,right,1.0,1.8508,0.0,1.0,1.0,1.0,1.0,2964218432-369263.jpg,2898624426-291546.jpg,A5P12YJP805RG
842,3.0,right,right,1.0,1.2222,0.0,2.0,2.0,2.0,1.0,2964207374-144577.jpg,2898617468-68274.jpg,A5P12YJP805RG
843,1.0,right,left,0.0,1.1233,0.0,3.0,3.0,3.0,1.0,2238499057-320266.jpg,2238428357-313623.jpg,A5P12YJP805RG
844,2.0,right,right,1.0,1.1514,0.0,4.0,4.0,4.0,1.0,2984615361-295510.jpg,2883268412-365898.jpg,A5P12YJP805RG
845,1.0,right,left,0.0,1.532,0.0,5.0,5.0,5.0,1.0,2898618440-216545.jpg,2460547467-349422.jpg,A5P12YJP805RG
846,1.0,right,right,1.0,3.068,0.0,6.0,6.0,6.0,1.0,2981244394-145974.jpg,2964213381-294060.jpg,A5P12YJP805RG
847,3.0,right,left,0.0,1.3341,0.0,7.0,7.0,7.0,1.0,2449441881-272367.jpg,2449441881-272368.jpg,A5P12YJP805RG
848,3.0,left,left,1.0,0.9825,0.0,8.0,8.0,8.0,1.0,2592379964-131054.jpg,2592380272-354673.jpg,A5P12YJP805RG
849,3.0,left,left,1.0,1.4054,0.0,9.0,9.0,9.0,1.0,2964216465-219242.jpg,2898619327-366362.jpg,A5P12YJP805RG
850,1.0,right,left,0.0,1.5016,0.0,10.0,10.0,10.0,1.0,2413147898-43548.jpg,2874302418-65979.jpg,A5P12YJP805RG
851,1.0,left,right,0.0,1.9885,0.0,11.0,11.0,11.0,1.0,2238572663-35822.jpg,2986419333-73361.jpg,A5P12YJP805RG
852,3.0,left,left,1.0,2.1458,0.0,12.0,12.0,12.0,1.0,2901952513-70703.jpg,2238481198-19821.jpg,A5P12YJP805RG
853,2.0,left,left,1.0,1.0846,0.0,13.0,13.0,13.0,1.0,2592380177-354626.jpg,2864901386-286797.jpg,A5P12YJP805RG
854,3.0,right,right,1.0,0.9236,0.0,14.0,14.0,14.0,1.0,2449442181-272436.jpg,2452380832-348593.jpg,A5P12YJP805RG
855,3.0,left,left,1.0,1.4852,0.0,15.0,15.0,15.0,1.0,2874307433-66280.jpg,2981231422-369714.jpg,A5P12YJP805RG
856,2.0,right,right,1.0,1.1013,0.0,16.0,16.0,16.0,1.0,2460547536-274181.jpg,2449442529-124446.jpg,A5P12YJP805RG
857,1.0,left,left,1.0,1.1297,0.0,17.0,17.0,17.0,1.0,2874303365-214262.jpg,2609793677-355397.jpg,A5P12YJP805RG
858,3.0,left,left,1.0,1.0581,0.0,18.0,18.0,18.0,1.0,2864910426-287204.jpg,2901939433-69672.jpg,A5P12YJP805RG
859,3.0,left,right,0.0,1.2379,0.0,19.0,19.0,19.0,1.0,2874299429-139695.jpg,2446760917-347439.jpg,A5P12YJP805RG
860,1.0,right,right,1.0,1.3013,0.0,20.0,20.0,20.0,1.0,2898631359-142721.jpg,2898618444-142233.jpg,A5P12YJP805RG
861,1.0,right,right,1.0,1.2439,0.0,21.0,21.0,21.0,1.0,2883264368-67631.jpg,2874301407-363895.jpg,A5P12YJP805RG
862,1.0,left,left,1.0,1.2012,0.0,22.0,22.0,22.0,1.0,2238560245-182099.jpg,2549106624-127823.jpg,A5P12YJP805RG
863,1.0,right,right,1.0,1.4678,0.0,23.0,23.0,23.0,1.0,2238550816-254000.jpg,2238580740-186218.jpg,A5P12YJP805RG
864,2.0,left,left,1.0,1.1133,0.0,24.0,24.0,24.0,1.0,2864907432-362042.jpg,2901947423-70310.jpg,A5P12YJP805RG
865,1.0,left,left,1.0,1.1067,0.0,25.0,25.0,25.0,1.0,2898633421-291973.jpg,2512876023-52283.jpg,A5P12YJP805RG
866,3.0,right,right,1.0,1.949,0.0,26.0,26.0,26.0,1.0,2901947448-70314.jpg,2883268471-290842.jpg,A5P12YJP805RG
867,2.0,right,right,1.0,1.0275,0.0,27.0,27.0,27.0,1.0,2981229442-369621.jpg,2901939379-143480.jpg,A5P12YJP805RG
868,3.0,right,left,0.0,1.2565,0.0,28.0,28.0,28.0,1.0,2427873848-47312.jpg,2981241414-145842.jpg,A5P12YJP805RG
869,3.0,right,right,1.0,1.1479,0.0,29.0,29.0,29.0,1.0,2238577590-185467.jpg,2901947423-70311.jpg,A5P12YJP805RG
870,2.0,left,right,0.0,1.58,0.0,30.0,30.0,30.0,1.0,2575120738-55529.jpg,2575120738-55528.jpg,A5P12YJP805RG
871,1.0,right,right,1.0,0.9704,0.0,31.0,31.0,31.0,1.0,2804906319-133082.jpg,2901948350-218459.jpg,A5P12YJP805RG
872,2.0,left,left,1.0,1.7186,0.0,32.0,32.0,32.0,1.0,2460547508-51571.jpg,2981232437-369759.jpg,A5P12YJP805RG
873,2.0,left,left,1.0,0.89,0.0,33.0,33.0,33.0,1.0,2874302418-65978.jpg,2238481198-19823.jpg,A5P12YJP805RG
874,2.0,right,right,1.0,1.453,0.0,34.0,34.0,34.0,1.0,2981244403-72215.jpg,2981231403-71642.jpg,A5P12YJP805RG
875,2.0,left,left,1.0,0.9685,0.0,35.0,35.0,35.0,1.0,2460547467-349421.jpg,2452380166-273110.jpg,A5P12YJP805RG
876,1.0,left,left,1.0,1.0628,0.0,36.0,36.0,36.0,1.0,2898635427-367120.jpg,2901946439-144040.jpg,A5P12YJP805RG
877,2.0,right,left,0.0,1.1383,0.0,37.0,37.0,37.0,1.0,2898632385-217136.jpg,2883254439-140941.jpg,A5P12YJP805RG
878,3.0,left,right,0.0,0.9466,0.0,38.0,38.0,38.0,1.0,2898635428-69104.jpg,2898625336-291572.jpg,A5P12YJP805RG
879,3.0,right,left,0.0,1.1682,0.0,39.0,39.0,39.0,1.0,2458347252-348911.jpg,2458347385-199723.jpg,A5P12YJP805RG
880,1.0,right,right,1.0,1.485,0.0,40.0,40.0,40.0,1.0,2901946465-218350.jpg,2868475410-213219.jpg,A5P12YJP805RG
881,2.0,left,left,1.0,1.2515,0.0,41.0,41.0,41.0,1.0,2868474407-362883.jpg,2981246400-220363.jpg,A5P12YJP805RG
882,1.0,right,left,0.0,1.1528,0.0,42.0,42.0,42.0,1.0,2460547536-274179.jpg,2512875899-126682.jpg,A5P12YJP805RG
883,2.0,left,left,1.0,1.097,0.0,43.0,43.0,43.0,1.0,2238425482-313537.jpg,2238436322-314047.jpg,A5P12YJP805RG
884,3.0,right,right,1.0,1.1178,0.0,44.0,44.0,44.0,1.0,2981241419-145844.jpg,2238481928-19949.jpg,A5P12YJP805RG
885,3.0,left,left,1.0,0.951,0.0,45.0,45.0,45.0,1.0,2446758985-197609.jpg,2898624426-291544.jpg,A5P12YJP805RG
886,2.0,left,left,1.0,0.984,0.0,46.0,46.0,46.0,1.0,2592380177-354629.jpg,2579432534-130704.jpg,A5P12YJP805RG
887,2.0,left,right,0.0,0.9509,0.0,47.0,47.0,47.0,1.0,2964223381-294447.jpg,2901941438-69836.jpg,A5P12YJP805RG
888,2.0,right,right,1.0,0.9397,0.0,48.0,48.0,48.0,1.0,2860302315-210704.jpg,2986451363-73599.jpg,A5P12YJP805RG
889,3.0,right,right,1.0,1.0121,0.0,49.0,49.0,49.0,1.0,2238569117-333045.jpg,2446759347-347016.jpg,A5P12YJP805RG
890,2.0,right,right,1.0,1.002,0.0,50.0,50.0,50.0,1.0,2898618440-216547.jpg,2446759803-49249.jpg,A5P12YJP805RG
891,3.0,right,left,0.0,1.3595,0.0,51.0,51.0,51.0,1.0,2883273443-68193.jpg,2901941401-292798.jpg,A5P12YJP805RG
892,2.0,left,right,0.0,0.9514,0.0,52.0,52.0,52.0,1.0,2452381505-199546.jpg,2238567168-34916.jpg,A5P12YJP805RG
893,1.0,left,left,1.0,1.0708,0.0,53.0,53.0,53.0,1.0,2238481198-19822.jpg,2862691449-137104.jpg,A5P12YJP805RG
894,1.0,right,right,1.0,1.0332,0.0,54.0,54.0,54.0,1.0,2986449336-296644.jpg,2898618390-216538.jpg,A5P12YJP805RG
895,1.0,left,right,0.0,1.1347,0.0,55.0,55.0,55.0,1.0,2898634397-367080.jpg,2237944827-301472.jpg,A5P12YJP805RG
896,2.0,left,left,1.0,1.0865,0.0,56.0,56.0,56.0,1.0,2901939379-143479.jpg,2446758985-197610.jpg,A5P12YJP805RG
897,3.0,left,right,0.0,1.0011,0.0,57.0,57.0,57.0,1.0,2449442529-124445.jpg,2898632385-217137.jpg,A5P12YJP805RG
898,2.0,left,left,1.0,1.2953,0.0,58.0,58.0,58.0,1.0,2964218374-144967.jpg,2883254439-140940.jpg,A5P12YJP805RG
899,3.0,left,right,0.0,0.8656,0.0,59.0,59.0,59.0,1.0,2238480677-317399.jpg,2238480278-19661.jpg,A5P12YJP805RG
900,2.0,left,left,1.0,3.146099999,0.0,0.0,0.0,0.0,1.0,2238481928-19949.jpg,2864900357-361688.jpg,A9ORJQWL53QJL
901,1.0,left,right,0.0,4.52,0.0,1.0,1.0,1.0,1.0,2868474407-362883.jpg,2238516618-25604.jpg,A9ORJQWL53QJL
