,index,test_encoding_response.keys,test_encoding_response.corr,trials.thisTrialN,target_image,pair,layer,correct,test_encoding_response.rt,key_resp_end.keys,subject
0,20,,1.0,0.0,2898635428-69104.jpg,2901943411-292945.jpg,2.0,,,,A15B4KZ3S04HS8
1,21,,1.0,1.0,2874302418-65979.jpg,2238578544-111698.jpg,3.0,,,,A15B4KZ3S04HS8
2,22,,1.0,2.0,2449442529-124446.jpg,2460547536-274181.jpg,2.0,,,,A15B4KZ3S04HS8
3,23,,1.0,3.0,2864910426-287204.jpg,2874299429-139694.jpg,2.0,,,,A15B4KZ3S04HS8
4,24,,1.0,4.0,2898624426-291546.jpg,2981235446-294900.jpg,3.0,,,,A15B4KZ3S04HS8
5,25,,1.0,5.0,2449441881-272368.jpg,2883268412-365899.jpg,1.0,,,,A15B4KZ3S04HS8
6,26,,1.0,6.0,2446759803-49249.jpg,2446760601-272099.jpg,1.0,,,,A15B4KZ3S04HS8
7,27,left,1.0,7.0,left.jpg,,,left,1.0231,,A15B4KZ3S04HS8
8,28,,1.0,8.0,2898633421-291973.jpg,2575118671-277663.jpg,2.0,,,,A15B4KZ3S04HS8
9,29,,1.0,9.0,2898618390-216538.jpg,2986449336-296644.jpg,1.0,,,,A15B4KZ3S04HS8
10,30,,1.0,10.0,2901939379-143479.jpg,2981240424-145794.jpg,3.0,,,,A15B4KZ3S04HS8
11,31,,1.0,11.0,2868474407-362883.jpg,2238516618-25604.jpg,1.0,,,,A15B4KZ3S04HS8
12,32,,1.0,12.0,2883268471-290842.jpg,2883255450-215310.jpg,2.0,,,,A15B4KZ3S04HS8
13,33,,1.0,13.0,2238560245-182099.jpg,2549106624-127823.jpg,1.0,,,,A15B4KZ3S04HS8
14,34,,1.0,14.0,2868475410-213219.jpg,2901946465-218350.jpg,1.0,,,,A15B4KZ3S04HS8
15,35,,1.0,15.0,2238481198-19822.jpg,2901946436-293242.jpg,2.0,,,,A15B4KZ3S04HS8
16,36,,1.0,16.0,2446758985-197609.jpg,2898624426-291544.jpg,3.0,,,,A15B4KZ3S04HS8
17,37,,1.0,17.0,2512875899-126682.jpg,2460547536-274179.jpg,1.0,,,,A15B4KZ3S04HS8
18,38,,1.0,18.0,2460547467-349421.jpg,2898631394-142727.jpg,1.0,,,,A15B4KZ3S04HS8
19,39,,1.0,19.0,2452381505-199546.jpg,2994401319-148290.jpg,3.0,,,,A15B4KZ3S04HS8
20,40,,1.0,20.0,2575120738-55529.jpg,2898632385-217138.jpg,1.0,,,,A15B4KZ3S04HS8
21,41,,1.0,21.0,2458347385-199723.jpg,2238480434-93829.jpg,1.0,,,,A15B4KZ3S04HS8
22,42,left,1.0,22.0,left.jpg,,,left,1.1767,,A15B4KZ3S04HS8
23,43,,1.0,23.0,2883256307-365057.jpg,2864904453-63933.jpg,3.0,,,,A15B4KZ3S04HS8
24,44,,1.0,24.0,2981241414-145842.jpg,2874301404-139813.jpg,2.0,,,,A15B4KZ3S04HS8
25,45,,1.0,25.0,2964218374-144967.jpg,2981231446-294732.jpg,3.0,,,,A15B4KZ3S04HS8
26,46,,1.0,26.0,2901939379-143480.jpg,2981229442-369621.jpg,2.0,,,,A15B4KZ3S04HS8
27,47,,1.0,27.0,2901948350-218459.jpg,2417208001-267065.jpg,2.0,,,,A15B4KZ3S04HS8
28,48,,1.0,28.0,2883254439-140941.jpg,2898632385-217136.jpg,2.0,,,,A15B4KZ3S04HS8
29,49,right,1.0,29.0,right.jpg,,,right,0.9446,,A15B4KZ3S04HS8
30,50,,1.0,30.0,2964213381-294060.jpg,2981244394-145974.jpg,1.0,,,,A15B4KZ3S04HS8
31,51,,1.0,31.0,2864907432-362042.jpg,2864901420-212147.jpg,1.0,,,,A15B4KZ3S04HS8
32,52,,1.0,32.0,2898634397-367080.jpg,2964217461-294238.jpg,3.0,,,,A15B4KZ3S04HS8
33,53,,1.0,33.0,2901941401-292798.jpg,2883273443-68193.jpg,3.0,,,,A15B4KZ3S04HS8
34,54,,1.0,34.0,2874303365-214262.jpg,2864911457-362260.jpg,3.0,,,,A15B4KZ3S04HS8
35,55,,1.0,35.0,2238572663-35822.jpg,2864903351-286874.jpg,3.0,,,,A15B4KZ3S04HS8
36,56,left,1.0,36.0,left.jpg,,,left,1.0208,,A15B4KZ3S04HS8
37,57,,1.0,37.0,2592379964-131054.jpg,2575963989-130576.jpg,1.0,,,,A15B4KZ3S04HS8
38,58,,1.0,38.0,2874302418-65978.jpg,2898633321-291943.jpg,3.0,,,,A15B4KZ3S04HS8
39,59,,1.0,39.0,2446759347-347016.jpg,2238569117-333045.jpg,3.0,,,,A15B4KZ3S04HS8
40,60,,1.0,40.0,2874307433-66280.jpg,2986447306-296584.jpg,1.0,,,,A15B4KZ3S04HS8
41,61,,1.0,41.0,2452380832-348593.jpg,2238481813-19930.jpg,2.0,,,,A15B4KZ3S04HS8
42,62,,1.0,42.0,2964223381-294447.jpg,2427874231-269884.jpg,1.0,,,,A15B4KZ3S04HS8
43,63,,1.0,43.0,2883268412-365898.jpg,2984626312-370849.jpg,1.0,,,,A15B4KZ3S04HS8
44,64,,1.0,44.0,2898635427-367120.jpg,2901946439-144040.jpg,1.0,,,,A15B4KZ3S04HS8
45,65,,1.0,45.0,2898618444-142233.jpg,2898618444-142232.jpg,3.0,,,,A15B4KZ3S04HS8
46,66,left,1.0,46.0,left.jpg,,,left,1.0214,,A15B4KZ3S04HS8
47,67,,1.0,47.0,2238480677-317399.jpg,2238573546-258454.jpg,2.0,,,,A15B4KZ3S04HS8
48,68,,1.0,48.0,2901947423-70311.jpg,2860312398-62572.jpg,1.0,,,,A15B4KZ3S04HS8
49,69,,1.0,49.0,2238428357-313623.jpg,2575121987-353817.jpg,3.0,,,,A15B4KZ3S04HS8
50,70,,1.0,50.0,2981231403-71642.jpg,2981244403-72215.jpg,2.0,,,,A15B4KZ3S04HS8
51,71,,1.0,51.0,2592380177-354626.jpg,2864901386-286797.jpg,2.0,,,,A15B4KZ3S04HS8
52,72,,1.0,52.0,2460547508-51571.jpg,2460547291-274110.jpg,1.0,,,,A15B4KZ3S04HS8
53,73,,1.0,53.0,2592380177-354629.jpg,2579432534-130704.jpg,2.0,,,,A15B4KZ3S04HS8
54,74,,1.0,54.0,2460547467-349422.jpg,2864909447-362146.jpg,3.0,,,,A15B4KZ3S04HS8
55,75,,1.0,55.0,2898617468-68274.jpg,2901943387-368037.jpg,2.0,,,,A15B4KZ3S04HS8
56,76,,1.0,56.0,2449442529-124445.jpg,2898632385-217137.jpg,3.0,,,,A15B4KZ3S04HS8
57,77,,1.0,57.0,2874301407-363895.jpg,2901947323-70275.jpg,3.0,,,,A15B4KZ3S04HS8
58,78,,1.0,58.0,2238580740-186218.jpg,2238550816-254000.jpg,1.0,,,,A15B4KZ3S04HS8
59,79,,1.0,59.0,2874299429-139695.jpg,2901942443-69923.jpg,2.0,,,,A15B4KZ3S04HS8
60,80,,1.0,60.0,2964216465-219242.jpg,2864900319-137787.jpg,2.0,,,,A15B4KZ3S04HS8
61,81,,1.0,61.0,2238481928-19949.jpg,2981241419-145844.jpg,3.0,,,,A15B4KZ3S04HS8
62,82,,1.0,62.0,2901952513-70703.jpg,2868469411-287540.jpg,2.0,,,,A15B4KZ3S04HS8
63,83,,1.0,63.0,2986451363-73599.jpg,2238434559-90406.jpg,3.0,,,,A15B4KZ3S04HS8
64,84,,1.0,64.0,2238425482-313537.jpg,2238436322-314047.jpg,2.0,,,,A15B4KZ3S04HS8
65,20,,1.0,0.0,2238428357-313623.jpg,2984615361-295509.jpg,2.0,,,,A1LA6CIGBNDOH9
66,21,,1.0,1.0,2898624426-291546.jpg,2981235446-294900.jpg,3.0,,,,A1LA6CIGBNDOH9
67,22,,1.0,2.0,2901948350-218459.jpg,2981246360-220352.jpg,3.0,,,,A1LA6CIGBNDOH9
68,23,,1.0,3.0,2868475410-213219.jpg,2901946465-218350.jpg,1.0,,,,A1LA6CIGBNDOH9
69,24,,1.0,4.0,2446759803-49249.jpg,2452380166-273109.jpg,3.0,,,,A1LA6CIGBNDOH9
70,25,,1.0,5.0,2964216465-219242.jpg,2864900319-137787.jpg,2.0,,,,A1LA6CIGBNDOH9
71,26,,1.0,6.0,2592379964-131054.jpg,2238479053-19457.jpg,2.0,,,,A1LA6CIGBNDOH9
72,27,,1.0,7.0,2898618444-142233.jpg,2238555262-330312.jpg,2.0,,,,A1LA6CIGBNDOH9
73,28,,1.0,8.0,2981231403-71642.jpg,2981244403-72215.jpg,2.0,,,,A1LA6CIGBNDOH9
74,29,,1.0,9.0,2446758985-197609.jpg,2898624426-291544.jpg,3.0,,,,A1LA6CIGBNDOH9
75,30,,1.0,10.0,2986451363-73599.jpg,2860302315-210704.jpg,2.0,,,,A1LA6CIGBNDOH9
76,31,left,1.0,11.0,left.jpg,,,left,0.4765,,A1LA6CIGBNDOH9
77,32,,1.0,12.0,2864910426-287204.jpg,2901939433-69672.jpg,3.0,,,,A1LA6CIGBNDOH9
78,33,,1.0,13.0,2874303365-214262.jpg,2238563377-332054.jpg,2.0,,,,A1LA6CIGBNDOH9
79,34,,1.0,14.0,2238580740-186218.jpg,2964220333-71258.jpg,3.0,,,,A1LA6CIGBNDOH9
80,35,,1.0,15.0,2898618390-216538.jpg,2901939327-367670.jpg,2.0,,,,A1LA6CIGBNDOH9
81,36,,1.0,16.0,2449442529-124446.jpg,2460547536-274181.jpg,2.0,,,,A1LA6CIGBNDOH9
82,37,,1.0,17.0,2874307433-66280.jpg,2981231422-369714.jpg,3.0,,,,A1LA6CIGBNDOH9
83,38,left,1.0,18.0,left.jpg,,,left,0.5173,,A1LA6CIGBNDOH9
84,39,,1.0,19.0,2238481198-19822.jpg,2238480803-19737.jpg,3.0,,,,A1LA6CIGBNDOH9
85,40,,1.0,20.0,2460547467-349422.jpg,2864909447-362146.jpg,3.0,,,,A1LA6CIGBNDOH9
86,41,,1.0,21.0,2901952513-70703.jpg,2864907361-287062.jpg,1.0,,,,A1LA6CIGBNDOH9
87,42,,1.0,22.0,2460547467-349421.jpg,2981235446-294901.jpg,3.0,,,,A1LA6CIGBNDOH9
88,43,,1.0,23.0,2458347385-199723.jpg,2427874554-121863.jpg,2.0,,,,A1LA6CIGBNDOH9
89,44,,1.0,24.0,2592380177-354629.jpg,2512875587-350044.jpg,3.0,,,,A1LA6CIGBNDOH9
90,45,,1.0,25.0,2901941401-292798.jpg,2981243412-370222.jpg,2.0,,,,A1LA6CIGBNDOH9
91,46,,1.0,26.0,2592380177-354626.jpg,2986408339-146952.jpg,1.0,,,,A1LA6CIGBNDOH9
92,47,,1.0,27.0,2864907432-362042.jpg,2864901420-212147.jpg,1.0,,,,A1LA6CIGBNDOH9
93,48,,1.0,28.0,2901947423-70311.jpg,2238573447-333826.jpg,2.0,,,,A1LA6CIGBNDOH9
94,49,right,1.0,29.0,right.jpg,,,right,0.5646,,A1LA6CIGBNDOH9
95,50,,1.0,30.0,2883268412-365898.jpg,2984626312-370849.jpg,1.0,,,,A1LA6CIGBNDOH9
96,51,,1.0,31.0,2874302418-65979.jpg,2238578544-111698.jpg,3.0,,,,A1LA6CIGBNDOH9
97,52,,1.0,32.0,2874302418-65978.jpg,2898633321-291943.jpg,3.0,,,,A1LA6CIGBNDOH9
98,53,,1.0,33.0,2898635428-69104.jpg,2901943411-292945.jpg,2.0,,,,A1LA6CIGBNDOH9
99,54,,1.0,34.0,2981241414-145842.jpg,2856919327-359676.jpg,1.0,,,,A1LA6CIGBNDOH9
100,55,,1.0,35.0,2460547508-51571.jpg,2460547291-274110.jpg,1.0,,,,A1LA6CIGBNDOH9
101,56,,1.0,36.0,2238425482-313537.jpg,2898633480-217190.jpg,3.0,,,,A1LA6CIGBNDOH9
102,57,,1.0,37.0,2575120738-55529.jpg,2238531493-28260.jpg,3.0,,,,A1LA6CIGBNDOH9
103,58,,1.0,38.0,2238480677-317399.jpg,2238480278-19661.jpg,3.0,,,,A1LA6CIGBNDOH9
104,59,,1.0,39.0,2964213381-294060.jpg,2981244394-145974.jpg,1.0,,,,A1LA6CIGBNDOH9
105,60,,1.0,40.0,2883254439-140941.jpg,2446760844-124088.jpg,1.0,,,,A1LA6CIGBNDOH9
106,61,left,1.0,41.0,left.jpg,,,left,0.6386,,A1LA6CIGBNDOH9
107,62,,1.0,42.0,2898635427-367120.jpg,2901946439-144040.jpg,1.0,,,,A1LA6CIGBNDOH9
108,63,,1.0,43.0,2964218374-144967.jpg,2981231446-294732.jpg,3.0,,,,A1LA6CIGBNDOH9
109,64,,1.0,44.0,2874301407-363895.jpg,2883264368-67631.jpg,1.0,,,,A1LA6CIGBNDOH9
110,65,,1.0,45.0,2898634397-367080.jpg,2237944827-301472.jpg,1.0,,,,A1LA6CIGBNDOH9
111,66,,1.0,46.0,2449442529-124445.jpg,2452380171-273112.jpg,1.0,,,,A1LA6CIGBNDOH9
112,67,,1.0,47.0,2452381505-199546.jpg,2901938432-367627.jpg,1.0,,,,A1LA6CIGBNDOH9
113,68,,1.0,48.0,2901939379-143480.jpg,2901938432-367629.jpg,3.0,,,,A1LA6CIGBNDOH9
114,69,,1.0,49.0,2238572663-35822.jpg,2864903351-286874.jpg,3.0,,,,A1LA6CIGBNDOH9
115,70,,1.0,50.0,2964223381-294447.jpg,2901941438-69836.jpg,2.0,,,,A1LA6CIGBNDOH9
116,71,,1.0,51.0,2238481928-19949.jpg,2883264367-365620.jpg,1.0,,,,A1LA6CIGBNDOH9
117,72,left,1.0,52.0,left.jpg,,,left,0.5445,,A1LA6CIGBNDOH9
118,73,,1.0,53.0,2238560245-182099.jpg,2874314526-289684.jpg,2.0,,,,A1LA6CIGBNDOH9
119,74,,1.0,54.0,2898617468-68274.jpg,2864906345-212360.jpg,1.0,,,,A1LA6CIGBNDOH9
120,75,,1.0,55.0,2901939379-143479.jpg,2446758985-197610.jpg,2.0,,,,A1LA6CIGBNDOH9
121,76,,1.0,56.0,2898633421-291973.jpg,2512876023-52283.jpg,1.0,,,,A1LA6CIGBNDOH9
122,77,,1.0,57.0,2449441881-272368.jpg,2883268412-365899.jpg,1.0,,,,A1LA6CIGBNDOH9
123,78,,1.0,58.0,2452380832-348593.jpg,2238481813-19930.jpg,2.0,,,,A1LA6CIGBNDOH9
124,79,,1.0,59.0,2512875899-126682.jpg,2986447332-371497.jpg,3.0,,,,A1LA6CIGBNDOH9
125,80,,1.0,60.0,2868474407-362883.jpg,2238516618-25604.jpg,1.0,,,,A1LA6CIGBNDOH9
126,81,,1.0,61.0,2446759347-347016.jpg,2901951350-218702.jpg,2.0,,,,A1LA6CIGBNDOH9
127,82,,1.0,62.0,2874299429-139695.jpg,2883266388-67750.jpg,1.0,,,,A1LA6CIGBNDOH9
128,83,,1.0,63.0,2883256307-365057.jpg,2964210336-293945.jpg,2.0,,,,A1LA6CIGBNDOH9
129,84,,1.0,64.0,2883268471-290842.jpg,2883255450-215310.jpg,2.0,,,,A1LA6CIGBNDOH9
130,20,,1.0,0.0,2592380177-354626.jpg,2238117096-228518.jpg,3.0,,,,A22HIX1M4QXZBB
131,21,,1.0,1.0,2449442529-124446.jpg,2460547536-274181.jpg,2.0,,,,A22HIX1M4QXZBB
132,22,,1.0,2.0,2449441881-272368.jpg,2449441881-272367.jpg,3.0,,,,A22HIX1M4QXZBB
133,23,,1.0,3.0,2986451363-73599.jpg,2901939327-367669.jpg,1.0,,,,A22HIX1M4QXZBB
134,24,,1.0,4.0,2964216465-219242.jpg,2898619327-366362.jpg,3.0,,,,A22HIX1M4QXZBB
135,25,,1.0,5.0,2901947423-70311.jpg,2238573447-333826.jpg,2.0,,,,A22HIX1M4QXZBB
136,26,,1.0,6.0,2898618444-142233.jpg,2238555262-330312.jpg,2.0,,,,A22HIX1M4QXZBB
137,27,,1.0,7.0,2452381505-199546.jpg,2238567168-34916.jpg,2.0,,,,A22HIX1M4QXZBB
138,28,,1.0,8.0,2592380177-354629.jpg,2898633421-291974.jpg,1.0,,,,A22HIX1M4QXZBB
139,29,,1.0,9.0,2452380832-348593.jpg,2449442181-272436.jpg,3.0,,,,A22HIX1M4QXZBB
140,30,,1.0,10.0,2898634397-367080.jpg,2901934408-69289.jpg,2.0,,,,A22HIX1M4QXZBB
141,31,,1.0,11.0,2864910426-287204.jpg,2901939433-69672.jpg,3.0,,,,A22HIX1M4QXZBB
142,32,right,1.0,12.0,right.jpg,,,right,0.7081,,A22HIX1M4QXZBB
143,33,,1.0,13.0,2238428357-313623.jpg,2984615361-295509.jpg,2.0,,,,A22HIX1M4QXZBB
144,34,,1.0,14.0,2874301407-363895.jpg,2986397322-371109.jpg,2.0,,,,A22HIX1M4QXZBB
145,35,,1.0,15.0,2898618390-216538.jpg,2575120609-129862.jpg,3.0,,,,A22HIX1M4QXZBB
146,36,,1.0,16.0,2901941401-292798.jpg,2981243412-370222.jpg,2.0,,,,A22HIX1M4QXZBB
147,37,,1.0,17.0,2446758985-197609.jpg,2981240424-145795.jpg,1.0,,,,A22HIX1M4QXZBB
148,38,,1.0,18.0,2458347385-199723.jpg,2238480434-93829.jpg,1.0,,,,A22HIX1M4QXZBB
149,39,left,1.0,19.0,left.jpg,,,left,0.6796,,A22HIX1M4QXZBB
150,40,,1.0,20.0,2901948350-218459.jpg,2804906319-133082.jpg,1.0,,,,A22HIX1M4QXZBB
151,41,,1.0,21.0,2874299429-139695.jpg,2883266388-67750.jpg,1.0,,,,A22HIX1M4QXZBB
152,42,,1.0,22.0,2874302418-65978.jpg,2898626385-216899.jpg,1.0,,,,A22HIX1M4QXZBB
153,43,,1.0,23.0,2868475410-213219.jpg,2901946465-218350.jpg,1.0,,,,A22HIX1M4QXZBB
154,44,,1.0,24.0,2898635427-367120.jpg,2868479517-363220.jpg,2.0,,,,A22HIX1M4QXZBB
155,45,,1.0,25.0,2238481198-19822.jpg,2901946436-293242.jpg,2.0,,,,A22HIX1M4QXZBB
156,46,left,1.0,26.0,left.jpg,,,left,0.6404,,A22HIX1M4QXZBB
157,47,,1.0,27.0,2874302418-65979.jpg,2413147898-43548.jpg,1.0,,,,A22HIX1M4QXZBB
158,48,,1.0,28.0,2460547467-349422.jpg,2868487415-213924.jpg,2.0,,,,A22HIX1M4QXZBB
159,49,,1.0,29.0,2238572663-35822.jpg,2238571930-184143.jpg,2.0,,,,A22HIX1M4QXZBB
160,50,,1.0,30.0,2592379964-131054.jpg,2592380272-354673.jpg,3.0,,,,A22HIX1M4QXZBB
161,51,,1.0,31.0,2898635428-69104.jpg,2901943411-292945.jpg,2.0,,,,A22HIX1M4QXZBB
162,52,,1.0,32.0,2964213381-294060.jpg,2964213381-294061.jpg,3.0,,,,A22HIX1M4QXZBB
163,53,,1.0,33.0,2512875899-126682.jpg,2986447332-371497.jpg,3.0,,,,A22HIX1M4QXZBB
164,54,,1.0,34.0,2883268412-365898.jpg,2984626312-370849.jpg,1.0,,,,A22HIX1M4QXZBB
165,55,,1.0,35.0,2446759803-49249.jpg,2898618440-216547.jpg,2.0,,,,A22HIX1M4QXZBB
166,56,,1.0,36.0,2898617468-68274.jpg,2964207374-144577.jpg,3.0,,,,A22HIX1M4QXZBB
167,57,left,1.0,37.0,left.jpg,,,left,0.8078,,A22HIX1M4QXZBB
168,58,,1.0,38.0,2901952513-70703.jpg,2868469411-287540.jpg,2.0,,,,A22HIX1M4QXZBB
169,59,,1.0,39.0,2238481928-19949.jpg,2864900357-361688.jpg,2.0,,,,A22HIX1M4QXZBB
170,60,,1.0,40.0,2901939379-143480.jpg,2901942428-69919.jpg,1.0,,,,A22HIX1M4QXZBB
171,61,,1.0,41.0,2874303365-214262.jpg,2864911457-362260.jpg,3.0,,,,A22HIX1M4QXZBB
172,62,,1.0,42.0,2883256307-365057.jpg,2611628310-206388.jpg,1.0,,,,A22HIX1M4QXZBB
173,63,,1.0,43.0,2238560245-182099.jpg,2874314526-289684.jpg,2.0,,,,A22HIX1M4QXZBB
174,64,,1.0,44.0,2446759347-347016.jpg,2238569117-333045.jpg,3.0,,,,A22HIX1M4QXZBB
175,65,,1.0,45.0,2449442529-124445.jpg,2898632385-217137.jpg,3.0,,,,A22HIX1M4QXZBB
176,66,,1.0,46.0,2238425482-313537.jpg,2898633480-217190.jpg,3.0,,,,A22HIX1M4QXZBB
177,67,,1.0,47.0,2898633421-291973.jpg,2238550049-105691.jpg,3.0,,,,A22HIX1M4QXZBB
178,68,,1.0,48.0,2874307433-66280.jpg,2986447306-296584.jpg,1.0,,,,A22HIX1M4QXZBB
179,69,,1.0,49.0,2964223381-294447.jpg,2427874231-269884.jpg,1.0,,,,A22HIX1M4QXZBB
180,70,,1.0,50.0,2238580740-186218.jpg,2238550816-254000.jpg,1.0,,,,A22HIX1M4QXZBB
181,71,,1.0,51.0,2883254439-140941.jpg,2981231446-294730.jpg,3.0,,,,A22HIX1M4QXZBB
182,72,right,1.0,52.0,right.jpg,,,right,0.6264,,A22HIX1M4QXZBB
183,73,,1.0,53.0,2575120738-55529.jpg,2898632385-217138.jpg,1.0,,,,A22HIX1M4QXZBB
184,74,,1.0,54.0,2901939379-143479.jpg,2981240424-145794.jpg,3.0,,,,A22HIX1M4QXZBB
185,75,,1.0,55.0,2460547508-51571.jpg,2981232437-369759.jpg,2.0,,,,A22HIX1M4QXZBB
186,76,,1.0,56.0,2981231403-71642.jpg,2274829821-263682.jpg,1.0,,,,A22HIX1M4QXZBB
187,77,,1.0,57.0,2460547467-349421.jpg,2898631394-142727.jpg,1.0,,,,A22HIX1M4QXZBB
188,78,,1.0,58.0,2868474407-362883.jpg,2238516618-25604.jpg,1.0,,,,A22HIX1M4QXZBB
189,79,,1.0,59.0,2883268471-290842.jpg,2901947448-70314.jpg,3.0,,,,A22HIX1M4QXZBB
190,80,,1.0,60.0,2964218374-144967.jpg,2883254439-140940.jpg,2.0,,,,A22HIX1M4QXZBB
191,81,,1.0,61.0,2898624426-291546.jpg,2981235446-294900.jpg,3.0,,,,A22HIX1M4QXZBB
192,82,,1.0,62.0,2981241414-145842.jpg,2874301404-139813.jpg,2.0,,,,A22HIX1M4QXZBB
193,83,,1.0,63.0,2238480677-317399.jpg,2238480278-19661.jpg,3.0,,,,A22HIX1M4QXZBB
194,84,,1.0,64.0,2864907432-362042.jpg,2864901420-212147.jpg,1.0,,,,A22HIX1M4QXZBB
195,20,,1.0,0.0,2874301407-363895.jpg,2986397322-371109.jpg,2.0,,,,A248QG4DPULP46
196,21,,1.0,1.0,2898633421-291973.jpg,2238550049-105691.jpg,3.0,,,,A248QG4DPULP46
197,22,,1.0,2.0,2981231403-71642.jpg,2981244403-72215.jpg,2.0,,,,A248QG4DPULP46
198,23,,1.0,3.0,2901947423-70311.jpg,2238573447-333826.jpg,2.0,,,,A248QG4DPULP46
199,24,,1.0,4.0,2575120738-55529.jpg,2238531493-28260.jpg,3.0,,,,A248QG4DPULP46
200,25,,1.0,5.0,2964216465-219242.jpg,2898619327-366362.jpg,3.0,,,,A248QG4DPULP46
201,26,right,1.0,6.0,right.jpg,,,right,0.5483,,A248QG4DPULP46
202,27,,1.0,7.0,2868474407-362883.jpg,2901948383-70363.jpg,3.0,,,,A248QG4DPULP46
203,28,,1.0,8.0,2964213381-294060.jpg,2458348012-349114.jpg,2.0,,,,A248QG4DPULP46
204,29,,1.0,9.0,2592379964-131054.jpg,2238479053-19457.jpg,2.0,,,,A248QG4DPULP46
205,30,,1.0,10.0,2452381505-199546.jpg,2901938432-367627.jpg,1.0,,,,A248QG4DPULP46
206,31,,1.0,11.0,2898618444-142233.jpg,2898618444-142232.jpg,3.0,,,,A248QG4DPULP46
207,32,,1.0,12.0,2874303365-214262.jpg,2238563377-332054.jpg,2.0,,,,A248QG4DPULP46
208,33,,1.0,13.0,2452380832-348593.jpg,2238481813-19930.jpg,2.0,,,,A248QG4DPULP46
209,34,,1.0,14.0,2883268471-290842.jpg,2883268471-290843.jpg,1.0,,,,A248QG4DPULP46
210,35,,1.0,15.0,2874302418-65979.jpg,2238578544-111698.jpg,3.0,,,,A248QG4DPULP46
211,36,,1.0,16.0,2864910426-287204.jpg,2874299429-139694.jpg,2.0,,,,A248QG4DPULP46
212,37,,1.0,17.0,2238480677-317399.jpg,2238481630-168218.jpg,1.0,,,,A248QG4DPULP46
213,38,left,1.0,18.0,left.jpg,,,left,0.56,,A248QG4DPULP46
214,39,,1.0,19.0,2901952513-70703.jpg,2868469411-287540.jpg,2.0,,,,A248QG4DPULP46
215,40,,1.0,20.0,2592380177-354626.jpg,2238117096-228518.jpg,3.0,,,,A248QG4DPULP46
216,41,,1.0,21.0,2901939379-143479.jpg,2460547467-349423.jpg,1.0,,,,A248QG4DPULP46
217,42,,1.0,22.0,2238572663-35822.jpg,2238571930-184143.jpg,2.0,,,,A248QG4DPULP46
218,43,,1.0,23.0,2898634397-367080.jpg,2901934408-69289.jpg,2.0,,,,A248QG4DPULP46
219,44,,1.0,24.0,2874299429-139695.jpg,2883266388-67750.jpg,1.0,,,,A248QG4DPULP46
220,45,,1.0,25.0,2883256307-365057.jpg,2611628310-206388.jpg,1.0,,,,A248QG4DPULP46
221,46,,1.0,26.0,2981241414-145842.jpg,2427873848-47312.jpg,3.0,,,,A248QG4DPULP46
222,47,,1.0,27.0,2238580740-186218.jpg,2964220333-71258.jpg,3.0,,,,A248QG4DPULP46
223,48,,1.0,28.0,2238425482-313537.jpg,2898633480-217190.jpg,3.0,,,,A248QG4DPULP46
224,49,,1.0,29.0,2864907432-362042.jpg,2901947423-70310.jpg,2.0,,,,A248QG4DPULP46
225,50,,1.0,30.0,2964223381-294447.jpg,2427874231-269884.jpg,1.0,,,,A248QG4DPULP46
226,51,,1.0,31.0,2238481198-19822.jpg,2238480803-19737.jpg,3.0,,,,A248QG4DPULP46
227,52,,1.0,32.0,2449442529-124445.jpg,2452380171-273112.jpg,1.0,,,,A248QG4DPULP46
228,53,,1.0,33.0,2460547467-349421.jpg,2898631394-142727.jpg,1.0,,,,A248QG4DPULP46
229,54,right,1.0,34.0,right.jpg,,,right,0.4952,,A248QG4DPULP46
230,55,,1.0,35.0,2460547467-349422.jpg,2864909447-362146.jpg,3.0,,,,A248QG4DPULP46
231,56,,1.0,36.0,2901948350-218459.jpg,2804906319-133082.jpg,1.0,,,,A248QG4DPULP46
232,57,,1.0,37.0,2446759803-49249.jpg,2446760601-272099.jpg,1.0,,,,A248QG4DPULP46
233,58,,1.0,38.0,2874302418-65978.jpg,2898626385-216899.jpg,1.0,,,,A248QG4DPULP46
234,59,,1.0,39.0,2446759347-347016.jpg,2238569117-333045.jpg,3.0,,,,A248QG4DPULP46
235,60,,1.0,40.0,2446758985-197609.jpg,2981240424-145795.jpg,1.0,,,,A248QG4DPULP46
236,61,,1.0,41.0,2874307433-66280.jpg,2986447306-296584.jpg,1.0,,,,A248QG4DPULP46
237,62,,1.0,42.0,2592380177-354629.jpg,2579432534-130704.jpg,2.0,,,,A248QG4DPULP46
238,63,,1.0,43.0,2883268412-365898.jpg,2984615361-295510.jpg,2.0,,,,A248QG4DPULP46
239,64,left,1.0,44.0,left.jpg,,,left,0.595,,A248QG4DPULP46
240,65,,1.0,45.0,2868475410-213219.jpg,2901946465-218350.jpg,1.0,,,,A248QG4DPULP46
241,66,,1.0,46.0,2901939379-143480.jpg,2901942428-69919.jpg,1.0,,,,A248QG4DPULP46
242,67,,1.0,47.0,2901941401-292798.jpg,2883273443-68193.jpg,3.0,,,,A248QG4DPULP46
243,68,,1.0,48.0,2238428357-313623.jpg,2238499057-320266.jpg,1.0,,,,A248QG4DPULP46
244,69,,1.0,49.0,2449442529-124446.jpg,2460547536-274181.jpg,2.0,,,,A248QG4DPULP46
245,70,left,1.0,50.0,left.jpg,,,left,0.4999,,A248QG4DPULP46
246,71,,1.0,51.0,2238481928-19949.jpg,2864900357-361688.jpg,2.0,,,,A248QG4DPULP46
247,72,,1.0,52.0,2898635427-367120.jpg,2898621427-366486.jpg,3.0,,,,A248QG4DPULP46
248,73,,1.0,53.0,2883254439-140941.jpg,2898632385-217136.jpg,2.0,,,,A248QG4DPULP46
249,74,,1.0,54.0,2898617468-68274.jpg,2864906345-212360.jpg,1.0,,,,A248QG4DPULP46
250,75,,1.0,55.0,2458347385-199723.jpg,2458347252-348911.jpg,3.0,,,,A248QG4DPULP46
251,76,,1.0,56.0,2238560245-182099.jpg,2874314526-289684.jpg,2.0,,,,A248QG4DPULP46
252,77,,1.0,57.0,2964218374-144967.jpg,2883254439-140940.jpg,2.0,,,,A248QG4DPULP46
253,78,,1.0,58.0,2898635428-69104.jpg,2898625336-291572.jpg,3.0,,,,A248QG4DPULP46
254,79,,1.0,59.0,2898618390-216538.jpg,2575120609-129862.jpg,3.0,,,,A248QG4DPULP46
255,80,,1.0,60.0,2449441881-272368.jpg,2883268412-365899.jpg,1.0,,,,A248QG4DPULP46
256,81,,1.0,61.0,2512875899-126682.jpg,2592380177-354628.jpg,2.0,,,,A248QG4DPULP46
257,82,,1.0,62.0,2898624426-291546.jpg,2981235446-294900.jpg,3.0,,,,A248QG4DPULP46
258,83,,1.0,63.0,2460547508-51571.jpg,2901941438-69835.jpg,3.0,,,,A248QG4DPULP46
259,84,,1.0,64.0,2986451363-73599.jpg,2901939327-367669.jpg,1.0,,,,A248QG4DPULP46
260,20,,1.0,0.0,2964223381-294447.jpg,2427874231-269884.jpg,1.0,,,,A25Y3D2Y2DR8WM
261,21,,1.0,1.0,2874307433-66280.jpg,2981246400-220365.jpg,2.0,,,,A25Y3D2Y2DR8WM
262,22,,1.0,2.0,2901941401-292798.jpg,2898618327-366317.jpg,1.0,,,,A25Y3D2Y2DR8WM
263,23,,1.0,3.0,2874303365-214262.jpg,2609793677-355397.jpg,1.0,,,,A25Y3D2Y2DR8WM
264,24,,1.0,4.0,2452381505-199546.jpg,2901938432-367627.jpg,1.0,,,,A25Y3D2Y2DR8WM
265,25,,1.0,5.0,2981241414-145842.jpg,2427873848-47312.jpg,3.0,,,,A25Y3D2Y2DR8WM
266,26,,1.0,6.0,2883268412-365898.jpg,2984626312-370849.jpg,1.0,,,,A25Y3D2Y2DR8WM
267,27,,1.0,7.0,2864910426-287204.jpg,2901939433-69672.jpg,3.0,,,,A25Y3D2Y2DR8WM
268,28,,1.0,8.0,2868475410-213219.jpg,2868474407-362885.jpg,3.0,,,,A25Y3D2Y2DR8WM
269,29,,1.0,9.0,2449442529-124445.jpg,2452380171-273112.jpg,1.0,,,,A25Y3D2Y2DR8WM
270,30,,1.0,10.0,2238572663-35822.jpg,2986419333-73361.jpg,1.0,,,,A25Y3D2Y2DR8WM
271,31,,1.0,11.0,2898618390-216538.jpg,2901939327-367670.jpg,2.0,,,,A25Y3D2Y2DR8WM
272,32,right,1.0,12.0,right.jpg,,,right,1.54,,A25Y3D2Y2DR8WM
273,33,,1.0,13.0,2238481198-19822.jpg,2238480803-19737.jpg,3.0,,,,A25Y3D2Y2DR8WM
274,34,,1.0,14.0,2964218374-144967.jpg,2883254439-140940.jpg,2.0,,,,A25Y3D2Y2DR8WM
275,35,,1.0,15.0,2883256307-365057.jpg,2611628310-206388.jpg,1.0,,,,A25Y3D2Y2DR8WM
276,36,,1.0,16.0,2452380832-348593.jpg,2238481813-19930.jpg,2.0,,,,A25Y3D2Y2DR8WM
277,37,,1.0,17.0,2964216465-219242.jpg,2864900319-137787.jpg,2.0,,,,A25Y3D2Y2DR8WM
278,38,,1.0,18.0,2575120738-55529.jpg,2575120738-55528.jpg,2.0,,,,A25Y3D2Y2DR8WM
279,39,left,1.0,19.0,left.jpg,,,left,1.464,,A25Y3D2Y2DR8WM
280,40,,1.0,20.0,2883254439-140941.jpg,2981231446-294730.jpg,3.0,,,,A25Y3D2Y2DR8WM
281,41,,1.0,21.0,2512875899-126682.jpg,2986447332-371497.jpg,3.0,,,,A25Y3D2Y2DR8WM
282,42,,1.0,22.0,2449441881-272368.jpg,2984615358-72439.jpg,2.0,,,,A25Y3D2Y2DR8WM
283,43,,1.0,23.0,2898618444-142233.jpg,2898631359-142721.jpg,1.0,,,,A25Y3D2Y2DR8WM
284,44,,1.0,24.0,2898635427-367120.jpg,2901946439-144040.jpg,1.0,,,,A25Y3D2Y2DR8WM
285,45,,1.0,25.0,2964213381-294060.jpg,2964213381-294061.jpg,3.0,,,,A25Y3D2Y2DR8WM
286,46,,1.0,26.0,2446758985-197609.jpg,2981240424-145795.jpg,1.0,,,,A25Y3D2Y2DR8WM
287,47,,1.0,27.0,2901948350-218459.jpg,2981246360-220352.jpg,3.0,,,,A25Y3D2Y2DR8WM
288,48,,1.0,28.0,2981231403-71642.jpg,2274829821-263682.jpg,1.0,,,,A25Y3D2Y2DR8WM
289,49,,1.0,29.0,2898617468-68274.jpg,2964207374-144577.jpg,3.0,,,,A25Y3D2Y2DR8WM
290,50,,1.0,30.0,2446759803-49249.jpg,2446760601-272099.jpg,1.0,,,,A25Y3D2Y2DR8WM
291,51,,0.0,31.0,left.jpg,,,left,,,A25Y3D2Y2DR8WM
292,52,,1.0,32.0,2449442529-124446.jpg,2460547536-274181.jpg,2.0,,,,A25Y3D2Y2DR8WM
293,53,,1.0,33.0,2883268471-290842.jpg,2901947448-70314.jpg,3.0,,,,A25Y3D2Y2DR8WM
294,54,,1.0,34.0,2901939379-143480.jpg,2981229442-369621.jpg,2.0,,,,A25Y3D2Y2DR8WM
295,55,,1.0,35.0,2898633421-291973.jpg,2512876023-52283.jpg,1.0,,,,A25Y3D2Y2DR8WM
296,56,,1.0,36.0,2874302418-65978.jpg,2898633321-291943.jpg,3.0,,,,A25Y3D2Y2DR8WM
297,57,,1.0,37.0,2898624426-291546.jpg,2981236443-71859.jpg,2.0,,,,A25Y3D2Y2DR8WM
298,58,left,1.0,38.0,left.jpg,,,left,1.38,,A25Y3D2Y2DR8WM
299,59,,1.0,39.0,2238425482-313537.jpg,2238471391-240918.jpg,1.0,,,,A25Y3D2Y2DR8WM
300,60,,1.0,40.0,2458347385-199723.jpg,2238480434-93829.jpg,1.0,,,,A25Y3D2Y2DR8WM
301,61,,1.0,41.0,2460547467-349421.jpg,2452380166-273110.jpg,2.0,,,,A25Y3D2Y2DR8WM
302,62,,1.0,42.0,2238428357-313623.jpg,2238499057-320266.jpg,1.0,,,,A25Y3D2Y2DR8WM
303,63,,1.0,43.0,2446759347-347016.jpg,2238569117-333045.jpg,3.0,,,,A25Y3D2Y2DR8WM
304,64,,1.0,44.0,2238580740-186218.jpg,2964220333-71258.jpg,3.0,,,,A25Y3D2Y2DR8WM
305,65,,1.0,45.0,2901947423-70311.jpg,2238573447-333826.jpg,2.0,,,,A25Y3D2Y2DR8WM
306,66,,1.0,46.0,2238481928-19949.jpg,2981241419-145844.jpg,3.0,,,,A25Y3D2Y2DR8WM
307,67,,1.0,47.0,2901952513-70703.jpg,2864907361-287062.jpg,1.0,,,,A25Y3D2Y2DR8WM
308,68,,1.0,48.0,2592380177-354626.jpg,2864901386-286797.jpg,2.0,,,,A25Y3D2Y2DR8WM
309,69,,1.0,49.0,2592379964-131054.jpg,2238479053-19457.jpg,2.0,,,,A25Y3D2Y2DR8WM
310,70,left,1.0,50.0,left.jpg,,,left,2.091,,A25Y3D2Y2DR8WM
311,71,,1.0,51.0,2898634397-367080.jpg,2901934408-69289.jpg,2.0,,,,A25Y3D2Y2DR8WM
312,72,,1.0,52.0,2238560245-182099.jpg,2549106624-127823.jpg,1.0,,,,A25Y3D2Y2DR8WM
313,73,,1.0,53.0,2864907432-362042.jpg,2989726338-74002.jpg,3.0,,,,A25Y3D2Y2DR8WM
314,74,,1.0,54.0,2592380177-354629.jpg,2579432534-130704.jpg,2.0,,,,A25Y3D2Y2DR8WM
315,75,,1.0,55.0,2874301407-363895.jpg,2901947323-70275.jpg,3.0,,,,A25Y3D2Y2DR8WM
316,76,,1.0,56.0,2868474407-362883.jpg,2981246400-220363.jpg,2.0,,,,A25Y3D2Y2DR8WM
317,77,,1.0,57.0,2901939379-143479.jpg,2446758985-197610.jpg,2.0,,,,A25Y3D2Y2DR8WM
318,78,,1.0,58.0,2238480677-317399.jpg,2238573546-258454.jpg,2.0,,,,A25Y3D2Y2DR8WM
319,79,,1.0,59.0,2460547467-349422.jpg,2864909447-362146.jpg,3.0,,,,A25Y3D2Y2DR8WM
320,80,,1.0,60.0,2874299429-139695.jpg,2446760917-347439.jpg,3.0,,,,A25Y3D2Y2DR8WM
321,81,,1.0,61.0,2898635428-69104.jpg,2446759803-49250.jpg,1.0,,,,A25Y3D2Y2DR8WM
322,82,,1.0,62.0,2460547508-51571.jpg,2901941438-69835.jpg,3.0,,,,A25Y3D2Y2DR8WM
323,83,,1.0,63.0,2874302418-65979.jpg,2238480648-19714.jpg,2.0,,,,A25Y3D2Y2DR8WM
324,84,,1.0,64.0,2986451363-73599.jpg,2238434559-90406.jpg,3.0,,,,A25Y3D2Y2DR8WM
325,20,,1.0,0.0,2883268412-365898.jpg,2984626312-370849.jpg,1.0,,,,A2D05J2CGBANHB
326,21,,1.0,1.0,2449441881-272368.jpg,2984615358-72439.jpg,2.0,,,,A2D05J2CGBANHB
327,22,,1.0,2.0,2874307433-66280.jpg,2981246400-220365.jpg,2.0,,,,A2D05J2CGBANHB
328,23,,1.0,3.0,2575120738-55529.jpg,2575120738-55528.jpg,2.0,,,,A2D05J2CGBANHB
329,24,,1.0,4.0,2901952513-70703.jpg,2868469411-287540.jpg,2.0,,,,A2D05J2CGBANHB
330,25,,1.0,5.0,2964213381-294060.jpg,2964213381-294061.jpg,3.0,,,,A2D05J2CGBANHB
331,26,,1.0,6.0,2864910426-287204.jpg,2864902304-137862.jpg,1.0,,,,A2D05J2CGBANHB
332,27,,1.0,7.0,2238580740-186218.jpg,2238521193-26285.jpg,2.0,,,,A2D05J2CGBANHB
333,28,,1.0,8.0,2452381505-199546.jpg,2994401319-148290.jpg,3.0,,,,A2D05J2CGBANHB
334,29,,1.0,9.0,2898618444-142233.jpg,2898631359-142721.jpg,1.0,,,,A2D05J2CGBANHB
335,30,,1.0,10.0,2238428357-313623.jpg,2238499057-320266.jpg,1.0,,,,A2D05J2CGBANHB
336,31,,1.0,11.0,2898635427-367120.jpg,2898621427-366486.jpg,3.0,,,,A2D05J2CGBANHB
337,32,right,1.0,12.0,right.jpg,,,right,1.342,,A2D05J2CGBANHB
338,33,,1.0,13.0,2874303365-214262.jpg,2864911457-362260.jpg,3.0,,,,A2D05J2CGBANHB
339,34,,1.0,14.0,2449442529-124445.jpg,2898632385-217137.jpg,3.0,,,,A2D05J2CGBANHB
340,35,,1.0,15.0,2238480677-317399.jpg,2238480278-19661.jpg,3.0,,,,A2D05J2CGBANHB
341,36,,1.0,16.0,2898633421-291973.jpg,2512876023-52283.jpg,1.0,,,,A2D05J2CGBANHB
342,37,,1.0,17.0,2898624426-291546.jpg,2981236443-71859.jpg,2.0,,,,A2D05J2CGBANHB
343,38,,1.0,18.0,2901941401-292798.jpg,2981243412-370222.jpg,2.0,,,,A2D05J2CGBANHB
344,39,,1.0,19.0,2986451363-73599.jpg,2238434559-90406.jpg,3.0,,,,A2D05J2CGBANHB
345,40,,1.0,20.0,2964216465-219242.jpg,2238544191-252422.jpg,1.0,,,,A2D05J2CGBANHB
346,41,right,1.0,21.0,right.jpg,,,right,1.137,,A2D05J2CGBANHB
347,42,,1.0,22.0,2874299429-139695.jpg,2446760917-347439.jpg,3.0,,,,A2D05J2CGBANHB
348,43,,1.0,23.0,2898634397-367080.jpg,2964217461-294238.jpg,3.0,,,,A2D05J2CGBANHB
349,44,,1.0,24.0,2898635428-69104.jpg,2446759803-49250.jpg,1.0,,,,A2D05J2CGBANHB
350,45,,1.0,25.0,2238425482-313537.jpg,2238436322-314047.jpg,2.0,,,,A2D05J2CGBANHB
351,46,,1.0,26.0,2446759803-49249.jpg,2452380166-273109.jpg,3.0,,,,A2D05J2CGBANHB
352,47,,1.0,27.0,2458347385-199723.jpg,2458347252-348911.jpg,3.0,,,,A2D05J2CGBANHB
353,48,,1.0,28.0,2446759347-347016.jpg,2238569117-333045.jpg,3.0,,,,A2D05J2CGBANHB
354,49,,1.0,29.0,2238481198-19822.jpg,2238480803-19737.jpg,3.0,,,,A2D05J2CGBANHB
355,50,,1.0,30.0,2868475410-213219.jpg,2868474407-362885.jpg,3.0,,,,A2D05J2CGBANHB
356,51,,1.0,31.0,2592380177-354629.jpg,2512875587-350044.jpg,3.0,,,,A2D05J2CGBANHB
357,52,,1.0,32.0,2901947423-70311.jpg,2860312398-62572.jpg,1.0,,,,A2D05J2CGBANHB
358,53,left,1.0,33.0,left.jpg,,,left,1.082,,A2D05J2CGBANHB
359,54,,1.0,34.0,2964223381-294447.jpg,2901941438-69836.jpg,2.0,,,,A2D05J2CGBANHB
360,55,,1.0,35.0,2981231403-71642.jpg,2981244403-72215.jpg,2.0,,,,A2D05J2CGBANHB
361,56,,1.0,36.0,2864907432-362042.jpg,2901947423-70310.jpg,2.0,,,,A2D05J2CGBANHB
362,57,,1.0,37.0,2901939379-143479.jpg,2460547467-349423.jpg,1.0,,,,A2D05J2CGBANHB
363,58,,1.0,38.0,2874301407-363895.jpg,2883264368-67631.jpg,1.0,,,,A2D05J2CGBANHB
364,59,,1.0,39.0,2883268471-290842.jpg,2883255450-215310.jpg,2.0,,,,A2D05J2CGBANHB
365,60,,1.0,40.0,2460547508-51571.jpg,2901941438-69835.jpg,3.0,,,,A2D05J2CGBANHB
366,61,right,1.0,41.0,right.jpg,,,right,0.861,,A2D05J2CGBANHB
367,62,,1.0,42.0,2460547467-349421.jpg,2898631394-142727.jpg,1.0,,,,A2D05J2CGBANHB
368,63,,1.0,43.0,2452380832-348593.jpg,2238481813-19930.jpg,2.0,,,,A2D05J2CGBANHB
369,64,,1.0,44.0,2883254439-140941.jpg,2446760844-124088.jpg,1.0,,,,A2D05J2CGBANHB
370,65,,1.0,45.0,2898617468-68274.jpg,2901943387-368037.jpg,2.0,,,,A2D05J2CGBANHB
371,66,,1.0,46.0,2964218374-144967.jpg,2964218374-144968.jpg,1.0,,,,A2D05J2CGBANHB
372,67,,1.0,47.0,2238572663-35822.jpg,2238571930-184143.jpg,2.0,,,,A2D05J2CGBANHB
373,68,,1.0,48.0,2874302418-65979.jpg,2413147898-43548.jpg,1.0,,,,A2D05J2CGBANHB
374,69,,1.0,49.0,2238560245-182099.jpg,2549106624-127823.jpg,1.0,,,,A2D05J2CGBANHB
375,70,,1.0,50.0,2446758985-197609.jpg,2898624426-291544.jpg,3.0,,,,A2D05J2CGBANHB
376,71,right,1.0,51.0,right.jpg,,,right,1.11,,A2D05J2CGBANHB
377,72,,1.0,52.0,2901948350-218459.jpg,2804906319-133082.jpg,1.0,,,,A2D05J2CGBANHB
378,73,,1.0,53.0,2868474407-362883.jpg,2901948383-70363.jpg,3.0,,,,A2D05J2CGBANHB
379,74,,1.0,54.0,2449442529-124446.jpg,2446759803-49251.jpg,1.0,,,,A2D05J2CGBANHB
380,75,,1.0,55.0,2238481928-19949.jpg,2864900357-361688.jpg,2.0,,,,A2D05J2CGBANHB
381,76,,1.0,56.0,2874302418-65978.jpg,2898626385-216899.jpg,1.0,,,,A2D05J2CGBANHB
382,77,,1.0,57.0,2592380177-354626.jpg,2864901386-286797.jpg,2.0,,,,A2D05J2CGBANHB
383,78,,1.0,58.0,2898618390-216538.jpg,2575120609-129862.jpg,3.0,,,,A2D05J2CGBANHB
384,79,,1.0,59.0,2901939379-143480.jpg,2901942428-69919.jpg,1.0,,,,A2D05J2CGBANHB
385,80,,1.0,60.0,2592379964-131054.jpg,2238479053-19457.jpg,2.0,,,,A2D05J2CGBANHB
386,81,,1.0,61.0,2883256307-365057.jpg,2611628310-206388.jpg,1.0,,,,A2D05J2CGBANHB
387,82,,1.0,62.0,2460547467-349422.jpg,2868487415-213924.jpg,2.0,,,,A2D05J2CGBANHB
388,83,,1.0,63.0,2512875899-126682.jpg,2592380177-354628.jpg,2.0,,,,A2D05J2CGBANHB
389,84,,1.0,64.0,2981241414-145842.jpg,2427873848-47312.jpg,3.0,,,,A2D05J2CGBANHB
390,20,,1.0,0.0,2238572663-35822.jpg,2238571930-184143.jpg,2.0,,,,A2DM8RFS86D7ZK
391,21,,1.0,1.0,2238481198-19822.jpg,2238480803-19737.jpg,3.0,,,,A2DM8RFS86D7ZK
392,22,,1.0,2.0,2874302418-65978.jpg,2898626385-216899.jpg,1.0,,,,A2DM8RFS86D7ZK
393,23,,1.0,3.0,2868474407-362883.jpg,2238516618-25604.jpg,1.0,,,,A2DM8RFS86D7ZK
394,24,,1.0,4.0,2901947423-70311.jpg,2860312398-62572.jpg,1.0,,,,A2DM8RFS86D7ZK
395,25,,1.0,5.0,2986451363-73599.jpg,2901939327-367669.jpg,1.0,,,,A2DM8RFS86D7ZK
396,26,,1.0,6.0,2898635427-367120.jpg,2898621427-366486.jpg,3.0,,,,A2DM8RFS86D7ZK
397,27,,1.0,7.0,2452381505-199546.jpg,2994401319-148290.jpg,3.0,,,,A2DM8RFS86D7ZK
398,28,,1.0,8.0,2592379964-131054.jpg,2575963989-130576.jpg,1.0,,,,A2DM8RFS86D7ZK
399,29,,1.0,9.0,2883254439-140941.jpg,2446760844-124088.jpg,1.0,,,,A2DM8RFS86D7ZK
400,30,,1.0,10.0,2964223381-294447.jpg,2898628438-68785.jpg,3.0,,,,A2DM8RFS86D7ZK
401,31,,1.0,11.0,2964216465-219242.jpg,2238544191-252422.jpg,1.0,,,,A2DM8RFS86D7ZK
402,32,,1.0,12.0,2238481928-19949.jpg,2883264367-365620.jpg,1.0,,,,A2DM8RFS86D7ZK
403,33,left,1.0,13.0,left.jpg,,,left,0.0069,,A2DM8RFS86D7ZK
404,34,,1.0,14.0,2874302418-65979.jpg,2238480648-19714.jpg,2.0,,,,A2DM8RFS86D7ZK
405,35,,1.0,15.0,2901941401-292798.jpg,2981243412-370222.jpg,2.0,,,,A2DM8RFS86D7ZK
406,36,,1.0,16.0,2874299429-139695.jpg,2883266388-67750.jpg,1.0,,,,A2DM8RFS86D7ZK
407,37,right,0.0,17.0,left.jpg,,,left,0.1884,,A2DM8RFS86D7ZK
408,38,,1.0,18.0,2898634397-367080.jpg,2237944827-301472.jpg,1.0,,,,A2DM8RFS86D7ZK
409,39,,1.0,19.0,2864910426-287204.jpg,2874299429-139694.jpg,2.0,,,,A2DM8RFS86D7ZK
410,40,,1.0,20.0,2964213381-294060.jpg,2964213381-294061.jpg,3.0,,,,A2DM8RFS86D7ZK
411,41,,1.0,21.0,2446758985-197609.jpg,2864909447-362144.jpg,2.0,,,,A2DM8RFS86D7ZK
412,42,,1.0,22.0,2901952513-70703.jpg,2238481198-19821.jpg,3.0,,,,A2DM8RFS86D7ZK
413,43,,1.0,23.0,2446759347-347016.jpg,2964224310-219528.jpg,1.0,,,,A2DM8RFS86D7ZK
414,44,,1.0,24.0,2238428357-313623.jpg,2575121987-353817.jpg,3.0,,,,A2DM8RFS86D7ZK
415,45,,1.0,25.0,2901939379-143479.jpg,2460547467-349423.jpg,1.0,,,,A2DM8RFS86D7ZK
416,46,,1.0,26.0,2238480677-317399.jpg,2238480278-19661.jpg,3.0,,,,A2DM8RFS86D7ZK
417,47,,1.0,27.0,2864907432-362042.jpg,2901947423-70310.jpg,2.0,,,,A2DM8RFS86D7ZK
418,48,,1.0,28.0,2898618444-142233.jpg,2898618444-142232.jpg,3.0,,,,A2DM8RFS86D7ZK
419,49,,1.0,29.0,2449442529-124446.jpg,2898632385-217139.jpg,3.0,,,,A2DM8RFS86D7ZK
420,50,,1.0,30.0,2460547467-349422.jpg,2868487415-213924.jpg,2.0,,,,A2DM8RFS86D7ZK
421,51,,1.0,31.0,2868475410-213219.jpg,2238480803-19739.jpg,2.0,,,,A2DM8RFS86D7ZK
422,52,,1.0,32.0,2874307433-66280.jpg,2981231422-369714.jpg,3.0,,,,A2DM8RFS86D7ZK
423,53,,0.0,33.0,right.jpg,,,right,,,A2DM8RFS86D7ZK
424,54,,1.0,34.0,2981231403-71642.jpg,2981244403-72215.jpg,2.0,,,,A2DM8RFS86D7ZK
425,55,,1.0,35.0,2238425482-313537.jpg,2238436322-314047.jpg,2.0,,,,A2DM8RFS86D7ZK
426,56,,1.0,36.0,2449441881-272368.jpg,2883268412-365899.jpg,1.0,,,,A2DM8RFS86D7ZK
427,57,,1.0,37.0,2874301407-363895.jpg,2883264368-67631.jpg,1.0,,,,A2DM8RFS86D7ZK
428,58,,1.0,38.0,2592380177-354629.jpg,2579432534-130704.jpg,2.0,,,,A2DM8RFS86D7ZK
429,59,,1.0,39.0,2874303365-214262.jpg,2238563377-332054.jpg,2.0,,,,A2DM8RFS86D7ZK
430,60,,1.0,40.0,2901939379-143480.jpg,2901942428-69919.jpg,1.0,,,,A2DM8RFS86D7ZK
431,61,,1.0,41.0,2898618390-216538.jpg,2575120609-129862.jpg,3.0,,,,A2DM8RFS86D7ZK
432,62,,1.0,42.0,2898617468-68274.jpg,2864906345-212360.jpg,1.0,,,,A2DM8RFS86D7ZK
433,63,left,1.0,43.0,left.jpg,,,left,2.7806,,A2DM8RFS86D7ZK
434,64,,1.0,44.0,2883268412-365898.jpg,2238436252-314037.jpg,3.0,,,,A2DM8RFS86D7ZK
435,65,,1.0,45.0,2898624426-291546.jpg,2964218432-369263.jpg,1.0,,,,A2DM8RFS86D7ZK
436,66,,1.0,46.0,2446759803-49249.jpg,2898618440-216547.jpg,2.0,,,,A2DM8RFS86D7ZK
437,67,,1.0,47.0,2238560245-182099.jpg,2874314526-289684.jpg,2.0,,,,A2DM8RFS86D7ZK
438,68,,1.0,48.0,2575120738-55529.jpg,2575120738-55528.jpg,2.0,,,,A2DM8RFS86D7ZK
439,69,,1.0,49.0,2964218374-144967.jpg,2981231446-294732.jpg,3.0,,,,A2DM8RFS86D7ZK
440,70,,1.0,50.0,2898635428-69104.jpg,2898625336-291572.jpg,3.0,,,,A2DM8RFS86D7ZK
441,71,,1.0,51.0,2592380177-354626.jpg,2238117096-228518.jpg,3.0,,,,A2DM8RFS86D7ZK
442,72,,1.0,52.0,2458347385-199723.jpg,2458347252-348911.jpg,3.0,,,,A2DM8RFS86D7ZK
443,73,,1.0,53.0,2460547508-51571.jpg,2460547291-274110.jpg,1.0,,,,A2DM8RFS86D7ZK
444,74,right,1.0,54.0,right.jpg,,,right,0.186,,A2DM8RFS86D7ZK
445,75,,1.0,55.0,2449442529-124445.jpg,2986408373-73286.jpg,2.0,,,,A2DM8RFS86D7ZK
446,76,,1.0,56.0,2883268471-290842.jpg,2883268471-290843.jpg,1.0,,,,A2DM8RFS86D7ZK
447,77,,1.0,57.0,2898633421-291973.jpg,2238550049-105691.jpg,3.0,,,,A2DM8RFS86D7ZK
448,78,,1.0,58.0,2238580740-186218.jpg,2964220333-71258.jpg,3.0,,,,A2DM8RFS86D7ZK
449,79,,1.0,59.0,2883256307-365057.jpg,2611628310-206388.jpg,1.0,,,,A2DM8RFS86D7ZK
450,80,,1.0,60.0,2512875899-126682.jpg,2592380177-354628.jpg,2.0,,,,A2DM8RFS86D7ZK
451,81,,1.0,61.0,2460547467-349421.jpg,2981235446-294901.jpg,3.0,,,,A2DM8RFS86D7ZK
452,82,,1.0,62.0,2901948350-218459.jpg,2417208001-267065.jpg,2.0,,,,A2DM8RFS86D7ZK
453,83,,1.0,63.0,2981241414-145842.jpg,2874301404-139813.jpg,2.0,,,,A2DM8RFS86D7ZK
454,84,,1.0,64.0,2452380832-348593.jpg,2238481813-19930.jpg,2.0,,,,A2DM8RFS86D7ZK
455,20,,1.0,0.0,2864907432-362042.jpg,2901947423-70310.jpg,2.0,,,,A2J1DNVMJ56JG1
456,21,,1.0,1.0,2898617468-68274.jpg,2864906345-212360.jpg,1.0,,,,A2J1DNVMJ56JG1
457,22,,1.0,2.0,2238425482-313537.jpg,2238436322-314047.jpg,2.0,,,,A2J1DNVMJ56JG1
458,23,,1.0,3.0,2964218374-144967.jpg,2981231446-294732.jpg,3.0,,,,A2J1DNVMJ56JG1
459,24,,1.0,4.0,2864910426-287204.jpg,2874299429-139694.jpg,2.0,,,,A2J1DNVMJ56JG1
460,25,,1.0,5.0,2901939379-143480.jpg,2901938432-367629.jpg,3.0,,,,A2J1DNVMJ56JG1
461,26,right,1.0,6.0,right.jpg,,,right,1.3446,,A2J1DNVMJ56JG1
462,27,,1.0,7.0,2964213381-294060.jpg,2981244394-145974.jpg,1.0,,,,A2J1DNVMJ56JG1
463,28,,1.0,8.0,2449442529-124445.jpg,2898632385-217137.jpg,3.0,,,,A2J1DNVMJ56JG1
464,29,,1.0,9.0,2883256307-365057.jpg,2964210336-293945.jpg,2.0,,,,A2J1DNVMJ56JG1
465,30,,1.0,10.0,2238480677-317399.jpg,2238573546-258454.jpg,2.0,,,,A2J1DNVMJ56JG1
466,31,,1.0,11.0,2238560245-182099.jpg,2549106624-127823.jpg,1.0,,,,A2J1DNVMJ56JG1
467,32,,1.0,12.0,2238572663-35822.jpg,2864903351-286874.jpg,3.0,,,,A2J1DNVMJ56JG1
468,33,,1.0,13.0,2901948350-218459.jpg,2804906319-133082.jpg,1.0,,,,A2J1DNVMJ56JG1
469,34,,1.0,14.0,2883268471-290842.jpg,2883255450-215310.jpg,2.0,,,,A2J1DNVMJ56JG1
470,35,,1.0,15.0,2901939379-143479.jpg,2460547467-349423.jpg,1.0,,,,A2J1DNVMJ56JG1
471,36,,1.0,16.0,2981241414-145842.jpg,2856919327-359676.jpg,1.0,,,,A2J1DNVMJ56JG1
472,37,,1.0,17.0,2964216465-219242.jpg,2238544191-252422.jpg,1.0,,,,A2J1DNVMJ56JG1
473,38,,1.0,18.0,2901947423-70311.jpg,2860312398-62572.jpg,1.0,,,,A2J1DNVMJ56JG1
474,39,,1.0,19.0,2898634397-367080.jpg,2901934408-69289.jpg,2.0,,,,A2J1DNVMJ56JG1
475,40,,1.0,20.0,2898624426-291546.jpg,2964218432-369263.jpg,1.0,,,,A2J1DNVMJ56JG1
476,41,right,1.0,21.0,right.jpg,,,right,1.3315,,A2J1DNVMJ56JG1
477,42,,1.0,22.0,2874302418-65979.jpg,2238578544-111698.jpg,3.0,,,,A2J1DNVMJ56JG1
478,43,,1.0,23.0,2460547508-51571.jpg,2901941438-69835.jpg,3.0,,,,A2J1DNVMJ56JG1
479,44,,1.0,24.0,2883254439-140941.jpg,2981231446-294730.jpg,3.0,,,,A2J1DNVMJ56JG1
480,45,,1.0,25.0,2901941401-292798.jpg,2883273443-68193.jpg,3.0,,,,A2J1DNVMJ56JG1
481,46,,1.0,26.0,2446759347-347016.jpg,2964224310-219528.jpg,1.0,,,,A2J1DNVMJ56JG1
482,47,,1.0,27.0,2452380832-348593.jpg,2449442181-272436.jpg,3.0,,,,A2J1DNVMJ56JG1
483,48,,1.0,28.0,2898635428-69104.jpg,2898625336-291572.jpg,3.0,,,,A2J1DNVMJ56JG1
484,49,,1.0,29.0,2458347385-199723.jpg,2458347252-348911.jpg,3.0,,,,A2J1DNVMJ56JG1
485,50,,1.0,30.0,2592380177-354626.jpg,2864901386-286797.jpg,2.0,,,,A2J1DNVMJ56JG1
486,51,,1.0,31.0,2238428357-313623.jpg,2575121987-353817.jpg,3.0,,,,A2J1DNVMJ56JG1
487,52,,0.0,32.0,left.jpg,,,left,,,A2J1DNVMJ56JG1
488,53,,1.0,33.0,2592380177-354629.jpg,2898633421-291974.jpg,1.0,,,,A2J1DNVMJ56JG1
489,54,,1.0,34.0,2898635427-367120.jpg,2901946439-144040.jpg,1.0,,,,A2J1DNVMJ56JG1
490,55,,1.0,35.0,2901952513-70703.jpg,2238481198-19821.jpg,3.0,,,,A2J1DNVMJ56JG1
491,56,left,1.0,36.0,left.jpg,,,left,1.6216,,A2J1DNVMJ56JG1
492,57,,1.0,37.0,2868475410-213219.jpg,2901946465-218350.jpg,1.0,,,,A2J1DNVMJ56JG1
493,58,,1.0,38.0,2898618444-142233.jpg,2238555262-330312.jpg,2.0,,,,A2J1DNVMJ56JG1
494,59,,1.0,39.0,2883268412-365898.jpg,2984615361-295510.jpg,2.0,,,,A2J1DNVMJ56JG1
495,60,,1.0,40.0,2446759803-49249.jpg,2898618440-216547.jpg,2.0,,,,A2J1DNVMJ56JG1
496,61,,1.0,41.0,2460547467-349422.jpg,2864909447-362146.jpg,3.0,,,,A2J1DNVMJ56JG1
497,62,,1.0,42.0,2460547467-349421.jpg,2452380166-273110.jpg,2.0,,,,A2J1DNVMJ56JG1
498,63,,1.0,43.0,2874302418-65978.jpg,2898633321-291943.jpg,3.0,,,,A2J1DNVMJ56JG1
499,64,,1.0,44.0,2981231403-71642.jpg,2427873763-47290.jpg,3.0,,,,A2J1DNVMJ56JG1
500,65,,1.0,45.0,2964223381-294447.jpg,2901941438-69836.jpg,2.0,,,,A2J1DNVMJ56JG1
501,66,,1.0,46.0,2874301407-363895.jpg,2986397322-371109.jpg,2.0,,,,A2J1DNVMJ56JG1
502,67,,1.0,47.0,2874303365-214262.jpg,2609793677-355397.jpg,1.0,,,,A2J1DNVMJ56JG1
503,68,,1.0,48.0,2452381505-199546.jpg,2901938432-367627.jpg,1.0,,,,A2J1DNVMJ56JG1
504,69,,1.0,49.0,2238580740-186218.jpg,2964220333-71258.jpg,3.0,,,,A2J1DNVMJ56JG1
505,70,,1.0,50.0,2449441881-272368.jpg,2883268412-365899.jpg,1.0,,,,A2J1DNVMJ56JG1
506,71,,1.0,51.0,2449442529-124446.jpg,2446759803-49251.jpg,1.0,,,,A2J1DNVMJ56JG1
507,72,right,1.0,52.0,right.jpg,,,right,0.8866,,A2J1DNVMJ56JG1
508,73,,1.0,53.0,2874299429-139695.jpg,2446760917-347439.jpg,3.0,,,,A2J1DNVMJ56JG1
509,74,,1.0,54.0,2575120738-55529.jpg,2238531493-28260.jpg,3.0,,,,A2J1DNVMJ56JG1
510,75,,1.0,55.0,2512875899-126682.jpg,2460547536-274179.jpg,1.0,,,,A2J1DNVMJ56JG1
511,76,,1.0,56.0,2898633421-291973.jpg,2575118671-277663.jpg,2.0,,,,A2J1DNVMJ56JG1
512,77,,1.0,57.0,2898618390-216538.jpg,2901939327-367670.jpg,2.0,,,,A2J1DNVMJ56JG1
513,78,,1.0,58.0,2238481198-19822.jpg,2901946436-293242.jpg,2.0,,,,A2J1DNVMJ56JG1
514,79,,1.0,59.0,2592379964-131054.jpg,2575963989-130576.jpg,1.0,,,,A2J1DNVMJ56JG1
515,80,,1.0,60.0,2874307433-66280.jpg,2981246400-220365.jpg,2.0,,,,A2J1DNVMJ56JG1
516,81,,1.0,61.0,2238481928-19949.jpg,2864900357-361688.jpg,2.0,,,,A2J1DNVMJ56JG1
517,82,,1.0,62.0,2446758985-197609.jpg,2864909447-362144.jpg,2.0,,,,A2J1DNVMJ56JG1
518,83,,1.0,63.0,2986451363-73599.jpg,2238434559-90406.jpg,3.0,,,,A2J1DNVMJ56JG1
519,84,,1.0,64.0,2868474407-362883.jpg,2238516618-25604.jpg,1.0,,,,A2J1DNVMJ56JG1
520,20,,1.0,0.0,2981231403-71642.jpg,2427873763-47290.jpg,3.0,,,,A2J57IBR2XIWLS
521,21,,1.0,1.0,2964213381-294060.jpg,2964213381-294061.jpg,3.0,,,,A2J57IBR2XIWLS
522,22,,1.0,2.0,2901939379-143479.jpg,2460547467-349423.jpg,1.0,,,,A2J57IBR2XIWLS
523,23,,1.0,3.0,2901941401-292798.jpg,2981243412-370222.jpg,2.0,,,,A2J57IBR2XIWLS
524,24,,1.0,4.0,2449441881-272368.jpg,2449441881-272367.jpg,3.0,,,,A2J57IBR2XIWLS
525,25,,1.0,5.0,2452380832-348593.jpg,2238481813-19930.jpg,2.0,,,,A2J57IBR2XIWLS
526,26,,1.0,6.0,2898635428-69104.jpg,2901943411-292945.jpg,2.0,,,,A2J57IBR2XIWLS
527,27,,1.0,7.0,2874307433-66280.jpg,2986447306-296584.jpg,1.0,,,,A2J57IBR2XIWLS
528,28,,1.0,8.0,2901952513-70703.jpg,2238481198-19821.jpg,3.0,,,,A2J57IBR2XIWLS
529,29,,1.0,9.0,2592380177-354629.jpg,2579432534-130704.jpg,2.0,,,,A2J57IBR2XIWLS
530,30,left,1.0,10.0,left.jpg,,,left,1.133,,A2J57IBR2XIWLS
531,31,,1.0,11.0,2874302418-65979.jpg,2413147898-43548.jpg,1.0,,,,A2J57IBR2XIWLS
532,32,,1.0,12.0,2883268412-365898.jpg,2238436252-314037.jpg,3.0,,,,A2J57IBR2XIWLS
533,33,,1.0,13.0,2512875899-126682.jpg,2986447332-371497.jpg,3.0,,,,A2J57IBR2XIWLS
534,34,,1.0,14.0,2458347385-199723.jpg,2458347252-348911.jpg,3.0,,,,A2J57IBR2XIWLS
535,35,,1.0,15.0,2883254439-140941.jpg,2981231446-294730.jpg,3.0,,,,A2J57IBR2XIWLS
536,36,,1.0,16.0,2874303365-214262.jpg,2864911457-362260.jpg,3.0,,,,A2J57IBR2XIWLS
537,37,,1.0,17.0,2898618444-142233.jpg,2898618444-142232.jpg,3.0,,,,A2J57IBR2XIWLS
538,38,left,1.0,18.0,left.jpg,,,left,1.596,,A2J57IBR2XIWLS
539,39,,1.0,19.0,2986451363-73599.jpg,2860302315-210704.jpg,2.0,,,,A2J57IBR2XIWLS
540,40,,1.0,20.0,2238425482-313537.jpg,2238471391-240918.jpg,1.0,,,,A2J57IBR2XIWLS
541,41,,1.0,21.0,2452381505-199546.jpg,2994401319-148290.jpg,3.0,,,,A2J57IBR2XIWLS
542,42,,1.0,22.0,2898633421-291973.jpg,2575118671-277663.jpg,2.0,,,,A2J57IBR2XIWLS
543,43,,1.0,23.0,2238481928-19949.jpg,2883264367-365620.jpg,1.0,,,,A2J57IBR2XIWLS
544,44,,1.0,24.0,2883256307-365057.jpg,2611628310-206388.jpg,1.0,,,,A2J57IBR2XIWLS
545,45,,1.0,25.0,2238572663-35822.jpg,2238571930-184143.jpg,2.0,,,,A2J57IBR2XIWLS
546,46,,1.0,26.0,2898617468-68274.jpg,2864906345-212360.jpg,1.0,,,,A2J57IBR2XIWLS
547,47,,1.0,27.0,2981241414-145842.jpg,2874301404-139813.jpg,2.0,,,,A2J57IBR2XIWLS
548,48,,1.0,28.0,2964218374-144967.jpg,2981231446-294732.jpg,3.0,,,,A2J57IBR2XIWLS
549,49,,1.0,29.0,2901947423-70311.jpg,2238573447-333826.jpg,2.0,,,,A2J57IBR2XIWLS
550,50,,1.0,30.0,2874301407-363895.jpg,2986397322-371109.jpg,2.0,,,,A2J57IBR2XIWLS
551,51,left,1.0,31.0,left.jpg,,,left,1.076,,A2J57IBR2XIWLS
552,52,,1.0,32.0,2446759347-347016.jpg,2901951350-218702.jpg,2.0,,,,A2J57IBR2XIWLS
553,53,,1.0,33.0,2238580740-186218.jpg,2964220333-71258.jpg,3.0,,,,A2J57IBR2XIWLS
554,54,,1.0,34.0,2868475410-213219.jpg,2868474407-362885.jpg,3.0,,,,A2J57IBR2XIWLS
555,55,,1.0,35.0,2901948350-218459.jpg,2981246360-220352.jpg,3.0,,,,A2J57IBR2XIWLS
556,56,,1.0,36.0,2874299429-139695.jpg,2883266388-67750.jpg,1.0,,,,A2J57IBR2XIWLS
557,57,left,1.0,37.0,left.jpg,,,left,1.026,,A2J57IBR2XIWLS
558,58,,1.0,38.0,2874302418-65978.jpg,2898633321-291943.jpg,3.0,,,,A2J57IBR2XIWLS
559,59,,1.0,39.0,2864910426-287204.jpg,2864902304-137862.jpg,1.0,,,,A2J57IBR2XIWLS
560,60,,1.0,40.0,2964216465-219242.jpg,2898619327-366362.jpg,3.0,,,,A2J57IBR2XIWLS
561,61,,1.0,41.0,2460547467-349421.jpg,2981235446-294901.jpg,3.0,,,,A2J57IBR2XIWLS
562,62,,1.0,42.0,2592379964-131054.jpg,2575963989-130576.jpg,1.0,,,,A2J57IBR2XIWLS
563,63,,1.0,43.0,2460547467-349422.jpg,2868487415-213924.jpg,2.0,,,,A2J57IBR2XIWLS
564,64,,1.0,44.0,2898624426-291546.jpg,2964218432-369263.jpg,1.0,,,,A2J57IBR2XIWLS
565,65,,1.0,45.0,2901939379-143480.jpg,2901942428-69919.jpg,1.0,,,,A2J57IBR2XIWLS
566,66,,1.0,46.0,2898634397-367080.jpg,2237944827-301472.jpg,1.0,,,,A2J57IBR2XIWLS
567,67,,1.0,47.0,2883268471-290842.jpg,2883268471-290843.jpg,1.0,,,,A2J57IBR2XIWLS
568,68,,1.0,48.0,2964223381-294447.jpg,2427874231-269884.jpg,1.0,,,,A2J57IBR2XIWLS
569,69,,1.0,49.0,2575120738-55529.jpg,2898632385-217138.jpg,1.0,,,,A2J57IBR2XIWLS
570,70,right,1.0,50.0,right.jpg,,,right,1.201,,A2J57IBR2XIWLS
571,71,,1.0,51.0,2238428357-313623.jpg,2238499057-320266.jpg,1.0,,,,A2J57IBR2XIWLS
572,72,,1.0,52.0,2446759803-49249.jpg,2898618440-216547.jpg,2.0,,,,A2J57IBR2XIWLS
573,73,,1.0,53.0,2868474407-362883.jpg,2981246400-220363.jpg,2.0,,,,A2J57IBR2XIWLS
574,74,,1.0,54.0,2898618390-216538.jpg,2901939327-367670.jpg,2.0,,,,A2J57IBR2XIWLS
575,75,,1.0,55.0,2898635427-367120.jpg,2898621427-366486.jpg,3.0,,,,A2J57IBR2XIWLS
576,76,,1.0,56.0,2238481198-19822.jpg,2862691449-137104.jpg,1.0,,,,A2J57IBR2XIWLS
577,77,,1.0,57.0,2238480677-317399.jpg,2238480278-19661.jpg,3.0,,,,A2J57IBR2XIWLS
578,78,,1.0,58.0,2446758985-197609.jpg,2981240424-145795.jpg,1.0,,,,A2J57IBR2XIWLS
579,79,,1.0,59.0,2592380177-354626.jpg,2864901386-286797.jpg,2.0,,,,A2J57IBR2XIWLS
580,80,,1.0,60.0,2864907432-362042.jpg,2864901420-212147.jpg,1.0,,,,A2J57IBR2XIWLS
581,81,,1.0,61.0,2449442529-124445.jpg,2986408373-73286.jpg,2.0,,,,A2J57IBR2XIWLS
582,82,,1.0,62.0,2238560245-182099.jpg,2874314526-289684.jpg,2.0,,,,A2J57IBR2XIWLS
583,83,,1.0,63.0,2460547508-51571.jpg,2981232437-369759.jpg,2.0,,,,A2J57IBR2XIWLS
584,84,,1.0,64.0,2449442529-124446.jpg,2460547536-274181.jpg,2.0,,,,A2J57IBR2XIWLS
585,20,,1.0,0.0,2986451363-73599.jpg,2901939327-367669.jpg,1.0,,,,A2QCULU8SNUD1R
586,21,,1.0,1.0,2898635427-367120.jpg,2901946439-144040.jpg,1.0,,,,A2QCULU8SNUD1R
587,22,,1.0,2.0,2449441881-272368.jpg,2984615358-72439.jpg,2.0,,,,A2QCULU8SNUD1R
588,23,,1.0,3.0,2883268471-290842.jpg,2883255450-215310.jpg,2.0,,,,A2QCULU8SNUD1R
589,24,,1.0,4.0,2964218374-144967.jpg,2964218374-144968.jpg,1.0,,,,A2QCULU8SNUD1R
590,25,,1.0,5.0,2874301407-363895.jpg,2901947323-70275.jpg,3.0,,,,A2QCULU8SNUD1R
591,26,left,1.0,6.0,left.jpg,,,left,0.892,,A2QCULU8SNUD1R
592,27,,1.0,7.0,2238572663-35822.jpg,2986419333-73361.jpg,1.0,,,,A2QCULU8SNUD1R
593,28,,1.0,8.0,2901947423-70311.jpg,2860312398-62572.jpg,1.0,,,,A2QCULU8SNUD1R
594,29,,1.0,9.0,2874303365-214262.jpg,2864911457-362260.jpg,3.0,,,,A2QCULU8SNUD1R
595,30,,1.0,10.0,2901939379-143479.jpg,2446758985-197610.jpg,2.0,,,,A2QCULU8SNUD1R
596,31,,1.0,11.0,2901952513-70703.jpg,2864907361-287062.jpg,1.0,,,,A2QCULU8SNUD1R
597,32,,1.0,12.0,2575120738-55529.jpg,2898632385-217138.jpg,1.0,,,,A2QCULU8SNUD1R
598,33,,1.0,13.0,2898618390-216538.jpg,2901939327-367670.jpg,2.0,,,,A2QCULU8SNUD1R
599,34,,1.0,14.0,2901939379-143480.jpg,2901942428-69919.jpg,1.0,,,,A2QCULU8SNUD1R
600,35,,1.0,15.0,2898617468-68274.jpg,2964207374-144577.jpg,3.0,,,,A2QCULU8SNUD1R
601,36,,1.0,16.0,2864910426-287204.jpg,2901939433-69672.jpg,3.0,,,,A2QCULU8SNUD1R
602,37,,1.0,17.0,2868474407-362883.jpg,2901948383-70363.jpg,3.0,,,,A2QCULU8SNUD1R
603,38,,1.0,18.0,2868475410-213219.jpg,2238480803-19739.jpg,2.0,,,,A2QCULU8SNUD1R
604,39,,1.0,19.0,2238481198-19822.jpg,2901946436-293242.jpg,2.0,,,,A2QCULU8SNUD1R
605,40,right,1.0,20.0,right.jpg,,,right,1.41,,A2QCULU8SNUD1R
606,41,,1.0,21.0,2964213381-294060.jpg,2964213381-294061.jpg,3.0,,,,A2QCULU8SNUD1R
607,42,,1.0,22.0,2238560245-182099.jpg,2874314526-289684.jpg,2.0,,,,A2QCULU8SNUD1R
608,43,,1.0,23.0,2964223381-294447.jpg,2898628438-68785.jpg,3.0,,,,A2QCULU8SNUD1R
609,44,,1.0,24.0,2460547467-349422.jpg,2898618440-216545.jpg,1.0,,,,A2QCULU8SNUD1R
610,45,,1.0,25.0,2981241414-145842.jpg,2874301404-139813.jpg,2.0,,,,A2QCULU8SNUD1R
611,46,,1.0,26.0,2898624426-291546.jpg,2981235446-294900.jpg,3.0,,,,A2QCULU8SNUD1R
612,47,,0.0,27.0,right.jpg,,,right,,,A2QCULU8SNUD1R
613,48,,1.0,28.0,2446759347-347016.jpg,2901951350-218702.jpg,2.0,,,,A2QCULU8SNUD1R
614,49,,1.0,29.0,2592379964-131054.jpg,2238479053-19457.jpg,2.0,,,,A2QCULU8SNUD1R
615,50,,1.0,30.0,2898633421-291973.jpg,2575118671-277663.jpg,2.0,,,,A2QCULU8SNUD1R
616,51,,1.0,31.0,2864907432-362042.jpg,2864901420-212147.jpg,1.0,,,,A2QCULU8SNUD1R
617,52,,1.0,32.0,2238428357-313623.jpg,2575121987-353817.jpg,3.0,,,,A2QCULU8SNUD1R
618,53,,1.0,33.0,2238481928-19949.jpg,2981241419-145844.jpg,3.0,,,,A2QCULU8SNUD1R
619,54,,1.0,34.0,2238580740-186218.jpg,2238550816-254000.jpg,1.0,,,,A2QCULU8SNUD1R
620,55,,1.0,35.0,2458347385-199723.jpg,2458347252-348911.jpg,3.0,,,,A2QCULU8SNUD1R
621,56,,1.0,36.0,2898634397-367080.jpg,2237944827-301472.jpg,1.0,,,,A2QCULU8SNUD1R
622,57,,1.0,37.0,2449442529-124446.jpg,2898632385-217139.jpg,3.0,,,,A2QCULU8SNUD1R
623,58,,1.0,38.0,2449442529-124445.jpg,2452380171-273112.jpg,1.0,,,,A2QCULU8SNUD1R
624,59,,1.0,39.0,2460547467-349421.jpg,2898631394-142727.jpg,1.0,,,,A2QCULU8SNUD1R
625,60,right,1.0,40.0,right.jpg,,,right,1.143,,A2QCULU8SNUD1R
626,61,,1.0,41.0,2446758985-197609.jpg,2898624426-291544.jpg,3.0,,,,A2QCULU8SNUD1R
627,62,,1.0,42.0,2874302418-65979.jpg,2238480648-19714.jpg,2.0,,,,A2QCULU8SNUD1R
628,63,,1.0,43.0,2964216465-219242.jpg,2864900319-137787.jpg,2.0,,,,A2QCULU8SNUD1R
629,64,,1.0,44.0,2452380832-348593.jpg,2449442181-272436.jpg,3.0,,,,A2QCULU8SNUD1R
630,65,,1.0,45.0,2446759803-49249.jpg,2452380166-273109.jpg,3.0,,,,A2QCULU8SNUD1R
631,66,,1.0,46.0,2238425482-313537.jpg,2238436322-314047.jpg,2.0,,,,A2QCULU8SNUD1R
632,67,,1.0,47.0,2898618444-142233.jpg,2238555262-330312.jpg,2.0,,,,A2QCULU8SNUD1R
633,68,,1.0,48.0,2452381505-199546.jpg,2994401319-148290.jpg,3.0,,,,A2QCULU8SNUD1R
634,69,,1.0,49.0,2898635428-69104.jpg,2898625336-291572.jpg,3.0,,,,A2QCULU8SNUD1R
635,70,left,1.0,50.0,left.jpg,,,left,1.028,,A2QCULU8SNUD1R
636,71,,1.0,51.0,2238480677-317399.jpg,2238480278-19661.jpg,3.0,,,,A2QCULU8SNUD1R
637,72,,1.0,52.0,2901948350-218459.jpg,2417208001-267065.jpg,2.0,,,,A2QCULU8SNUD1R
638,73,,1.0,53.0,2883256307-365057.jpg,2964210336-293945.jpg,2.0,,,,A2QCULU8SNUD1R
639,74,,1.0,54.0,2592380177-354626.jpg,2986408339-146952.jpg,1.0,,,,A2QCULU8SNUD1R
640,75,,1.0,55.0,2874302418-65978.jpg,2238481198-19823.jpg,2.0,,,,A2QCULU8SNUD1R
641,76,,1.0,56.0,2460547508-51571.jpg,2981232437-369759.jpg,2.0,,,,A2QCULU8SNUD1R
642,77,,1.0,57.0,2512875899-126682.jpg,2460547536-274179.jpg,1.0,,,,A2QCULU8SNUD1R
643,78,,1.0,58.0,2874307433-66280.jpg,2981231422-369714.jpg,3.0,,,,A2QCULU8SNUD1R
644,79,,1.0,59.0,2592380177-354629.jpg,2898633421-291974.jpg,1.0,,,,A2QCULU8SNUD1R
645,80,,1.0,60.0,2883254439-140941.jpg,2446760844-124088.jpg,1.0,,,,A2QCULU8SNUD1R
646,81,,1.0,61.0,2981231403-71642.jpg,2981244403-72215.jpg,2.0,,,,A2QCULU8SNUD1R
647,82,,1.0,62.0,2874299429-139695.jpg,2883266388-67750.jpg,1.0,,,,A2QCULU8SNUD1R
648,83,,1.0,63.0,2901941401-292798.jpg,2898618327-366317.jpg,1.0,,,,A2QCULU8SNUD1R
649,84,,1.0,64.0,2883268412-365898.jpg,2238436252-314037.jpg,3.0,,,,A2QCULU8SNUD1R
650,20,,1.0,0.0,2592380177-354626.jpg,2986408339-146952.jpg,1.0,,,,A2VY5GKTXHLC8Q
651,21,,1.0,1.0,2460547467-349422.jpg,2868487415-213924.jpg,2.0,,,,A2VY5GKTXHLC8Q
652,22,,1.0,2.0,2446759347-347016.jpg,2964224310-219528.jpg,1.0,,,,A2VY5GKTXHLC8Q
653,23,,1.0,3.0,2898618444-142233.jpg,2898631359-142721.jpg,1.0,,,,A2VY5GKTXHLC8Q
654,24,,1.0,4.0,2864910426-287204.jpg,2864902304-137862.jpg,1.0,,,,A2VY5GKTXHLC8Q
655,25,,1.0,5.0,2458347385-199723.jpg,2427874554-121863.jpg,2.0,,,,A2VY5GKTXHLC8Q
656,26,,1.0,6.0,2898617468-68274.jpg,2964207374-144577.jpg,3.0,,,,A2VY5GKTXHLC8Q
657,27,,1.0,7.0,2460547467-349421.jpg,2981235446-294901.jpg,3.0,,,,A2VY5GKTXHLC8Q
658,28,,1.0,8.0,2901952513-70703.jpg,2238481198-19821.jpg,3.0,,,,A2VY5GKTXHLC8Q
659,29,,1.0,9.0,2874303365-214262.jpg,2864911457-362260.jpg,3.0,,,,A2VY5GKTXHLC8Q
660,30,,1.0,10.0,2898633421-291973.jpg,2238550049-105691.jpg,3.0,,,,A2VY5GKTXHLC8Q
661,31,,1.0,11.0,2981231403-71642.jpg,2981244403-72215.jpg,2.0,,,,A2VY5GKTXHLC8Q
662,32,,1.0,12.0,2238480677-317399.jpg,2238573546-258454.jpg,2.0,,,,A2VY5GKTXHLC8Q
663,33,left,1.0,13.0,left.jpg,,,left,1.9194,,A2VY5GKTXHLC8Q
664,34,,1.0,14.0,2874302418-65978.jpg,2238481198-19823.jpg,2.0,,,,A2VY5GKTXHLC8Q
665,35,,1.0,15.0,2898634397-367080.jpg,2237944827-301472.jpg,1.0,,,,A2VY5GKTXHLC8Q
666,36,,1.0,16.0,2874302418-65979.jpg,2238578544-111698.jpg,3.0,,,,A2VY5GKTXHLC8Q
667,37,,1.0,17.0,2238572663-35822.jpg,2238571930-184143.jpg,2.0,,,,A2VY5GKTXHLC8Q
668,38,left,1.0,18.0,left.jpg,,,left,1.3145,,A2VY5GKTXHLC8Q
669,39,,1.0,19.0,2446758985-197609.jpg,2981240424-145795.jpg,1.0,,,,A2VY5GKTXHLC8Q
670,40,,1.0,20.0,2512875899-126682.jpg,2986447332-371497.jpg,3.0,,,,A2VY5GKTXHLC8Q
671,41,,1.0,21.0,2452381505-199546.jpg,2238567168-34916.jpg,2.0,,,,A2VY5GKTXHLC8Q
672,42,,1.0,22.0,2868475410-213219.jpg,2901946465-218350.jpg,1.0,,,,A2VY5GKTXHLC8Q
673,43,,1.0,23.0,2864907432-362042.jpg,2864901420-212147.jpg,1.0,,,,A2VY5GKTXHLC8Q
674,44,,1.0,24.0,2883256307-365057.jpg,2864904453-63933.jpg,3.0,,,,A2VY5GKTXHLC8Q
675,45,,1.0,25.0,2592380177-354629.jpg,2898633421-291974.jpg,1.0,,,,A2VY5GKTXHLC8Q
676,46,left,1.0,26.0,left.jpg,,,left,1.4713,,A2VY5GKTXHLC8Q
677,47,,1.0,27.0,2964223381-294447.jpg,2898628438-68785.jpg,3.0,,,,A2VY5GKTXHLC8Q
678,48,,1.0,28.0,2898624426-291546.jpg,2981236443-71859.jpg,2.0,,,,A2VY5GKTXHLC8Q
679,49,,1.0,29.0,2901939379-143480.jpg,2901942428-69919.jpg,1.0,,,,A2VY5GKTXHLC8Q
680,50,,1.0,30.0,2460547508-51571.jpg,2460547291-274110.jpg,1.0,,,,A2VY5GKTXHLC8Q
681,51,,1.0,31.0,2449442529-124446.jpg,2460547536-274181.jpg,2.0,,,,A2VY5GKTXHLC8Q
682,52,,1.0,32.0,2874307433-66280.jpg,2981231422-369714.jpg,3.0,,,,A2VY5GKTXHLC8Q
683,53,,1.0,33.0,2964218374-144967.jpg,2981231446-294732.jpg,3.0,,,,A2VY5GKTXHLC8Q
684,54,,1.0,34.0,2238481198-19822.jpg,2862691449-137104.jpg,1.0,,,,A2VY5GKTXHLC8Q
685,55,,1.0,35.0,2883268471-290842.jpg,2883268471-290843.jpg,1.0,,,,A2VY5GKTXHLC8Q
686,56,,1.0,36.0,2592379964-131054.jpg,2238479053-19457.jpg,2.0,,,,A2VY5GKTXHLC8Q
687,57,,1.0,37.0,2449442529-124445.jpg,2898632385-217137.jpg,3.0,,,,A2VY5GKTXHLC8Q
688,58,,1.0,38.0,2898635427-367120.jpg,2901946439-144040.jpg,1.0,,,,A2VY5GKTXHLC8Q
689,59,,1.0,39.0,2575120738-55529.jpg,2898632385-217138.jpg,1.0,,,,A2VY5GKTXHLC8Q
690,60,right,1.0,40.0,right.jpg,,,right,1.1024,,A2VY5GKTXHLC8Q
691,61,,1.0,41.0,2868474407-362883.jpg,2238516618-25604.jpg,1.0,,,,A2VY5GKTXHLC8Q
692,62,,1.0,42.0,2964216465-219242.jpg,2898619327-366362.jpg,3.0,,,,A2VY5GKTXHLC8Q
693,63,,1.0,43.0,2883268412-365898.jpg,2984615361-295510.jpg,2.0,,,,A2VY5GKTXHLC8Q
694,64,,1.0,44.0,2898618390-216538.jpg,2986449336-296644.jpg,1.0,,,,A2VY5GKTXHLC8Q
695,65,,1.0,45.0,2883254439-140941.jpg,2898632385-217136.jpg,2.0,,,,A2VY5GKTXHLC8Q
696,66,,1.0,46.0,2446759803-49249.jpg,2446760601-272099.jpg,1.0,,,,A2VY5GKTXHLC8Q
697,67,,1.0,47.0,2238580740-186218.jpg,2964220333-71258.jpg,3.0,,,,A2VY5GKTXHLC8Q
698,68,,1.0,48.0,2901941401-292798.jpg,2898618327-366317.jpg,1.0,,,,A2VY5GKTXHLC8Q
699,69,,1.0,49.0,2898635428-69104.jpg,2901943411-292945.jpg,2.0,,,,A2VY5GKTXHLC8Q
700,70,right,1.0,50.0,right.jpg,,,right,0.9938,,A2VY5GKTXHLC8Q
701,71,,1.0,51.0,2449441881-272368.jpg,2449441881-272367.jpg,3.0,,,,A2VY5GKTXHLC8Q
702,72,,1.0,52.0,2986451363-73599.jpg,2860302315-210704.jpg,2.0,,,,A2VY5GKTXHLC8Q
703,73,,1.0,53.0,2238560245-182099.jpg,2549106624-127823.jpg,1.0,,,,A2VY5GKTXHLC8Q
704,74,,1.0,54.0,2452380832-348593.jpg,2449442181-272436.jpg,3.0,,,,A2VY5GKTXHLC8Q
705,75,,1.0,55.0,2964213381-294060.jpg,2964213381-294061.jpg,3.0,,,,A2VY5GKTXHLC8Q
706,76,,1.0,56.0,2238428357-313623.jpg,2575121987-353817.jpg,3.0,,,,A2VY5GKTXHLC8Q
707,77,,1.0,57.0,2238481928-19949.jpg,2864900357-361688.jpg,2.0,,,,A2VY5GKTXHLC8Q
708,78,,1.0,58.0,2874299429-139695.jpg,2901942443-69923.jpg,2.0,,,,A2VY5GKTXHLC8Q
709,79,,1.0,59.0,2238425482-313537.jpg,2238436322-314047.jpg,2.0,,,,A2VY5GKTXHLC8Q
710,80,,1.0,60.0,2874301407-363895.jpg,2901947323-70275.jpg,3.0,,,,A2VY5GKTXHLC8Q
711,81,,1.0,61.0,2901948350-218459.jpg,2417208001-267065.jpg,2.0,,,,A2VY5GKTXHLC8Q
712,82,,1.0,62.0,2981241414-145842.jpg,2874301404-139813.jpg,2.0,,,,A2VY5GKTXHLC8Q
713,83,,1.0,63.0,2901939379-143479.jpg,2446758985-197610.jpg,2.0,,,,A2VY5GKTXHLC8Q
714,84,,1.0,64.0,2901947423-70311.jpg,2238577590-185467.jpg,3.0,,,,A2VY5GKTXHLC8Q
715,20,,1.0,0.0,2901939379-143480.jpg,2981229442-369621.jpg,2.0,,,,A30MACY2H1OFFY
716,21,,1.0,1.0,2964218374-144967.jpg,2883254439-140940.jpg,2.0,,,,A30MACY2H1OFFY
717,22,,1.0,2.0,2964216465-219242.jpg,2898619327-366362.jpg,3.0,,,,A30MACY2H1OFFY
718,23,,1.0,3.0,2452381505-199546.jpg,2238567168-34916.jpg,2.0,,,,A30MACY2H1OFFY
719,24,,1.0,4.0,2449442529-124446.jpg,2460547536-274181.jpg,2.0,,,,A30MACY2H1OFFY
720,25,,1.0,5.0,2238425482-313537.jpg,2238436322-314047.jpg,2.0,,,,A30MACY2H1OFFY
721,26,,1.0,6.0,2874302418-65978.jpg,2238481198-19823.jpg,2.0,,,,A30MACY2H1OFFY
722,27,,1.0,7.0,2901939379-143479.jpg,2446758985-197610.jpg,2.0,,,,A30MACY2H1OFFY
723,28,,1.0,8.0,2901947423-70311.jpg,2238577590-185467.jpg,3.0,,,,A30MACY2H1OFFY
724,29,left,1.0,9.0,left.jpg,,,left,1.1113,,A30MACY2H1OFFY
725,30,,1.0,10.0,2238580740-186218.jpg,2238550816-254000.jpg,1.0,,,,A30MACY2H1OFFY
726,31,,1.0,11.0,2452380832-348593.jpg,2449442181-272436.jpg,3.0,,,,A30MACY2H1OFFY
727,32,,1.0,12.0,2238480677-317399.jpg,2238480278-19661.jpg,3.0,,,,A30MACY2H1OFFY
728,33,,1.0,13.0,2874299429-139695.jpg,2446760917-347439.jpg,3.0,,,,A30MACY2H1OFFY
729,34,,1.0,14.0,2898618444-142233.jpg,2898631359-142721.jpg,1.0,,,,A30MACY2H1OFFY
730,35,,1.0,15.0,2898634397-367080.jpg,2237944827-301472.jpg,1.0,,,,A30MACY2H1OFFY
731,36,,1.0,16.0,2238481198-19822.jpg,2862691449-137104.jpg,1.0,,,,A30MACY2H1OFFY
732,37,,1.0,17.0,2964213381-294060.jpg,2981244394-145974.jpg,1.0,,,,A30MACY2H1OFFY
733,38,,1.0,18.0,2238481928-19949.jpg,2981241419-145844.jpg,3.0,,,,A30MACY2H1OFFY
734,39,,1.0,19.0,2883268412-365898.jpg,2984615361-295510.jpg,2.0,,,,A30MACY2H1OFFY
735,40,,1.0,20.0,2898635427-367120.jpg,2901946439-144040.jpg,1.0,,,,A30MACY2H1OFFY
736,41,left,1.0,21.0,left.jpg,,,left,1.1015,,A30MACY2H1OFFY
737,42,,1.0,22.0,2460547467-349421.jpg,2452380166-273110.jpg,2.0,,,,A30MACY2H1OFFY
738,43,,1.0,23.0,2986451363-73599.jpg,2860302315-210704.jpg,2.0,,,,A30MACY2H1OFFY
739,44,,1.0,24.0,2874301407-363895.jpg,2883264368-67631.jpg,1.0,,,,A30MACY2H1OFFY
740,45,,1.0,25.0,2901941401-292798.jpg,2883273443-68193.jpg,3.0,,,,A30MACY2H1OFFY
741,46,,1.0,26.0,2446759347-347016.jpg,2238569117-333045.jpg,3.0,,,,A30MACY2H1OFFY
742,47,,1.0,27.0,2868474407-362883.jpg,2981246400-220363.jpg,2.0,,,,A30MACY2H1OFFY
743,48,,1.0,28.0,2449442529-124445.jpg,2898632385-217137.jpg,3.0,,,,A30MACY2H1OFFY
744,49,,0.0,29.0,right.jpg,,,right,,,A30MACY2H1OFFY
745,50,,1.0,30.0,2460547467-349422.jpg,2898618440-216545.jpg,1.0,,,,A30MACY2H1OFFY
746,51,,1.0,31.0,2898633421-291973.jpg,2512876023-52283.jpg,1.0,,,,A30MACY2H1OFFY
747,52,,1.0,32.0,2883268471-290842.jpg,2901947448-70314.jpg,3.0,,,,A30MACY2H1OFFY
748,53,,1.0,33.0,2238572663-35822.jpg,2986419333-73361.jpg,1.0,,,,A30MACY2H1OFFY
749,54,,1.0,34.0,2898617468-68274.jpg,2964207374-144577.jpg,3.0,,,,A30MACY2H1OFFY
750,55,,1.0,35.0,2981231403-71642.jpg,2981244403-72215.jpg,2.0,,,,A30MACY2H1OFFY
751,56,,1.0,36.0,2864910426-287204.jpg,2901939433-69672.jpg,3.0,,,,A30MACY2H1OFFY
752,57,,1.0,37.0,2898618390-216538.jpg,2986449336-296644.jpg,1.0,,,,A30MACY2H1OFFY
753,58,right,1.0,38.0,right.jpg,,,right,1.0891,,A30MACY2H1OFFY
754,59,,1.0,39.0,2592379964-131054.jpg,2592380272-354673.jpg,3.0,,,,A30MACY2H1OFFY
755,60,,1.0,40.0,2864907432-362042.jpg,2901947423-70310.jpg,2.0,,,,A30MACY2H1OFFY
756,61,,1.0,41.0,2883254439-140941.jpg,2898632385-217136.jpg,2.0,,,,A30MACY2H1OFFY
757,62,,1.0,42.0,2446758985-197609.jpg,2898624426-291544.jpg,3.0,,,,A30MACY2H1OFFY
758,63,,1.0,43.0,2449441881-272368.jpg,2449441881-272367.jpg,3.0,,,,A30MACY2H1OFFY
759,64,,1.0,44.0,2460547508-51571.jpg,2981232437-369759.jpg,2.0,,,,A30MACY2H1OFFY
760,65,,1.0,45.0,2868475410-213219.jpg,2901946465-218350.jpg,1.0,,,,A30MACY2H1OFFY
761,66,,1.0,46.0,2458347385-199723.jpg,2458347252-348911.jpg,3.0,,,,A30MACY2H1OFFY
762,67,,1.0,47.0,2898624426-291546.jpg,2964218432-369263.jpg,1.0,,,,A30MACY2H1OFFY
763,68,left,1.0,48.0,left.jpg,,,left,1.0295,,A30MACY2H1OFFY
764,69,,1.0,49.0,2901952513-70703.jpg,2238481198-19821.jpg,3.0,,,,A30MACY2H1OFFY
765,70,,1.0,50.0,2964223381-294447.jpg,2901941438-69836.jpg,2.0,,,,A30MACY2H1OFFY
766,71,,1.0,51.0,2575120738-55529.jpg,2575120738-55528.jpg,2.0,,,,A30MACY2H1OFFY
767,72,,1.0,52.0,2901948350-218459.jpg,2804906319-133082.jpg,1.0,,,,A30MACY2H1OFFY
768,73,,1.0,53.0,2238428357-313623.jpg,2238499057-320266.jpg,1.0,,,,A30MACY2H1OFFY
769,74,,1.0,54.0,2512875899-126682.jpg,2460547536-274179.jpg,1.0,,,,A30MACY2H1OFFY
770,75,,1.0,55.0,2592380177-354629.jpg,2579432534-130704.jpg,2.0,,,,A30MACY2H1OFFY
771,76,,1.0,56.0,2238560245-182099.jpg,2549106624-127823.jpg,1.0,,,,A30MACY2H1OFFY
772,77,,1.0,57.0,2446759803-49249.jpg,2898618440-216547.jpg,2.0,,,,A30MACY2H1OFFY
773,78,,1.0,58.0,2874303365-214262.jpg,2609793677-355397.jpg,1.0,,,,A30MACY2H1OFFY
774,79,,1.0,59.0,2981241414-145842.jpg,2427873848-47312.jpg,3.0,,,,A30MACY2H1OFFY
775,80,,1.0,60.0,2874307433-66280.jpg,2981231422-369714.jpg,3.0,,,,A30MACY2H1OFFY
776,81,,1.0,61.0,2592380177-354626.jpg,2864901386-286797.jpg,2.0,,,,A30MACY2H1OFFY
777,82,,1.0,62.0,2883256307-365057.jpg,2611628310-206388.jpg,1.0,,,,A30MACY2H1OFFY
778,83,,1.0,63.0,2898635428-69104.jpg,2898625336-291572.jpg,3.0,,,,A30MACY2H1OFFY
779,84,,1.0,64.0,2874302418-65979.jpg,2413147898-43548.jpg,1.0,,,,A30MACY2H1OFFY
780,20,,1.0,0.0,2592380177-354626.jpg,2986408339-146952.jpg,1.0,,,,A3MIDLO5S7FU06
781,21,,1.0,1.0,2238481198-19822.jpg,2862691449-137104.jpg,1.0,,,,A3MIDLO5S7FU06
782,22,,1.0,2.0,2964218374-144967.jpg,2883254439-140940.jpg,2.0,,,,A3MIDLO5S7FU06
783,23,,1.0,3.0,2238572663-35822.jpg,2864903351-286874.jpg,3.0,,,,A3MIDLO5S7FU06
784,24,,1.0,4.0,2883268412-365898.jpg,2238436252-314037.jpg,3.0,,,,A3MIDLO5S7FU06
785,25,,1.0,5.0,2460547467-349421.jpg,2452380166-273110.jpg,2.0,,,,A3MIDLO5S7FU06
786,26,,1.0,6.0,2874301407-363895.jpg,2901947323-70275.jpg,3.0,,,,A3MIDLO5S7FU06
787,27,,1.0,7.0,2874302418-65978.jpg,2238481198-19823.jpg,2.0,,,,A3MIDLO5S7FU06
788,28,,1.0,8.0,2898624426-291546.jpg,2981236443-71859.jpg,2.0,,,,A3MIDLO5S7FU06
789,29,,1.0,9.0,2449441881-272368.jpg,2449441881-272367.jpg,3.0,,,,A3MIDLO5S7FU06
790,30,left,1.0,10.0,left.jpg,,,left,0.581,,A3MIDLO5S7FU06
791,31,,1.0,11.0,2898635427-367120.jpg,2901946439-144040.jpg,1.0,,,,A3MIDLO5S7FU06
792,32,,1.0,12.0,2964213381-294060.jpg,2964213381-294061.jpg,3.0,,,,A3MIDLO5S7FU06
793,33,,1.0,13.0,2449442529-124446.jpg,2446759803-49251.jpg,1.0,,,,A3MIDLO5S7FU06
794,34,,1.0,14.0,2460547508-51571.jpg,2981232437-369759.jpg,2.0,,,,A3MIDLO5S7FU06
795,35,,1.0,15.0,2981231403-71642.jpg,2274829821-263682.jpg,1.0,,,,A3MIDLO5S7FU06
796,36,right,1.0,16.0,right.jpg,,,right,0.633,,A3MIDLO5S7FU06
797,37,,1.0,17.0,2864910426-287204.jpg,2901939433-69672.jpg,3.0,,,,A3MIDLO5S7FU06
798,38,,1.0,18.0,2446759803-49249.jpg,2452380166-273109.jpg,3.0,,,,A3MIDLO5S7FU06
799,39,,1.0,19.0,2898633421-291973.jpg,2238550049-105691.jpg,3.0,,,,A3MIDLO5S7FU06
800,40,,1.0,20.0,2964216465-219242.jpg,2864900319-137787.jpg,2.0,,,,A3MIDLO5S7FU06
801,41,,1.0,21.0,2964223381-294447.jpg,2901941438-69836.jpg,2.0,,,,A3MIDLO5S7FU06
802,42,,1.0,22.0,2452380832-348593.jpg,2238481813-19930.jpg,2.0,,,,A3MIDLO5S7FU06
803,43,,1.0,23.0,2868474407-362883.jpg,2981246400-220363.jpg,2.0,,,,A3MIDLO5S7FU06
804,44,,1.0,24.0,2898634397-367080.jpg,2964217461-294238.jpg,3.0,,,,A3MIDLO5S7FU06
805,45,,1.0,25.0,2883254439-140941.jpg,2898632385-217136.jpg,2.0,,,,A3MIDLO5S7FU06
806,46,,1.0,26.0,2898618444-142233.jpg,2898618444-142232.jpg,3.0,,,,A3MIDLO5S7FU06
807,47,,1.0,27.0,2986451363-73599.jpg,2860302315-210704.jpg,2.0,,,,A3MIDLO5S7FU06
808,48,,1.0,28.0,2901947423-70311.jpg,2860312398-62572.jpg,1.0,,,,A3MIDLO5S7FU06
809,49,,1.0,29.0,2883256307-365057.jpg,2964210336-293945.jpg,2.0,,,,A3MIDLO5S7FU06
810,50,,1.0,30.0,2868475410-213219.jpg,2901946465-218350.jpg,1.0,,,,A3MIDLO5S7FU06
811,51,,1.0,31.0,2446759347-347016.jpg,2964224310-219528.jpg,1.0,,,,A3MIDLO5S7FU06
812,52,,1.0,32.0,2446758985-197609.jpg,2898624426-291544.jpg,3.0,,,,A3MIDLO5S7FU06
813,53,left,1.0,33.0,left.jpg,,,left,0.5515,,A3MIDLO5S7FU06
814,54,,1.0,34.0,2901939379-143479.jpg,2981240424-145794.jpg,3.0,,,,A3MIDLO5S7FU06
815,55,,1.0,35.0,2981241414-145842.jpg,2874301404-139813.jpg,2.0,,,,A3MIDLO5S7FU06
816,56,,1.0,36.0,2901939379-143480.jpg,2901942428-69919.jpg,1.0,,,,A3MIDLO5S7FU06
817,57,,1.0,37.0,2238481928-19949.jpg,2883264367-365620.jpg,1.0,,,,A3MIDLO5S7FU06
818,58,,1.0,38.0,2901948350-218459.jpg,2981246360-220352.jpg,3.0,,,,A3MIDLO5S7FU06
819,59,left,1.0,39.0,left.jpg,,,left,0.6431,,A3MIDLO5S7FU06
820,60,,1.0,40.0,2874302418-65979.jpg,2238578544-111698.jpg,3.0,,,,A3MIDLO5S7FU06
821,61,,1.0,41.0,2238580740-186218.jpg,2238521193-26285.jpg,2.0,,,,A3MIDLO5S7FU06
822,62,,1.0,42.0,2458347385-199723.jpg,2238480434-93829.jpg,1.0,,,,A3MIDLO5S7FU06
823,63,,1.0,43.0,2898635428-69104.jpg,2446759803-49250.jpg,1.0,,,,A3MIDLO5S7FU06
824,64,,1.0,44.0,2449442529-124445.jpg,2452380171-273112.jpg,1.0,,,,A3MIDLO5S7FU06
825,65,,1.0,45.0,2874307433-66280.jpg,2986447306-296584.jpg,1.0,,,,A3MIDLO5S7FU06
826,66,,1.0,46.0,2898618390-216538.jpg,2901939327-367670.jpg,2.0,,,,A3MIDLO5S7FU06
827,67,right,1.0,47.0,right.jpg,,,right,0.6902,,A3MIDLO5S7FU06
828,68,,1.0,48.0,2452381505-199546.jpg,2238567168-34916.jpg,2.0,,,,A3MIDLO5S7FU06
829,69,,1.0,49.0,2864907432-362042.jpg,2989726338-74002.jpg,3.0,,,,A3MIDLO5S7FU06
830,70,,1.0,50.0,2874299429-139695.jpg,2446760917-347439.jpg,3.0,,,,A3MIDLO5S7FU06
831,71,,1.0,51.0,2238480677-317399.jpg,2238573546-258454.jpg,2.0,,,,A3MIDLO5S7FU06
832,72,,1.0,52.0,2883268471-290842.jpg,2901947448-70314.jpg,3.0,,,,A3MIDLO5S7FU06
833,73,,1.0,53.0,2238560245-182099.jpg,2549106624-127823.jpg,1.0,,,,A3MIDLO5S7FU06
834,74,,1.0,54.0,2460547467-349422.jpg,2898618440-216545.jpg,1.0,,,,A3MIDLO5S7FU06
835,75,,1.0,55.0,2575120738-55529.jpg,2575120738-55528.jpg,2.0,,,,A3MIDLO5S7FU06
836,76,,1.0,56.0,2238425482-313537.jpg,2898633480-217190.jpg,3.0,,,,A3MIDLO5S7FU06
837,77,,1.0,57.0,2592380177-354629.jpg,2512875587-350044.jpg,3.0,,,,A3MIDLO5S7FU06
838,78,,1.0,58.0,2874303365-214262.jpg,2864911457-362260.jpg,3.0,,,,A3MIDLO5S7FU06
839,79,,1.0,59.0,2901952513-70703.jpg,2868469411-287540.jpg,2.0,,,,A3MIDLO5S7FU06
840,80,,1.0,60.0,2901941401-292798.jpg,2898618327-366317.jpg,1.0,,,,A3MIDLO5S7FU06
841,81,,1.0,61.0,2592379964-131054.jpg,2575963989-130576.jpg,1.0,,,,A3MIDLO5S7FU06
842,82,,1.0,62.0,2898617468-68274.jpg,2901943387-368037.jpg,2.0,,,,A3MIDLO5S7FU06
843,83,,1.0,63.0,2512875899-126682.jpg,2460547536-274179.jpg,1.0,,,,A3MIDLO5S7FU06
844,84,,1.0,64.0,2238428357-313623.jpg,2238499057-320266.jpg,1.0,,,,A3MIDLO5S7FU06
845,20,,1.0,0.0,2883254439-140941.jpg,2446760844-124088.jpg,1.0,,,,A3U0GQGAPN2DAV
846,21,,1.0,1.0,2898635428-69104.jpg,2901943411-292945.jpg,2.0,,,,A3U0GQGAPN2DAV
847,22,,1.0,2.0,2964216465-219242.jpg,2238544191-252422.jpg,1.0,,,,A3U0GQGAPN2DAV
848,23,,1.0,3.0,2238425482-313537.jpg,2898633480-217190.jpg,3.0,,,,A3U0GQGAPN2DAV
849,24,,1.0,4.0,2901941401-292798.jpg,2883273443-68193.jpg,3.0,,,,A3U0GQGAPN2DAV
850,25,,1.0,5.0,2898617468-68274.jpg,2964207374-144577.jpg,3.0,,,,A3U0GQGAPN2DAV
851,26,,1.0,6.0,2592379964-131054.jpg,2575963989-130576.jpg,1.0,,,,A3U0GQGAPN2DAV
852,27,,1.0,7.0,2452381505-199546.jpg,2994401319-148290.jpg,3.0,,,,A3U0GQGAPN2DAV
853,28,,1.0,8.0,2901952513-70703.jpg,2868469411-287540.jpg,2.0,,,,A3U0GQGAPN2DAV
854,29,,1.0,9.0,2460547508-51571.jpg,2460547291-274110.jpg,1.0,,,,A3U0GQGAPN2DAV
855,30,,1.0,10.0,2238580740-186218.jpg,2238521193-26285.jpg,2.0,,,,A3U0GQGAPN2DAV
856,31,left,1.0,11.0,left.jpg,,,left,0.957700001,,A3U0GQGAPN2DAV
857,32,,1.0,12.0,2898633421-291973.jpg,2238550049-105691.jpg,3.0,,,,A3U0GQGAPN2DAV
858,33,,1.0,13.0,2449442529-124446.jpg,2460547536-274181.jpg,2.0,,,,A3U0GQGAPN2DAV
859,34,,1.0,14.0,2883268412-365898.jpg,2238436252-314037.jpg,3.0,,,,A3U0GQGAPN2DAV
860,35,,1.0,15.0,2964213381-294060.jpg,2458348012-349114.jpg,2.0,,,,A3U0GQGAPN2DAV
861,36,,1.0,16.0,2592380177-354629.jpg,2898633421-291974.jpg,1.0,,,,A3U0GQGAPN2DAV
862,37,,1.0,17.0,2874303365-214262.jpg,2864911457-362260.jpg,3.0,,,,A3U0GQGAPN2DAV
863,38,,1.0,18.0,2901939379-143479.jpg,2446758985-197610.jpg,2.0,,,,A3U0GQGAPN2DAV
864,39,,1.0,19.0,2981241414-145842.jpg,2856919327-359676.jpg,1.0,,,,A3U0GQGAPN2DAV
865,40,,1.0,20.0,2460547467-349422.jpg,2898618440-216545.jpg,1.0,,,,A3U0GQGAPN2DAV
866,41,,1.0,21.0,2883268471-290842.jpg,2883268471-290843.jpg,1.0,,,,A3U0GQGAPN2DAV
867,42,left,1.0,22.0,left.jpg,,,left,1.214400001,,A3U0GQGAPN2DAV
868,43,,1.0,23.0,2575120738-55529.jpg,2575120738-55528.jpg,2.0,,,,A3U0GQGAPN2DAV
869,44,,1.0,24.0,2874301407-363895.jpg,2986397322-371109.jpg,2.0,,,,A3U0GQGAPN2DAV
870,45,,1.0,25.0,2864907432-362042.jpg,2989726338-74002.jpg,3.0,,,,A3U0GQGAPN2DAV
871,46,,1.0,26.0,2452380832-348593.jpg,2238328478-11678.jpg,1.0,,,,A3U0GQGAPN2DAV
872,47,,1.0,27.0,2238428357-313623.jpg,2984615361-295509.jpg,2.0,,,,A3U0GQGAPN2DAV
873,48,left,1.0,28.0,left.jpg,,,left,0.9541,,A3U0GQGAPN2DAV
874,49,,1.0,29.0,2898635427-367120.jpg,2898621427-366486.jpg,3.0,,,,A3U0GQGAPN2DAV
875,50,,1.0,30.0,2874299429-139695.jpg,2446760917-347439.jpg,3.0,,,,A3U0GQGAPN2DAV
876,51,,1.0,31.0,2898618444-142233.jpg,2898618444-142232.jpg,3.0,,,,A3U0GQGAPN2DAV
877,52,,1.0,32.0,2238481198-19822.jpg,2901946436-293242.jpg,2.0,,,,A3U0GQGAPN2DAV
878,53,,1.0,33.0,2238572663-35822.jpg,2864903351-286874.jpg,3.0,,,,A3U0GQGAPN2DAV
879,54,,1.0,34.0,2449442529-124445.jpg,2986408373-73286.jpg,2.0,,,,A3U0GQGAPN2DAV
880,55,,1.0,35.0,2446759803-49249.jpg,2898618440-216547.jpg,2.0,,,,A3U0GQGAPN2DAV
881,56,,1.0,36.0,2898624426-291546.jpg,2981235446-294900.jpg,3.0,,,,A3U0GQGAPN2DAV
882,57,,1.0,37.0,2883256307-365057.jpg,2964210336-293945.jpg,2.0,,,,A3U0GQGAPN2DAV
883,58,,1.0,38.0,2592380177-354626.jpg,2986408339-146952.jpg,1.0,,,,A3U0GQGAPN2DAV
884,59,,1.0,39.0,2986451363-73599.jpg,2238434559-90406.jpg,3.0,,,,A3U0GQGAPN2DAV
885,60,,1.0,40.0,2238560245-182099.jpg,2874314526-289684.jpg,2.0,,,,A3U0GQGAPN2DAV
886,61,right,1.0,41.0,right.jpg,,,right,0.9595,,A3U0GQGAPN2DAV
887,62,,1.0,42.0,2460547467-349421.jpg,2452380166-273110.jpg,2.0,,,,A3U0GQGAPN2DAV
888,63,,1.0,43.0,2449441881-272368.jpg,2984615358-72439.jpg,2.0,,,,A3U0GQGAPN2DAV
889,64,,1.0,44.0,2238481928-19949.jpg,2981241419-145844.jpg,3.0,,,,A3U0GQGAPN2DAV
890,65,,1.0,45.0,2874302418-65979.jpg,2413147898-43548.jpg,1.0,,,,A3U0GQGAPN2DAV
891,66,,1.0,46.0,2901947423-70311.jpg,2238573447-333826.jpg,2.0,,,,A3U0GQGAPN2DAV
892,67,,1.0,47.0,2981231403-71642.jpg,2274829821-263682.jpg,1.0,,,,A3U0GQGAPN2DAV
893,68,,1.0,48.0,2901948350-218459.jpg,2804906319-133082.jpg,1.0,,,,A3U0GQGAPN2DAV
894,69,,1.0,49.0,2864910426-287204.jpg,2864902304-137862.jpg,1.0,,,,A3U0GQGAPN2DAV
895,70,,1.0,50.0,2458347385-199723.jpg,2427874554-121863.jpg,2.0,,,,A3U0GQGAPN2DAV
896,71,,1.0,51.0,2512875899-126682.jpg,2592380177-354628.jpg,2.0,,,,A3U0GQGAPN2DAV
897,72,,1.0,52.0,2964218374-144967.jpg,2964218374-144968.jpg,1.0,,,,A3U0GQGAPN2DAV
898,73,,1.0,53.0,2446758985-197609.jpg,2898624426-291544.jpg,3.0,,,,A3U0GQGAPN2DAV
899,74,right,1.0,54.0,right.jpg,,,right,1.0144,,A3U0GQGAPN2DAV
900,75,,1.0,55.0,2898634397-367080.jpg,2237944827-301472.jpg,1.0,,,,A3U0GQGAPN2DAV
901,76,,1.0,56.0,2446759347-347016.jpg,2238569117-333045.jpg,3.0,,,,A3U0GQGAPN2DAV
902,77,,1.0,57.0,2874307433-66280.jpg,2981231422-369714.jpg,3.0,,,,A3U0GQGAPN2DAV
903,78,,1.0,58.0,2901939379-143480.jpg,2981229442-369621.jpg,2.0,,,,A3U0GQGAPN2DAV
904,79,,1.0,59.0,2898618390-216538.jpg,2986449336-296644.jpg,1.0,,,,A3U0GQGAPN2DAV
905,80,,1.0,60.0,2874302418-65978.jpg,2898626385-216899.jpg,1.0,,,,A3U0GQGAPN2DAV
906,81,,1.0,61.0,2238480677-317399.jpg,2238480278-19661.jpg,3.0,,,,A3U0GQGAPN2DAV
907,82,,1.0,62.0,2868474407-362883.jpg,2901948383-70363.jpg,3.0,,,,A3U0GQGAPN2DAV
908,83,,1.0,63.0,2964223381-294447.jpg,2427874231-269884.jpg,1.0,,,,A3U0GQGAPN2DAV
909,84,,1.0,64.0,2868475410-213219.jpg,2901946465-218350.jpg,1.0,,,,A3U0GQGAPN2DAV
910,20,,1.0,0.0,2901939379-143480.jpg,2981229442-369621.jpg,2.0,,,,A5P12YJP805RG
911,21,,1.0,1.0,2964218374-144967.jpg,2883254439-140940.jpg,2.0,,,,A5P12YJP805RG
912,22,,1.0,2.0,2964216465-219242.jpg,2898619327-366362.jpg,3.0,,,,A5P12YJP805RG
913,23,,1.0,3.0,2452381505-199546.jpg,2238567168-34916.jpg,2.0,,,,A5P12YJP805RG
914,24,,1.0,4.0,2449442529-124446.jpg,2460547536-274181.jpg,2.0,,,,A5P12YJP805RG
915,25,,1.0,5.0,2238425482-313537.jpg,2238436322-314047.jpg,2.0,,,,A5P12YJP805RG
916,26,,1.0,6.0,2874302418-65978.jpg,2238481198-19823.jpg,2.0,,,,A5P12YJP805RG
917,27,,1.0,7.0,2901939379-143479.jpg,2446758985-197610.jpg,2.0,,,,A5P12YJP805RG
918,28,,1.0,8.0,2901947423-70311.jpg,2238577590-185467.jpg,3.0,,,,A5P12YJP805RG
919,29,left,1.0,9.0,left.jpg,,,left,0.4375,,A5P12YJP805RG
920,30,,1.0,10.0,2238580740-186218.jpg,2238550816-254000.jpg,1.0,,,,A5P12YJP805RG
921,31,,1.0,11.0,2452380832-348593.jpg,2449442181-272436.jpg,3.0,,,,A5P12YJP805RG
922,32,,1.0,12.0,2238480677-317399.jpg,2238480278-19661.jpg,3.0,,,,A5P12YJP805RG
923,33,,1.0,13.0,2874299429-139695.jpg,2446760917-347439.jpg,3.0,,,,A5P12YJP805RG
924,34,,1.0,14.0,2898618444-142233.jpg,2898631359-142721.jpg,1.0,,,,A5P12YJP805RG
925,35,,1.0,15.0,2898634397-367080.jpg,2237944827-301472.jpg,1.0,,,,A5P12YJP805RG
926,36,,1.0,16.0,2238481198-19822.jpg,2862691449-137104.jpg,1.0,,,,A5P12YJP805RG
927,37,,1.0,17.0,2964213381-294060.jpg,2981244394-145974.jpg,1.0,,,,A5P12YJP805RG
928,38,,1.0,18.0,2238481928-19949.jpg,2981241419-145844.jpg,3.0,,,,A5P12YJP805RG
929,39,,1.0,19.0,2883268412-365898.jpg,2984615361-295510.jpg,2.0,,,,A5P12YJP805RG
930,40,,1.0,20.0,2898635427-367120.jpg,2901946439-144040.jpg,1.0,,,,A5P12YJP805RG
931,41,left,1.0,21.0,left.jpg,,,left,0.5174,,A5P12YJP805RG
932,42,,1.0,22.0,2460547467-349421.jpg,2452380166-273110.jpg,2.0,,,,A5P12YJP805RG
933,43,,1.0,23.0,2986451363-73599.jpg,2860302315-210704.jpg,2.0,,,,A5P12YJP805RG
934,44,,1.0,24.0,2874301407-363895.jpg,2883264368-67631.jpg,1.0,,,,A5P12YJP805RG
935,45,,1.0,25.0,2901941401-292798.jpg,2883273443-68193.jpg,3.0,,,,A5P12YJP805RG
936,46,,1.0,26.0,2446759347-347016.jpg,2238569117-333045.jpg,3.0,,,,A5P12YJP805RG
937,47,,1.0,27.0,2868474407-362883.jpg,2981246400-220363.jpg,2.0,,,,A5P12YJP805RG
938,48,,1.0,28.0,2449442529-124445.jpg,2898632385-217137.jpg,3.0,,,,A5P12YJP805RG
939,49,right,1.0,29.0,right.jpg,,,right,0.4713,,A5P12YJP805RG
940,50,,1.0,30.0,2460547467-349422.jpg,2898618440-216545.jpg,1.0,,,,A5P12YJP805RG
941,51,,1.0,31.0,2898633421-291973.jpg,2512876023-52283.jpg,1.0,,,,A5P12YJP805RG
942,52,,1.0,32.0,2883268471-290842.jpg,2901947448-70314.jpg,3.0,,,,A5P12YJP805RG
943,53,,1.0,33.0,2238572663-35822.jpg,2986419333-73361.jpg,1.0,,,,A5P12YJP805RG
944,54,,1.0,34.0,2898617468-68274.jpg,2964207374-144577.jpg,3.0,,,,A5P12YJP805RG
945,55,,1.0,35.0,2981231403-71642.jpg,2981244403-72215.jpg,2.0,,,,A5P12YJP805RG
946,56,,1.0,36.0,2864910426-287204.jpg,2901939433-69672.jpg,3.0,,,,A5P12YJP805RG
947,57,,1.0,37.0,2898618390-216538.jpg,2986449336-296644.jpg,1.0,,,,A5P12YJP805RG
948,58,right,1.0,38.0,right.jpg,,,right,0.6507,,A5P12YJP805RG
949,59,,1.0,39.0,2592379964-131054.jpg,2592380272-354673.jpg,3.0,,,,A5P12YJP805RG
950,60,,1.0,40.0,2864907432-362042.jpg,2901947423-70310.jpg,2.0,,,,A5P12YJP805RG
951,61,,1.0,41.0,2883254439-140941.jpg,2898632385-217136.jpg,2.0,,,,A5P12YJP805RG
952,62,,1.0,42.0,2446758985-197609.jpg,2898624426-291544.jpg,3.0,,,,A5P12YJP805RG
953,63,,1.0,43.0,2449441881-272368.jpg,2449441881-272367.jpg,3.0,,,,A5P12YJP805RG
954,64,,1.0,44.0,2460547508-51571.jpg,2981232437-369759.jpg,2.0,,,,A5P12YJP805RG
955,65,,1.0,45.0,2868475410-213219.jpg,2901946465-218350.jpg,1.0,,,,A5P12YJP805RG
956,66,,1.0,46.0,2458347385-199723.jpg,2458347252-348911.jpg,3.0,,,,A5P12YJP805RG
957,67,,1.0,47.0,2898624426-291546.jpg,2964218432-369263.jpg,1.0,,,,A5P12YJP805RG
958,68,left,1.0,48.0,left.jpg,,,left,0.4504,,A5P12YJP805RG
959,69,,1.0,49.0,2901952513-70703.jpg,2238481198-19821.jpg,3.0,,,,A5P12YJP805RG
960,70,,1.0,50.0,2964223381-294447.jpg,2901941438-69836.jpg,2.0,,,,A5P12YJP805RG
961,71,,1.0,51.0,2575120738-55529.jpg,2575120738-55528.jpg,2.0,,,,A5P12YJP805RG
962,72,,1.0,52.0,2901948350-218459.jpg,2804906319-133082.jpg,1.0,,,,A5P12YJP805RG
963,73,,1.0,53.0,2238428357-313623.jpg,2238499057-320266.jpg,1.0,,,,A5P12YJP805RG
964,74,,1.0,54.0,2512875899-126682.jpg,2460547536-274179.jpg,1.0,,,,A5P12YJP805RG
965,75,,1.0,55.0,2592380177-354629.jpg,2579432534-130704.jpg,2.0,,,,A5P12YJP805RG
966,76,,1.0,56.0,2238560245-182099.jpg,2549106624-127823.jpg,1.0,,,,A5P12YJP805RG
967,77,,1.0,57.0,2446759803-49249.jpg,2898618440-216547.jpg,2.0,,,,A5P12YJP805RG
968,78,,1.0,58.0,2874303365-214262.jpg,2609793677-355397.jpg,1.0,,,,A5P12YJP805RG
969,79,,1.0,59.0,2981241414-145842.jpg,2427873848-47312.jpg,3.0,,,,A5P12YJP805RG
970,80,,1.0,60.0,2874307433-66280.jpg,2981231422-369714.jpg,3.0,,,,A5P12YJP805RG
971,81,,1.0,61.0,2592380177-354626.jpg,2864901386-286797.jpg,2.0,,,,A5P12YJP805RG
972,82,,1.0,62.0,2883256307-365057.jpg,2611628310-206388.jpg,1.0,,,,A5P12YJP805RG
973,83,,1.0,63.0,2898635428-69104.jpg,2898625336-291572.jpg,3.0,,,,A5P12YJP805RG
974,84,,1.0,64.0,2874302418-65979.jpg,2413147898-43548.jpg,1.0,,,,A5P12YJP805RG
975,20,,1.0,0.0,2898635428-69104.jpg,2898625336-291572.jpg,3.0,,,,A9ORJQWL53QJL
976,21,,1.0,1.0,2452380832-348593.jpg,2449442181-272436.jpg,3.0,,,,A9ORJQWL53QJL
977,22,,1.0,2.0,2446759803-49249.jpg,2446760601-272099.jpg,1.0,,,,A9ORJQWL53QJL
978,23,,1.0,3.0,2898617468-68274.jpg,2864906345-212360.jpg,1.0,,,,A9ORJQWL53QJL
979,24,,1.0,4.0,2986451363-73599.jpg,2901939327-367669.jpg,1.0,,,,A9ORJQWL53QJL
980,25,,1.0,5.0,2592380177-354626.jpg,2238117096-228518.jpg,3.0,,,,A9ORJQWL53QJL
981,26,,1.0,6.0,2238428357-313623.jpg,2984615361-295509.jpg,2.0,,,,A9ORJQWL53QJL
982,27,,1.0,7.0,2874307433-66280.jpg,2986447306-296584.jpg,1.0,,,,A9ORJQWL53QJL
983,28,,1.0,8.0,2864907432-362042.jpg,2864901420-212147.jpg,1.0,,,,A9ORJQWL53QJL
984,29,,1.0,9.0,2238572663-35822.jpg,2864903351-286874.jpg,3.0,,,,A9ORJQWL53QJL
985,30,,1.0,10.0,2449442529-124445.jpg,2986408373-73286.jpg,2.0,,,,A9ORJQWL53QJL
986,31,,1.0,11.0,2964213381-294060.jpg,2981244394-145974.jpg,1.0,,,,A9ORJQWL53QJL
987,32,,1.0,12.0,2898635427-367120.jpg,2868479517-363220.jpg,2.0,,,,A9ORJQWL53QJL
988,33,right,1.0,13.0,right.jpg,,,right,1.2155,,A9ORJQWL53QJL
989,34,,1.0,14.0,2901947423-70311.jpg,2238577590-185467.jpg,3.0,,,,A9ORJQWL53QJL
990,35,,1.0,15.0,2592379964-131054.jpg,2575963989-130576.jpg,1.0,,,,A9ORJQWL53QJL
991,36,left,1.0,16.0,left.jpg,,,left,1.2109,,A9ORJQWL53QJL
992,37,,1.0,17.0,2868474407-362883.jpg,2238516618-25604.jpg,1.0,,,,A9ORJQWL53QJL
993,38,,1.0,18.0,2458347385-199723.jpg,2238480434-93829.jpg,1.0,,,,A9ORJQWL53QJL
994,39,,1.0,19.0,2964223381-294447.jpg,2427874231-269884.jpg,1.0,,,,A9ORJQWL53QJL
995,40,,1.0,20.0,2449441881-272368.jpg,2883268412-365899.jpg,1.0,,,,A9ORJQWL53QJL
996,41,,1.0,21.0,2898618444-142233.jpg,2238555262-330312.jpg,2.0,,,,A9ORJQWL53QJL
997,42,,1.0,22.0,2883268471-290842.jpg,2883268471-290843.jpg,1.0,,,,A9ORJQWL53QJL
998,43,,1.0,23.0,2868475410-213219.jpg,2238480803-19739.jpg,2.0,,,,A9ORJQWL53QJL
999,44,,1.0,24.0,2452381505-199546.jpg,2994401319-148290.jpg,3.0,,,,A9ORJQWL53QJL
1000,45,,1.0,25.0,2864910426-287204.jpg,2864902304-137862.jpg,1.0,,,,A9ORJQWL53QJL
1001,46,,1.0,26.0,2874299429-139695.jpg,2901942443-69923.jpg,2.0,,,,A9ORJQWL53QJL
1002,47,,1.0,27.0,2446759347-347016.jpg,2901951350-218702.jpg,2.0,,,,A9ORJQWL53QJL
1003,48,,1.0,28.0,2981241414-145842.jpg,2427873848-47312.jpg,3.0,,,,A9ORJQWL53QJL
1004,49,,1.0,29.0,2874302418-65979.jpg,2413147898-43548.jpg,1.0,,,,A9ORJQWL53QJL
1005,50,,1.0,30.0,2238481198-19822.jpg,2901946436-293242.jpg,2.0,,,,A9ORJQWL53QJL
1006,51,,1.0,31.0,2964216465-219242.jpg,2898619327-366362.jpg,3.0,,,,A9ORJQWL53QJL
1007,52,right,1.0,32.0,right.jpg,,,right,1.091900001,,A9ORJQWL53QJL
1008,53,,1.0,33.0,2898634397-367080.jpg,2901934408-69289.jpg,2.0,,,,A9ORJQWL53QJL
1009,54,,1.0,34.0,2460547467-349422.jpg,2864909447-362146.jpg,3.0,,,,A9ORJQWL53QJL
1010,55,,1.0,35.0,2901941401-292798.jpg,2898618327-366317.jpg,1.0,,,,A9ORJQWL53QJL
1011,56,,1.0,36.0,2898633421-291973.jpg,2238550049-105691.jpg,3.0,,,,A9ORJQWL53QJL
1012,57,,1.0,37.0,2592380177-354629.jpg,2579432534-130704.jpg,2.0,,,,A9ORJQWL53QJL
1013,58,,1.0,38.0,2901939379-143480.jpg,2981229442-369621.jpg,2.0,,,,A9ORJQWL53QJL
1014,59,,1.0,39.0,2874303365-214262.jpg,2609793677-355397.jpg,1.0,,,,A9ORJQWL53QJL
1015,60,,1.0,40.0,2512875899-126682.jpg,2986447332-371497.jpg,3.0,,,,A9ORJQWL53QJL
1016,61,,1.0,41.0,2874301407-363895.jpg,2986397322-371109.jpg,2.0,,,,A9ORJQWL53QJL
1017,62,,1.0,42.0,2460547467-349421.jpg,2981235446-294901.jpg,3.0,,,,A9ORJQWL53QJL
1018,63,,1.0,43.0,2238560245-182099.jpg,2238480980-168129.jpg,3.0,,,,A9ORJQWL53QJL
1019,64,right,1.0,44.0,right.jpg,,,right,1.1484,,A9ORJQWL53QJL
1020,65,,1.0,45.0,2898624426-291546.jpg,2964218432-369263.jpg,1.0,,,,A9ORJQWL53QJL
1021,66,,1.0,46.0,2449442529-124446.jpg,2898632385-217139.jpg,3.0,,,,A9ORJQWL53QJL
1022,67,,1.0,47.0,2883256307-365057.jpg,2864904453-63933.jpg,3.0,,,,A9ORJQWL53QJL
1023,68,,1.0,48.0,2901948350-218459.jpg,2804906319-133082.jpg,1.0,,,,A9ORJQWL53QJL
1024,69,,1.0,49.0,2238480677-317399.jpg,2238480278-19661.jpg,3.0,,,,A9ORJQWL53QJL
1025,70,,1.0,50.0,2901939379-143479.jpg,2446758985-197610.jpg,2.0,,,,A9ORJQWL53QJL
1026,71,,1.0,51.0,2901952513-70703.jpg,2238481198-19821.jpg,3.0,,,,A9ORJQWL53QJL
1027,72,left,1.0,52.0,left.jpg,,,left,1.1282,,A9ORJQWL53QJL
1028,73,,1.0,53.0,2238425482-313537.jpg,2238436322-314047.jpg,2.0,,,,A9ORJQWL53QJL
1029,74,,1.0,54.0,2981231403-71642.jpg,2427873763-47290.jpg,3.0,,,,A9ORJQWL53QJL
1030,75,,1.0,55.0,2238481928-19949.jpg,2864900357-361688.jpg,2.0,,,,A9ORJQWL53QJL
1031,76,,1.0,56.0,2238580740-186218.jpg,2238521193-26285.jpg,2.0,,,,A9ORJQWL53QJL
1032,77,,1.0,57.0,2883254439-140941.jpg,2446760844-124088.jpg,1.0,,,,A9ORJQWL53QJL
1033,78,,1.0,58.0,2883268412-365898.jpg,2984615361-295510.jpg,2.0,,,,A9ORJQWL53QJL
1034,79,,1.0,59.0,2446758985-197609.jpg,2864909447-362144.jpg,2.0,,,,A9ORJQWL53QJL
1035,80,,1.0,60.0,2460547508-51571.jpg,2901941438-69835.jpg,3.0,,,,A9ORJQWL53QJL
1036,81,,1.0,61.0,2898618390-216538.jpg,2575120609-129862.jpg,3.0,,,,A9ORJQWL53QJL
1037,82,,1.0,62.0,2874302418-65978.jpg,2238481198-19823.jpg,2.0,,,,A9ORJQWL53QJL
1038,83,,1.0,63.0,2575120738-55529.jpg,2898632385-217138.jpg,1.0,,,,A9ORJQWL53QJL
1039,84,,1.0,64.0,2964218374-144967.jpg,2883254439-140940.jpg,2.0,,,,A9ORJQWL53QJL
1040,20,,1.0,0.0,2986451363-73599.jpg,2901939327-367669.jpg,1.0,,,,AFYIL9DFX6BFO
1041,21,,1.0,1.0,2898635427-367120.jpg,2901946439-144040.jpg,1.0,,,,AFYIL9DFX6BFO
1042,22,,1.0,2.0,2449441881-272368.jpg,2984615358-72439.jpg,2.0,,,,AFYIL9DFX6BFO
1043,23,,1.0,3.0,2883268471-290842.jpg,2883255450-215310.jpg,2.0,,,,AFYIL9DFX6BFO
1044,24,,1.0,4.0,2964218374-144967.jpg,2964218374-144968.jpg,1.0,,,,AFYIL9DFX6BFO
1045,25,,1.0,5.0,2874301407-363895.jpg,2901947323-70275.jpg,3.0,,,,AFYIL9DFX6BFO
1046,26,left,1.0,6.0,left.jpg,,,left,1.905,,AFYIL9DFX6BFO
1047,27,,1.0,7.0,2238572663-35822.jpg,2986419333-73361.jpg,1.0,,,,AFYIL9DFX6BFO
1048,28,,1.0,8.0,2901947423-70311.jpg,2860312398-62572.jpg,1.0,,,,AFYIL9DFX6BFO
1049,29,,1.0,9.0,2874303365-214262.jpg,2864911457-362260.jpg,3.0,,,,AFYIL9DFX6BFO
1050,30,,1.0,10.0,2901939379-143479.jpg,2446758985-197610.jpg,2.0,,,,AFYIL9DFX6BFO
1051,31,,1.0,11.0,2901952513-70703.jpg,2864907361-287062.jpg,1.0,,,,AFYIL9DFX6BFO
1052,32,,1.0,12.0,2575120738-55529.jpg,2898632385-217138.jpg,1.0,,,,AFYIL9DFX6BFO
1053,33,,1.0,13.0,2898618390-216538.jpg,2901939327-367670.jpg,2.0,,,,AFYIL9DFX6BFO
1054,34,,1.0,14.0,2901939379-143480.jpg,2901942428-69919.jpg,1.0,,,,AFYIL9DFX6BFO
1055,35,,1.0,15.0,2898617468-68274.jpg,2964207374-144577.jpg,3.0,,,,AFYIL9DFX6BFO
1056,36,,1.0,16.0,2864910426-287204.jpg,2901939433-69672.jpg,3.0,,,,AFYIL9DFX6BFO
1057,37,,1.0,17.0,2868474407-362883.jpg,2901948383-70363.jpg,3.0,,,,AFYIL9DFX6BFO
1058,38,,1.0,18.0,2868475410-213219.jpg,2238480803-19739.jpg,2.0,,,,AFYIL9DFX6BFO
1059,39,,1.0,19.0,2238481198-19822.jpg,2901946436-293242.jpg,2.0,,,,AFYIL9DFX6BFO
1060,40,right,1.0,20.0,right.jpg,,,right,2.6498,,AFYIL9DFX6BFO
1061,41,,1.0,21.0,2964213381-294060.jpg,2964213381-294061.jpg,3.0,,,,AFYIL9DFX6BFO
1062,42,,1.0,22.0,2238560245-182099.jpg,2874314526-289684.jpg,2.0,,,,AFYIL9DFX6BFO
1063,43,,1.0,23.0,2964223381-294447.jpg,2898628438-68785.jpg,3.0,,,,AFYIL9DFX6BFO
1064,44,,1.0,24.0,2460547467-349422.jpg,2898618440-216545.jpg,1.0,,,,AFYIL9DFX6BFO
1065,45,,1.0,25.0,2981241414-145842.jpg,2874301404-139813.jpg,2.0,,,,AFYIL9DFX6BFO
1066,46,,1.0,26.0,2898624426-291546.jpg,2981235446-294900.jpg,3.0,,,,AFYIL9DFX6BFO
1067,47,right,1.0,27.0,right.jpg,,,right,1.3955,,AFYIL9DFX6BFO
1068,48,,1.0,28.0,2446759347-347016.jpg,2901951350-218702.jpg,2.0,,,,AFYIL9DFX6BFO
1069,49,,1.0,29.0,2592379964-131054.jpg,2238479053-19457.jpg,2.0,,,,AFYIL9DFX6BFO
1070,50,,1.0,30.0,2898633421-291973.jpg,2575118671-277663.jpg,2.0,,,,AFYIL9DFX6BFO
1071,51,,1.0,31.0,2864907432-362042.jpg,2864901420-212147.jpg,1.0,,,,AFYIL9DFX6BFO
1072,52,,1.0,32.0,2238428357-313623.jpg,2575121987-353817.jpg,3.0,,,,AFYIL9DFX6BFO
1073,53,,1.0,33.0,2238481928-19949.jpg,2981241419-145844.jpg,3.0,,,,AFYIL9DFX6BFO
1074,54,,1.0,34.0,2238580740-186218.jpg,2238550816-254000.jpg,1.0,,,,AFYIL9DFX6BFO
1075,55,,1.0,35.0,2458347385-199723.jpg,2458347252-348911.jpg,3.0,,,,AFYIL9DFX6BFO
1076,56,,1.0,36.0,2898634397-367080.jpg,2237944827-301472.jpg,1.0,,,,AFYIL9DFX6BFO
1077,57,,1.0,37.0,2449442529-124446.jpg,2898632385-217139.jpg,3.0,,,,AFYIL9DFX6BFO
1078,58,,1.0,38.0,2449442529-124445.jpg,2452380171-273112.jpg,1.0,,,,AFYIL9DFX6BFO
1079,59,,1.0,39.0,2460547467-349421.jpg,2898631394-142727.jpg,1.0,,,,AFYIL9DFX6BFO
1080,60,right,1.0,40.0,right.jpg,,,right,1.4811,,AFYIL9DFX6BFO
1081,61,,1.0,41.0,2446758985-197609.jpg,2898624426-291544.jpg,3.0,,,,AFYIL9DFX6BFO
1082,62,,1.0,42.0,2874302418-65979.jpg,2238480648-19714.jpg,2.0,,,,AFYIL9DFX6BFO
1083,63,,1.0,43.0,2964216465-219242.jpg,2864900319-137787.jpg,2.0,,,,AFYIL9DFX6BFO
1084,64,,1.0,44.0,2452380832-348593.jpg,2449442181-272436.jpg,3.0,,,,AFYIL9DFX6BFO
1085,65,,1.0,45.0,2446759803-49249.jpg,2452380166-273109.jpg,3.0,,,,AFYIL9DFX6BFO
1086,66,,1.0,46.0,2238425482-313537.jpg,2238436322-314047.jpg,2.0,,,,AFYIL9DFX6BFO
1087,67,,1.0,47.0,2898618444-142233.jpg,2238555262-330312.jpg,2.0,,,,AFYIL9DFX6BFO
1088,68,,1.0,48.0,2452381505-199546.jpg,2994401319-148290.jpg,3.0,,,,AFYIL9DFX6BFO
1089,69,,1.0,49.0,2898635428-69104.jpg,2898625336-291572.jpg,3.0,,,,AFYIL9DFX6BFO
1090,70,,0.0,50.0,left.jpg,,,left,,,AFYIL9DFX6BFO
1091,71,,1.0,51.0,2238480677-317399.jpg,2238480278-19661.jpg,3.0,,,,AFYIL9DFX6BFO
1092,72,,1.0,52.0,2901948350-218459.jpg,2417208001-267065.jpg,2.0,,,,AFYIL9DFX6BFO
1093,73,,1.0,53.0,2883256307-365057.jpg,2964210336-293945.jpg,2.0,,,,AFYIL9DFX6BFO
1094,74,,1.0,54.0,2592380177-354626.jpg,2986408339-146952.jpg,1.0,,,,AFYIL9DFX6BFO
1095,75,,1.0,55.0,2874302418-65978.jpg,2238481198-19823.jpg,2.0,,,,AFYIL9DFX6BFO
1096,76,,1.0,56.0,2460547508-51571.jpg,2981232437-369759.jpg,2.0,,,,AFYIL9DFX6BFO
1097,77,,1.0,57.0,2512875899-126682.jpg,2460547536-274179.jpg,1.0,,,,AFYIL9DFX6BFO
1098,78,,1.0,58.0,2874307433-66280.jpg,2981231422-369714.jpg,3.0,,,,AFYIL9DFX6BFO
1099,79,,1.0,59.0,2592380177-354629.jpg,2898633421-291974.jpg,1.0,,,,AFYIL9DFX6BFO
1100,80,,1.0,60.0,2883254439-140941.jpg,2446760844-124088.jpg,1.0,,,,AFYIL9DFX6BFO
1101,81,,1.0,61.0,2981231403-71642.jpg,2981244403-72215.jpg,2.0,,,,AFYIL9DFX6BFO
1102,82,,1.0,62.0,2874299429-139695.jpg,2883266388-67750.jpg,1.0,,,,AFYIL9DFX6BFO
1103,83,,1.0,63.0,2901941401-292798.jpg,2898618327-366317.jpg,1.0,,,,AFYIL9DFX6BFO
1104,84,,1.0,64.0,2883268412-365898.jpg,2238436252-314037.jpg,3.0,,,,AFYIL9DFX6BFO
1105,20,,1.0,0.0,2592379964-131054.jpg,2575963989-130576.jpg,1.0,,,,ASNNAP90D5R1Z
1106,21,,1.0,1.0,2964223381-294447.jpg,2898628438-68785.jpg,3.0,,,,ASNNAP90D5R1Z
1107,22,,1.0,2.0,2883254439-140941.jpg,2981231446-294730.jpg,3.0,,,,ASNNAP90D5R1Z
1108,23,,1.0,3.0,2964213381-294060.jpg,2964213381-294061.jpg,3.0,,,,ASNNAP90D5R1Z
1109,24,,1.0,4.0,2898624426-291546.jpg,2981236443-71859.jpg,2.0,,,,ASNNAP90D5R1Z
1110,25,,1.0,5.0,2868475410-213219.jpg,2238480803-19739.jpg,2.0,,,,ASNNAP90D5R1Z
1111,26,,1.0,6.0,2874307433-66280.jpg,2981231422-369714.jpg,3.0,,,,ASNNAP90D5R1Z
1112,27,,1.0,7.0,2898617468-68274.jpg,2901943387-368037.jpg,2.0,,,,ASNNAP90D5R1Z
1113,28,left,1.0,8.0,left.jpg,,,left,1.963,,ASNNAP90D5R1Z
1114,29,,1.0,9.0,2446759347-347016.jpg,2901951350-218702.jpg,2.0,,,,ASNNAP90D5R1Z
1115,30,,1.0,10.0,2898618390-216538.jpg,2575120609-129862.jpg,3.0,,,,ASNNAP90D5R1Z
1116,31,,1.0,11.0,2238580740-186218.jpg,2238550816-254000.jpg,1.0,,,,ASNNAP90D5R1Z
1117,32,,1.0,12.0,2874302418-65979.jpg,2238578544-111698.jpg,3.0,,,,ASNNAP90D5R1Z
1118,33,,1.0,13.0,2592380177-354626.jpg,2986408339-146952.jpg,1.0,,,,ASNNAP90D5R1Z
1119,34,,1.0,14.0,2864907432-362042.jpg,2901947423-70310.jpg,2.0,,,,ASNNAP90D5R1Z
1120,35,,1.0,15.0,2238425482-313537.jpg,2898633480-217190.jpg,3.0,,,,ASNNAP90D5R1Z
1121,36,,1.0,16.0,2575120738-55529.jpg,2238531493-28260.jpg,3.0,,,,ASNNAP90D5R1Z
1122,37,,1.0,17.0,2898633421-291973.jpg,2238550049-105691.jpg,3.0,,,,ASNNAP90D5R1Z
1123,38,,1.0,18.0,2446758985-197609.jpg,2864909447-362144.jpg,2.0,,,,ASNNAP90D5R1Z
1124,39,left,1.0,19.0,left.jpg,,,left,1.513,,ASNNAP90D5R1Z
1125,40,,1.0,20.0,2898635427-367120.jpg,2901946439-144040.jpg,1.0,,,,ASNNAP90D5R1Z
1126,41,,1.0,21.0,2238428357-313623.jpg,2238499057-320266.jpg,1.0,,,,ASNNAP90D5R1Z
1127,42,,1.0,22.0,2981241414-145842.jpg,2427873848-47312.jpg,3.0,,,,ASNNAP90D5R1Z
1128,43,,1.0,23.0,2449442529-124445.jpg,2986408373-73286.jpg,2.0,,,,ASNNAP90D5R1Z
1129,44,,1.0,24.0,2883256307-365057.jpg,2964210336-293945.jpg,2.0,,,,ASNNAP90D5R1Z
1130,45,,1.0,25.0,2512875899-126682.jpg,2986447332-371497.jpg,3.0,,,,ASNNAP90D5R1Z
1131,46,right,1.0,26.0,right.jpg,,,right,1.639,,ASNNAP90D5R1Z
1132,47,,1.0,27.0,2901939379-143479.jpg,2460547467-349423.jpg,1.0,,,,ASNNAP90D5R1Z
1133,48,,1.0,28.0,2874301407-363895.jpg,2883264368-67631.jpg,1.0,,,,ASNNAP90D5R1Z
1134,49,,1.0,29.0,2864910426-287204.jpg,2864902304-137862.jpg,1.0,,,,ASNNAP90D5R1Z
1135,50,,1.0,30.0,2460547467-349422.jpg,2864909447-362146.jpg,3.0,,,,ASNNAP90D5R1Z
1136,51,,1.0,31.0,2238480677-317399.jpg,2238480278-19661.jpg,3.0,,,,ASNNAP90D5R1Z
1137,52,,1.0,32.0,2449441881-272368.jpg,2984615358-72439.jpg,2.0,,,,ASNNAP90D5R1Z
1138,53,,1.0,33.0,2901952513-70703.jpg,2864907361-287062.jpg,1.0,,,,ASNNAP90D5R1Z
1139,54,,1.0,34.0,2964216465-219242.jpg,2238544191-252422.jpg,1.0,,,,ASNNAP90D5R1Z
1140,55,,1.0,35.0,2452381505-199546.jpg,2994401319-148290.jpg,3.0,,,,ASNNAP90D5R1Z
1141,56,,1.0,36.0,2868474407-362883.jpg,2238516618-25604.jpg,1.0,,,,ASNNAP90D5R1Z
1142,57,right,1.0,37.0,right.jpg,,,right,1.878,,ASNNAP90D5R1Z
1143,58,,1.0,38.0,2874302418-65978.jpg,2898626385-216899.jpg,1.0,,,,ASNNAP90D5R1Z
1144,59,,1.0,39.0,2981231403-71642.jpg,2274829821-263682.jpg,1.0,,,,ASNNAP90D5R1Z
1145,60,,1.0,40.0,2238560245-182099.jpg,2549106624-127823.jpg,1.0,,,,ASNNAP90D5R1Z
1146,61,,1.0,41.0,2452380832-348593.jpg,2238481813-19930.jpg,2.0,,,,ASNNAP90D5R1Z
1147,62,,1.0,42.0,2458347385-199723.jpg,2427874554-121863.jpg,2.0,,,,ASNNAP90D5R1Z
1148,63,,1.0,43.0,2898618444-142233.jpg,2898618444-142232.jpg,3.0,,,,ASNNAP90D5R1Z
1149,64,,1.0,44.0,2592380177-354629.jpg,2898633421-291974.jpg,1.0,,,,ASNNAP90D5R1Z
1150,65,,1.0,45.0,2874299429-139695.jpg,2901942443-69923.jpg,2.0,,,,ASNNAP90D5R1Z
1151,66,,1.0,46.0,2898635428-69104.jpg,2446759803-49250.jpg,1.0,,,,ASNNAP90D5R1Z
1152,67,,1.0,47.0,2874303365-214262.jpg,2238563377-332054.jpg,2.0,,,,ASNNAP90D5R1Z
1153,68,,1.0,48.0,2964218374-144967.jpg,2964218374-144968.jpg,1.0,,,,ASNNAP90D5R1Z
1154,69,,1.0,49.0,2883268412-365898.jpg,2238436252-314037.jpg,3.0,,,,ASNNAP90D5R1Z
1155,70,,1.0,50.0,2446759803-49249.jpg,2452380166-273109.jpg,3.0,,,,ASNNAP90D5R1Z
1156,71,,1.0,51.0,2901941401-292798.jpg,2981243412-370222.jpg,2.0,,,,ASNNAP90D5R1Z
1157,72,,1.0,52.0,2986451363-73599.jpg,2238434559-90406.jpg,3.0,,,,ASNNAP90D5R1Z
1158,73,,1.0,53.0,2460547508-51571.jpg,2981232437-369759.jpg,2.0,,,,ASNNAP90D5R1Z
1159,74,left,1.0,54.0,left.jpg,,,left,1.211,,ASNNAP90D5R1Z
1160,75,,1.0,55.0,2238481198-19822.jpg,2901946436-293242.jpg,2.0,,,,ASNNAP90D5R1Z
1161,76,,1.0,56.0,2883268471-290842.jpg,2883268471-290843.jpg,1.0,,,,ASNNAP90D5R1Z
1162,77,,1.0,57.0,2460547467-349421.jpg,2452380166-273110.jpg,2.0,,,,ASNNAP90D5R1Z
1163,78,,1.0,58.0,2901948350-218459.jpg,2804906319-133082.jpg,1.0,,,,ASNNAP90D5R1Z
1164,79,,1.0,59.0,2449442529-124446.jpg,2460547536-274181.jpg,2.0,,,,ASNNAP90D5R1Z
1165,80,,1.0,60.0,2238481928-19949.jpg,2864900357-361688.jpg,2.0,,,,ASNNAP90D5R1Z
1166,81,,1.0,61.0,2898634397-367080.jpg,2964217461-294238.jpg,3.0,,,,ASNNAP90D5R1Z
1167,82,,1.0,62.0,2901939379-143480.jpg,2901942428-69919.jpg,1.0,,,,ASNNAP90D5R1Z
1168,83,,1.0,63.0,2238572663-35822.jpg,2864903351-286874.jpg,3.0,,,,ASNNAP90D5R1Z
1169,84,,1.0,64.0,2901947423-70311.jpg,2238573447-333826.jpg,2.0,,,,ASNNAP90D5R1Z
1170,20,,1.0,0.0,2964216465-219242.jpg,2898619327-366362.jpg,3.0,,,,AVSPYLB9KOHMX
1171,21,,1.0,1.0,2449441881-272368.jpg,2449441881-272367.jpg,3.0,,,,AVSPYLB9KOHMX
1172,22,,1.0,2.0,2981241414-145842.jpg,2856919327-359676.jpg,1.0,,,,AVSPYLB9KOHMX
1173,23,,1.0,3.0,2864907432-362042.jpg,2989726338-74002.jpg,3.0,,,,AVSPYLB9KOHMX
1174,24,,1.0,4.0,2238580740-186218.jpg,2964220333-71258.jpg,3.0,,,,AVSPYLB9KOHMX
1175,25,,1.0,5.0,2901941401-292798.jpg,2883273443-68193.jpg,3.0,,,,AVSPYLB9KOHMX
1176,26,,1.0,6.0,2874303365-214262.jpg,2238563377-332054.jpg,2.0,,,,AVSPYLB9KOHMX
1177,27,,1.0,7.0,2883254439-140941.jpg,2981231446-294730.jpg,3.0,,,,AVSPYLB9KOHMX
1178,28,,1.0,8.0,2964218374-144967.jpg,2883254439-140940.jpg,2.0,,,,AVSPYLB9KOHMX
1179,29,,1.0,9.0,2449442529-124445.jpg,2452380171-273112.jpg,1.0,,,,AVSPYLB9KOHMX
1180,30,,1.0,10.0,2446758985-197609.jpg,2981240424-145795.jpg,1.0,,,,AVSPYLB9KOHMX
1181,31,left,1.0,11.0,left.jpg,,,left,2.249,,AVSPYLB9KOHMX
1182,32,,1.0,12.0,2575120738-55529.jpg,2898632385-217138.jpg,1.0,,,,AVSPYLB9KOHMX
1183,33,,1.0,13.0,2901939379-143480.jpg,2901938432-367629.jpg,3.0,,,,AVSPYLB9KOHMX
1184,34,,1.0,14.0,2883268471-290842.jpg,2883268471-290843.jpg,1.0,,,,AVSPYLB9KOHMX
1185,35,,1.0,15.0,2238480677-317399.jpg,2238573546-258454.jpg,2.0,,,,AVSPYLB9KOHMX
1186,36,,1.0,16.0,2964223381-294447.jpg,2898628438-68785.jpg,3.0,,,,AVSPYLB9KOHMX
1187,37,,1.0,17.0,2238425482-313537.jpg,2898633480-217190.jpg,3.0,,,,AVSPYLB9KOHMX
1188,38,,1.0,18.0,2238572663-35822.jpg,2864903351-286874.jpg,3.0,,,,AVSPYLB9KOHMX
1189,39,,1.0,19.0,2901948350-218459.jpg,2804906319-133082.jpg,1.0,,,,AVSPYLB9KOHMX
1190,40,left,1.0,20.0,left.jpg,,,left,2.061,,AVSPYLB9KOHMX
1191,41,,1.0,21.0,2460547467-349422.jpg,2898618440-216545.jpg,1.0,,,,AVSPYLB9KOHMX
1192,42,,1.0,22.0,2901952513-70703.jpg,2864907361-287062.jpg,1.0,,,,AVSPYLB9KOHMX
1193,43,,1.0,23.0,2864910426-287204.jpg,2901939433-69672.jpg,3.0,,,,AVSPYLB9KOHMX
1194,44,,1.0,24.0,2460547508-51571.jpg,2981232437-369759.jpg,2.0,,,,AVSPYLB9KOHMX
1195,45,,1.0,25.0,2452381505-199546.jpg,2901938432-367627.jpg,1.0,,,,AVSPYLB9KOHMX
1196,46,,1.0,26.0,2874299429-139695.jpg,2901942443-69923.jpg,2.0,,,,AVSPYLB9KOHMX
1197,47,,1.0,27.0,2898635427-367120.jpg,2868479517-363220.jpg,2.0,,,,AVSPYLB9KOHMX
1198,48,,1.0,28.0,2592379964-131054.jpg,2238479053-19457.jpg,2.0,,,,AVSPYLB9KOHMX
1199,49,right,1.0,29.0,right.jpg,,,right,1.889,,AVSPYLB9KOHMX
1200,50,,1.0,30.0,2868475410-213219.jpg,2868474407-362885.jpg,3.0,,,,AVSPYLB9KOHMX
1201,51,,1.0,31.0,2981231403-71642.jpg,2981244403-72215.jpg,2.0,,,,AVSPYLB9KOHMX
1202,52,,1.0,32.0,2868474407-362883.jpg,2981246400-220363.jpg,2.0,,,,AVSPYLB9KOHMX
1203,53,,1.0,33.0,2592380177-354629.jpg,2898633421-291974.jpg,1.0,,,,AVSPYLB9KOHMX
1204,54,,1.0,34.0,2238428357-313623.jpg,2238499057-320266.jpg,1.0,,,,AVSPYLB9KOHMX
1205,55,,1.0,35.0,2898633421-291973.jpg,2512876023-52283.jpg,1.0,,,,AVSPYLB9KOHMX
1206,56,,1.0,36.0,2460547467-349421.jpg,2981235446-294901.jpg,3.0,,,,AVSPYLB9KOHMX
1207,57,,1.0,37.0,2986451363-73599.jpg,2901939327-367669.jpg,1.0,,,,AVSPYLB9KOHMX
1208,58,,1.0,38.0,2883268412-365898.jpg,2984615361-295510.jpg,2.0,,,,AVSPYLB9KOHMX
1209,59,,1.0,39.0,2238481928-19949.jpg,2883264367-365620.jpg,1.0,,,,AVSPYLB9KOHMX
1210,60,,1.0,40.0,2449442529-124446.jpg,2898632385-217139.jpg,3.0,,,,AVSPYLB9KOHMX
1211,61,,1.0,41.0,2874307433-66280.jpg,2986447306-296584.jpg,1.0,,,,AVSPYLB9KOHMX
1212,62,left,1.0,42.0,left.jpg,,,left,2.626,,AVSPYLB9KOHMX
1213,63,,1.0,43.0,2874302418-65979.jpg,2238578544-111698.jpg,3.0,,,,AVSPYLB9KOHMX
1214,64,,1.0,44.0,2452380832-348593.jpg,2449442181-272436.jpg,3.0,,,,AVSPYLB9KOHMX
1215,65,,1.0,45.0,2898618444-142233.jpg,2898631359-142721.jpg,1.0,,,,AVSPYLB9KOHMX
1216,66,,1.0,46.0,2901947423-70311.jpg,2238573447-333826.jpg,2.0,,,,AVSPYLB9KOHMX
1217,67,,1.0,47.0,2898635428-69104.jpg,2446759803-49250.jpg,1.0,,,,AVSPYLB9KOHMX
1218,68,,1.0,48.0,2964213381-294060.jpg,2458348012-349114.jpg,2.0,,,,AVSPYLB9KOHMX
1219,69,left,1.0,49.0,left.jpg,,,left,0.946,,AVSPYLB9KOHMX
1220,70,,1.0,50.0,2898617468-68274.jpg,2901943387-368037.jpg,2.0,,,,AVSPYLB9KOHMX
1221,71,,1.0,51.0,2883256307-365057.jpg,2964210336-293945.jpg,2.0,,,,AVSPYLB9KOHMX
1222,72,,1.0,52.0,2898624426-291546.jpg,2964218432-369263.jpg,1.0,,,,AVSPYLB9KOHMX
1223,73,,1.0,53.0,2238481198-19822.jpg,2901946436-293242.jpg,2.0,,,,AVSPYLB9KOHMX
1224,74,,1.0,54.0,2874301407-363895.jpg,2986397322-371109.jpg,2.0,,,,AVSPYLB9KOHMX
1225,75,,1.0,55.0,2874302418-65978.jpg,2898633321-291943.jpg,3.0,,,,AVSPYLB9KOHMX
1226,76,,1.0,56.0,2898618390-216538.jpg,2901939327-367670.jpg,2.0,,,,AVSPYLB9KOHMX
1227,77,,1.0,57.0,2592380177-354626.jpg,2986408339-146952.jpg,1.0,,,,AVSPYLB9KOHMX
1228,78,,1.0,58.0,2446759803-49249.jpg,2898618440-216547.jpg,2.0,,,,AVSPYLB9KOHMX
1229,79,,1.0,59.0,2238560245-182099.jpg,2874314526-289684.jpg,2.0,,,,AVSPYLB9KOHMX
1230,80,,1.0,60.0,2458347385-199723.jpg,2427874554-121863.jpg,2.0,,,,AVSPYLB9KOHMX
1231,81,,1.0,61.0,2901939379-143479.jpg,2460547467-349423.jpg,1.0,,,,AVSPYLB9KOHMX
1232,82,,1.0,62.0,2512875899-126682.jpg,2986447332-371497.jpg,3.0,,,,AVSPYLB9KOHMX
1233,83,,1.0,63.0,2446759347-347016.jpg,2238569117-333045.jpg,3.0,,,,AVSPYLB9KOHMX
1234,84,,1.0,64.0,2898634397-367080.jpg,2964217461-294238.jpg,3.0,,,,AVSPYLB9KOHMX
