,index,test_encoding_response.keys,test_encoding_response.corr,trials.thisTrialN,target_image,pair,layer,correct,test_encoding_response.rt,key_resp_end.keys,subject
0,20,,1.0,0.0,2883268412-365898.jpg,2984626312-370849.jpg,1.0,,,,A1D8EUOJW3MX7N
1,21,,1.0,1.0,2449441881-272368.jpg,2984615358-72439.jpg,2.0,,,,A1D8EUOJW3MX7N
2,22,,1.0,2.0,2874307433-66280.jpg,2981246400-220365.jpg,2.0,,,,A1D8EUOJW3MX7N
3,23,,1.0,3.0,2575120738-55529.jpg,2575120738-55528.jpg,2.0,,,,A1D8EUOJW3MX7N
4,24,,1.0,4.0,2901952513-70703.jpg,2868469411-287540.jpg,2.0,,,,A1D8EUOJW3MX7N
5,25,,1.0,5.0,2964213381-294060.jpg,2964213381-294061.jpg,3.0,,,,A1D8EUOJW3MX7N
6,26,,1.0,6.0,2864910426-287204.jpg,2864902304-137862.jpg,1.0,,,,A1D8EUOJW3MX7N
7,27,,1.0,7.0,2238580740-186218.jpg,2238521193-26285.jpg,2.0,,,,A1D8EUOJW3MX7N
8,28,,1.0,8.0,2452381505-199546.jpg,2994401319-148290.jpg,3.0,,,,A1D8EUOJW3MX7N
9,29,,1.0,9.0,2898618444-142233.jpg,2898631359-142721.jpg,1.0,,,,A1D8EUOJW3MX7N
10,30,,1.0,10.0,2238428357-313623.jpg,2238499057-320266.jpg,1.0,,,,A1D8EUOJW3MX7N
11,31,,1.0,11.0,2898635427-367120.jpg,2898621427-366486.jpg,3.0,,,,A1D8EUOJW3MX7N
12,32,right,1.0,12.0,right.jpg,,,right,1.452099998,,A1D8EUOJW3MX7N
13,33,,1.0,13.0,2874303365-214262.jpg,2864911457-362260.jpg,3.0,,,,A1D8EUOJW3MX7N
14,34,,1.0,14.0,2449442529-124445.jpg,2898632385-217137.jpg,3.0,,,,A1D8EUOJW3MX7N
15,35,,1.0,15.0,2238480677-317399.jpg,2238480278-19661.jpg,3.0,,,,A1D8EUOJW3MX7N
16,36,,1.0,16.0,2898633421-291973.jpg,2512876023-52283.jpg,1.0,,,,A1D8EUOJW3MX7N
17,37,,1.0,17.0,2898624426-291546.jpg,2981236443-71859.jpg,2.0,,,,A1D8EUOJW3MX7N
18,38,,1.0,18.0,2901941401-292798.jpg,2981243412-370222.jpg,2.0,,,,A1D8EUOJW3MX7N
19,39,,1.0,19.0,2986451363-73599.jpg,2238434559-90406.jpg,3.0,,,,A1D8EUOJW3MX7N
20,40,,1.0,20.0,2964216465-219242.jpg,2238544191-252422.jpg,1.0,,,,A1D8EUOJW3MX7N
21,41,right,1.0,21.0,right.jpg,,,right,1.348199999,,A1D8EUOJW3MX7N
22,42,,1.0,22.0,2874299429-139695.jpg,2446760917-347439.jpg,3.0,,,,A1D8EUOJW3MX7N
23,43,,1.0,23.0,2898634397-367080.jpg,2964217461-294238.jpg,3.0,,,,A1D8EUOJW3MX7N
24,44,,1.0,24.0,2898635428-69104.jpg,2446759803-49250.jpg,1.0,,,,A1D8EUOJW3MX7N
25,45,,1.0,25.0,2238425482-313537.jpg,2238436322-314047.jpg,2.0,,,,A1D8EUOJW3MX7N
26,46,,1.0,26.0,2446759803-49249.jpg,2452380166-273109.jpg,3.0,,,,A1D8EUOJW3MX7N
27,47,,1.0,27.0,2458347385-199723.jpg,2458347252-348911.jpg,3.0,,,,A1D8EUOJW3MX7N
28,48,,1.0,28.0,2446759347-347016.jpg,2238569117-333045.jpg,3.0,,,,A1D8EUOJW3MX7N
29,49,,1.0,29.0,2238481198-19822.jpg,2238480803-19737.jpg,3.0,,,,A1D8EUOJW3MX7N
30,50,,1.0,30.0,2868475410-213219.jpg,2868474407-362885.jpg,3.0,,,,A1D8EUOJW3MX7N
31,51,,1.0,31.0,2592380177-354629.jpg,2512875587-350044.jpg,3.0,,,,A1D8EUOJW3MX7N
32,52,,1.0,32.0,2901947423-70311.jpg,2860312398-62572.jpg,1.0,,,,A1D8EUOJW3MX7N
33,53,left,1.0,33.0,left.jpg,,,left,1.323900002,,A1D8EUOJW3MX7N
34,54,,1.0,34.0,2964223381-294447.jpg,2901941438-69836.jpg,2.0,,,,A1D8EUOJW3MX7N
35,55,,1.0,35.0,2981231403-71642.jpg,2981244403-72215.jpg,2.0,,,,A1D8EUOJW3MX7N
36,56,,1.0,36.0,2864907432-362042.jpg,2901947423-70310.jpg,2.0,,,,A1D8EUOJW3MX7N
37,57,,1.0,37.0,2901939379-143479.jpg,2460547467-349423.jpg,1.0,,,,A1D8EUOJW3MX7N
38,58,,1.0,38.0,2874301407-363895.jpg,2883264368-67631.jpg,1.0,,,,A1D8EUOJW3MX7N
39,59,,1.0,39.0,2883268471-290842.jpg,2883255450-215310.jpg,2.0,,,,A1D8EUOJW3MX7N
40,60,,1.0,40.0,2460547508-51571.jpg,2901941438-69835.jpg,3.0,,,,A1D8EUOJW3MX7N
41,61,right,1.0,41.0,right.jpg,,,right,0.9364,,A1D8EUOJW3MX7N
42,62,,1.0,42.0,2460547467-349421.jpg,2898631394-142727.jpg,1.0,,,,A1D8EUOJW3MX7N
43,63,,1.0,43.0,2452380832-348593.jpg,2238481813-19930.jpg,2.0,,,,A1D8EUOJW3MX7N
44,64,,1.0,44.0,2883254439-140941.jpg,2446760844-124088.jpg,1.0,,,,A1D8EUOJW3MX7N
45,65,,1.0,45.0,2898617468-68274.jpg,2901943387-368037.jpg,2.0,,,,A1D8EUOJW3MX7N
46,66,,1.0,46.0,2964218374-144967.jpg,2964218374-144968.jpg,1.0,,,,A1D8EUOJW3MX7N
47,67,,1.0,47.0,2238572663-35822.jpg,2238571930-184143.jpg,2.0,,,,A1D8EUOJW3MX7N
48,68,,1.0,48.0,2874302418-65979.jpg,2413147898-43548.jpg,1.0,,,,A1D8EUOJW3MX7N
49,69,,1.0,49.0,2238560245-182099.jpg,2549106624-127823.jpg,1.0,,,,A1D8EUOJW3MX7N
50,70,,1.0,50.0,2446758985-197609.jpg,2898624426-291544.jpg,3.0,,,,A1D8EUOJW3MX7N
51,71,right,1.0,51.0,right.jpg,,,right,1.057,,A1D8EUOJW3MX7N
52,72,,1.0,52.0,2901948350-218459.jpg,2804906319-133082.jpg,1.0,,,,A1D8EUOJW3MX7N
53,73,,1.0,53.0,2868474407-362883.jpg,2901948383-70363.jpg,3.0,,,,A1D8EUOJW3MX7N
54,74,,1.0,54.0,2449442529-124446.jpg,2446759803-49251.jpg,1.0,,,,A1D8EUOJW3MX7N
55,75,,1.0,55.0,2238481928-19949.jpg,2864900357-361688.jpg,2.0,,,,A1D8EUOJW3MX7N
56,76,,1.0,56.0,2874302418-65978.jpg,2898626385-216899.jpg,1.0,,,,A1D8EUOJW3MX7N
57,77,,1.0,57.0,2592380177-354626.jpg,2864901386-286797.jpg,2.0,,,,A1D8EUOJW3MX7N
58,78,,1.0,58.0,2898618390-216538.jpg,2575120609-129862.jpg,3.0,,,,A1D8EUOJW3MX7N
59,79,,1.0,59.0,2901939379-143480.jpg,2901942428-69919.jpg,1.0,,,,A1D8EUOJW3MX7N
60,80,,1.0,60.0,2592379964-131054.jpg,2238479053-19457.jpg,2.0,,,,A1D8EUOJW3MX7N
61,81,,1.0,61.0,2883256307-365057.jpg,2611628310-206388.jpg,1.0,,,,A1D8EUOJW3MX7N
62,82,,1.0,62.0,2460547467-349422.jpg,2868487415-213924.jpg,2.0,,,,A1D8EUOJW3MX7N
63,83,,1.0,63.0,2512875899-126682.jpg,2592380177-354628.jpg,2.0,,,,A1D8EUOJW3MX7N
64,84,,1.0,64.0,2981241414-145842.jpg,2427873848-47312.jpg,3.0,,,,A1D8EUOJW3MX7N
65,20,,1.0,0.0,2592379964-131054.jpg,2592380272-354673.jpg,3.0,,,,A1HG8X94R5JJIX
66,21,,1.0,1.0,2898635427-367120.jpg,2898621427-366486.jpg,3.0,,,,A1HG8X94R5JJIX
67,22,,1.0,2.0,2458347385-199723.jpg,2458347252-348911.jpg,3.0,,,,A1HG8X94R5JJIX
68,23,,1.0,3.0,2512875899-126682.jpg,2592380177-354628.jpg,2.0,,,,A1HG8X94R5JJIX
69,24,,1.0,4.0,2238481928-19949.jpg,2883264367-365620.jpg,1.0,,,,A1HG8X94R5JJIX
70,25,,1.0,5.0,2238572663-35822.jpg,2238571930-184143.jpg,2.0,,,,A1HG8X94R5JJIX
71,26,,1.0,6.0,2449442529-124445.jpg,2986408373-73286.jpg,2.0,,,,A1HG8X94R5JJIX
72,27,,1.0,7.0,2898617468-68274.jpg,2864906345-212360.jpg,1.0,,,,A1HG8X94R5JJIX
73,28,,1.0,8.0,2981241414-145842.jpg,2856919327-359676.jpg,1.0,,,,A1HG8X94R5JJIX
74,29,,1.0,9.0,2449441881-272368.jpg,2449441881-272367.jpg,3.0,,,,A1HG8X94R5JJIX
75,30,,1.0,10.0,2238481198-19822.jpg,2862691449-137104.jpg,1.0,,,,A1HG8X94R5JJIX
76,31,,1.0,11.0,2868475410-213219.jpg,2238480803-19739.jpg,2.0,,,,A1HG8X94R5JJIX
77,32,left,1.0,12.0,left.jpg,,,left,1.8912,,A1HG8X94R5JJIX
78,33,,1.0,13.0,2898618390-216538.jpg,2575120609-129862.jpg,3.0,,,,A1HG8X94R5JJIX
79,34,,1.0,14.0,2901939379-143479.jpg,2981240424-145794.jpg,3.0,,,,A1HG8X94R5JJIX
80,35,,1.0,15.0,2883268412-365898.jpg,2984615361-295510.jpg,2.0,,,,A1HG8X94R5JJIX
81,36,,1.0,16.0,2898634397-367080.jpg,2901934408-69289.jpg,2.0,,,,A1HG8X94R5JJIX
82,37,,1.0,17.0,2874307433-66280.jpg,2981246400-220365.jpg,2.0,,,,A1HG8X94R5JJIX
83,38,,1.0,18.0,2238425482-313537.jpg,2238471391-240918.jpg,1.0,,,,A1HG8X94R5JJIX
84,39,,1.0,19.0,2964223381-294447.jpg,2901941438-69836.jpg,2.0,,,,A1HG8X94R5JJIX
85,40,,1.0,20.0,2898635428-69104.jpg,2446759803-49250.jpg,1.0,,,,A1HG8X94R5JJIX
86,41,right,1.0,21.0,right.jpg,,,right,2.1397,,A1HG8X94R5JJIX
87,42,,1.0,22.0,2901939379-143480.jpg,2901942428-69919.jpg,1.0,,,,A1HG8X94R5JJIX
88,43,,1.0,23.0,2592380177-354626.jpg,2986408339-146952.jpg,1.0,,,,A1HG8X94R5JJIX
89,44,,1.0,24.0,2883268471-290842.jpg,2883268471-290843.jpg,1.0,,,,A1HG8X94R5JJIX
90,45,,1.0,25.0,2874302418-65978.jpg,2238481198-19823.jpg,2.0,,,,A1HG8X94R5JJIX
91,46,,1.0,26.0,2238580740-186218.jpg,2238521193-26285.jpg,2.0,,,,A1HG8X94R5JJIX
92,47,,1.0,27.0,2901947423-70311.jpg,2238573447-333826.jpg,2.0,,,,A1HG8X94R5JJIX
93,48,,1.0,28.0,2238428357-313623.jpg,2238499057-320266.jpg,1.0,,,,A1HG8X94R5JJIX
94,49,,1.0,29.0,2964213381-294060.jpg,2458348012-349114.jpg,2.0,,,,A1HG8X94R5JJIX
95,50,,1.0,30.0,2898618444-142233.jpg,2898618444-142232.jpg,3.0,,,,A1HG8X94R5JJIX
96,51,,1.0,31.0,2238560245-182099.jpg,2238480980-168129.jpg,3.0,,,,A1HG8X94R5JJIX
97,52,left,1.0,32.0,left.jpg,,,left,1.8606,,A1HG8X94R5JJIX
98,53,,1.0,33.0,2864910426-287204.jpg,2864902304-137862.jpg,1.0,,,,A1HG8X94R5JJIX
99,54,,1.0,34.0,2460547508-51571.jpg,2901941438-69835.jpg,3.0,,,,A1HG8X94R5JJIX
100,55,,1.0,35.0,2874303365-214262.jpg,2864911457-362260.jpg,3.0,,,,A1HG8X94R5JJIX
101,56,,1.0,36.0,2446759347-347016.jpg,2238569117-333045.jpg,3.0,,,,A1HG8X94R5JJIX
102,57,left,1.0,37.0,left.jpg,,,left,1.9954,,A1HG8X94R5JJIX
103,58,,1.0,38.0,2592380177-354629.jpg,2512875587-350044.jpg,3.0,,,,A1HG8X94R5JJIX
104,59,,1.0,39.0,2898624426-291546.jpg,2981235446-294900.jpg,3.0,,,,A1HG8X94R5JJIX
105,60,,1.0,40.0,2986451363-73599.jpg,2901939327-367669.jpg,1.0,,,,A1HG8X94R5JJIX
106,61,,1.0,41.0,2964218374-144967.jpg,2964218374-144968.jpg,1.0,,,,A1HG8X94R5JJIX
107,62,,1.0,42.0,2874301407-363895.jpg,2986397322-371109.jpg,2.0,,,,A1HG8X94R5JJIX
108,63,,1.0,43.0,2238480677-317399.jpg,2238573546-258454.jpg,2.0,,,,A1HG8X94R5JJIX
109,64,,1.0,44.0,2874299429-139695.jpg,2901942443-69923.jpg,2.0,,,,A1HG8X94R5JJIX
110,65,,1.0,45.0,2452380832-348593.jpg,2449442181-272436.jpg,3.0,,,,A1HG8X94R5JJIX
111,66,,1.0,46.0,2575120738-55529.jpg,2575120738-55528.jpg,2.0,,,,A1HG8X94R5JJIX
112,67,,1.0,47.0,2901948350-218459.jpg,2417208001-267065.jpg,2.0,,,,A1HG8X94R5JJIX
113,68,,1.0,48.0,2864907432-362042.jpg,2864901420-212147.jpg,1.0,,,,A1HG8X94R5JJIX
114,69,,1.0,49.0,2446759803-49249.jpg,2446760601-272099.jpg,1.0,,,,A1HG8X94R5JJIX
115,70,,1.0,50.0,2901952513-70703.jpg,2238481198-19821.jpg,3.0,,,,A1HG8X94R5JJIX
116,71,,1.0,51.0,2901941401-292798.jpg,2981243412-370222.jpg,2.0,,,,A1HG8X94R5JJIX
117,72,,1.0,52.0,2981231403-71642.jpg,2274829821-263682.jpg,1.0,,,,A1HG8X94R5JJIX
118,73,right,1.0,53.0,right.jpg,,,right,2.0523,,A1HG8X94R5JJIX
119,74,,1.0,54.0,2460547467-349422.jpg,2868487415-213924.jpg,2.0,,,,A1HG8X94R5JJIX
120,75,,1.0,55.0,2446758985-197609.jpg,2981240424-145795.jpg,1.0,,,,A1HG8X94R5JJIX
121,76,,1.0,56.0,2898633421-291973.jpg,2238550049-105691.jpg,3.0,,,,A1HG8X94R5JJIX
122,77,,1.0,57.0,2874302418-65979.jpg,2238578544-111698.jpg,3.0,,,,A1HG8X94R5JJIX
123,78,,1.0,58.0,2452381505-199546.jpg,2994401319-148290.jpg,3.0,,,,A1HG8X94R5JJIX
124,79,,1.0,59.0,2868474407-362883.jpg,2238516618-25604.jpg,1.0,,,,A1HG8X94R5JJIX
125,80,,1.0,60.0,2883256307-365057.jpg,2864904453-63933.jpg,3.0,,,,A1HG8X94R5JJIX
126,81,,1.0,61.0,2460547467-349421.jpg,2452380166-273110.jpg,2.0,,,,A1HG8X94R5JJIX
127,82,,1.0,62.0,2449442529-124446.jpg,2898632385-217139.jpg,3.0,,,,A1HG8X94R5JJIX
128,83,,1.0,63.0,2883254439-140941.jpg,2446760844-124088.jpg,1.0,,,,A1HG8X94R5JJIX
129,84,,1.0,64.0,2964216465-219242.jpg,2238544191-252422.jpg,1.0,,,,A1HG8X94R5JJIX
130,20,,1.0,0.0,2964223381-294447.jpg,2427874231-269884.jpg,1.0,,,,A1YZ0ETOCJO1B2
131,21,,1.0,1.0,2874307433-66280.jpg,2981246400-220365.jpg,2.0,,,,A1YZ0ETOCJO1B2
132,22,,1.0,2.0,2901941401-292798.jpg,2898618327-366317.jpg,1.0,,,,A1YZ0ETOCJO1B2
133,23,,1.0,3.0,2874303365-214262.jpg,2609793677-355397.jpg,1.0,,,,A1YZ0ETOCJO1B2
134,24,,1.0,4.0,2452381505-199546.jpg,2901938432-367627.jpg,1.0,,,,A1YZ0ETOCJO1B2
135,25,,1.0,5.0,2981241414-145842.jpg,2427873848-47312.jpg,3.0,,,,A1YZ0ETOCJO1B2
136,26,,1.0,6.0,2883268412-365898.jpg,2984626312-370849.jpg,1.0,,,,A1YZ0ETOCJO1B2
137,27,,1.0,7.0,2864910426-287204.jpg,2901939433-69672.jpg,3.0,,,,A1YZ0ETOCJO1B2
138,28,,1.0,8.0,2868475410-213219.jpg,2868474407-362885.jpg,3.0,,,,A1YZ0ETOCJO1B2
139,29,,1.0,9.0,2449442529-124445.jpg,2452380171-273112.jpg,1.0,,,,A1YZ0ETOCJO1B2
140,30,,1.0,10.0,2238572663-35822.jpg,2986419333-73361.jpg,1.0,,,,A1YZ0ETOCJO1B2
141,31,,1.0,11.0,2898618390-216538.jpg,2901939327-367670.jpg,2.0,,,,A1YZ0ETOCJO1B2
142,32,right,1.0,12.0,right.jpg,,,right,0.7504,,A1YZ0ETOCJO1B2
143,33,,1.0,13.0,2238481198-19822.jpg,2238480803-19737.jpg,3.0,,,,A1YZ0ETOCJO1B2
144,34,,1.0,14.0,2964218374-144967.jpg,2883254439-140940.jpg,2.0,,,,A1YZ0ETOCJO1B2
145,35,,1.0,15.0,2883256307-365057.jpg,2611628310-206388.jpg,1.0,,,,A1YZ0ETOCJO1B2
146,36,,1.0,16.0,2452380832-348593.jpg,2238481813-19930.jpg,2.0,,,,A1YZ0ETOCJO1B2
147,37,,1.0,17.0,2964216465-219242.jpg,2864900319-137787.jpg,2.0,,,,A1YZ0ETOCJO1B2
148,38,,1.0,18.0,2575120738-55529.jpg,2575120738-55528.jpg,2.0,,,,A1YZ0ETOCJO1B2
149,39,left,1.0,19.0,left.jpg,,,left,0.7816,,A1YZ0ETOCJO1B2
150,40,,1.0,20.0,2883254439-140941.jpg,2981231446-294730.jpg,3.0,,,,A1YZ0ETOCJO1B2
151,41,,1.0,21.0,2512875899-126682.jpg,2986447332-371497.jpg,3.0,,,,A1YZ0ETOCJO1B2
152,42,,1.0,22.0,2449441881-272368.jpg,2984615358-72439.jpg,2.0,,,,A1YZ0ETOCJO1B2
153,43,,1.0,23.0,2898618444-142233.jpg,2898631359-142721.jpg,1.0,,,,A1YZ0ETOCJO1B2
154,44,,1.0,24.0,2898635427-367120.jpg,2901946439-144040.jpg,1.0,,,,A1YZ0ETOCJO1B2
155,45,,1.0,25.0,2964213381-294060.jpg,2964213381-294061.jpg,3.0,,,,A1YZ0ETOCJO1B2
156,46,,1.0,26.0,2446758985-197609.jpg,2981240424-145795.jpg,1.0,,,,A1YZ0ETOCJO1B2
157,47,,1.0,27.0,2901948350-218459.jpg,2981246360-220352.jpg,3.0,,,,A1YZ0ETOCJO1B2
158,48,,1.0,28.0,2981231403-71642.jpg,2274829821-263682.jpg,1.0,,,,A1YZ0ETOCJO1B2
159,49,,1.0,29.0,2898617468-68274.jpg,2964207374-144577.jpg,3.0,,,,A1YZ0ETOCJO1B2
160,50,,1.0,30.0,2446759803-49249.jpg,2446760601-272099.jpg,1.0,,,,A1YZ0ETOCJO1B2
161,51,left,1.0,31.0,left.jpg,,,left,0.7506,,A1YZ0ETOCJO1B2
162,52,,1.0,32.0,2449442529-124446.jpg,2460547536-274181.jpg,2.0,,,,A1YZ0ETOCJO1B2
163,53,,1.0,33.0,2883268471-290842.jpg,2901947448-70314.jpg,3.0,,,,A1YZ0ETOCJO1B2
164,54,,1.0,34.0,2901939379-143480.jpg,2981229442-369621.jpg,2.0,,,,A1YZ0ETOCJO1B2
165,55,,1.0,35.0,2898633421-291973.jpg,2512876023-52283.jpg,1.0,,,,A1YZ0ETOCJO1B2
166,56,,1.0,36.0,2874302418-65978.jpg,2898633321-291943.jpg,3.0,,,,A1YZ0ETOCJO1B2
167,57,,1.0,37.0,2898624426-291546.jpg,2981236443-71859.jpg,2.0,,,,A1YZ0ETOCJO1B2
168,58,left,1.0,38.0,left.jpg,,,left,0.6263,,A1YZ0ETOCJO1B2
169,59,,1.0,39.0,2238425482-313537.jpg,2238471391-240918.jpg,1.0,,,,A1YZ0ETOCJO1B2
170,60,,1.0,40.0,2458347385-199723.jpg,2238480434-93829.jpg,1.0,,,,A1YZ0ETOCJO1B2
171,61,,1.0,41.0,2460547467-349421.jpg,2452380166-273110.jpg,2.0,,,,A1YZ0ETOCJO1B2
172,62,,1.0,42.0,2238428357-313623.jpg,2238499057-320266.jpg,1.0,,,,A1YZ0ETOCJO1B2
173,63,,1.0,43.0,2446759347-347016.jpg,2238569117-333045.jpg,3.0,,,,A1YZ0ETOCJO1B2
174,64,,1.0,44.0,2238580740-186218.jpg,2964220333-71258.jpg,3.0,,,,A1YZ0ETOCJO1B2
175,65,,1.0,45.0,2901947423-70311.jpg,2238573447-333826.jpg,2.0,,,,A1YZ0ETOCJO1B2
176,66,,1.0,46.0,2238481928-19949.jpg,2981241419-145844.jpg,3.0,,,,A1YZ0ETOCJO1B2
177,67,,1.0,47.0,2901952513-70703.jpg,2864907361-287062.jpg,1.0,,,,A1YZ0ETOCJO1B2
178,68,,1.0,48.0,2592380177-354626.jpg,2864901386-286797.jpg,2.0,,,,A1YZ0ETOCJO1B2
179,69,,1.0,49.0,2592379964-131054.jpg,2238479053-19457.jpg,2.0,,,,A1YZ0ETOCJO1B2
180,70,left,1.0,50.0,left.jpg,,,left,0.690700001,,A1YZ0ETOCJO1B2
181,71,,1.0,51.0,2898634397-367080.jpg,2901934408-69289.jpg,2.0,,,,A1YZ0ETOCJO1B2
182,72,,1.0,52.0,2238560245-182099.jpg,2549106624-127823.jpg,1.0,,,,A1YZ0ETOCJO1B2
183,73,,1.0,53.0,2864907432-362042.jpg,2989726338-74002.jpg,3.0,,,,A1YZ0ETOCJO1B2
184,74,,1.0,54.0,2592380177-354629.jpg,2579432534-130704.jpg,2.0,,,,A1YZ0ETOCJO1B2
185,75,,1.0,55.0,2874301407-363895.jpg,2901947323-70275.jpg,3.0,,,,A1YZ0ETOCJO1B2
186,76,,1.0,56.0,2868474407-362883.jpg,2981246400-220363.jpg,2.0,,,,A1YZ0ETOCJO1B2
187,77,,1.0,57.0,2901939379-143479.jpg,2446758985-197610.jpg,2.0,,,,A1YZ0ETOCJO1B2
188,78,,1.0,58.0,2238480677-317399.jpg,2238573546-258454.jpg,2.0,,,,A1YZ0ETOCJO1B2
189,79,,1.0,59.0,2460547467-349422.jpg,2864909447-362146.jpg,3.0,,,,A1YZ0ETOCJO1B2
190,80,,1.0,60.0,2874299429-139695.jpg,2446760917-347439.jpg,3.0,,,,A1YZ0ETOCJO1B2
191,81,,1.0,61.0,2898635428-69104.jpg,2446759803-49250.jpg,1.0,,,,A1YZ0ETOCJO1B2
192,82,,1.0,62.0,2460547508-51571.jpg,2901941438-69835.jpg,3.0,,,,A1YZ0ETOCJO1B2
193,83,,1.0,63.0,2874302418-65979.jpg,2238480648-19714.jpg,2.0,,,,A1YZ0ETOCJO1B2
194,84,,1.0,64.0,2986451363-73599.jpg,2238434559-90406.jpg,3.0,,,,A1YZ0ETOCJO1B2
195,20,,1.0,0.0,2901939379-143480.jpg,2981229442-369621.jpg,2.0,,,,A20OEK6BVW13NV
196,21,,1.0,1.0,2964218374-144967.jpg,2883254439-140940.jpg,2.0,,,,A20OEK6BVW13NV
197,22,,1.0,2.0,2964216465-219242.jpg,2898619327-366362.jpg,3.0,,,,A20OEK6BVW13NV
198,23,,1.0,3.0,2452381505-199546.jpg,2238567168-34916.jpg,2.0,,,,A20OEK6BVW13NV
199,24,,1.0,4.0,2449442529-124446.jpg,2460547536-274181.jpg,2.0,,,,A20OEK6BVW13NV
200,25,,1.0,5.0,2238425482-313537.jpg,2238436322-314047.jpg,2.0,,,,A20OEK6BVW13NV
201,26,,1.0,6.0,2874302418-65978.jpg,2238481198-19823.jpg,2.0,,,,A20OEK6BVW13NV
202,27,,1.0,7.0,2901939379-143479.jpg,2446758985-197610.jpg,2.0,,,,A20OEK6BVW13NV
203,28,,1.0,8.0,2901947423-70311.jpg,2238577590-185467.jpg,3.0,,,,A20OEK6BVW13NV
204,29,left,1.0,9.0,left.jpg,,,left,0.9109,,A20OEK6BVW13NV
205,30,,1.0,10.0,2238580740-186218.jpg,2238550816-254000.jpg,1.0,,,,A20OEK6BVW13NV
206,31,,1.0,11.0,2452380832-348593.jpg,2449442181-272436.jpg,3.0,,,,A20OEK6BVW13NV
207,32,,1.0,12.0,2238480677-317399.jpg,2238480278-19661.jpg,3.0,,,,A20OEK6BVW13NV
208,33,,1.0,13.0,2874299429-139695.jpg,2446760917-347439.jpg,3.0,,,,A20OEK6BVW13NV
209,34,,1.0,14.0,2898618444-142233.jpg,2898631359-142721.jpg,1.0,,,,A20OEK6BVW13NV
210,35,,1.0,15.0,2898634397-367080.jpg,2237944827-301472.jpg,1.0,,,,A20OEK6BVW13NV
211,36,,1.0,16.0,2238481198-19822.jpg,2862691449-137104.jpg,1.0,,,,A20OEK6BVW13NV
212,37,,1.0,17.0,2964213381-294060.jpg,2981244394-145974.jpg,1.0,,,,A20OEK6BVW13NV
213,38,,1.0,18.0,2238481928-19949.jpg,2981241419-145844.jpg,3.0,,,,A20OEK6BVW13NV
214,39,,1.0,19.0,2883268412-365898.jpg,2984615361-295510.jpg,2.0,,,,A20OEK6BVW13NV
215,40,,1.0,20.0,2898635427-367120.jpg,2901946439-144040.jpg,1.0,,,,A20OEK6BVW13NV
216,41,left,1.0,21.0,left.jpg,,,left,0.9124,,A20OEK6BVW13NV
217,42,,1.0,22.0,2460547467-349421.jpg,2452380166-273110.jpg,2.0,,,,A20OEK6BVW13NV
218,43,,1.0,23.0,2986451363-73599.jpg,2860302315-210704.jpg,2.0,,,,A20OEK6BVW13NV
219,44,,1.0,24.0,2874301407-363895.jpg,2883264368-67631.jpg,1.0,,,,A20OEK6BVW13NV
220,45,,1.0,25.0,2901941401-292798.jpg,2883273443-68193.jpg,3.0,,,,A20OEK6BVW13NV
221,46,,1.0,26.0,2446759347-347016.jpg,2238569117-333045.jpg,3.0,,,,A20OEK6BVW13NV
222,47,,1.0,27.0,2868474407-362883.jpg,2981246400-220363.jpg,2.0,,,,A20OEK6BVW13NV
223,48,,1.0,28.0,2449442529-124445.jpg,2898632385-217137.jpg,3.0,,,,A20OEK6BVW13NV
224,49,left,0.0,29.0,right.jpg,,,right,0.0073,,A20OEK6BVW13NV
225,50,,1.0,30.0,2460547467-349422.jpg,2898618440-216545.jpg,1.0,,,,A20OEK6BVW13NV
226,51,,1.0,31.0,2898633421-291973.jpg,2512876023-52283.jpg,1.0,,,,A20OEK6BVW13NV
227,52,,1.0,32.0,2883268471-290842.jpg,2901947448-70314.jpg,3.0,,,,A20OEK6BVW13NV
228,53,,1.0,33.0,2238572663-35822.jpg,2986419333-73361.jpg,1.0,,,,A20OEK6BVW13NV
229,54,,1.0,34.0,2898617468-68274.jpg,2964207374-144577.jpg,3.0,,,,A20OEK6BVW13NV
230,55,,1.0,35.0,2981231403-71642.jpg,2981244403-72215.jpg,2.0,,,,A20OEK6BVW13NV
231,56,,1.0,36.0,2864910426-287204.jpg,2901939433-69672.jpg,3.0,,,,A20OEK6BVW13NV
232,57,,1.0,37.0,2898618390-216538.jpg,2986449336-296644.jpg,1.0,,,,A20OEK6BVW13NV
233,58,right,1.0,38.0,right.jpg,,,right,1.0767,,A20OEK6BVW13NV
234,59,,1.0,39.0,2592379964-131054.jpg,2592380272-354673.jpg,3.0,,,,A20OEK6BVW13NV
235,60,,1.0,40.0,2864907432-362042.jpg,2901947423-70310.jpg,2.0,,,,A20OEK6BVW13NV
236,61,,1.0,41.0,2883254439-140941.jpg,2898632385-217136.jpg,2.0,,,,A20OEK6BVW13NV
237,62,,1.0,42.0,2446758985-197609.jpg,2898624426-291544.jpg,3.0,,,,A20OEK6BVW13NV
238,63,,1.0,43.0,2449441881-272368.jpg,2449441881-272367.jpg,3.0,,,,A20OEK6BVW13NV
239,64,,1.0,44.0,2460547508-51571.jpg,2981232437-369759.jpg,2.0,,,,A20OEK6BVW13NV
240,65,,1.0,45.0,2868475410-213219.jpg,2901946465-218350.jpg,1.0,,,,A20OEK6BVW13NV
241,66,,1.0,46.0,2458347385-199723.jpg,2458347252-348911.jpg,3.0,,,,A20OEK6BVW13NV
242,67,,1.0,47.0,2898624426-291546.jpg,2964218432-369263.jpg,1.0,,,,A20OEK6BVW13NV
243,68,right,0.0,48.0,left.jpg,,,left,0.4003,,A20OEK6BVW13NV
244,69,,1.0,49.0,2901952513-70703.jpg,2238481198-19821.jpg,3.0,,,,A20OEK6BVW13NV
245,70,,1.0,50.0,2964223381-294447.jpg,2901941438-69836.jpg,2.0,,,,A20OEK6BVW13NV
246,71,,1.0,51.0,2575120738-55529.jpg,2575120738-55528.jpg,2.0,,,,A20OEK6BVW13NV
247,72,,1.0,52.0,2901948350-218459.jpg,2804906319-133082.jpg,1.0,,,,A20OEK6BVW13NV
248,73,,1.0,53.0,2238428357-313623.jpg,2238499057-320266.jpg,1.0,,,,A20OEK6BVW13NV
249,74,,1.0,54.0,2512875899-126682.jpg,2460547536-274179.jpg,1.0,,,,A20OEK6BVW13NV
250,75,,1.0,55.0,2592380177-354629.jpg,2579432534-130704.jpg,2.0,,,,A20OEK6BVW13NV
251,76,,1.0,56.0,2238560245-182099.jpg,2549106624-127823.jpg,1.0,,,,A20OEK6BVW13NV
252,77,,1.0,57.0,2446759803-49249.jpg,2898618440-216547.jpg,2.0,,,,A20OEK6BVW13NV
253,78,,1.0,58.0,2874303365-214262.jpg,2609793677-355397.jpg,1.0,,,,A20OEK6BVW13NV
254,79,,1.0,59.0,2981241414-145842.jpg,2427873848-47312.jpg,3.0,,,,A20OEK6BVW13NV
255,80,,1.0,60.0,2874307433-66280.jpg,2981231422-369714.jpg,3.0,,,,A20OEK6BVW13NV
256,81,,1.0,61.0,2592380177-354626.jpg,2864901386-286797.jpg,2.0,,,,A20OEK6BVW13NV
257,82,,1.0,62.0,2883256307-365057.jpg,2611628310-206388.jpg,1.0,,,,A20OEK6BVW13NV
258,83,,1.0,63.0,2898635428-69104.jpg,2898625336-291572.jpg,3.0,,,,A20OEK6BVW13NV
259,84,,1.0,64.0,2874302418-65979.jpg,2413147898-43548.jpg,1.0,,,,A20OEK6BVW13NV
260,20,,1.0,0.0,2898635428-69104.jpg,2901943411-292945.jpg,2.0,,,,A21YNTPZSVT4QX
261,21,,1.0,1.0,2874302418-65979.jpg,2238578544-111698.jpg,3.0,,,,A21YNTPZSVT4QX
262,22,,1.0,2.0,2449442529-124446.jpg,2460547536-274181.jpg,2.0,,,,A21YNTPZSVT4QX
263,23,,1.0,3.0,2864910426-287204.jpg,2874299429-139694.jpg,2.0,,,,A21YNTPZSVT4QX
264,24,,1.0,4.0,2898624426-291546.jpg,2981235446-294900.jpg,3.0,,,,A21YNTPZSVT4QX
265,25,,1.0,5.0,2449441881-272368.jpg,2883268412-365899.jpg,1.0,,,,A21YNTPZSVT4QX
266,26,,1.0,6.0,2446759803-49249.jpg,2446760601-272099.jpg,1.0,,,,A21YNTPZSVT4QX
267,27,,0.0,7.0,left.jpg,,,left,,,A21YNTPZSVT4QX
268,28,,1.0,8.0,2898633421-291973.jpg,2575118671-277663.jpg,2.0,,,,A21YNTPZSVT4QX
269,29,,1.0,9.0,2898618390-216538.jpg,2986449336-296644.jpg,1.0,,,,A21YNTPZSVT4QX
270,30,,1.0,10.0,2901939379-143479.jpg,2981240424-145794.jpg,3.0,,,,A21YNTPZSVT4QX
271,31,,1.0,11.0,2868474407-362883.jpg,2238516618-25604.jpg,1.0,,,,A21YNTPZSVT4QX
272,32,,1.0,12.0,2883268471-290842.jpg,2883255450-215310.jpg,2.0,,,,A21YNTPZSVT4QX
273,33,,1.0,13.0,2238560245-182099.jpg,2549106624-127823.jpg,1.0,,,,A21YNTPZSVT4QX
274,34,,1.0,14.0,2868475410-213219.jpg,2901946465-218350.jpg,1.0,,,,A21YNTPZSVT4QX
275,35,,1.0,15.0,2238481198-19822.jpg,2901946436-293242.jpg,2.0,,,,A21YNTPZSVT4QX
276,36,,1.0,16.0,2446758985-197609.jpg,2898624426-291544.jpg,3.0,,,,A21YNTPZSVT4QX
277,37,,1.0,17.0,2512875899-126682.jpg,2460547536-274179.jpg,1.0,,,,A21YNTPZSVT4QX
278,38,,1.0,18.0,2460547467-349421.jpg,2898631394-142727.jpg,1.0,,,,A21YNTPZSVT4QX
279,39,,1.0,19.0,2452381505-199546.jpg,2994401319-148290.jpg,3.0,,,,A21YNTPZSVT4QX
280,40,,1.0,20.0,2575120738-55529.jpg,2898632385-217138.jpg,1.0,,,,A21YNTPZSVT4QX
281,41,,1.0,21.0,2458347385-199723.jpg,2238480434-93829.jpg,1.0,,,,A21YNTPZSVT4QX
282,42,left,1.0,22.0,left.jpg,,,left,1.8722,,A21YNTPZSVT4QX
283,43,,1.0,23.0,2883256307-365057.jpg,2864904453-63933.jpg,3.0,,,,A21YNTPZSVT4QX
284,44,,1.0,24.0,2981241414-145842.jpg,2874301404-139813.jpg,2.0,,,,A21YNTPZSVT4QX
285,45,,1.0,25.0,2964218374-144967.jpg,2981231446-294732.jpg,3.0,,,,A21YNTPZSVT4QX
286,46,,1.0,26.0,2901939379-143480.jpg,2981229442-369621.jpg,2.0,,,,A21YNTPZSVT4QX
287,47,,1.0,27.0,2901948350-218459.jpg,2417208001-267065.jpg,2.0,,,,A21YNTPZSVT4QX
288,48,,1.0,28.0,2883254439-140941.jpg,2898632385-217136.jpg,2.0,,,,A21YNTPZSVT4QX
289,49,right,1.0,29.0,right.jpg,,,right,1.2931,,A21YNTPZSVT4QX
290,50,,1.0,30.0,2964213381-294060.jpg,2981244394-145974.jpg,1.0,,,,A21YNTPZSVT4QX
291,51,,1.0,31.0,2864907432-362042.jpg,2864901420-212147.jpg,1.0,,,,A21YNTPZSVT4QX
292,52,,1.0,32.0,2898634397-367080.jpg,2964217461-294238.jpg,3.0,,,,A21YNTPZSVT4QX
293,53,,1.0,33.0,2901941401-292798.jpg,2883273443-68193.jpg,3.0,,,,A21YNTPZSVT4QX
294,54,,1.0,34.0,2874303365-214262.jpg,2864911457-362260.jpg,3.0,,,,A21YNTPZSVT4QX
295,55,,1.0,35.0,2238572663-35822.jpg,2864903351-286874.jpg,3.0,,,,A21YNTPZSVT4QX
296,56,left,1.0,36.0,left.jpg,,,left,1.0591,,A21YNTPZSVT4QX
297,57,,1.0,37.0,2592379964-131054.jpg,2575963989-130576.jpg,1.0,,,,A21YNTPZSVT4QX
298,58,,1.0,38.0,2874302418-65978.jpg,2898633321-291943.jpg,3.0,,,,A21YNTPZSVT4QX
299,59,,1.0,39.0,2446759347-347016.jpg,2238569117-333045.jpg,3.0,,,,A21YNTPZSVT4QX
300,60,,1.0,40.0,2874307433-66280.jpg,2986447306-296584.jpg,1.0,,,,A21YNTPZSVT4QX
301,61,,1.0,41.0,2452380832-348593.jpg,2238481813-19930.jpg,2.0,,,,A21YNTPZSVT4QX
302,62,,1.0,42.0,2964223381-294447.jpg,2427874231-269884.jpg,1.0,,,,A21YNTPZSVT4QX
303,63,,1.0,43.0,2883268412-365898.jpg,2984626312-370849.jpg,1.0,,,,A21YNTPZSVT4QX
304,64,,1.0,44.0,2898635427-367120.jpg,2901946439-144040.jpg,1.0,,,,A21YNTPZSVT4QX
305,65,,1.0,45.0,2898618444-142233.jpg,2898618444-142232.jpg,3.0,,,,A21YNTPZSVT4QX
306,66,left,1.0,46.0,left.jpg,,,left,1.0324,,A21YNTPZSVT4QX
307,67,,1.0,47.0,2238480677-317399.jpg,2238573546-258454.jpg,2.0,,,,A21YNTPZSVT4QX
308,68,,1.0,48.0,2901947423-70311.jpg,2860312398-62572.jpg,1.0,,,,A21YNTPZSVT4QX
309,69,,1.0,49.0,2238428357-313623.jpg,2575121987-353817.jpg,3.0,,,,A21YNTPZSVT4QX
310,70,,1.0,50.0,2981231403-71642.jpg,2981244403-72215.jpg,2.0,,,,A21YNTPZSVT4QX
311,71,,1.0,51.0,2592380177-354626.jpg,2864901386-286797.jpg,2.0,,,,A21YNTPZSVT4QX
312,72,,1.0,52.0,2460547508-51571.jpg,2460547291-274110.jpg,1.0,,,,A21YNTPZSVT4QX
313,73,,1.0,53.0,2592380177-354629.jpg,2579432534-130704.jpg,2.0,,,,A21YNTPZSVT4QX
314,74,,1.0,54.0,2460547467-349422.jpg,2864909447-362146.jpg,3.0,,,,A21YNTPZSVT4QX
315,75,,1.0,55.0,2898617468-68274.jpg,2901943387-368037.jpg,2.0,,,,A21YNTPZSVT4QX
316,76,,1.0,56.0,2449442529-124445.jpg,2898632385-217137.jpg,3.0,,,,A21YNTPZSVT4QX
317,77,,1.0,57.0,2874301407-363895.jpg,2901947323-70275.jpg,3.0,,,,A21YNTPZSVT4QX
318,78,,1.0,58.0,2238580740-186218.jpg,2238550816-254000.jpg,1.0,,,,A21YNTPZSVT4QX
319,79,,1.0,59.0,2874299429-139695.jpg,2901942443-69923.jpg,2.0,,,,A21YNTPZSVT4QX
320,80,,1.0,60.0,2964216465-219242.jpg,2864900319-137787.jpg,2.0,,,,A21YNTPZSVT4QX
321,81,,1.0,61.0,2238481928-19949.jpg,2981241419-145844.jpg,3.0,,,,A21YNTPZSVT4QX
322,82,,1.0,62.0,2901952513-70703.jpg,2868469411-287540.jpg,2.0,,,,A21YNTPZSVT4QX
323,83,,1.0,63.0,2986451363-73599.jpg,2238434559-90406.jpg,3.0,,,,A21YNTPZSVT4QX
324,84,,1.0,64.0,2238425482-313537.jpg,2238436322-314047.jpg,2.0,,,,A21YNTPZSVT4QX
325,20,,1.0,0.0,2238572663-35822.jpg,2238571930-184143.jpg,2.0,,,,A2AILDQQ4UTXD0
326,21,,1.0,1.0,2238481198-19822.jpg,2238480803-19737.jpg,3.0,,,,A2AILDQQ4UTXD0
327,22,,1.0,2.0,2874302418-65978.jpg,2898626385-216899.jpg,1.0,,,,A2AILDQQ4UTXD0
328,23,,1.0,3.0,2868474407-362883.jpg,2238516618-25604.jpg,1.0,,,,A2AILDQQ4UTXD0
329,24,,1.0,4.0,2901947423-70311.jpg,2860312398-62572.jpg,1.0,,,,A2AILDQQ4UTXD0
330,25,,1.0,5.0,2986451363-73599.jpg,2901939327-367669.jpg,1.0,,,,A2AILDQQ4UTXD0
331,26,,1.0,6.0,2898635427-367120.jpg,2898621427-366486.jpg,3.0,,,,A2AILDQQ4UTXD0
332,27,,1.0,7.0,2452381505-199546.jpg,2994401319-148290.jpg,3.0,,,,A2AILDQQ4UTXD0
333,28,,1.0,8.0,2592379964-131054.jpg,2575963989-130576.jpg,1.0,,,,A2AILDQQ4UTXD0
334,29,,1.0,9.0,2883254439-140941.jpg,2446760844-124088.jpg,1.0,,,,A2AILDQQ4UTXD0
335,30,,1.0,10.0,2964223381-294447.jpg,2898628438-68785.jpg,3.0,,,,A2AILDQQ4UTXD0
336,31,,1.0,11.0,2964216465-219242.jpg,2238544191-252422.jpg,1.0,,,,A2AILDQQ4UTXD0
337,32,,1.0,12.0,2238481928-19949.jpg,2883264367-365620.jpg,1.0,,,,A2AILDQQ4UTXD0
338,33,left,1.0,13.0,left.jpg,,,left,1.7977,,A2AILDQQ4UTXD0
339,34,,1.0,14.0,2874302418-65979.jpg,2238480648-19714.jpg,2.0,,,,A2AILDQQ4UTXD0
340,35,,1.0,15.0,2901941401-292798.jpg,2981243412-370222.jpg,2.0,,,,A2AILDQQ4UTXD0
341,36,,1.0,16.0,2874299429-139695.jpg,2883266388-67750.jpg,1.0,,,,A2AILDQQ4UTXD0
342,37,left,1.0,17.0,left.jpg,,,left,0.5788,,A2AILDQQ4UTXD0
343,38,,1.0,18.0,2898634397-367080.jpg,2237944827-301472.jpg,1.0,,,,A2AILDQQ4UTXD0
344,39,,1.0,19.0,2864910426-287204.jpg,2874299429-139694.jpg,2.0,,,,A2AILDQQ4UTXD0
345,40,,1.0,20.0,2964213381-294060.jpg,2964213381-294061.jpg,3.0,,,,A2AILDQQ4UTXD0
346,41,,1.0,21.0,2446758985-197609.jpg,2864909447-362144.jpg,2.0,,,,A2AILDQQ4UTXD0
347,42,,1.0,22.0,2901952513-70703.jpg,2238481198-19821.jpg,3.0,,,,A2AILDQQ4UTXD0
348,43,,1.0,23.0,2446759347-347016.jpg,2964224310-219528.jpg,1.0,,,,A2AILDQQ4UTXD0
349,44,,1.0,24.0,2238428357-313623.jpg,2575121987-353817.jpg,3.0,,,,A2AILDQQ4UTXD0
350,45,,1.0,25.0,2901939379-143479.jpg,2460547467-349423.jpg,1.0,,,,A2AILDQQ4UTXD0
351,46,,1.0,26.0,2238480677-317399.jpg,2238480278-19661.jpg,3.0,,,,A2AILDQQ4UTXD0
352,47,,1.0,27.0,2864907432-362042.jpg,2901947423-70310.jpg,2.0,,,,A2AILDQQ4UTXD0
353,48,,1.0,28.0,2898618444-142233.jpg,2898618444-142232.jpg,3.0,,,,A2AILDQQ4UTXD0
354,49,,1.0,29.0,2449442529-124446.jpg,2898632385-217139.jpg,3.0,,,,A2AILDQQ4UTXD0
355,50,,1.0,30.0,2460547467-349422.jpg,2868487415-213924.jpg,2.0,,,,A2AILDQQ4UTXD0
356,51,,1.0,31.0,2868475410-213219.jpg,2238480803-19739.jpg,2.0,,,,A2AILDQQ4UTXD0
357,52,,1.0,32.0,2874307433-66280.jpg,2981231422-369714.jpg,3.0,,,,A2AILDQQ4UTXD0
358,53,right,1.0,33.0,right.jpg,,,right,0.5972,,A2AILDQQ4UTXD0
359,54,,1.0,34.0,2981231403-71642.jpg,2981244403-72215.jpg,2.0,,,,A2AILDQQ4UTXD0
360,55,,1.0,35.0,2238425482-313537.jpg,2238436322-314047.jpg,2.0,,,,A2AILDQQ4UTXD0
361,56,,1.0,36.0,2449441881-272368.jpg,2883268412-365899.jpg,1.0,,,,A2AILDQQ4UTXD0
362,57,,1.0,37.0,2874301407-363895.jpg,2883264368-67631.jpg,1.0,,,,A2AILDQQ4UTXD0
363,58,,1.0,38.0,2592380177-354629.jpg,2579432534-130704.jpg,2.0,,,,A2AILDQQ4UTXD0
364,59,,1.0,39.0,2874303365-214262.jpg,2238563377-332054.jpg,2.0,,,,A2AILDQQ4UTXD0
365,60,,1.0,40.0,2901939379-143480.jpg,2901942428-69919.jpg,1.0,,,,A2AILDQQ4UTXD0
366,61,,1.0,41.0,2898618390-216538.jpg,2575120609-129862.jpg,3.0,,,,A2AILDQQ4UTXD0
367,62,,1.0,42.0,2898617468-68274.jpg,2864906345-212360.jpg,1.0,,,,A2AILDQQ4UTXD0
368,63,left,1.0,43.0,left.jpg,,,left,0.4879,,A2AILDQQ4UTXD0
369,64,,1.0,44.0,2883268412-365898.jpg,2238436252-314037.jpg,3.0,,,,A2AILDQQ4UTXD0
370,65,,1.0,45.0,2898624426-291546.jpg,2964218432-369263.jpg,1.0,,,,A2AILDQQ4UTXD0
371,66,,1.0,46.0,2446759803-49249.jpg,2898618440-216547.jpg,2.0,,,,A2AILDQQ4UTXD0
372,67,,1.0,47.0,2238560245-182099.jpg,2874314526-289684.jpg,2.0,,,,A2AILDQQ4UTXD0
373,68,,1.0,48.0,2575120738-55529.jpg,2575120738-55528.jpg,2.0,,,,A2AILDQQ4UTXD0
374,69,,1.0,49.0,2964218374-144967.jpg,2981231446-294732.jpg,3.0,,,,A2AILDQQ4UTXD0
375,70,,1.0,50.0,2898635428-69104.jpg,2898625336-291572.jpg,3.0,,,,A2AILDQQ4UTXD0
376,71,,1.0,51.0,2592380177-354626.jpg,2238117096-228518.jpg,3.0,,,,A2AILDQQ4UTXD0
377,72,,1.0,52.0,2458347385-199723.jpg,2458347252-348911.jpg,3.0,,,,A2AILDQQ4UTXD0
378,73,,1.0,53.0,2460547508-51571.jpg,2460547291-274110.jpg,1.0,,,,A2AILDQQ4UTXD0
379,74,right,1.0,54.0,right.jpg,,,right,0.5731,,A2AILDQQ4UTXD0
380,75,,1.0,55.0,2449442529-124445.jpg,2986408373-73286.jpg,2.0,,,,A2AILDQQ4UTXD0
381,76,,1.0,56.0,2883268471-290842.jpg,2883268471-290843.jpg,1.0,,,,A2AILDQQ4UTXD0
382,77,,1.0,57.0,2898633421-291973.jpg,2238550049-105691.jpg,3.0,,,,A2AILDQQ4UTXD0
383,78,,1.0,58.0,2238580740-186218.jpg,2964220333-71258.jpg,3.0,,,,A2AILDQQ4UTXD0
384,79,,1.0,59.0,2883256307-365057.jpg,2611628310-206388.jpg,1.0,,,,A2AILDQQ4UTXD0
385,80,,1.0,60.0,2512875899-126682.jpg,2592380177-354628.jpg,2.0,,,,A2AILDQQ4UTXD0
386,81,,1.0,61.0,2460547467-349421.jpg,2981235446-294901.jpg,3.0,,,,A2AILDQQ4UTXD0
387,82,,1.0,62.0,2901948350-218459.jpg,2417208001-267065.jpg,2.0,,,,A2AILDQQ4UTXD0
388,83,,1.0,63.0,2981241414-145842.jpg,2874301404-139813.jpg,2.0,,,,A2AILDQQ4UTXD0
389,84,,1.0,64.0,2452380832-348593.jpg,2238481813-19930.jpg,2.0,,,,A2AILDQQ4UTXD0
390,20,,1.0,0.0,2874302418-65979.jpg,2238480648-19714.jpg,2.0,,,,A2LKGF193ZR5JP
391,21,,1.0,1.0,2901941401-292798.jpg,2898618327-366317.jpg,1.0,,,,A2LKGF193ZR5JP
392,22,,1.0,2.0,2898633421-291973.jpg,2575118671-277663.jpg,2.0,,,,A2LKGF193ZR5JP
393,23,,1.0,3.0,2449442529-124446.jpg,2898632385-217139.jpg,3.0,,,,A2LKGF193ZR5JP
394,24,,1.0,4.0,2864907432-362042.jpg,2989726338-74002.jpg,3.0,,,,A2LKGF193ZR5JP
395,25,,1.0,5.0,2981241414-145842.jpg,2427873848-47312.jpg,3.0,,,,A2LKGF193ZR5JP
396,26,,1.0,6.0,2883256307-365057.jpg,2611628310-206388.jpg,1.0,,,,A2LKGF193ZR5JP
397,27,,1.0,7.0,2874299429-139695.jpg,2446760917-347439.jpg,3.0,,,,A2LKGF193ZR5JP
398,28,left,1.0,8.0,left.jpg,,,left,0.5035,,A2LKGF193ZR5JP
399,29,,1.0,9.0,2883254439-140941.jpg,2446760844-124088.jpg,1.0,,,,A2LKGF193ZR5JP
400,30,,1.0,10.0,2449442529-124445.jpg,2898632385-217137.jpg,3.0,,,,A2LKGF193ZR5JP
401,31,,1.0,11.0,2986451363-73599.jpg,2860302315-210704.jpg,2.0,,,,A2LKGF193ZR5JP
402,32,,1.0,12.0,2901939379-143480.jpg,2981229442-369621.jpg,2.0,,,,A2LKGF193ZR5JP
403,33,,1.0,13.0,2238480677-317399.jpg,2238573546-258454.jpg,2.0,,,,A2LKGF193ZR5JP
404,34,,1.0,14.0,2874303365-214262.jpg,2609793677-355397.jpg,1.0,,,,A2LKGF193ZR5JP
405,35,,1.0,15.0,2901947423-70311.jpg,2860312398-62572.jpg,1.0,,,,A2LKGF193ZR5JP
406,36,,1.0,16.0,2901939379-143479.jpg,2981240424-145794.jpg,3.0,,,,A2LKGF193ZR5JP
407,37,,1.0,17.0,2238481928-19949.jpg,2864900357-361688.jpg,2.0,,,,A2LKGF193ZR5JP
408,38,,1.0,18.0,2868474407-362883.jpg,2981246400-220363.jpg,2.0,,,,A2LKGF193ZR5JP
409,39,,1.0,19.0,2864910426-287204.jpg,2901939433-69672.jpg,3.0,,,,A2LKGF193ZR5JP
410,40,,1.0,20.0,2898635428-69104.jpg,2446759803-49250.jpg,1.0,,,,A2LKGF193ZR5JP
411,41,,1.0,21.0,2901952513-70703.jpg,2868469411-287540.jpg,2.0,,,,A2LKGF193ZR5JP
412,42,right,1.0,22.0,right.jpg,,,right,0.5357,,A2LKGF193ZR5JP
413,43,,1.0,23.0,2964213381-294060.jpg,2964213381-294061.jpg,3.0,,,,A2LKGF193ZR5JP
414,44,,1.0,24.0,2874302418-65978.jpg,2898633321-291943.jpg,3.0,,,,A2LKGF193ZR5JP
415,45,,1.0,25.0,2898617468-68274.jpg,2901943387-368037.jpg,2.0,,,,A2LKGF193ZR5JP
416,46,,1.0,26.0,2460547467-349422.jpg,2898618440-216545.jpg,1.0,,,,A2LKGF193ZR5JP
417,47,,1.0,27.0,2238560245-182099.jpg,2238480980-168129.jpg,3.0,,,,A2LKGF193ZR5JP
418,48,right,1.0,28.0,right.jpg,,,right,0.5261,,A2LKGF193ZR5JP
419,49,,1.0,29.0,2964218374-144967.jpg,2981231446-294732.jpg,3.0,,,,A2LKGF193ZR5JP
420,50,,1.0,30.0,2883268471-290842.jpg,2883268471-290843.jpg,1.0,,,,A2LKGF193ZR5JP
421,51,,1.0,31.0,2898635427-367120.jpg,2901946439-144040.jpg,1.0,,,,A2LKGF193ZR5JP
422,52,,1.0,32.0,2898624426-291546.jpg,2964218432-369263.jpg,1.0,,,,A2LKGF193ZR5JP
423,53,,1.0,33.0,2460547508-51571.jpg,2981232437-369759.jpg,2.0,,,,A2LKGF193ZR5JP
424,54,,1.0,34.0,2592379964-131054.jpg,2238479053-19457.jpg,2.0,,,,A2LKGF193ZR5JP
425,55,,1.0,35.0,2575120738-55529.jpg,2575120738-55528.jpg,2.0,,,,A2LKGF193ZR5JP
426,56,,1.0,36.0,2446759347-347016.jpg,2964224310-219528.jpg,1.0,,,,A2LKGF193ZR5JP
427,57,,1.0,37.0,2446758985-197609.jpg,2864909447-362144.jpg,2.0,,,,A2LKGF193ZR5JP
428,58,,1.0,38.0,2898634397-367080.jpg,2964217461-294238.jpg,3.0,,,,A2LKGF193ZR5JP
429,59,,1.0,39.0,2238428357-313623.jpg,2238499057-320266.jpg,1.0,,,,A2LKGF193ZR5JP
430,60,,1.0,40.0,2512875899-126682.jpg,2592380177-354628.jpg,2.0,,,,A2LKGF193ZR5JP
431,61,,1.0,41.0,2874301407-363895.jpg,2901947323-70275.jpg,3.0,,,,A2LKGF193ZR5JP
432,62,right,1.0,42.0,right.jpg,,,right,0.5093,,A2LKGF193ZR5JP
433,63,,1.0,43.0,2964223381-294447.jpg,2901941438-69836.jpg,2.0,,,,A2LKGF193ZR5JP
434,64,,1.0,44.0,2238572663-35822.jpg,2986419333-73361.jpg,1.0,,,,A2LKGF193ZR5JP
435,65,,1.0,45.0,2898618390-216538.jpg,2575120609-129862.jpg,3.0,,,,A2LKGF193ZR5JP
436,66,,1.0,46.0,2592380177-354629.jpg,2898633421-291974.jpg,1.0,,,,A2LKGF193ZR5JP
437,67,,1.0,47.0,2449441881-272368.jpg,2984615358-72439.jpg,2.0,,,,A2LKGF193ZR5JP
438,68,,1.0,48.0,2458347385-199723.jpg,2238480434-93829.jpg,1.0,,,,A2LKGF193ZR5JP
439,69,,1.0,49.0,2898618444-142233.jpg,2898618444-142232.jpg,3.0,,,,A2LKGF193ZR5JP
440,70,,1.0,50.0,2452381505-199546.jpg,2901938432-367627.jpg,1.0,,,,A2LKGF193ZR5JP
441,71,,1.0,51.0,2452380832-348593.jpg,2238328478-11678.jpg,1.0,,,,A2LKGF193ZR5JP
442,72,,1.0,52.0,2460547467-349421.jpg,2981235446-294901.jpg,3.0,,,,A2LKGF193ZR5JP
443,73,right,1.0,53.0,right.jpg,,,right,0.6443,,A2LKGF193ZR5JP
444,74,,1.0,54.0,2238425482-313537.jpg,2238471391-240918.jpg,1.0,,,,A2LKGF193ZR5JP
445,75,,1.0,55.0,2592380177-354626.jpg,2986408339-146952.jpg,1.0,,,,A2LKGF193ZR5JP
446,76,,1.0,56.0,2981231403-71642.jpg,2427873763-47290.jpg,3.0,,,,A2LKGF193ZR5JP
447,77,,1.0,57.0,2964216465-219242.jpg,2864900319-137787.jpg,2.0,,,,A2LKGF193ZR5JP
448,78,,1.0,58.0,2238481198-19822.jpg,2901946436-293242.jpg,2.0,,,,A2LKGF193ZR5JP
449,79,,1.0,59.0,2901948350-218459.jpg,2981246360-220352.jpg,3.0,,,,A2LKGF193ZR5JP
450,80,,1.0,60.0,2868475410-213219.jpg,2868474407-362885.jpg,3.0,,,,A2LKGF193ZR5JP
451,81,,1.0,61.0,2874307433-66280.jpg,2981246400-220365.jpg,2.0,,,,A2LKGF193ZR5JP
452,82,,1.0,62.0,2446759803-49249.jpg,2452380166-273109.jpg,3.0,,,,A2LKGF193ZR5JP
453,83,,1.0,63.0,2238580740-186218.jpg,2238550816-254000.jpg,1.0,,,,A2LKGF193ZR5JP
454,84,,1.0,64.0,2883268412-365898.jpg,2984615361-295510.jpg,2.0,,,,A2LKGF193ZR5JP
455,20,,1.0,0.0,2874301407-363895.jpg,2901947323-70275.jpg,3.0,,,,A2M3FPQF852HW4
456,21,,1.0,1.0,2874302418-65978.jpg,2898626385-216899.jpg,1.0,,,,A2M3FPQF852HW4
457,22,,1.0,2.0,2452380832-348593.jpg,2238328478-11678.jpg,1.0,,,,A2M3FPQF852HW4
458,23,,1.0,3.0,2883268412-365898.jpg,2984615361-295510.jpg,2.0,,,,A2M3FPQF852HW4
459,24,,1.0,4.0,2898618444-142233.jpg,2238555262-330312.jpg,2.0,,,,A2M3FPQF852HW4
460,25,,1.0,5.0,2964216465-219242.jpg,2864900319-137787.jpg,2.0,,,,A2M3FPQF852HW4
461,26,,1.0,6.0,2901952513-70703.jpg,2864907361-287062.jpg,1.0,,,,A2M3FPQF852HW4
462,27,,1.0,7.0,2883254439-140941.jpg,2898632385-217136.jpg,2.0,,,,A2M3FPQF852HW4
463,28,,1.0,8.0,2901947423-70311.jpg,2238577590-185467.jpg,3.0,,,,A2M3FPQF852HW4
464,29,,1.0,9.0,2449442529-124446.jpg,2446759803-49251.jpg,1.0,,,,A2M3FPQF852HW4
465,30,right,1.0,10.0,right.jpg,,,right,0.3827,,A2M3FPQF852HW4
466,31,,1.0,11.0,2460547467-349421.jpg,2981235446-294901.jpg,3.0,,,,A2M3FPQF852HW4
467,32,,1.0,12.0,2238480677-317399.jpg,2238481630-168218.jpg,1.0,,,,A2M3FPQF852HW4
468,33,,1.0,13.0,2238580740-186218.jpg,2238550816-254000.jpg,1.0,,,,A2M3FPQF852HW4
469,34,,1.0,14.0,2446758985-197609.jpg,2864909447-362144.jpg,2.0,,,,A2M3FPQF852HW4
470,35,,1.0,15.0,2898617468-68274.jpg,2964207374-144577.jpg,3.0,,,,A2M3FPQF852HW4
471,36,,1.0,16.0,2868475410-213219.jpg,2868474407-362885.jpg,3.0,,,,A2M3FPQF852HW4
472,37,,1.0,17.0,2874299429-139695.jpg,2883266388-67750.jpg,1.0,,,,A2M3FPQF852HW4
473,38,,1.0,18.0,2592380177-354629.jpg,2512875587-350044.jpg,3.0,,,,A2M3FPQF852HW4
474,39,,1.0,19.0,2460547508-51571.jpg,2901941438-69835.jpg,3.0,,,,A2M3FPQF852HW4
475,40,,1.0,20.0,2864907432-362042.jpg,2989726338-74002.jpg,3.0,,,,A2M3FPQF852HW4
476,41,,1.0,21.0,2449441881-272368.jpg,2883268412-365899.jpg,1.0,,,,A2M3FPQF852HW4
477,42,left,1.0,22.0,left.jpg,,,left,0.3947,,A2M3FPQF852HW4
478,43,,1.0,23.0,2238560245-182099.jpg,2238480980-168129.jpg,3.0,,,,A2M3FPQF852HW4
479,44,,1.0,24.0,2901948350-218459.jpg,2417208001-267065.jpg,2.0,,,,A2M3FPQF852HW4
480,45,,1.0,25.0,2238428357-313623.jpg,2984615361-295509.jpg,2.0,,,,A2M3FPQF852HW4
481,46,,1.0,26.0,2512875899-126682.jpg,2592380177-354628.jpg,2.0,,,,A2M3FPQF852HW4
482,47,,1.0,27.0,2874303365-214262.jpg,2238563377-332054.jpg,2.0,,,,A2M3FPQF852HW4
483,48,,1.0,28.0,2592379964-131054.jpg,2592380272-354673.jpg,3.0,,,,A2M3FPQF852HW4
484,49,,1.0,29.0,2986451363-73599.jpg,2860302315-210704.jpg,2.0,,,,A2M3FPQF852HW4
485,50,left,1.0,30.0,left.jpg,,,left,0.3477,,A2M3FPQF852HW4
486,51,,1.0,31.0,2898633421-291973.jpg,2512876023-52283.jpg,1.0,,,,A2M3FPQF852HW4
487,52,,1.0,32.0,2898634397-367080.jpg,2964217461-294238.jpg,3.0,,,,A2M3FPQF852HW4
488,53,,1.0,33.0,2898624426-291546.jpg,2981236443-71859.jpg,2.0,,,,A2M3FPQF852HW4
489,54,,1.0,34.0,2883268471-290842.jpg,2883255450-215310.jpg,2.0,,,,A2M3FPQF852HW4
490,55,,1.0,35.0,2238481198-19822.jpg,2238480803-19737.jpg,3.0,,,,A2M3FPQF852HW4
491,56,,1.0,36.0,2883256307-365057.jpg,2864904453-63933.jpg,3.0,,,,A2M3FPQF852HW4
492,57,,1.0,37.0,2575120738-55529.jpg,2238531493-28260.jpg,3.0,,,,A2M3FPQF852HW4
493,58,,1.0,38.0,2446759347-347016.jpg,2964224310-219528.jpg,1.0,,,,A2M3FPQF852HW4
494,59,,1.0,39.0,2898618390-216538.jpg,2986449336-296644.jpg,1.0,,,,A2M3FPQF852HW4
495,60,,1.0,40.0,2238425482-313537.jpg,2238436322-314047.jpg,2.0,,,,A2M3FPQF852HW4
496,61,,1.0,41.0,2446759803-49249.jpg,2898618440-216547.jpg,2.0,,,,A2M3FPQF852HW4
497,62,left,1.0,42.0,left.jpg,,,left,0.4051,,A2M3FPQF852HW4
498,63,,1.0,43.0,2898635427-367120.jpg,2868479517-363220.jpg,2.0,,,,A2M3FPQF852HW4
499,64,,1.0,44.0,2864910426-287204.jpg,2874299429-139694.jpg,2.0,,,,A2M3FPQF852HW4
500,65,,1.0,45.0,2592380177-354626.jpg,2986408339-146952.jpg,1.0,,,,A2M3FPQF852HW4
501,66,,1.0,46.0,2964218374-144967.jpg,2964218374-144968.jpg,1.0,,,,A2M3FPQF852HW4
502,67,,1.0,47.0,2874302418-65979.jpg,2238480648-19714.jpg,2.0,,,,A2M3FPQF852HW4
503,68,,1.0,48.0,2901939379-143479.jpg,2981240424-145794.jpg,3.0,,,,A2M3FPQF852HW4
504,69,,1.0,49.0,2874307433-66280.jpg,2986447306-296584.jpg,1.0,,,,A2M3FPQF852HW4
505,70,right,1.0,50.0,right.jpg,,,right,0.4056,,A2M3FPQF852HW4
506,71,,1.0,51.0,2964223381-294447.jpg,2898628438-68785.jpg,3.0,,,,A2M3FPQF852HW4
507,72,,1.0,52.0,2452381505-199546.jpg,2994401319-148290.jpg,3.0,,,,A2M3FPQF852HW4
508,73,,1.0,53.0,2460547467-349422.jpg,2868487415-213924.jpg,2.0,,,,A2M3FPQF852HW4
509,74,,1.0,54.0,2238481928-19949.jpg,2883264367-365620.jpg,1.0,,,,A2M3FPQF852HW4
510,75,,1.0,55.0,2901939379-143480.jpg,2981229442-369621.jpg,2.0,,,,A2M3FPQF852HW4
511,76,,1.0,56.0,2458347385-199723.jpg,2427874554-121863.jpg,2.0,,,,A2M3FPQF852HW4
512,77,,1.0,57.0,2238572663-35822.jpg,2986419333-73361.jpg,1.0,,,,A2M3FPQF852HW4
513,78,,1.0,58.0,2901941401-292798.jpg,2898618327-366317.jpg,1.0,,,,A2M3FPQF852HW4
514,79,,1.0,59.0,2868474407-362883.jpg,2238516618-25604.jpg,1.0,,,,A2M3FPQF852HW4
515,80,,1.0,60.0,2898635428-69104.jpg,2446759803-49250.jpg,1.0,,,,A2M3FPQF852HW4
516,81,,1.0,61.0,2449442529-124445.jpg,2898632385-217137.jpg,3.0,,,,A2M3FPQF852HW4
517,82,,1.0,62.0,2981231403-71642.jpg,2427873763-47290.jpg,3.0,,,,A2M3FPQF852HW4
518,83,,1.0,63.0,2981241414-145842.jpg,2856919327-359676.jpg,1.0,,,,A2M3FPQF852HW4
519,84,,1.0,64.0,2964213381-294060.jpg,2964213381-294061.jpg,3.0,,,,A2M3FPQF852HW4
520,20,,1.0,0.0,2460547467-349421.jpg,2452380166-273110.jpg,2.0,,,,A2NT3OQZUUZPEO
521,21,,1.0,1.0,2460547467-349422.jpg,2864909447-362146.jpg,3.0,,,,A2NT3OQZUUZPEO
522,22,,1.0,2.0,2868475410-213219.jpg,2868474407-362885.jpg,3.0,,,,A2NT3OQZUUZPEO
523,23,,1.0,3.0,2898635427-367120.jpg,2901946439-144040.jpg,1.0,,,,A2NT3OQZUUZPEO
524,24,,1.0,4.0,2592380177-354629.jpg,2512875587-350044.jpg,3.0,,,,A2NT3OQZUUZPEO
525,25,,1.0,5.0,2883268412-365898.jpg,2238436252-314037.jpg,3.0,,,,A2NT3OQZUUZPEO
526,26,,1.0,6.0,2238481928-19949.jpg,2981241419-145844.jpg,3.0,,,,A2NT3OQZUUZPEO
527,27,,1.0,7.0,2575120738-55529.jpg,2575120738-55528.jpg,2.0,,,,A2NT3OQZUUZPEO
528,28,,1.0,8.0,2898618390-216538.jpg,2901939327-367670.jpg,2.0,,,,A2NT3OQZUUZPEO
529,29,,1.0,9.0,2452381505-199546.jpg,2901938432-367627.jpg,1.0,,,,A2NT3OQZUUZPEO
530,30,,1.0,10.0,2964218374-144967.jpg,2981231446-294732.jpg,3.0,,,,A2NT3OQZUUZPEO
531,31,,1.0,11.0,2883254439-140941.jpg,2898632385-217136.jpg,2.0,,,,A2NT3OQZUUZPEO
532,32,,1.0,12.0,2592379964-131054.jpg,2592380272-354673.jpg,3.0,,,,A2NT3OQZUUZPEO
533,33,left,1.0,13.0,left.jpg,,,left,0.8179,,A2NT3OQZUUZPEO
534,34,,1.0,14.0,2898634397-367080.jpg,2964217461-294238.jpg,3.0,,,,A2NT3OQZUUZPEO
535,35,,1.0,15.0,2864907432-362042.jpg,2901947423-70310.jpg,2.0,,,,A2NT3OQZUUZPEO
536,36,,1.0,16.0,2874299429-139695.jpg,2901942443-69923.jpg,2.0,,,,A2NT3OQZUUZPEO
537,37,,1.0,17.0,2981241414-145842.jpg,2427873848-47312.jpg,3.0,,,,A2NT3OQZUUZPEO
538,38,,1.0,18.0,2883268471-290842.jpg,2901947448-70314.jpg,3.0,,,,A2NT3OQZUUZPEO
539,39,,1.0,19.0,2964213381-294060.jpg,2981244394-145974.jpg,1.0,,,,A2NT3OQZUUZPEO
540,40,,1.0,20.0,2452380832-348593.jpg,2449442181-272436.jpg,3.0,,,,A2NT3OQZUUZPEO
541,41,,1.0,21.0,2964216465-219242.jpg,2864900319-137787.jpg,2.0,,,,A2NT3OQZUUZPEO
542,42,,1.0,22.0,2901941401-292798.jpg,2981243412-370222.jpg,2.0,,,,A2NT3OQZUUZPEO
543,43,left,1.0,23.0,left.jpg,,,left,0.6744,,A2NT3OQZUUZPEO
544,44,,1.0,24.0,2874301407-363895.jpg,2883264368-67631.jpg,1.0,,,,A2NT3OQZUUZPEO
545,45,,1.0,25.0,2238560245-182099.jpg,2549106624-127823.jpg,1.0,,,,A2NT3OQZUUZPEO
546,46,,1.0,26.0,2986451363-73599.jpg,2901939327-367669.jpg,1.0,,,,A2NT3OQZUUZPEO
547,47,,1.0,27.0,2446759347-347016.jpg,2964224310-219528.jpg,1.0,,,,A2NT3OQZUUZPEO
548,48,,1.0,28.0,2238428357-313623.jpg,2238499057-320266.jpg,1.0,,,,A2NT3OQZUUZPEO
549,49,,1.0,29.0,2901947423-70311.jpg,2238577590-185467.jpg,3.0,,,,A2NT3OQZUUZPEO
550,50,,1.0,30.0,2238481198-19822.jpg,2862691449-137104.jpg,1.0,,,,A2NT3OQZUUZPEO
551,51,,1.0,31.0,2901939379-143480.jpg,2901938432-367629.jpg,3.0,,,,A2NT3OQZUUZPEO
552,52,left,1.0,32.0,left.jpg,,,left,0.6033,,A2NT3OQZUUZPEO
553,53,,1.0,33.0,2874302418-65978.jpg,2898633321-291943.jpg,3.0,,,,A2NT3OQZUUZPEO
554,54,,1.0,34.0,2901948350-218459.jpg,2417208001-267065.jpg,2.0,,,,A2NT3OQZUUZPEO
555,55,,1.0,35.0,2883256307-365057.jpg,2864904453-63933.jpg,3.0,,,,A2NT3OQZUUZPEO
556,56,,1.0,36.0,2901952513-70703.jpg,2238481198-19821.jpg,3.0,,,,A2NT3OQZUUZPEO
557,57,,1.0,37.0,2864910426-287204.jpg,2874299429-139694.jpg,2.0,,,,A2NT3OQZUUZPEO
558,58,,1.0,38.0,2446758985-197609.jpg,2864909447-362144.jpg,2.0,,,,A2NT3OQZUUZPEO
559,59,right,1.0,39.0,right.jpg,,,right,0.7155,,A2NT3OQZUUZPEO
560,60,,1.0,40.0,2446759803-49249.jpg,2446760601-272099.jpg,1.0,,,,A2NT3OQZUUZPEO
561,61,,1.0,41.0,2238425482-313537.jpg,2238436322-314047.jpg,2.0,,,,A2NT3OQZUUZPEO
562,62,,1.0,42.0,2901939379-143479.jpg,2460547467-349423.jpg,1.0,,,,A2NT3OQZUUZPEO
563,63,,1.0,43.0,2898624426-291546.jpg,2981236443-71859.jpg,2.0,,,,A2NT3OQZUUZPEO
564,64,,1.0,44.0,2238572663-35822.jpg,2986419333-73361.jpg,1.0,,,,A2NT3OQZUUZPEO
565,65,,1.0,45.0,2874302418-65979.jpg,2238480648-19714.jpg,2.0,,,,A2NT3OQZUUZPEO
566,66,,1.0,46.0,2449442529-124445.jpg,2452380171-273112.jpg,1.0,,,,A2NT3OQZUUZPEO
567,67,,1.0,47.0,2449441881-272368.jpg,2984615358-72439.jpg,2.0,,,,A2NT3OQZUUZPEO
568,68,right,1.0,48.0,right.jpg,,,right,0.6347,,A2NT3OQZUUZPEO
569,69,,1.0,49.0,2512875899-126682.jpg,2986447332-371497.jpg,3.0,,,,A2NT3OQZUUZPEO
570,70,,1.0,50.0,2449442529-124446.jpg,2446759803-49251.jpg,1.0,,,,A2NT3OQZUUZPEO
571,71,,1.0,51.0,2874303365-214262.jpg,2238563377-332054.jpg,2.0,,,,A2NT3OQZUUZPEO
572,72,,1.0,52.0,2460547508-51571.jpg,2981232437-369759.jpg,2.0,,,,A2NT3OQZUUZPEO
573,73,,1.0,53.0,2898618444-142233.jpg,2238555262-330312.jpg,2.0,,,,A2NT3OQZUUZPEO
574,74,,1.0,54.0,2868474407-362883.jpg,2901948383-70363.jpg,3.0,,,,A2NT3OQZUUZPEO
575,75,,1.0,55.0,2898617468-68274.jpg,2864906345-212360.jpg,1.0,,,,A2NT3OQZUUZPEO
576,76,,1.0,56.0,2238580740-186218.jpg,2238521193-26285.jpg,2.0,,,,A2NT3OQZUUZPEO
577,77,,1.0,57.0,2592380177-354626.jpg,2986408339-146952.jpg,1.0,,,,A2NT3OQZUUZPEO
578,78,,1.0,58.0,2981231403-71642.jpg,2274829821-263682.jpg,1.0,,,,A2NT3OQZUUZPEO
579,79,,1.0,59.0,2898633421-291973.jpg,2575118671-277663.jpg,2.0,,,,A2NT3OQZUUZPEO
580,80,,1.0,60.0,2964223381-294447.jpg,2898628438-68785.jpg,3.0,,,,A2NT3OQZUUZPEO
581,81,,1.0,61.0,2458347385-199723.jpg,2238480434-93829.jpg,1.0,,,,A2NT3OQZUUZPEO
582,82,,1.0,62.0,2238480677-317399.jpg,2238481630-168218.jpg,1.0,,,,A2NT3OQZUUZPEO
583,83,,1.0,63.0,2898635428-69104.jpg,2898625336-291572.jpg,3.0,,,,A2NT3OQZUUZPEO
584,84,,1.0,64.0,2874307433-66280.jpg,2986447306-296584.jpg,1.0,,,,A2NT3OQZUUZPEO
585,20,,1.0,0.0,2864907432-362042.jpg,2901947423-70310.jpg,2.0,,,,A2OZN198ZV1VKK
586,21,,1.0,1.0,2898617468-68274.jpg,2864906345-212360.jpg,1.0,,,,A2OZN198ZV1VKK
587,22,,1.0,2.0,2238425482-313537.jpg,2238436322-314047.jpg,2.0,,,,A2OZN198ZV1VKK
588,23,,1.0,3.0,2964218374-144967.jpg,2981231446-294732.jpg,3.0,,,,A2OZN198ZV1VKK
589,24,,1.0,4.0,2864910426-287204.jpg,2874299429-139694.jpg,2.0,,,,A2OZN198ZV1VKK
590,25,,1.0,5.0,2901939379-143480.jpg,2901938432-367629.jpg,3.0,,,,A2OZN198ZV1VKK
591,26,right,1.0,6.0,right.jpg,,,right,0.6039,,A2OZN198ZV1VKK
592,27,,1.0,7.0,2964213381-294060.jpg,2981244394-145974.jpg,1.0,,,,A2OZN198ZV1VKK
593,28,,1.0,8.0,2449442529-124445.jpg,2898632385-217137.jpg,3.0,,,,A2OZN198ZV1VKK
594,29,,1.0,9.0,2883256307-365057.jpg,2964210336-293945.jpg,2.0,,,,A2OZN198ZV1VKK
595,30,,1.0,10.0,2238480677-317399.jpg,2238573546-258454.jpg,2.0,,,,A2OZN198ZV1VKK
596,31,,1.0,11.0,2238560245-182099.jpg,2549106624-127823.jpg,1.0,,,,A2OZN198ZV1VKK
597,32,,1.0,12.0,2238572663-35822.jpg,2864903351-286874.jpg,3.0,,,,A2OZN198ZV1VKK
598,33,,1.0,13.0,2901948350-218459.jpg,2804906319-133082.jpg,1.0,,,,A2OZN198ZV1VKK
599,34,,1.0,14.0,2883268471-290842.jpg,2883255450-215310.jpg,2.0,,,,A2OZN198ZV1VKK
600,35,,1.0,15.0,2901939379-143479.jpg,2460547467-349423.jpg,1.0,,,,A2OZN198ZV1VKK
601,36,,1.0,16.0,2981241414-145842.jpg,2856919327-359676.jpg,1.0,,,,A2OZN198ZV1VKK
602,37,,1.0,17.0,2964216465-219242.jpg,2238544191-252422.jpg,1.0,,,,A2OZN198ZV1VKK
603,38,,1.0,18.0,2901947423-70311.jpg,2860312398-62572.jpg,1.0,,,,A2OZN198ZV1VKK
604,39,,1.0,19.0,2898634397-367080.jpg,2901934408-69289.jpg,2.0,,,,A2OZN198ZV1VKK
605,40,,1.0,20.0,2898624426-291546.jpg,2964218432-369263.jpg,1.0,,,,A2OZN198ZV1VKK
606,41,right,1.0,21.0,right.jpg,,,right,0.5979,,A2OZN198ZV1VKK
607,42,,1.0,22.0,2874302418-65979.jpg,2238578544-111698.jpg,3.0,,,,A2OZN198ZV1VKK
608,43,,1.0,23.0,2460547508-51571.jpg,2901941438-69835.jpg,3.0,,,,A2OZN198ZV1VKK
609,44,,1.0,24.0,2883254439-140941.jpg,2981231446-294730.jpg,3.0,,,,A2OZN198ZV1VKK
610,45,,1.0,25.0,2901941401-292798.jpg,2883273443-68193.jpg,3.0,,,,A2OZN198ZV1VKK
611,46,,1.0,26.0,2446759347-347016.jpg,2964224310-219528.jpg,1.0,,,,A2OZN198ZV1VKK
612,47,,1.0,27.0,2452380832-348593.jpg,2449442181-272436.jpg,3.0,,,,A2OZN198ZV1VKK
613,48,,1.0,28.0,2898635428-69104.jpg,2898625336-291572.jpg,3.0,,,,A2OZN198ZV1VKK
614,49,,1.0,29.0,2458347385-199723.jpg,2458347252-348911.jpg,3.0,,,,A2OZN198ZV1VKK
615,50,,1.0,30.0,2592380177-354626.jpg,2864901386-286797.jpg,2.0,,,,A2OZN198ZV1VKK
616,51,,1.0,31.0,2238428357-313623.jpg,2575121987-353817.jpg,3.0,,,,A2OZN198ZV1VKK
617,52,left,1.0,32.0,left.jpg,,,left,0.6081,,A2OZN198ZV1VKK
618,53,,1.0,33.0,2592380177-354629.jpg,2898633421-291974.jpg,1.0,,,,A2OZN198ZV1VKK
619,54,,1.0,34.0,2898635427-367120.jpg,2901946439-144040.jpg,1.0,,,,A2OZN198ZV1VKK
620,55,,1.0,35.0,2901952513-70703.jpg,2238481198-19821.jpg,3.0,,,,A2OZN198ZV1VKK
621,56,left,1.0,36.0,left.jpg,,,left,0.6615,,A2OZN198ZV1VKK
622,57,,1.0,37.0,2868475410-213219.jpg,2901946465-218350.jpg,1.0,,,,A2OZN198ZV1VKK
623,58,,1.0,38.0,2898618444-142233.jpg,2238555262-330312.jpg,2.0,,,,A2OZN198ZV1VKK
624,59,,1.0,39.0,2883268412-365898.jpg,2984615361-295510.jpg,2.0,,,,A2OZN198ZV1VKK
625,60,,1.0,40.0,2446759803-49249.jpg,2898618440-216547.jpg,2.0,,,,A2OZN198ZV1VKK
626,61,,1.0,41.0,2460547467-349422.jpg,2864909447-362146.jpg,3.0,,,,A2OZN198ZV1VKK
627,62,,1.0,42.0,2460547467-349421.jpg,2452380166-273110.jpg,2.0,,,,A2OZN198ZV1VKK
628,63,,1.0,43.0,2874302418-65978.jpg,2898633321-291943.jpg,3.0,,,,A2OZN198ZV1VKK
629,64,,1.0,44.0,2981231403-71642.jpg,2427873763-47290.jpg,3.0,,,,A2OZN198ZV1VKK
630,65,,1.0,45.0,2964223381-294447.jpg,2901941438-69836.jpg,2.0,,,,A2OZN198ZV1VKK
631,66,,1.0,46.0,2874301407-363895.jpg,2986397322-371109.jpg,2.0,,,,A2OZN198ZV1VKK
632,67,,1.0,47.0,2874303365-214262.jpg,2609793677-355397.jpg,1.0,,,,A2OZN198ZV1VKK
633,68,,1.0,48.0,2452381505-199546.jpg,2901938432-367627.jpg,1.0,,,,A2OZN198ZV1VKK
634,69,,1.0,49.0,2238580740-186218.jpg,2964220333-71258.jpg,3.0,,,,A2OZN198ZV1VKK
635,70,,1.0,50.0,2449441881-272368.jpg,2883268412-365899.jpg,1.0,,,,A2OZN198ZV1VKK
636,71,,1.0,51.0,2449442529-124446.jpg,2446759803-49251.jpg,1.0,,,,A2OZN198ZV1VKK
637,72,right,1.0,52.0,right.jpg,,,right,0.4264,,A2OZN198ZV1VKK
638,73,,1.0,53.0,2874299429-139695.jpg,2446760917-347439.jpg,3.0,,,,A2OZN198ZV1VKK
639,74,,1.0,54.0,2575120738-55529.jpg,2238531493-28260.jpg,3.0,,,,A2OZN198ZV1VKK
640,75,,1.0,55.0,2512875899-126682.jpg,2460547536-274179.jpg,1.0,,,,A2OZN198ZV1VKK
641,76,,1.0,56.0,2898633421-291973.jpg,2575118671-277663.jpg,2.0,,,,A2OZN198ZV1VKK
642,77,,1.0,57.0,2898618390-216538.jpg,2901939327-367670.jpg,2.0,,,,A2OZN198ZV1VKK
643,78,,1.0,58.0,2238481198-19822.jpg,2901946436-293242.jpg,2.0,,,,A2OZN198ZV1VKK
644,79,,1.0,59.0,2592379964-131054.jpg,2575963989-130576.jpg,1.0,,,,A2OZN198ZV1VKK
645,80,,1.0,60.0,2874307433-66280.jpg,2981246400-220365.jpg,2.0,,,,A2OZN198ZV1VKK
646,81,,1.0,61.0,2238481928-19949.jpg,2864900357-361688.jpg,2.0,,,,A2OZN198ZV1VKK
647,82,,1.0,62.0,2446758985-197609.jpg,2864909447-362144.jpg,2.0,,,,A2OZN198ZV1VKK
648,83,,1.0,63.0,2986451363-73599.jpg,2238434559-90406.jpg,3.0,,,,A2OZN198ZV1VKK
649,84,,1.0,64.0,2868474407-362883.jpg,2238516618-25604.jpg,1.0,,,,A2OZN198ZV1VKK
650,20,,1.0,0.0,2874301407-363895.jpg,2986397322-371109.jpg,2.0,,,,A2V27A9GZA1NR2
651,21,,1.0,1.0,2898633421-291973.jpg,2238550049-105691.jpg,3.0,,,,A2V27A9GZA1NR2
652,22,,1.0,2.0,2981231403-71642.jpg,2981244403-72215.jpg,2.0,,,,A2V27A9GZA1NR2
653,23,,1.0,3.0,2901947423-70311.jpg,2238573447-333826.jpg,2.0,,,,A2V27A9GZA1NR2
654,24,,1.0,4.0,2575120738-55529.jpg,2238531493-28260.jpg,3.0,,,,A2V27A9GZA1NR2
655,25,,1.0,5.0,2964216465-219242.jpg,2898619327-366362.jpg,3.0,,,,A2V27A9GZA1NR2
656,26,right,1.0,6.0,right.jpg,,,right,0.5687,,A2V27A9GZA1NR2
657,27,,1.0,7.0,2868474407-362883.jpg,2901948383-70363.jpg,3.0,,,,A2V27A9GZA1NR2
658,28,,1.0,8.0,2964213381-294060.jpg,2458348012-349114.jpg,2.0,,,,A2V27A9GZA1NR2
659,29,,1.0,9.0,2592379964-131054.jpg,2238479053-19457.jpg,2.0,,,,A2V27A9GZA1NR2
660,30,,1.0,10.0,2452381505-199546.jpg,2901938432-367627.jpg,1.0,,,,A2V27A9GZA1NR2
661,31,,1.0,11.0,2898618444-142233.jpg,2898618444-142232.jpg,3.0,,,,A2V27A9GZA1NR2
662,32,,1.0,12.0,2874303365-214262.jpg,2238563377-332054.jpg,2.0,,,,A2V27A9GZA1NR2
663,33,,1.0,13.0,2452380832-348593.jpg,2238481813-19930.jpg,2.0,,,,A2V27A9GZA1NR2
664,34,,1.0,14.0,2883268471-290842.jpg,2883268471-290843.jpg,1.0,,,,A2V27A9GZA1NR2
665,35,,1.0,15.0,2874302418-65979.jpg,2238578544-111698.jpg,3.0,,,,A2V27A9GZA1NR2
666,36,,1.0,16.0,2864910426-287204.jpg,2874299429-139694.jpg,2.0,,,,A2V27A9GZA1NR2
667,37,,1.0,17.0,2238480677-317399.jpg,2238481630-168218.jpg,1.0,,,,A2V27A9GZA1NR2
668,38,left,1.0,18.0,left.jpg,,,left,0.7631,,A2V27A9GZA1NR2
669,39,,1.0,19.0,2901952513-70703.jpg,2868469411-287540.jpg,2.0,,,,A2V27A9GZA1NR2
670,40,,1.0,20.0,2592380177-354626.jpg,2238117096-228518.jpg,3.0,,,,A2V27A9GZA1NR2
671,41,,1.0,21.0,2901939379-143479.jpg,2460547467-349423.jpg,1.0,,,,A2V27A9GZA1NR2
672,42,,1.0,22.0,2238572663-35822.jpg,2238571930-184143.jpg,2.0,,,,A2V27A9GZA1NR2
673,43,,1.0,23.0,2898634397-367080.jpg,2901934408-69289.jpg,2.0,,,,A2V27A9GZA1NR2
674,44,,1.0,24.0,2874299429-139695.jpg,2883266388-67750.jpg,1.0,,,,A2V27A9GZA1NR2
675,45,,1.0,25.0,2883256307-365057.jpg,2611628310-206388.jpg,1.0,,,,A2V27A9GZA1NR2
676,46,,1.0,26.0,2981241414-145842.jpg,2427873848-47312.jpg,3.0,,,,A2V27A9GZA1NR2
677,47,,1.0,27.0,2238580740-186218.jpg,2964220333-71258.jpg,3.0,,,,A2V27A9GZA1NR2
678,48,,1.0,28.0,2238425482-313537.jpg,2898633480-217190.jpg,3.0,,,,A2V27A9GZA1NR2
679,49,,1.0,29.0,2864907432-362042.jpg,2901947423-70310.jpg,2.0,,,,A2V27A9GZA1NR2
680,50,,1.0,30.0,2964223381-294447.jpg,2427874231-269884.jpg,1.0,,,,A2V27A9GZA1NR2
681,51,,1.0,31.0,2238481198-19822.jpg,2238480803-19737.jpg,3.0,,,,A2V27A9GZA1NR2
682,52,,1.0,32.0,2449442529-124445.jpg,2452380171-273112.jpg,1.0,,,,A2V27A9GZA1NR2
683,53,,1.0,33.0,2460547467-349421.jpg,2898631394-142727.jpg,1.0,,,,A2V27A9GZA1NR2
684,54,right,1.0,34.0,right.jpg,,,right,0.8485,,A2V27A9GZA1NR2
685,55,,1.0,35.0,2460547467-349422.jpg,2864909447-362146.jpg,3.0,,,,A2V27A9GZA1NR2
686,56,,1.0,36.0,2901948350-218459.jpg,2804906319-133082.jpg,1.0,,,,A2V27A9GZA1NR2
687,57,,1.0,37.0,2446759803-49249.jpg,2446760601-272099.jpg,1.0,,,,A2V27A9GZA1NR2
688,58,,1.0,38.0,2874302418-65978.jpg,2898626385-216899.jpg,1.0,,,,A2V27A9GZA1NR2
689,59,,1.0,39.0,2446759347-347016.jpg,2238569117-333045.jpg,3.0,,,,A2V27A9GZA1NR2
690,60,,1.0,40.0,2446758985-197609.jpg,2981240424-145795.jpg,1.0,,,,A2V27A9GZA1NR2
691,61,,1.0,41.0,2874307433-66280.jpg,2986447306-296584.jpg,1.0,,,,A2V27A9GZA1NR2
692,62,,1.0,42.0,2592380177-354629.jpg,2579432534-130704.jpg,2.0,,,,A2V27A9GZA1NR2
693,63,,1.0,43.0,2883268412-365898.jpg,2984615361-295510.jpg,2.0,,,,A2V27A9GZA1NR2
694,64,left,1.0,44.0,left.jpg,,,left,0.6141,,A2V27A9GZA1NR2
695,65,,1.0,45.0,2868475410-213219.jpg,2901946465-218350.jpg,1.0,,,,A2V27A9GZA1NR2
696,66,,1.0,46.0,2901939379-143480.jpg,2901942428-69919.jpg,1.0,,,,A2V27A9GZA1NR2
697,67,,1.0,47.0,2901941401-292798.jpg,2883273443-68193.jpg,3.0,,,,A2V27A9GZA1NR2
698,68,,1.0,48.0,2238428357-313623.jpg,2238499057-320266.jpg,1.0,,,,A2V27A9GZA1NR2
699,69,,1.0,49.0,2449442529-124446.jpg,2460547536-274181.jpg,2.0,,,,A2V27A9GZA1NR2
700,70,left,1.0,50.0,left.jpg,,,left,0.6505,,A2V27A9GZA1NR2
701,71,,1.0,51.0,2238481928-19949.jpg,2864900357-361688.jpg,2.0,,,,A2V27A9GZA1NR2
702,72,,1.0,52.0,2898635427-367120.jpg,2898621427-366486.jpg,3.0,,,,A2V27A9GZA1NR2
703,73,,1.0,53.0,2883254439-140941.jpg,2898632385-217136.jpg,2.0,,,,A2V27A9GZA1NR2
704,74,,1.0,54.0,2898617468-68274.jpg,2864906345-212360.jpg,1.0,,,,A2V27A9GZA1NR2
705,75,,1.0,55.0,2458347385-199723.jpg,2458347252-348911.jpg,3.0,,,,A2V27A9GZA1NR2
706,76,,1.0,56.0,2238560245-182099.jpg,2874314526-289684.jpg,2.0,,,,A2V27A9GZA1NR2
707,77,,1.0,57.0,2964218374-144967.jpg,2883254439-140940.jpg,2.0,,,,A2V27A9GZA1NR2
708,78,,1.0,58.0,2898635428-69104.jpg,2898625336-291572.jpg,3.0,,,,A2V27A9GZA1NR2
709,79,,1.0,59.0,2898618390-216538.jpg,2575120609-129862.jpg,3.0,,,,A2V27A9GZA1NR2
710,80,,1.0,60.0,2449441881-272368.jpg,2883268412-365899.jpg,1.0,,,,A2V27A9GZA1NR2
711,81,,1.0,61.0,2512875899-126682.jpg,2592380177-354628.jpg,2.0,,,,A2V27A9GZA1NR2
712,82,,1.0,62.0,2898624426-291546.jpg,2981235446-294900.jpg,3.0,,,,A2V27A9GZA1NR2
713,83,,1.0,63.0,2460547508-51571.jpg,2901941438-69835.jpg,3.0,,,,A2V27A9GZA1NR2
714,84,,1.0,64.0,2986451363-73599.jpg,2901939327-367669.jpg,1.0,,,,A2V27A9GZA1NR2
715,20,,1.0,0.0,2238481928-19949.jpg,2864900357-361688.jpg,2.0,,,,A2VIKCIM9TZL22
716,21,,1.0,1.0,2238572663-35822.jpg,2986419333-73361.jpg,1.0,,,,A2VIKCIM9TZL22
717,22,,1.0,2.0,2460547508-51571.jpg,2901941438-69835.jpg,3.0,,,,A2VIKCIM9TZL22
718,23,,1.0,3.0,2901948350-218459.jpg,2981246360-220352.jpg,3.0,,,,A2VIKCIM9TZL22
719,24,,1.0,4.0,2981231403-71642.jpg,2274829821-263682.jpg,1.0,,,,A2VIKCIM9TZL22
720,25,,1.0,5.0,2449442529-124446.jpg,2446759803-49251.jpg,1.0,,,,A2VIKCIM9TZL22
721,26,,1.0,6.0,2883254439-140941.jpg,2898632385-217136.jpg,2.0,,,,A2VIKCIM9TZL22
722,27,,1.0,7.0,2874303365-214262.jpg,2238563377-332054.jpg,2.0,,,,A2VIKCIM9TZL22
723,28,,1.0,8.0,2901952513-70703.jpg,2238481198-19821.jpg,3.0,,,,A2VIKCIM9TZL22
724,29,,1.0,9.0,2883268412-365898.jpg,2984626312-370849.jpg,1.0,,,,A2VIKCIM9TZL22
725,30,,1.0,10.0,2964218374-144967.jpg,2883254439-140940.jpg,2.0,,,,A2VIKCIM9TZL22
726,31,,1.0,11.0,2964216465-219242.jpg,2864900319-137787.jpg,2.0,,,,A2VIKCIM9TZL22
727,32,,1.0,12.0,2874299429-139695.jpg,2901942443-69923.jpg,2.0,,,,A2VIKCIM9TZL22
728,33,,1.0,13.0,2874307433-66280.jpg,2986447306-296584.jpg,1.0,,,,A2VIKCIM9TZL22
729,34,left,1.0,14.0,left.jpg,,,left,1.1001,,A2VIKCIM9TZL22
730,35,,1.0,15.0,2238425482-313537.jpg,2898633480-217190.jpg,3.0,,,,A2VIKCIM9TZL22
731,36,,1.0,16.0,2446759347-347016.jpg,2964224310-219528.jpg,1.0,,,,A2VIKCIM9TZL22
732,37,,1.0,17.0,2964223381-294447.jpg,2898628438-68785.jpg,3.0,,,,A2VIKCIM9TZL22
733,38,,1.0,18.0,2452381505-199546.jpg,2238567168-34916.jpg,2.0,,,,A2VIKCIM9TZL22
734,39,,1.0,19.0,2964213381-294060.jpg,2458348012-349114.jpg,2.0,,,,A2VIKCIM9TZL22
735,40,,1.0,20.0,2592380177-354626.jpg,2238117096-228518.jpg,3.0,,,,A2VIKCIM9TZL22
736,41,,1.0,21.0,2238481198-19822.jpg,2238480803-19737.jpg,3.0,,,,A2VIKCIM9TZL22
737,42,,1.0,22.0,2898624426-291546.jpg,2964218432-369263.jpg,1.0,,,,A2VIKCIM9TZL22
738,43,right,1.0,23.0,right.jpg,,,right,0.4875,,A2VIKCIM9TZL22
739,44,,1.0,24.0,2986451363-73599.jpg,2860302315-210704.jpg,2.0,,,,A2VIKCIM9TZL22
740,45,,1.0,25.0,2874301407-363895.jpg,2901947323-70275.jpg,3.0,,,,A2VIKCIM9TZL22
741,46,,1.0,26.0,2901947423-70311.jpg,2860312398-62572.jpg,1.0,,,,A2VIKCIM9TZL22
742,47,,1.0,27.0,2864907432-362042.jpg,2864901420-212147.jpg,1.0,,,,A2VIKCIM9TZL22
743,48,,1.0,28.0,2238580740-186218.jpg,2238550816-254000.jpg,1.0,,,,A2VIKCIM9TZL22
744,49,,1.0,29.0,2512875899-126682.jpg,2460547536-274179.jpg,1.0,,,,A2VIKCIM9TZL22
745,50,,1.0,30.0,2460547467-349422.jpg,2868487415-213924.jpg,2.0,,,,A2VIKCIM9TZL22
746,51,,1.0,31.0,2883268471-290842.jpg,2901947448-70314.jpg,3.0,,,,A2VIKCIM9TZL22
747,52,,1.0,32.0,2452380832-348593.jpg,2449442181-272436.jpg,3.0,,,,A2VIKCIM9TZL22
748,53,,1.0,33.0,2446759803-49249.jpg,2898618440-216547.jpg,2.0,,,,A2VIKCIM9TZL22
749,54,right,1.0,34.0,right.jpg,,,right,1.3012,,A2VIKCIM9TZL22
750,55,,1.0,35.0,2449441881-272368.jpg,2883268412-365899.jpg,1.0,,,,A2VIKCIM9TZL22
751,56,,1.0,36.0,2575120738-55529.jpg,2575120738-55528.jpg,2.0,,,,A2VIKCIM9TZL22
752,57,,1.0,37.0,2874302418-65979.jpg,2413147898-43548.jpg,1.0,,,,A2VIKCIM9TZL22
753,58,,1.0,38.0,2460547467-349421.jpg,2898631394-142727.jpg,1.0,,,,A2VIKCIM9TZL22
754,59,,1.0,39.0,2901939379-143479.jpg,2446758985-197610.jpg,2.0,,,,A2VIKCIM9TZL22
755,60,,1.0,40.0,2874302418-65978.jpg,2898633321-291943.jpg,3.0,,,,A2VIKCIM9TZL22
756,61,,1.0,41.0,2592379964-131054.jpg,2592380272-354673.jpg,3.0,,,,A2VIKCIM9TZL22
757,62,right,1.0,42.0,right.jpg,,,right,0.4955,,A2VIKCIM9TZL22
758,63,,1.0,43.0,2238480677-317399.jpg,2238480278-19661.jpg,3.0,,,,A2VIKCIM9TZL22
759,64,,1.0,44.0,2446758985-197609.jpg,2981240424-145795.jpg,1.0,,,,A2VIKCIM9TZL22
760,65,,1.0,45.0,2901939379-143480.jpg,2901938432-367629.jpg,3.0,,,,A2VIKCIM9TZL22
761,66,,1.0,46.0,2898634397-367080.jpg,2237944827-301472.jpg,1.0,,,,A2VIKCIM9TZL22
762,67,,1.0,47.0,2868475410-213219.jpg,2868474407-362885.jpg,3.0,,,,A2VIKCIM9TZL22
763,68,,1.0,48.0,2238560245-182099.jpg,2874314526-289684.jpg,2.0,,,,A2VIKCIM9TZL22
764,69,left,1.0,49.0,left.jpg,,,left,0.5076,,A2VIKCIM9TZL22
765,70,,1.0,50.0,2981241414-145842.jpg,2874301404-139813.jpg,2.0,,,,A2VIKCIM9TZL22
766,71,,1.0,51.0,2592380177-354629.jpg,2898633421-291974.jpg,1.0,,,,A2VIKCIM9TZL22
767,72,,1.0,52.0,2898635427-367120.jpg,2868479517-363220.jpg,2.0,,,,A2VIKCIM9TZL22
768,73,,1.0,53.0,2898633421-291973.jpg,2238550049-105691.jpg,3.0,,,,A2VIKCIM9TZL22
769,74,,1.0,54.0,2864910426-287204.jpg,2901939433-69672.jpg,3.0,,,,A2VIKCIM9TZL22
770,75,,1.0,55.0,2458347385-199723.jpg,2427874554-121863.jpg,2.0,,,,A2VIKCIM9TZL22
771,76,,1.0,56.0,2898617468-68274.jpg,2901943387-368037.jpg,2.0,,,,A2VIKCIM9TZL22
772,77,,1.0,57.0,2883256307-365057.jpg,2864904453-63933.jpg,3.0,,,,A2VIKCIM9TZL22
773,78,,1.0,58.0,2449442529-124445.jpg,2898632385-217137.jpg,3.0,,,,A2VIKCIM9TZL22
774,79,,1.0,59.0,2898618390-216538.jpg,2901939327-367670.jpg,2.0,,,,A2VIKCIM9TZL22
775,80,,1.0,60.0,2898618444-142233.jpg,2898631359-142721.jpg,1.0,,,,A2VIKCIM9TZL22
776,81,,1.0,61.0,2238428357-313623.jpg,2984615361-295509.jpg,2.0,,,,A2VIKCIM9TZL22
777,82,,1.0,62.0,2901941401-292798.jpg,2898618327-366317.jpg,1.0,,,,A2VIKCIM9TZL22
778,83,,1.0,63.0,2868474407-362883.jpg,2238516618-25604.jpg,1.0,,,,A2VIKCIM9TZL22
779,84,,1.0,64.0,2898635428-69104.jpg,2898625336-291572.jpg,3.0,,,,A2VIKCIM9TZL22
780,20,,1.0,0.0,2238572663-35822.jpg,2238571930-184143.jpg,2.0,,,,A2XFO0X6RCS98M
781,21,,1.0,1.0,2883254439-140941.jpg,2898632385-217136.jpg,2.0,,,,A2XFO0X6RCS98M
782,22,,1.0,2.0,2446759347-347016.jpg,2238569117-333045.jpg,3.0,,,,A2XFO0X6RCS98M
783,23,,1.0,3.0,2238481928-19949.jpg,2981241419-145844.jpg,3.0,,,,A2XFO0X6RCS98M
784,24,,1.0,4.0,2898618390-216538.jpg,2986449336-296644.jpg,1.0,,,,A2XFO0X6RCS98M
785,25,,1.0,5.0,2864907432-362042.jpg,2901947423-70310.jpg,2.0,,,,A2XFO0X6RCS98M
786,26,,1.0,6.0,2964223381-294447.jpg,2427874231-269884.jpg,1.0,,,,A2XFO0X6RCS98M
787,27,,1.0,7.0,2449442529-124446.jpg,2898632385-217139.jpg,3.0,,,,A2XFO0X6RCS98M
788,28,,1.0,8.0,2981241414-145842.jpg,2427873848-47312.jpg,3.0,,,,A2XFO0X6RCS98M
789,29,,1.0,9.0,2986451363-73599.jpg,2860302315-210704.jpg,2.0,,,,A2XFO0X6RCS98M
790,30,right,1.0,10.0,right.jpg,,,right,0.6837,,A2XFO0X6RCS98M
791,31,,1.0,11.0,2460547467-349422.jpg,2864909447-362146.jpg,3.0,,,,A2XFO0X6RCS98M
792,32,,1.0,12.0,2901947423-70311.jpg,2860312398-62572.jpg,1.0,,,,A2XFO0X6RCS98M
793,33,,1.0,13.0,2512875899-126682.jpg,2592380177-354628.jpg,2.0,,,,A2XFO0X6RCS98M
794,34,,1.0,14.0,2864910426-287204.jpg,2874299429-139694.jpg,2.0,,,,A2XFO0X6RCS98M
795,35,,1.0,15.0,2874299429-139695.jpg,2901942443-69923.jpg,2.0,,,,A2XFO0X6RCS98M
796,36,,1.0,16.0,2449441881-272368.jpg,2883268412-365899.jpg,1.0,,,,A2XFO0X6RCS98M
797,37,,1.0,17.0,2238560245-182099.jpg,2549106624-127823.jpg,1.0,,,,A2XFO0X6RCS98M
798,38,,1.0,18.0,2458347385-199723.jpg,2427874554-121863.jpg,2.0,,,,A2XFO0X6RCS98M
799,39,,1.0,19.0,2964218374-144967.jpg,2964218374-144968.jpg,1.0,,,,A2XFO0X6RCS98M
800,40,,1.0,20.0,2898617468-68274.jpg,2864906345-212360.jpg,1.0,,,,A2XFO0X6RCS98M
801,41,,1.0,21.0,2460547508-51571.jpg,2460547291-274110.jpg,1.0,,,,A2XFO0X6RCS98M
802,42,,1.0,22.0,2592379964-131054.jpg,2575963989-130576.jpg,1.0,,,,A2XFO0X6RCS98M
803,43,left,1.0,23.0,left.jpg,,,left,0.7374,,A2XFO0X6RCS98M
804,44,,1.0,24.0,2238425482-313537.jpg,2238471391-240918.jpg,1.0,,,,A2XFO0X6RCS98M
805,45,,1.0,25.0,2575120738-55529.jpg,2238531493-28260.jpg,3.0,,,,A2XFO0X6RCS98M
806,46,,1.0,26.0,2898618444-142233.jpg,2898618444-142232.jpg,3.0,,,,A2XFO0X6RCS98M
807,47,left,1.0,27.0,left.jpg,,,left,0.7797,,A2XFO0X6RCS98M
808,48,,1.0,28.0,2874303365-214262.jpg,2609793677-355397.jpg,1.0,,,,A2XFO0X6RCS98M
809,49,,1.0,29.0,2883256307-365057.jpg,2864904453-63933.jpg,3.0,,,,A2XFO0X6RCS98M
810,50,,1.0,30.0,2901948350-218459.jpg,2417208001-267065.jpg,2.0,,,,A2XFO0X6RCS98M
811,51,,1.0,31.0,2592380177-354626.jpg,2864901386-286797.jpg,2.0,,,,A2XFO0X6RCS98M
812,52,,1.0,32.0,2452380832-348593.jpg,2449442181-272436.jpg,3.0,,,,A2XFO0X6RCS98M
813,53,,1.0,33.0,2446758985-197609.jpg,2864909447-362144.jpg,2.0,,,,A2XFO0X6RCS98M
814,54,,1.0,34.0,2868475410-213219.jpg,2868474407-362885.jpg,3.0,,,,A2XFO0X6RCS98M
815,55,,1.0,35.0,2238481198-19822.jpg,2238480803-19737.jpg,3.0,,,,A2XFO0X6RCS98M
816,56,,1.0,36.0,2238580740-186218.jpg,2238521193-26285.jpg,2.0,,,,A2XFO0X6RCS98M
817,57,right,1.0,37.0,right.jpg,,,right,1.0002,,A2XFO0X6RCS98M
818,58,,1.0,38.0,2868474407-362883.jpg,2901948383-70363.jpg,3.0,,,,A2XFO0X6RCS98M
819,59,,1.0,39.0,2592380177-354629.jpg,2579432534-130704.jpg,2.0,,,,A2XFO0X6RCS98M
820,60,,1.0,40.0,2874307433-66280.jpg,2986447306-296584.jpg,1.0,,,,A2XFO0X6RCS98M
821,61,,1.0,41.0,2238480677-317399.jpg,2238480278-19661.jpg,3.0,,,,A2XFO0X6RCS98M
822,62,,1.0,42.0,2883268412-365898.jpg,2984615361-295510.jpg,2.0,,,,A2XFO0X6RCS98M
823,63,,1.0,43.0,2449442529-124445.jpg,2452380171-273112.jpg,1.0,,,,A2XFO0X6RCS98M
824,64,,1.0,44.0,2898633421-291973.jpg,2575118671-277663.jpg,2.0,,,,A2XFO0X6RCS98M
825,65,,1.0,45.0,2898634397-367080.jpg,2964217461-294238.jpg,3.0,,,,A2XFO0X6RCS98M
826,66,,1.0,46.0,2964213381-294060.jpg,2981244394-145974.jpg,1.0,,,,A2XFO0X6RCS98M
827,67,,1.0,47.0,2901939379-143479.jpg,2460547467-349423.jpg,1.0,,,,A2XFO0X6RCS98M
828,68,right,1.0,48.0,right.jpg,,,right,0.8829,,A2XFO0X6RCS98M
829,69,,1.0,49.0,2874301407-363895.jpg,2986397322-371109.jpg,2.0,,,,A2XFO0X6RCS98M
830,70,,1.0,50.0,2901939379-143480.jpg,2901942428-69919.jpg,1.0,,,,A2XFO0X6RCS98M
831,71,,1.0,51.0,2460547467-349421.jpg,2898631394-142727.jpg,1.0,,,,A2XFO0X6RCS98M
832,72,,1.0,52.0,2446759803-49249.jpg,2452380166-273109.jpg,3.0,,,,A2XFO0X6RCS98M
833,73,,1.0,53.0,2901941401-292798.jpg,2883273443-68193.jpg,3.0,,,,A2XFO0X6RCS98M
834,74,,1.0,54.0,2981231403-71642.jpg,2274829821-263682.jpg,1.0,,,,A2XFO0X6RCS98M
835,75,,1.0,55.0,2452381505-199546.jpg,2238567168-34916.jpg,2.0,,,,A2XFO0X6RCS98M
836,76,,1.0,56.0,2883268471-290842.jpg,2901947448-70314.jpg,3.0,,,,A2XFO0X6RCS98M
837,77,,1.0,57.0,2874302418-65979.jpg,2238480648-19714.jpg,2.0,,,,A2XFO0X6RCS98M
838,78,,1.0,58.0,2874302418-65978.jpg,2898626385-216899.jpg,1.0,,,,A2XFO0X6RCS98M
839,79,,1.0,59.0,2898635428-69104.jpg,2901943411-292945.jpg,2.0,,,,A2XFO0X6RCS98M
840,80,,1.0,60.0,2238428357-313623.jpg,2575121987-353817.jpg,3.0,,,,A2XFO0X6RCS98M
841,81,,1.0,61.0,2898635427-367120.jpg,2868479517-363220.jpg,2.0,,,,A2XFO0X6RCS98M
842,82,,1.0,62.0,2901952513-70703.jpg,2238481198-19821.jpg,3.0,,,,A2XFO0X6RCS98M
843,83,,1.0,63.0,2898624426-291546.jpg,2964218432-369263.jpg,1.0,,,,A2XFO0X6RCS98M
844,84,,1.0,64.0,2964216465-219242.jpg,2898619327-366362.jpg,3.0,,,,A2XFO0X6RCS98M
845,20,,1.0,0.0,2981231403-71642.jpg,2427873763-47290.jpg,3.0,,,,A376AZWIBALRC
846,21,,1.0,1.0,2964213381-294060.jpg,2964213381-294061.jpg,3.0,,,,A376AZWIBALRC
847,22,,1.0,2.0,2901939379-143479.jpg,2460547467-349423.jpg,1.0,,,,A376AZWIBALRC
848,23,,1.0,3.0,2901941401-292798.jpg,2981243412-370222.jpg,2.0,,,,A376AZWIBALRC
849,24,,1.0,4.0,2449441881-272368.jpg,2449441881-272367.jpg,3.0,,,,A376AZWIBALRC
850,25,,1.0,5.0,2452380832-348593.jpg,2238481813-19930.jpg,2.0,,,,A376AZWIBALRC
851,26,,1.0,6.0,2898635428-69104.jpg,2901943411-292945.jpg,2.0,,,,A376AZWIBALRC
852,27,,1.0,7.0,2874307433-66280.jpg,2986447306-296584.jpg,1.0,,,,A376AZWIBALRC
853,28,,1.0,8.0,2901952513-70703.jpg,2238481198-19821.jpg,3.0,,,,A376AZWIBALRC
854,29,,1.0,9.0,2592380177-354629.jpg,2579432534-130704.jpg,2.0,,,,A376AZWIBALRC
855,30,left,1.0,10.0,left.jpg,,,left,1.0188,,A376AZWIBALRC
856,31,,1.0,11.0,2874302418-65979.jpg,2413147898-43548.jpg,1.0,,,,A376AZWIBALRC
857,32,,1.0,12.0,2883268412-365898.jpg,2238436252-314037.jpg,3.0,,,,A376AZWIBALRC
858,33,,1.0,13.0,2512875899-126682.jpg,2986447332-371497.jpg,3.0,,,,A376AZWIBALRC
859,34,,1.0,14.0,2458347385-199723.jpg,2458347252-348911.jpg,3.0,,,,A376AZWIBALRC
860,35,,1.0,15.0,2883254439-140941.jpg,2981231446-294730.jpg,3.0,,,,A376AZWIBALRC
861,36,,1.0,16.0,2874303365-214262.jpg,2864911457-362260.jpg,3.0,,,,A376AZWIBALRC
862,37,,1.0,17.0,2898618444-142233.jpg,2898618444-142232.jpg,3.0,,,,A376AZWIBALRC
863,38,left,1.0,18.0,left.jpg,,,left,1.2793,,A376AZWIBALRC
864,39,,1.0,19.0,2986451363-73599.jpg,2860302315-210704.jpg,2.0,,,,A376AZWIBALRC
865,40,,1.0,20.0,2238425482-313537.jpg,2238471391-240918.jpg,1.0,,,,A376AZWIBALRC
866,41,,1.0,21.0,2452381505-199546.jpg,2994401319-148290.jpg,3.0,,,,A376AZWIBALRC
867,42,,1.0,22.0,2898633421-291973.jpg,2575118671-277663.jpg,2.0,,,,A376AZWIBALRC
868,43,,1.0,23.0,2238481928-19949.jpg,2883264367-365620.jpg,1.0,,,,A376AZWIBALRC
869,44,,1.0,24.0,2883256307-365057.jpg,2611628310-206388.jpg,1.0,,,,A376AZWIBALRC
870,45,,1.0,25.0,2238572663-35822.jpg,2238571930-184143.jpg,2.0,,,,A376AZWIBALRC
871,46,,1.0,26.0,2898617468-68274.jpg,2864906345-212360.jpg,1.0,,,,A376AZWIBALRC
872,47,,1.0,27.0,2981241414-145842.jpg,2874301404-139813.jpg,2.0,,,,A376AZWIBALRC
873,48,,1.0,28.0,2964218374-144967.jpg,2981231446-294732.jpg,3.0,,,,A376AZWIBALRC
874,49,,1.0,29.0,2901947423-70311.jpg,2238573447-333826.jpg,2.0,,,,A376AZWIBALRC
875,50,,1.0,30.0,2874301407-363895.jpg,2986397322-371109.jpg,2.0,,,,A376AZWIBALRC
876,51,left,1.0,31.0,left.jpg,,,left,1.4242,,A376AZWIBALRC
877,52,,1.0,32.0,2446759347-347016.jpg,2901951350-218702.jpg,2.0,,,,A376AZWIBALRC
878,53,,1.0,33.0,2238580740-186218.jpg,2964220333-71258.jpg,3.0,,,,A376AZWIBALRC
879,54,,1.0,34.0,2868475410-213219.jpg,2868474407-362885.jpg,3.0,,,,A376AZWIBALRC
880,55,,1.0,35.0,2901948350-218459.jpg,2981246360-220352.jpg,3.0,,,,A376AZWIBALRC
881,56,,1.0,36.0,2874299429-139695.jpg,2883266388-67750.jpg,1.0,,,,A376AZWIBALRC
882,57,left,1.0,37.0,left.jpg,,,left,1.5569,,A376AZWIBALRC
883,58,,1.0,38.0,2874302418-65978.jpg,2898633321-291943.jpg,3.0,,,,A376AZWIBALRC
884,59,,1.0,39.0,2864910426-287204.jpg,2864902304-137862.jpg,1.0,,,,A376AZWIBALRC
885,60,,1.0,40.0,2964216465-219242.jpg,2898619327-366362.jpg,3.0,,,,A376AZWIBALRC
886,61,,1.0,41.0,2460547467-349421.jpg,2981235446-294901.jpg,3.0,,,,A376AZWIBALRC
887,62,,1.0,42.0,2592379964-131054.jpg,2575963989-130576.jpg,1.0,,,,A376AZWIBALRC
888,63,,1.0,43.0,2460547467-349422.jpg,2868487415-213924.jpg,2.0,,,,A376AZWIBALRC
889,64,,1.0,44.0,2898624426-291546.jpg,2964218432-369263.jpg,1.0,,,,A376AZWIBALRC
890,65,,1.0,45.0,2901939379-143480.jpg,2901942428-69919.jpg,1.0,,,,A376AZWIBALRC
891,66,,1.0,46.0,2898634397-367080.jpg,2237944827-301472.jpg,1.0,,,,A376AZWIBALRC
892,67,,1.0,47.0,2883268471-290842.jpg,2883268471-290843.jpg,1.0,,,,A376AZWIBALRC
893,68,,1.0,48.0,2964223381-294447.jpg,2427874231-269884.jpg,1.0,,,,A376AZWIBALRC
894,69,,1.0,49.0,2575120738-55529.jpg,2898632385-217138.jpg,1.0,,,,A376AZWIBALRC
895,70,right,1.0,50.0,right.jpg,,,right,1.9746,,A376AZWIBALRC
896,71,,1.0,51.0,2238428357-313623.jpg,2238499057-320266.jpg,1.0,,,,A376AZWIBALRC
897,72,,1.0,52.0,2446759803-49249.jpg,2898618440-216547.jpg,2.0,,,,A376AZWIBALRC
898,73,,1.0,53.0,2868474407-362883.jpg,2981246400-220363.jpg,2.0,,,,A376AZWIBALRC
899,74,,1.0,54.0,2898618390-216538.jpg,2901939327-367670.jpg,2.0,,,,A376AZWIBALRC
900,75,,1.0,55.0,2898635427-367120.jpg,2898621427-366486.jpg,3.0,,,,A376AZWIBALRC
901,76,,1.0,56.0,2238481198-19822.jpg,2862691449-137104.jpg,1.0,,,,A376AZWIBALRC
902,77,,1.0,57.0,2238480677-317399.jpg,2238480278-19661.jpg,3.0,,,,A376AZWIBALRC
903,78,,1.0,58.0,2446758985-197609.jpg,2981240424-145795.jpg,1.0,,,,A376AZWIBALRC
904,79,,1.0,59.0,2592380177-354626.jpg,2864901386-286797.jpg,2.0,,,,A376AZWIBALRC
905,80,,1.0,60.0,2864907432-362042.jpg,2864901420-212147.jpg,1.0,,,,A376AZWIBALRC
906,81,,1.0,61.0,2449442529-124445.jpg,2986408373-73286.jpg,2.0,,,,A376AZWIBALRC
907,82,,1.0,62.0,2238560245-182099.jpg,2874314526-289684.jpg,2.0,,,,A376AZWIBALRC
908,83,,1.0,63.0,2460547508-51571.jpg,2981232437-369759.jpg,2.0,,,,A376AZWIBALRC
909,84,,1.0,64.0,2449442529-124446.jpg,2460547536-274181.jpg,2.0,,,,A376AZWIBALRC
910,20,,1.0,0.0,2898624426-291546.jpg,2964218432-369263.jpg,1.0,,,,A3E3H1NCSN4DQK
911,21,,1.0,1.0,2238572663-35822.jpg,2986419333-73361.jpg,1.0,,,,A3E3H1NCSN4DQK
912,22,,1.0,2.0,2874302418-65978.jpg,2238481198-19823.jpg,2.0,,,,A3E3H1NCSN4DQK
913,23,,1.0,3.0,2898618390-216538.jpg,2575120609-129862.jpg,3.0,,,,A3E3H1NCSN4DQK
914,24,,1.0,4.0,2238425482-313537.jpg,2238471391-240918.jpg,1.0,,,,A3E3H1NCSN4DQK
915,25,,1.0,5.0,2592380177-354629.jpg,2579432534-130704.jpg,2.0,,,,A3E3H1NCSN4DQK
916,26,,1.0,6.0,2238480677-317399.jpg,2238573546-258454.jpg,2.0,,,,A3E3H1NCSN4DQK
917,27,,1.0,7.0,2868474407-362883.jpg,2981246400-220363.jpg,2.0,,,,A3E3H1NCSN4DQK
918,28,,1.0,8.0,2460547508-51571.jpg,2981232437-369759.jpg,2.0,,,,A3E3H1NCSN4DQK
919,29,,1.0,9.0,2986451363-73599.jpg,2901939327-367669.jpg,1.0,,,,A3E3H1NCSN4DQK
920,30,left,1.0,10.0,left.jpg,,,left,1.422,,A3E3H1NCSN4DQK
921,31,,1.0,11.0,2874302418-65979.jpg,2413147898-43548.jpg,1.0,,,,A3E3H1NCSN4DQK
922,32,,1.0,12.0,2458347385-199723.jpg,2238480434-93829.jpg,1.0,,,,A3E3H1NCSN4DQK
923,33,,1.0,13.0,2446759803-49249.jpg,2446760601-272099.jpg,1.0,,,,A3E3H1NCSN4DQK
924,34,,1.0,14.0,2592379964-131054.jpg,2575963989-130576.jpg,1.0,,,,A3E3H1NCSN4DQK
925,35,,1.0,15.0,2864907432-362042.jpg,2989726338-74002.jpg,3.0,,,,A3E3H1NCSN4DQK
926,36,,1.0,16.0,2460547467-349422.jpg,2864909447-362146.jpg,3.0,,,,A3E3H1NCSN4DQK
927,37,left,1.0,17.0,left.jpg,,,left,1.846,,A3E3H1NCSN4DQK
928,38,,1.0,18.0,2512875899-126682.jpg,2460547536-274179.jpg,1.0,,,,A3E3H1NCSN4DQK
929,39,,1.0,19.0,2238580740-186218.jpg,2238550816-254000.jpg,1.0,,,,A3E3H1NCSN4DQK
930,40,,1.0,20.0,2449442529-124446.jpg,2898632385-217139.jpg,3.0,,,,A3E3H1NCSN4DQK
931,41,,1.0,21.0,2898635427-367120.jpg,2898621427-366486.jpg,3.0,,,,A3E3H1NCSN4DQK
932,42,,1.0,22.0,2460547467-349421.jpg,2452380166-273110.jpg,2.0,,,,A3E3H1NCSN4DQK
933,43,,1.0,23.0,2868475410-213219.jpg,2238480803-19739.jpg,2.0,,,,A3E3H1NCSN4DQK
934,44,,1.0,24.0,2901941401-292798.jpg,2883273443-68193.jpg,3.0,,,,A3E3H1NCSN4DQK
935,45,,1.0,25.0,2883256307-365057.jpg,2964210336-293945.jpg,2.0,,,,A3E3H1NCSN4DQK
936,46,,1.0,26.0,2449442529-124445.jpg,2986408373-73286.jpg,2.0,,,,A3E3H1NCSN4DQK
937,47,,1.0,27.0,2874301407-363895.jpg,2986397322-371109.jpg,2.0,,,,A3E3H1NCSN4DQK
938,48,,1.0,28.0,2238481198-19822.jpg,2862691449-137104.jpg,1.0,,,,A3E3H1NCSN4DQK
939,49,,1.0,29.0,2592380177-354626.jpg,2238117096-228518.jpg,3.0,,,,A3E3H1NCSN4DQK
940,50,,1.0,30.0,2898618444-142233.jpg,2238555262-330312.jpg,2.0,,,,A3E3H1NCSN4DQK
941,51,right,1.0,31.0,right.jpg,,,right,1.703,,A3E3H1NCSN4DQK
942,52,,1.0,32.0,2238428357-313623.jpg,2575121987-353817.jpg,3.0,,,,A3E3H1NCSN4DQK
943,53,,1.0,33.0,2452381505-199546.jpg,2994401319-148290.jpg,3.0,,,,A3E3H1NCSN4DQK
944,54,,1.0,34.0,2898633421-291973.jpg,2238550049-105691.jpg,3.0,,,,A3E3H1NCSN4DQK
945,55,,1.0,35.0,2874303365-214262.jpg,2864911457-362260.jpg,3.0,,,,A3E3H1NCSN4DQK
946,56,,1.0,36.0,2864910426-287204.jpg,2874299429-139694.jpg,2.0,,,,A3E3H1NCSN4DQK
947,57,,1.0,37.0,2964218374-144967.jpg,2964218374-144968.jpg,1.0,,,,A3E3H1NCSN4DQK
948,58,,1.0,38.0,2964216465-219242.jpg,2864900319-137787.jpg,2.0,,,,A3E3H1NCSN4DQK
949,59,left,1.0,39.0,left.jpg,,,left,2.221,,A3E3H1NCSN4DQK
950,60,,1.0,40.0,2981231403-71642.jpg,2274829821-263682.jpg,1.0,,,,A3E3H1NCSN4DQK
951,61,,1.0,41.0,2901952513-70703.jpg,2864907361-287062.jpg,1.0,,,,A3E3H1NCSN4DQK
952,62,,1.0,42.0,2981241414-145842.jpg,2427873848-47312.jpg,3.0,,,,A3E3H1NCSN4DQK
953,63,,1.0,43.0,2883254439-140941.jpg,2898632385-217136.jpg,2.0,,,,A3E3H1NCSN4DQK
954,64,,1.0,44.0,2449441881-272368.jpg,2449441881-272367.jpg,3.0,,,,A3E3H1NCSN4DQK
955,65,,1.0,45.0,2238560245-182099.jpg,2238480980-168129.jpg,3.0,,,,A3E3H1NCSN4DQK
956,66,,1.0,46.0,2898634397-367080.jpg,2964217461-294238.jpg,3.0,,,,A3E3H1NCSN4DQK
957,67,,1.0,47.0,2452380832-348593.jpg,2238328478-11678.jpg,1.0,,,,A3E3H1NCSN4DQK
958,68,,1.0,48.0,2874307433-66280.jpg,2981246400-220365.jpg,2.0,,,,A3E3H1NCSN4DQK
959,69,,1.0,49.0,2883268471-290842.jpg,2901947448-70314.jpg,3.0,,,,A3E3H1NCSN4DQK
960,70,,1.0,50.0,2901948350-218459.jpg,2804906319-133082.jpg,1.0,,,,A3E3H1NCSN4DQK
961,71,,1.0,51.0,2575120738-55529.jpg,2238531493-28260.jpg,3.0,,,,A3E3H1NCSN4DQK
962,72,,1.0,52.0,2238481928-19949.jpg,2883264367-365620.jpg,1.0,,,,A3E3H1NCSN4DQK
963,73,right,1.0,53.0,right.jpg,,,right,2.395,,A3E3H1NCSN4DQK
964,74,,1.0,54.0,2901947423-70311.jpg,2238577590-185467.jpg,3.0,,,,A3E3H1NCSN4DQK
965,75,,1.0,55.0,2446759347-347016.jpg,2901951350-218702.jpg,2.0,,,,A3E3H1NCSN4DQK
966,76,,1.0,56.0,2964213381-294060.jpg,2458348012-349114.jpg,2.0,,,,A3E3H1NCSN4DQK
967,77,,1.0,57.0,2901939379-143480.jpg,2981229442-369621.jpg,2.0,,,,A3E3H1NCSN4DQK
968,78,,1.0,58.0,2901939379-143479.jpg,2981240424-145794.jpg,3.0,,,,A3E3H1NCSN4DQK
969,79,,1.0,59.0,2446758985-197609.jpg,2981240424-145795.jpg,1.0,,,,A3E3H1NCSN4DQK
970,80,,1.0,60.0,2964223381-294447.jpg,2427874231-269884.jpg,1.0,,,,A3E3H1NCSN4DQK
971,81,,1.0,61.0,2883268412-365898.jpg,2984626312-370849.jpg,1.0,,,,A3E3H1NCSN4DQK
972,82,,1.0,62.0,2898617468-68274.jpg,2901943387-368037.jpg,2.0,,,,A3E3H1NCSN4DQK
973,83,,1.0,63.0,2874299429-139695.jpg,2901942443-69923.jpg,2.0,,,,A3E3H1NCSN4DQK
974,84,,1.0,64.0,2898635428-69104.jpg,2898625336-291572.jpg,3.0,,,,A3E3H1NCSN4DQK
975,20,,1.0,0.0,2449442529-124446.jpg,2446759803-49251.jpg,1.0,,,,A3MXI2O3JZ0TZH
976,21,,1.0,1.0,2901948350-218459.jpg,2981246360-220352.jpg,3.0,,,,A3MXI2O3JZ0TZH
977,22,,1.0,2.0,2238425482-313537.jpg,2238471391-240918.jpg,1.0,,,,A3MXI2O3JZ0TZH
978,23,,1.0,3.0,2874302418-65978.jpg,2898626385-216899.jpg,1.0,,,,A3MXI2O3JZ0TZH
979,24,,1.0,4.0,2874307433-66280.jpg,2981246400-220365.jpg,2.0,,,,A3MXI2O3JZ0TZH
980,25,,1.0,5.0,2883254439-140941.jpg,2898632385-217136.jpg,2.0,,,,A3MXI2O3JZ0TZH
981,26,,1.0,6.0,2868475410-213219.jpg,2238480803-19739.jpg,2.0,,,,A3MXI2O3JZ0TZH
982,27,,1.0,7.0,2964216465-219242.jpg,2238544191-252422.jpg,1.0,,,,A3MXI2O3JZ0TZH
983,28,,1.0,8.0,2964218374-144967.jpg,2981231446-294732.jpg,3.0,,,,A3MXI2O3JZ0TZH
984,29,left,1.0,9.0,left.jpg,,,left,0.5117,,A3MXI2O3JZ0TZH
985,30,,1.0,10.0,2964223381-294447.jpg,2898628438-68785.jpg,3.0,,,,A3MXI2O3JZ0TZH
986,31,,1.0,11.0,2446759803-49249.jpg,2898618440-216547.jpg,2.0,,,,A3MXI2O3JZ0TZH
987,32,,1.0,12.0,2898618390-216538.jpg,2575120609-129862.jpg,3.0,,,,A3MXI2O3JZ0TZH
988,33,,1.0,13.0,2864907432-362042.jpg,2901947423-70310.jpg,2.0,,,,A3MXI2O3JZ0TZH
989,34,,1.0,14.0,2458347385-199723.jpg,2238480434-93829.jpg,1.0,,,,A3MXI2O3JZ0TZH
990,35,,1.0,15.0,2986451363-73599.jpg,2901939327-367669.jpg,1.0,,,,A3MXI2O3JZ0TZH
991,36,,1.0,16.0,2864910426-287204.jpg,2874299429-139694.jpg,2.0,,,,A3MXI2O3JZ0TZH
992,37,right,1.0,17.0,right.jpg,,,right,0.3793,,A3MXI2O3JZ0TZH
993,38,,1.0,18.0,2575120738-55529.jpg,2238531493-28260.jpg,3.0,,,,A3MXI2O3JZ0TZH
994,39,,1.0,19.0,2874299429-139695.jpg,2446760917-347439.jpg,3.0,,,,A3MXI2O3JZ0TZH
995,40,,1.0,20.0,2238572663-35822.jpg,2986419333-73361.jpg,1.0,,,,A3MXI2O3JZ0TZH
996,41,,1.0,21.0,2452381505-199546.jpg,2994401319-148290.jpg,3.0,,,,A3MXI2O3JZ0TZH
997,42,,1.0,22.0,2981231403-71642.jpg,2427873763-47290.jpg,3.0,,,,A3MXI2O3JZ0TZH
998,43,,1.0,23.0,2898635427-367120.jpg,2898621427-366486.jpg,3.0,,,,A3MXI2O3JZ0TZH
999,44,,1.0,24.0,2238580740-186218.jpg,2238550816-254000.jpg,1.0,,,,A3MXI2O3JZ0TZH
1000,45,,1.0,25.0,2449442529-124445.jpg,2986408373-73286.jpg,2.0,,,,A3MXI2O3JZ0TZH
1001,46,,1.0,26.0,2460547467-349422.jpg,2898618440-216545.jpg,1.0,,,,A3MXI2O3JZ0TZH
1002,47,,1.0,27.0,2512875899-126682.jpg,2986447332-371497.jpg,3.0,,,,A3MXI2O3JZ0TZH
1003,48,,1.0,28.0,2898624426-291546.jpg,2981236443-71859.jpg,2.0,,,,A3MXI2O3JZ0TZH
1004,49,,1.0,29.0,2901941401-292798.jpg,2981243412-370222.jpg,2.0,,,,A3MXI2O3JZ0TZH
1005,50,,1.0,30.0,2883256307-365057.jpg,2864904453-63933.jpg,3.0,,,,A3MXI2O3JZ0TZH
1006,51,,1.0,31.0,2460547467-349421.jpg,2981235446-294901.jpg,3.0,,,,A3MXI2O3JZ0TZH
1007,52,,1.0,32.0,2592380177-354629.jpg,2512875587-350044.jpg,3.0,,,,A3MXI2O3JZ0TZH
1008,53,,1.0,33.0,2592380177-354626.jpg,2238117096-228518.jpg,3.0,,,,A3MXI2O3JZ0TZH
1009,54,right,1.0,34.0,right.jpg,,,right,0.479,,A3MXI2O3JZ0TZH
1010,55,,1.0,35.0,2883268471-290842.jpg,2883268471-290843.jpg,1.0,,,,A3MXI2O3JZ0TZH
1011,56,,1.0,36.0,2238560245-182099.jpg,2238480980-168129.jpg,3.0,,,,A3MXI2O3JZ0TZH
1012,57,,1.0,37.0,2592379964-131054.jpg,2238479053-19457.jpg,2.0,,,,A3MXI2O3JZ0TZH
1013,58,,1.0,38.0,2874302418-65979.jpg,2413147898-43548.jpg,1.0,,,,A3MXI2O3JZ0TZH
1014,59,,1.0,39.0,2901939379-143479.jpg,2981240424-145794.jpg,3.0,,,,A3MXI2O3JZ0TZH
1015,60,left,1.0,40.0,left.jpg,,,left,0.5271,,A3MXI2O3JZ0TZH
1016,61,,1.0,41.0,2446758985-197609.jpg,2864909447-362144.jpg,2.0,,,,A3MXI2O3JZ0TZH
1017,62,,1.0,42.0,2874301407-363895.jpg,2883264368-67631.jpg,1.0,,,,A3MXI2O3JZ0TZH
1018,63,,1.0,43.0,2460547508-51571.jpg,2460547291-274110.jpg,1.0,,,,A3MXI2O3JZ0TZH
1019,64,,1.0,44.0,2964213381-294060.jpg,2458348012-349114.jpg,2.0,,,,A3MXI2O3JZ0TZH
1020,65,,1.0,45.0,2901952513-70703.jpg,2868469411-287540.jpg,2.0,,,,A3MXI2O3JZ0TZH
1021,66,right,1.0,46.0,right.jpg,,,right,0.3856,,A3MXI2O3JZ0TZH
1022,67,,1.0,47.0,2238481928-19949.jpg,2883264367-365620.jpg,1.0,,,,A3MXI2O3JZ0TZH
1023,68,,1.0,48.0,2901939379-143480.jpg,2901942428-69919.jpg,1.0,,,,A3MXI2O3JZ0TZH
1024,69,,1.0,49.0,2898633421-291973.jpg,2512876023-52283.jpg,1.0,,,,A3MXI2O3JZ0TZH
1025,70,,1.0,50.0,2449441881-272368.jpg,2984615358-72439.jpg,2.0,,,,A3MXI2O3JZ0TZH
1026,71,,1.0,51.0,2898617468-68274.jpg,2964207374-144577.jpg,3.0,,,,A3MXI2O3JZ0TZH
1027,72,,1.0,52.0,2898634397-367080.jpg,2237944827-301472.jpg,1.0,,,,A3MXI2O3JZ0TZH
1028,73,,1.0,53.0,2452380832-348593.jpg,2238328478-11678.jpg,1.0,,,,A3MXI2O3JZ0TZH
1029,74,,1.0,54.0,2446759347-347016.jpg,2238569117-333045.jpg,3.0,,,,A3MXI2O3JZ0TZH
1030,75,,1.0,55.0,2898635428-69104.jpg,2898625336-291572.jpg,3.0,,,,A3MXI2O3JZ0TZH
1031,76,,1.0,56.0,2238480677-317399.jpg,2238573546-258454.jpg,2.0,,,,A3MXI2O3JZ0TZH
1032,77,,1.0,57.0,2238481198-19822.jpg,2901946436-293242.jpg,2.0,,,,A3MXI2O3JZ0TZH
1033,78,,1.0,58.0,2981241414-145842.jpg,2856919327-359676.jpg,1.0,,,,A3MXI2O3JZ0TZH
1034,79,,1.0,59.0,2868474407-362883.jpg,2981246400-220363.jpg,2.0,,,,A3MXI2O3JZ0TZH
1035,80,,1.0,60.0,2874303365-214262.jpg,2609793677-355397.jpg,1.0,,,,A3MXI2O3JZ0TZH
1036,81,,1.0,61.0,2883268412-365898.jpg,2984615361-295510.jpg,2.0,,,,A3MXI2O3JZ0TZH
1037,82,,1.0,62.0,2901947423-70311.jpg,2238577590-185467.jpg,3.0,,,,A3MXI2O3JZ0TZH
1038,83,,1.0,63.0,2238428357-313623.jpg,2984615361-295509.jpg,2.0,,,,A3MXI2O3JZ0TZH
1039,84,,1.0,64.0,2898618444-142233.jpg,2238555262-330312.jpg,2.0,,,,A3MXI2O3JZ0TZH
1040,20,,1.0,0.0,2874301407-363895.jpg,2986397322-371109.jpg,2.0,,,,A3TACK9NUMFBZA
1041,21,,1.0,1.0,2898633421-291973.jpg,2238550049-105691.jpg,3.0,,,,A3TACK9NUMFBZA
1042,22,,1.0,2.0,2981231403-71642.jpg,2981244403-72215.jpg,2.0,,,,A3TACK9NUMFBZA
1043,23,,1.0,3.0,2901947423-70311.jpg,2238573447-333826.jpg,2.0,,,,A3TACK9NUMFBZA
1044,24,,1.0,4.0,2575120738-55529.jpg,2238531493-28260.jpg,3.0,,,,A3TACK9NUMFBZA
1045,25,,1.0,5.0,2964216465-219242.jpg,2898619327-366362.jpg,3.0,,,,A3TACK9NUMFBZA
1046,26,right,1.0,6.0,right.jpg,,,right,0.7124,,A3TACK9NUMFBZA
1047,27,,1.0,7.0,2868474407-362883.jpg,2901948383-70363.jpg,3.0,,,,A3TACK9NUMFBZA
1048,28,,1.0,8.0,2964213381-294060.jpg,2458348012-349114.jpg,2.0,,,,A3TACK9NUMFBZA
1049,29,,1.0,9.0,2592379964-131054.jpg,2238479053-19457.jpg,2.0,,,,A3TACK9NUMFBZA
1050,30,,1.0,10.0,2452381505-199546.jpg,2901938432-367627.jpg,1.0,,,,A3TACK9NUMFBZA
1051,31,,1.0,11.0,2898618444-142233.jpg,2898618444-142232.jpg,3.0,,,,A3TACK9NUMFBZA
1052,32,,1.0,12.0,2874303365-214262.jpg,2238563377-332054.jpg,2.0,,,,A3TACK9NUMFBZA
1053,33,,1.0,13.0,2452380832-348593.jpg,2238481813-19930.jpg,2.0,,,,A3TACK9NUMFBZA
1054,34,,1.0,14.0,2883268471-290842.jpg,2883268471-290843.jpg,1.0,,,,A3TACK9NUMFBZA
1055,35,,1.0,15.0,2874302418-65979.jpg,2238578544-111698.jpg,3.0,,,,A3TACK9NUMFBZA
1056,36,,1.0,16.0,2864910426-287204.jpg,2874299429-139694.jpg,2.0,,,,A3TACK9NUMFBZA
1057,37,,1.0,17.0,2238480677-317399.jpg,2238481630-168218.jpg,1.0,,,,A3TACK9NUMFBZA
1058,38,left,1.0,18.0,left.jpg,,,left,0.8806,,A3TACK9NUMFBZA
1059,39,,1.0,19.0,2901952513-70703.jpg,2868469411-287540.jpg,2.0,,,,A3TACK9NUMFBZA
1060,40,,1.0,20.0,2592380177-354626.jpg,2238117096-228518.jpg,3.0,,,,A3TACK9NUMFBZA
1061,41,,1.0,21.0,2901939379-143479.jpg,2460547467-349423.jpg,1.0,,,,A3TACK9NUMFBZA
1062,42,,1.0,22.0,2238572663-35822.jpg,2238571930-184143.jpg,2.0,,,,A3TACK9NUMFBZA
1063,43,,1.0,23.0,2898634397-367080.jpg,2901934408-69289.jpg,2.0,,,,A3TACK9NUMFBZA
1064,44,,1.0,24.0,2874299429-139695.jpg,2883266388-67750.jpg,1.0,,,,A3TACK9NUMFBZA
1065,45,,1.0,25.0,2883256307-365057.jpg,2611628310-206388.jpg,1.0,,,,A3TACK9NUMFBZA
1066,46,,1.0,26.0,2981241414-145842.jpg,2427873848-47312.jpg,3.0,,,,A3TACK9NUMFBZA
1067,47,,1.0,27.0,2238580740-186218.jpg,2964220333-71258.jpg,3.0,,,,A3TACK9NUMFBZA
1068,48,,1.0,28.0,2238425482-313537.jpg,2898633480-217190.jpg,3.0,,,,A3TACK9NUMFBZA
1069,49,,1.0,29.0,2864907432-362042.jpg,2901947423-70310.jpg,2.0,,,,A3TACK9NUMFBZA
1070,50,,1.0,30.0,2964223381-294447.jpg,2427874231-269884.jpg,1.0,,,,A3TACK9NUMFBZA
1071,51,,1.0,31.0,2238481198-19822.jpg,2238480803-19737.jpg,3.0,,,,A3TACK9NUMFBZA
1072,52,,1.0,32.0,2449442529-124445.jpg,2452380171-273112.jpg,1.0,,,,A3TACK9NUMFBZA
1073,53,,1.0,33.0,2460547467-349421.jpg,2898631394-142727.jpg,1.0,,,,A3TACK9NUMFBZA
1074,54,right,1.0,34.0,right.jpg,,,right,0.7855,,A3TACK9NUMFBZA
1075,55,,1.0,35.0,2460547467-349422.jpg,2864909447-362146.jpg,3.0,,,,A3TACK9NUMFBZA
1076,56,,1.0,36.0,2901948350-218459.jpg,2804906319-133082.jpg,1.0,,,,A3TACK9NUMFBZA
1077,57,,1.0,37.0,2446759803-49249.jpg,2446760601-272099.jpg,1.0,,,,A3TACK9NUMFBZA
1078,58,,1.0,38.0,2874302418-65978.jpg,2898626385-216899.jpg,1.0,,,,A3TACK9NUMFBZA
1079,59,,1.0,39.0,2446759347-347016.jpg,2238569117-333045.jpg,3.0,,,,A3TACK9NUMFBZA
1080,60,,1.0,40.0,2446758985-197609.jpg,2981240424-145795.jpg,1.0,,,,A3TACK9NUMFBZA
1081,61,,1.0,41.0,2874307433-66280.jpg,2986447306-296584.jpg,1.0,,,,A3TACK9NUMFBZA
1082,62,,1.0,42.0,2592380177-354629.jpg,2579432534-130704.jpg,2.0,,,,A3TACK9NUMFBZA
1083,63,,1.0,43.0,2883268412-365898.jpg,2984615361-295510.jpg,2.0,,,,A3TACK9NUMFBZA
1084,64,left,1.0,44.0,left.jpg,,,left,0.6707,,A3TACK9NUMFBZA
1085,65,,1.0,45.0,2868475410-213219.jpg,2901946465-218350.jpg,1.0,,,,A3TACK9NUMFBZA
1086,66,,1.0,46.0,2901939379-143480.jpg,2901942428-69919.jpg,1.0,,,,A3TACK9NUMFBZA
1087,67,,1.0,47.0,2901941401-292798.jpg,2883273443-68193.jpg,3.0,,,,A3TACK9NUMFBZA
1088,68,,1.0,48.0,2238428357-313623.jpg,2238499057-320266.jpg,1.0,,,,A3TACK9NUMFBZA
1089,69,,1.0,49.0,2449442529-124446.jpg,2460547536-274181.jpg,2.0,,,,A3TACK9NUMFBZA
1090,70,left,1.0,50.0,left.jpg,,,left,0.9122,,A3TACK9NUMFBZA
1091,71,,1.0,51.0,2238481928-19949.jpg,2864900357-361688.jpg,2.0,,,,A3TACK9NUMFBZA
1092,72,,1.0,52.0,2898635427-367120.jpg,2898621427-366486.jpg,3.0,,,,A3TACK9NUMFBZA
1093,73,,1.0,53.0,2883254439-140941.jpg,2898632385-217136.jpg,2.0,,,,A3TACK9NUMFBZA
1094,74,,1.0,54.0,2898617468-68274.jpg,2864906345-212360.jpg,1.0,,,,A3TACK9NUMFBZA
1095,75,,1.0,55.0,2458347385-199723.jpg,2458347252-348911.jpg,3.0,,,,A3TACK9NUMFBZA
1096,76,,1.0,56.0,2238560245-182099.jpg,2874314526-289684.jpg,2.0,,,,A3TACK9NUMFBZA
1097,77,,1.0,57.0,2964218374-144967.jpg,2883254439-140940.jpg,2.0,,,,A3TACK9NUMFBZA
1098,78,,1.0,58.0,2898635428-69104.jpg,2898625336-291572.jpg,3.0,,,,A3TACK9NUMFBZA
1099,79,,1.0,59.0,2898618390-216538.jpg,2575120609-129862.jpg,3.0,,,,A3TACK9NUMFBZA
1100,80,,1.0,60.0,2449441881-272368.jpg,2883268412-365899.jpg,1.0,,,,A3TACK9NUMFBZA
1101,81,,1.0,61.0,2512875899-126682.jpg,2592380177-354628.jpg,2.0,,,,A3TACK9NUMFBZA
1102,82,,1.0,62.0,2898624426-291546.jpg,2981235446-294900.jpg,3.0,,,,A3TACK9NUMFBZA
1103,83,,1.0,63.0,2460547508-51571.jpg,2901941438-69835.jpg,3.0,,,,A3TACK9NUMFBZA
1104,84,,1.0,64.0,2986451363-73599.jpg,2901939327-367669.jpg,1.0,,,,A3TACK9NUMFBZA
1105,20,,1.0,0.0,2898635428-69104.jpg,2898625336-291572.jpg,3.0,,,,A5NE8TWS8ZV7B
1106,21,,1.0,1.0,2452380832-348593.jpg,2449442181-272436.jpg,3.0,,,,A5NE8TWS8ZV7B
1107,22,,1.0,2.0,2446759803-49249.jpg,2446760601-272099.jpg,1.0,,,,A5NE8TWS8ZV7B
1108,23,,1.0,3.0,2898617468-68274.jpg,2864906345-212360.jpg,1.0,,,,A5NE8TWS8ZV7B
1109,24,,1.0,4.0,2986451363-73599.jpg,2901939327-367669.jpg,1.0,,,,A5NE8TWS8ZV7B
1110,25,,1.0,5.0,2592380177-354626.jpg,2238117096-228518.jpg,3.0,,,,A5NE8TWS8ZV7B
1111,26,,1.0,6.0,2238428357-313623.jpg,2984615361-295509.jpg,2.0,,,,A5NE8TWS8ZV7B
1112,27,,1.0,7.0,2874307433-66280.jpg,2986447306-296584.jpg,1.0,,,,A5NE8TWS8ZV7B
1113,28,,1.0,8.0,2864907432-362042.jpg,2864901420-212147.jpg,1.0,,,,A5NE8TWS8ZV7B
1114,29,,1.0,9.0,2238572663-35822.jpg,2864903351-286874.jpg,3.0,,,,A5NE8TWS8ZV7B
1115,30,,1.0,10.0,2449442529-124445.jpg,2986408373-73286.jpg,2.0,,,,A5NE8TWS8ZV7B
1116,31,,1.0,11.0,2964213381-294060.jpg,2981244394-145974.jpg,1.0,,,,A5NE8TWS8ZV7B
1117,32,,1.0,12.0,2898635427-367120.jpg,2868479517-363220.jpg,2.0,,,,A5NE8TWS8ZV7B
1118,33,right,1.0,13.0,right.jpg,,,right,0.655,,A5NE8TWS8ZV7B
1119,34,,1.0,14.0,2901947423-70311.jpg,2238577590-185467.jpg,3.0,,,,A5NE8TWS8ZV7B
1120,35,,1.0,15.0,2592379964-131054.jpg,2575963989-130576.jpg,1.0,,,,A5NE8TWS8ZV7B
1121,36,left,1.0,16.0,left.jpg,,,left,0.606,,A5NE8TWS8ZV7B
1122,37,,1.0,17.0,2868474407-362883.jpg,2238516618-25604.jpg,1.0,,,,A5NE8TWS8ZV7B
1123,38,,1.0,18.0,2458347385-199723.jpg,2238480434-93829.jpg,1.0,,,,A5NE8TWS8ZV7B
1124,39,,1.0,19.0,2964223381-294447.jpg,2427874231-269884.jpg,1.0,,,,A5NE8TWS8ZV7B
1125,40,,1.0,20.0,2449441881-272368.jpg,2883268412-365899.jpg,1.0,,,,A5NE8TWS8ZV7B
1126,41,,1.0,21.0,2898618444-142233.jpg,2238555262-330312.jpg,2.0,,,,A5NE8TWS8ZV7B
1127,42,,1.0,22.0,2883268471-290842.jpg,2883268471-290843.jpg,1.0,,,,A5NE8TWS8ZV7B
1128,43,,1.0,23.0,2868475410-213219.jpg,2238480803-19739.jpg,2.0,,,,A5NE8TWS8ZV7B
1129,44,,1.0,24.0,2452381505-199546.jpg,2994401319-148290.jpg,3.0,,,,A5NE8TWS8ZV7B
1130,45,,1.0,25.0,2864910426-287204.jpg,2864902304-137862.jpg,1.0,,,,A5NE8TWS8ZV7B
1131,46,,1.0,26.0,2874299429-139695.jpg,2901942443-69923.jpg,2.0,,,,A5NE8TWS8ZV7B
1132,47,,1.0,27.0,2446759347-347016.jpg,2901951350-218702.jpg,2.0,,,,A5NE8TWS8ZV7B
1133,48,,1.0,28.0,2981241414-145842.jpg,2427873848-47312.jpg,3.0,,,,A5NE8TWS8ZV7B
1134,49,,1.0,29.0,2874302418-65979.jpg,2413147898-43548.jpg,1.0,,,,A5NE8TWS8ZV7B
1135,50,,1.0,30.0,2238481198-19822.jpg,2901946436-293242.jpg,2.0,,,,A5NE8TWS8ZV7B
1136,51,,1.0,31.0,2964216465-219242.jpg,2898619327-366362.jpg,3.0,,,,A5NE8TWS8ZV7B
1137,52,right,1.0,32.0,right.jpg,,,right,0.661,,A5NE8TWS8ZV7B
1138,53,,1.0,33.0,2898634397-367080.jpg,2901934408-69289.jpg,2.0,,,,A5NE8TWS8ZV7B
1139,54,,1.0,34.0,2460547467-349422.jpg,2864909447-362146.jpg,3.0,,,,A5NE8TWS8ZV7B
1140,55,,1.0,35.0,2901941401-292798.jpg,2898618327-366317.jpg,1.0,,,,A5NE8TWS8ZV7B
1141,56,,1.0,36.0,2898633421-291973.jpg,2238550049-105691.jpg,3.0,,,,A5NE8TWS8ZV7B
1142,57,,1.0,37.0,2592380177-354629.jpg,2579432534-130704.jpg,2.0,,,,A5NE8TWS8ZV7B
1143,58,,1.0,38.0,2901939379-143480.jpg,2981229442-369621.jpg,2.0,,,,A5NE8TWS8ZV7B
1144,59,,1.0,39.0,2874303365-214262.jpg,2609793677-355397.jpg,1.0,,,,A5NE8TWS8ZV7B
1145,60,,1.0,40.0,2512875899-126682.jpg,2986447332-371497.jpg,3.0,,,,A5NE8TWS8ZV7B
1146,61,,1.0,41.0,2874301407-363895.jpg,2986397322-371109.jpg,2.0,,,,A5NE8TWS8ZV7B
1147,62,,1.0,42.0,2460547467-349421.jpg,2981235446-294901.jpg,3.0,,,,A5NE8TWS8ZV7B
1148,63,,1.0,43.0,2238560245-182099.jpg,2238480980-168129.jpg,3.0,,,,A5NE8TWS8ZV7B
1149,64,right,1.0,44.0,right.jpg,,,right,0.618,,A5NE8TWS8ZV7B
1150,65,,1.0,45.0,2898624426-291546.jpg,2964218432-369263.jpg,1.0,,,,A5NE8TWS8ZV7B
1151,66,,1.0,46.0,2449442529-124446.jpg,2898632385-217139.jpg,3.0,,,,A5NE8TWS8ZV7B
1152,67,,1.0,47.0,2883256307-365057.jpg,2864904453-63933.jpg,3.0,,,,A5NE8TWS8ZV7B
1153,68,,1.0,48.0,2901948350-218459.jpg,2804906319-133082.jpg,1.0,,,,A5NE8TWS8ZV7B
1154,69,,1.0,49.0,2238480677-317399.jpg,2238480278-19661.jpg,3.0,,,,A5NE8TWS8ZV7B
1155,70,,1.0,50.0,2901939379-143479.jpg,2446758985-197610.jpg,2.0,,,,A5NE8TWS8ZV7B
1156,71,,1.0,51.0,2901952513-70703.jpg,2238481198-19821.jpg,3.0,,,,A5NE8TWS8ZV7B
1157,72,left,1.0,52.0,left.jpg,,,left,0.63,,A5NE8TWS8ZV7B
1158,73,,1.0,53.0,2238425482-313537.jpg,2238436322-314047.jpg,2.0,,,,A5NE8TWS8ZV7B
1159,74,,1.0,54.0,2981231403-71642.jpg,2427873763-47290.jpg,3.0,,,,A5NE8TWS8ZV7B
1160,75,,1.0,55.0,2238481928-19949.jpg,2864900357-361688.jpg,2.0,,,,A5NE8TWS8ZV7B
1161,76,,1.0,56.0,2238580740-186218.jpg,2238521193-26285.jpg,2.0,,,,A5NE8TWS8ZV7B
1162,77,,1.0,57.0,2883254439-140941.jpg,2446760844-124088.jpg,1.0,,,,A5NE8TWS8ZV7B
1163,78,,1.0,58.0,2883268412-365898.jpg,2984615361-295510.jpg,2.0,,,,A5NE8TWS8ZV7B
1164,79,,1.0,59.0,2446758985-197609.jpg,2864909447-362144.jpg,2.0,,,,A5NE8TWS8ZV7B
1165,80,,1.0,60.0,2460547508-51571.jpg,2901941438-69835.jpg,3.0,,,,A5NE8TWS8ZV7B
1166,81,,1.0,61.0,2898618390-216538.jpg,2575120609-129862.jpg,3.0,,,,A5NE8TWS8ZV7B
1167,82,,1.0,62.0,2874302418-65978.jpg,2238481198-19823.jpg,2.0,,,,A5NE8TWS8ZV7B
1168,83,,1.0,63.0,2575120738-55529.jpg,2898632385-217138.jpg,1.0,,,,A5NE8TWS8ZV7B
1169,84,,1.0,64.0,2964218374-144967.jpg,2883254439-140940.jpg,2.0,,,,A5NE8TWS8ZV7B
1170,20,,1.0,0.0,2460547467-349421.jpg,2452380166-273110.jpg,2.0,,,,AAGENOEV955DM
1171,21,,1.0,1.0,2460547467-349422.jpg,2864909447-362146.jpg,3.0,,,,AAGENOEV955DM
1172,22,,1.0,2.0,2868475410-213219.jpg,2868474407-362885.jpg,3.0,,,,AAGENOEV955DM
1173,23,,1.0,3.0,2898635427-367120.jpg,2901946439-144040.jpg,1.0,,,,AAGENOEV955DM
1174,24,,1.0,4.0,2592380177-354629.jpg,2512875587-350044.jpg,3.0,,,,AAGENOEV955DM
1175,25,,1.0,5.0,2883268412-365898.jpg,2238436252-314037.jpg,3.0,,,,AAGENOEV955DM
1176,26,,1.0,6.0,2238481928-19949.jpg,2981241419-145844.jpg,3.0,,,,AAGENOEV955DM
1177,27,,1.0,7.0,2575120738-55529.jpg,2575120738-55528.jpg,2.0,,,,AAGENOEV955DM
1178,28,,1.0,8.0,2898618390-216538.jpg,2901939327-367670.jpg,2.0,,,,AAGENOEV955DM
1179,29,,1.0,9.0,2452381505-199546.jpg,2901938432-367627.jpg,1.0,,,,AAGENOEV955DM
1180,30,,1.0,10.0,2964218374-144967.jpg,2981231446-294732.jpg,3.0,,,,AAGENOEV955DM
1181,31,,1.0,11.0,2883254439-140941.jpg,2898632385-217136.jpg,2.0,,,,AAGENOEV955DM
1182,32,,1.0,12.0,2592379964-131054.jpg,2592380272-354673.jpg,3.0,,,,AAGENOEV955DM
1183,33,left,1.0,13.0,left.jpg,,,left,0.9687,,AAGENOEV955DM
1184,34,,1.0,14.0,2898634397-367080.jpg,2964217461-294238.jpg,3.0,,,,AAGENOEV955DM
1185,35,,1.0,15.0,2864907432-362042.jpg,2901947423-70310.jpg,2.0,,,,AAGENOEV955DM
1186,36,,1.0,16.0,2874299429-139695.jpg,2901942443-69923.jpg,2.0,,,,AAGENOEV955DM
1187,37,,1.0,17.0,2981241414-145842.jpg,2427873848-47312.jpg,3.0,,,,AAGENOEV955DM
1188,38,,1.0,18.0,2883268471-290842.jpg,2901947448-70314.jpg,3.0,,,,AAGENOEV955DM
1189,39,,1.0,19.0,2964213381-294060.jpg,2981244394-145974.jpg,1.0,,,,AAGENOEV955DM
1190,40,,1.0,20.0,2452380832-348593.jpg,2449442181-272436.jpg,3.0,,,,AAGENOEV955DM
1191,41,,1.0,21.0,2964216465-219242.jpg,2864900319-137787.jpg,2.0,,,,AAGENOEV955DM
1192,42,,1.0,22.0,2901941401-292798.jpg,2981243412-370222.jpg,2.0,,,,AAGENOEV955DM
1193,43,left,1.0,23.0,left.jpg,,,left,0.8788,,AAGENOEV955DM
1194,44,,1.0,24.0,2874301407-363895.jpg,2883264368-67631.jpg,1.0,,,,AAGENOEV955DM
1195,45,,1.0,25.0,2238560245-182099.jpg,2549106624-127823.jpg,1.0,,,,AAGENOEV955DM
1196,46,,1.0,26.0,2986451363-73599.jpg,2901939327-367669.jpg,1.0,,,,AAGENOEV955DM
1197,47,,1.0,27.0,2446759347-347016.jpg,2964224310-219528.jpg,1.0,,,,AAGENOEV955DM
1198,48,,1.0,28.0,2238428357-313623.jpg,2238499057-320266.jpg,1.0,,,,AAGENOEV955DM
1199,49,,1.0,29.0,2901947423-70311.jpg,2238577590-185467.jpg,3.0,,,,AAGENOEV955DM
1200,50,,1.0,30.0,2238481198-19822.jpg,2862691449-137104.jpg,1.0,,,,AAGENOEV955DM
1201,51,,1.0,31.0,2901939379-143480.jpg,2901938432-367629.jpg,3.0,,,,AAGENOEV955DM
1202,52,left,1.0,32.0,left.jpg,,,left,0.8825,,AAGENOEV955DM
1203,53,,1.0,33.0,2874302418-65978.jpg,2898633321-291943.jpg,3.0,,,,AAGENOEV955DM
1204,54,,1.0,34.0,2901948350-218459.jpg,2417208001-267065.jpg,2.0,,,,AAGENOEV955DM
1205,55,,1.0,35.0,2883256307-365057.jpg,2864904453-63933.jpg,3.0,,,,AAGENOEV955DM
1206,56,,1.0,36.0,2901952513-70703.jpg,2238481198-19821.jpg,3.0,,,,AAGENOEV955DM
1207,57,,1.0,37.0,2864910426-287204.jpg,2874299429-139694.jpg,2.0,,,,AAGENOEV955DM
1208,58,,1.0,38.0,2446758985-197609.jpg,2864909447-362144.jpg,2.0,,,,AAGENOEV955DM
1209,59,right,1.0,39.0,right.jpg,,,right,0.9699,,AAGENOEV955DM
1210,60,,1.0,40.0,2446759803-49249.jpg,2446760601-272099.jpg,1.0,,,,AAGENOEV955DM
1211,61,,1.0,41.0,2238425482-313537.jpg,2238436322-314047.jpg,2.0,,,,AAGENOEV955DM
1212,62,,1.0,42.0,2901939379-143479.jpg,2460547467-349423.jpg,1.0,,,,AAGENOEV955DM
1213,63,,1.0,43.0,2898624426-291546.jpg,2981236443-71859.jpg,2.0,,,,AAGENOEV955DM
1214,64,,1.0,44.0,2238572663-35822.jpg,2986419333-73361.jpg,1.0,,,,AAGENOEV955DM
1215,65,,1.0,45.0,2874302418-65979.jpg,2238480648-19714.jpg,2.0,,,,AAGENOEV955DM
1216,66,,1.0,46.0,2449442529-124445.jpg,2452380171-273112.jpg,1.0,,,,AAGENOEV955DM
1217,67,,1.0,47.0,2449441881-272368.jpg,2984615358-72439.jpg,2.0,,,,AAGENOEV955DM
1218,68,right,1.0,48.0,right.jpg,,,right,1.1263,,AAGENOEV955DM
1219,69,,1.0,49.0,2512875899-126682.jpg,2986447332-371497.jpg,3.0,,,,AAGENOEV955DM
1220,70,,1.0,50.0,2449442529-124446.jpg,2446759803-49251.jpg,1.0,,,,AAGENOEV955DM
1221,71,,1.0,51.0,2874303365-214262.jpg,2238563377-332054.jpg,2.0,,,,AAGENOEV955DM
1222,72,,1.0,52.0,2460547508-51571.jpg,2981232437-369759.jpg,2.0,,,,AAGENOEV955DM
1223,73,,1.0,53.0,2898618444-142233.jpg,2238555262-330312.jpg,2.0,,,,AAGENOEV955DM
1224,74,,1.0,54.0,2868474407-362883.jpg,2901948383-70363.jpg,3.0,,,,AAGENOEV955DM
1225,75,,1.0,55.0,2898617468-68274.jpg,2864906345-212360.jpg,1.0,,,,AAGENOEV955DM
1226,76,,1.0,56.0,2238580740-186218.jpg,2238521193-26285.jpg,2.0,,,,AAGENOEV955DM
1227,77,,1.0,57.0,2592380177-354626.jpg,2986408339-146952.jpg,1.0,,,,AAGENOEV955DM
1228,78,,1.0,58.0,2981231403-71642.jpg,2274829821-263682.jpg,1.0,,,,AAGENOEV955DM
1229,79,,1.0,59.0,2898633421-291973.jpg,2575118671-277663.jpg,2.0,,,,AAGENOEV955DM
1230,80,,1.0,60.0,2964223381-294447.jpg,2898628438-68785.jpg,3.0,,,,AAGENOEV955DM
1231,81,,1.0,61.0,2458347385-199723.jpg,2238480434-93829.jpg,1.0,,,,AAGENOEV955DM
1232,82,,1.0,62.0,2238480677-317399.jpg,2238481630-168218.jpg,1.0,,,,AAGENOEV955DM
1233,83,,1.0,63.0,2898635428-69104.jpg,2898625336-291572.jpg,3.0,,,,AAGENOEV955DM
1234,84,,1.0,64.0,2874307433-66280.jpg,2986447306-296584.jpg,1.0,,,,AAGENOEV955DM
1235,20,,1.0,0.0,2238572663-35822.jpg,2238571930-184143.jpg,2.0,,,,AUZP4FPD6UTNU
1236,21,,1.0,1.0,2238481198-19822.jpg,2238480803-19737.jpg,3.0,,,,AUZP4FPD6UTNU
