,layer,correct,test_test_response.keys,test_test_response.corr,test_test_response.rt,trials_2.thisRepN,trials_2.thisTrialN,trials_2.thisN,trials_2.thisIndex,trials_2.ran,image1,image2,subject
0,3.0,left,right,0.0,15.139,0.0,0.0,0.0,0.0,1.0,2898634397-367080.jpg,2964217461-294238.jpg,A1D8EUOJW3MX7N
1,2.0,left,right,0.0,4.841,0.0,1.0,1.0,1.0,1.0,2883268471-290842.jpg,2883255450-215310.jpg,A1D8EUOJW3MX7N
2,2.0,left,left,1.0,3.812800001,0.0,2.0,2.0,2.0,1.0,2592380177-354626.jpg,2864901386-286797.jpg,A1D8EUOJW3MX7N
3,2.0,left,left,1.0,2.109799999,0.0,3.0,3.0,3.0,1.0,2238572663-35822.jpg,2238571930-184143.jpg,A1D8EUOJW3MX7N
4,1.0,right,right,1.0,1.987299999,0.0,4.0,4.0,4.0,1.0,2964218374-144968.jpg,2964218374-144967.jpg,A1D8EUOJW3MX7N
5,2.0,left,right,0.0,3.195799999,0.0,5.0,5.0,5.0,1.0,2981231403-71642.jpg,2981244403-72215.jpg,A1D8EUOJW3MX7N
6,1.0,right,right,1.0,2.5256,0.0,6.0,6.0,6.0,1.0,2901942428-69919.jpg,2901939379-143480.jpg,A1D8EUOJW3MX7N
7,3.0,right,left,0.0,1.4861,0.0,7.0,7.0,7.0,1.0,2898621427-366486.jpg,2898635427-367120.jpg,A1D8EUOJW3MX7N
8,1.0,right,left,0.0,1.586200001,0.0,8.0,8.0,8.0,1.0,2238544191-252422.jpg,2964216465-219242.jpg,A1D8EUOJW3MX7N
9,3.0,right,left,0.0,2.980400002,0.0,9.0,9.0,9.0,1.0,2898632385-217137.jpg,2449442529-124445.jpg,A1D8EUOJW3MX7N
10,2.0,left,right,0.0,1.7129,0.0,10.0,10.0,10.0,1.0,2238580740-186218.jpg,2238521193-26285.jpg,A1D8EUOJW3MX7N
11,3.0,left,right,0.0,4.094800001,0.0,11.0,11.0,11.0,1.0,2868475410-213219.jpg,2868474407-362885.jpg,A1D8EUOJW3MX7N
12,1.0,right,left,0.0,3.949200001,0.0,12.0,12.0,12.0,1.0,2898626385-216899.jpg,2874302418-65978.jpg,A1D8EUOJW3MX7N
13,1.0,right,left,0.0,1.9225,0.0,13.0,13.0,13.0,1.0,2238499057-320266.jpg,2238428357-313623.jpg,A1D8EUOJW3MX7N
14,3.0,left,right,0.0,1.8445,0.0,14.0,14.0,14.0,1.0,2460547508-51571.jpg,2901941438-69835.jpg,A1D8EUOJW3MX7N
15,3.0,right,right,1.0,2.8204,0.0,15.0,15.0,15.0,1.0,2964213381-294061.jpg,2964213381-294060.jpg,A1D8EUOJW3MX7N
16,3.0,right,left,0.0,1.454299999,0.0,16.0,16.0,16.0,1.0,2238569117-333045.jpg,2446759347-347016.jpg,A1D8EUOJW3MX7N
17,2.0,right,right,1.0,3.2715,0.0,17.0,17.0,17.0,1.0,2864900357-361688.jpg,2238481928-19949.jpg,A1D8EUOJW3MX7N
18,2.0,left,left,1.0,3.717200001,0.0,18.0,18.0,18.0,1.0,2898617468-68274.jpg,2901943387-368037.jpg,A1D8EUOJW3MX7N
19,2.0,right,right,1.0,5.98,0.0,19.0,19.0,19.0,1.0,2592380177-354628.jpg,2512875899-126682.jpg,A1D8EUOJW3MX7N
20,1.0,left,left,1.0,1.849199999,0.0,20.0,20.0,20.0,1.0,2901939379-143479.jpg,2460547467-349423.jpg,A1D8EUOJW3MX7N
21,1.0,right,right,1.0,2.522,0.0,21.0,21.0,21.0,1.0,2413147898-43548.jpg,2874302418-65979.jpg,A1D8EUOJW3MX7N
22,2.0,left,left,1.0,2.4746,0.0,22.0,22.0,22.0,1.0,2575120738-55529.jpg,2575120738-55528.jpg,A1D8EUOJW3MX7N
23,1.0,right,right,1.0,2.600400002,0.0,23.0,23.0,23.0,1.0,2898631359-142721.jpg,2898618444-142233.jpg,A1D8EUOJW3MX7N
24,3.0,right,right,1.0,1.7544,0.0,24.0,24.0,24.0,1.0,2512875587-350044.jpg,2592380177-354629.jpg,A1D8EUOJW3MX7N
25,3.0,right,left,0.0,1.812700001,0.0,25.0,25.0,25.0,1.0,2238480278-19661.jpg,2238480677-317399.jpg,A1D8EUOJW3MX7N
26,1.0,left,left,1.0,1.647200001,0.0,26.0,26.0,26.0,1.0,2883268412-365898.jpg,2984626312-370849.jpg,A1D8EUOJW3MX7N
27,3.0,left,right,0.0,2.777700001,0.0,27.0,27.0,27.0,1.0,2868474407-362883.jpg,2901948383-70363.jpg,A1D8EUOJW3MX7N
28,2.0,right,left,0.0,1.932200001,0.0,28.0,28.0,28.0,1.0,2238481813-19930.jpg,2452380832-348593.jpg,A1D8EUOJW3MX7N
29,2.0,right,left,0.0,2.707,0.0,29.0,29.0,29.0,1.0,2901941438-69836.jpg,2964223381-294447.jpg,A1D8EUOJW3MX7N
30,2.0,right,right,1.0,2.1031,0.0,30.0,30.0,30.0,1.0,2981246400-220365.jpg,2874307433-66280.jpg,A1D8EUOJW3MX7N
31,3.0,left,left,1.0,1.4656,0.0,31.0,31.0,31.0,1.0,2446759803-49249.jpg,2452380166-273109.jpg,A1D8EUOJW3MX7N
32,2.0,right,left,0.0,1.9596,0.0,32.0,32.0,32.0,1.0,2868469411-287540.jpg,2901952513-70703.jpg,A1D8EUOJW3MX7N
33,2.0,left,right,0.0,3.539299999,0.0,33.0,33.0,33.0,1.0,2864907432-362042.jpg,2901947423-70310.jpg,A1D8EUOJW3MX7N
34,1.0,left,left,1.0,1.4466,0.0,34.0,34.0,34.0,1.0,2449442529-124446.jpg,2446759803-49251.jpg,A1D8EUOJW3MX7N
35,3.0,left,left,1.0,2.2076,0.0,35.0,35.0,35.0,1.0,2981241414-145842.jpg,2427873848-47312.jpg,A1D8EUOJW3MX7N
36,1.0,right,right,1.0,1.443,0.0,36.0,36.0,36.0,1.0,2446760844-124088.jpg,2883254439-140941.jpg,A1D8EUOJW3MX7N
37,1.0,right,right,1.0,1.663299999,0.0,37.0,37.0,37.0,1.0,2611628310-206388.jpg,2883256307-365057.jpg,A1D8EUOJW3MX7N
38,1.0,left,left,1.0,1.681200001,0.0,38.0,38.0,38.0,1.0,2901948350-218459.jpg,2804906319-133082.jpg,A1D8EUOJW3MX7N
39,3.0,left,right,0.0,1.742,0.0,39.0,39.0,39.0,1.0,2874303365-214262.jpg,2864911457-362260.jpg,A1D8EUOJW3MX7N
40,3.0,left,left,1.0,1.428300001,0.0,40.0,40.0,40.0,1.0,2446758985-197609.jpg,2898624426-291544.jpg,A1D8EUOJW3MX7N
41,2.0,left,right,0.0,2.2771,0.0,41.0,41.0,41.0,1.0,2449441881-272368.jpg,2984615358-72439.jpg,A1D8EUOJW3MX7N
42,3.0,left,right,0.0,2.044799999,0.0,42.0,42.0,42.0,1.0,2874299429-139695.jpg,2446760917-347439.jpg,A1D8EUOJW3MX7N
43,2.0,left,left,1.0,60.9805,0.0,43.0,43.0,43.0,1.0,2238425482-313537.jpg,2238436322-314047.jpg,A1D8EUOJW3MX7N
44,3.0,right,left,0.0,2.543,0.0,44.0,44.0,44.0,1.0,2238434559-90406.jpg,2986451363-73599.jpg,A1D8EUOJW3MX7N
45,1.0,left,right,0.0,4.2074,0.0,45.0,45.0,45.0,1.0,2238560245-182099.jpg,2549106624-127823.jpg,A1D8EUOJW3MX7N
46,3.0,right,right,1.0,2.8205,0.0,46.0,46.0,46.0,1.0,2238480803-19737.jpg,2238481198-19822.jpg,A1D8EUOJW3MX7N
47,2.0,right,left,0.0,6.511299999,0.0,47.0,47.0,47.0,1.0,2981243412-370222.jpg,2901941401-292798.jpg,A1D8EUOJW3MX7N
48,2.0,left,left,1.0,16.0931,0.0,48.0,48.0,48.0,1.0,2898624426-291546.jpg,2981236443-71859.jpg,A1D8EUOJW3MX7N
49,1.0,right,right,1.0,1.329699999,0.0,49.0,49.0,49.0,1.0,2512876023-52283.jpg,2898633421-291973.jpg,A1D8EUOJW3MX7N
50,1.0,right,right,1.0,1.9409,0.0,50.0,50.0,50.0,1.0,2860312398-62572.jpg,2901947423-70311.jpg,A1D8EUOJW3MX7N
51,3.0,left,left,1.0,2.411299999,0.0,51.0,51.0,51.0,1.0,2898618390-216538.jpg,2575120609-129862.jpg,A1D8EUOJW3MX7N
52,3.0,left,left,1.0,1.388200001,0.0,52.0,52.0,52.0,1.0,2458347385-199723.jpg,2458347252-348911.jpg,A1D8EUOJW3MX7N
53,1.0,left,right,0.0,1.5546,0.0,53.0,53.0,53.0,1.0,2898635428-69104.jpg,2446759803-49250.jpg,A1D8EUOJW3MX7N
54,3.0,right,right,1.0,1.246300001,0.0,54.0,54.0,54.0,1.0,2994401319-148290.jpg,2452381505-199546.jpg,A1D8EUOJW3MX7N
55,1.0,left,left,1.0,1.282699999,0.0,55.0,55.0,55.0,1.0,2460547467-349421.jpg,2898631394-142727.jpg,A1D8EUOJW3MX7N
56,1.0,right,right,1.0,3.0829,0.0,56.0,56.0,56.0,1.0,2883264368-67631.jpg,2874301407-363895.jpg,A1D8EUOJW3MX7N
57,2.0,left,left,1.0,2.029900002,0.0,57.0,57.0,57.0,1.0,2460547467-349422.jpg,2868487415-213924.jpg,A1D8EUOJW3MX7N
58,2.0,right,right,1.0,2.5341,0.0,58.0,58.0,58.0,1.0,2238479053-19457.jpg,2592379964-131054.jpg,A1D8EUOJW3MX7N
59,1.0,right,left,0.0,1.724699999,0.0,59.0,59.0,59.0,1.0,2864902304-137862.jpg,2864910426-287204.jpg,A1D8EUOJW3MX7N
60,1.0,right,right,1.0,2.589,0.0,0.0,0.0,0.0,1.0,2238499057-320266.jpg,2238428357-313623.jpg,A1HG8X94R5JJIX
61,3.0,right,left,0.0,5.0442,0.0,1.0,1.0,1.0,1.0,2901941438-69835.jpg,2460547508-51571.jpg,A1HG8X94R5JJIX
62,3.0,left,left,1.0,34.043,0.0,2.0,2.0,2.0,1.0,2238560245-182099.jpg,2238480980-168129.jpg,A1HG8X94R5JJIX
63,1.0,right,right,1.0,6.4236,0.0,3.0,3.0,3.0,1.0,2864901420-212147.jpg,2864907432-362042.jpg,A1HG8X94R5JJIX
64,1.0,right,right,1.0,8.1897,0.0,4.0,4.0,4.0,1.0,2446759803-49250.jpg,2898635428-69104.jpg,A1HG8X94R5JJIX
65,2.0,right,right,1.0,18.7003,0.0,5.0,5.0,5.0,1.0,2238480803-19739.jpg,2868475410-213219.jpg,A1HG8X94R5JJIX
66,1.0,left,left,1.0,39.0825,0.0,6.0,6.0,6.0,1.0,2986451363-73599.jpg,2901939327-367669.jpg,A1HG8X94R5JJIX
67,2.0,left,left,1.0,22.886,0.0,7.0,7.0,7.0,1.0,2901947423-70311.jpg,2238573447-333826.jpg,A1HG8X94R5JJIX
68,3.0,right,right,1.0,2.4122,0.0,8.0,8.0,8.0,1.0,2449442181-272436.jpg,2452380832-348593.jpg,A1HG8X94R5JJIX
69,2.0,left,left,1.0,2.8794,0.0,9.0,9.0,9.0,1.0,2874302418-65978.jpg,2238481198-19823.jpg,A1HG8X94R5JJIX
70,3.0,right,right,1.0,18.4114,0.0,10.0,10.0,10.0,1.0,2981240424-145794.jpg,2901939379-143479.jpg,A1HG8X94R5JJIX
71,2.0,left,left,1.0,27.3451,0.0,11.0,11.0,11.0,1.0,2460547467-349421.jpg,2452380166-273110.jpg,A1HG8X94R5JJIX
72,3.0,right,right,1.0,11.1581,0.0,12.0,12.0,12.0,1.0,2238569117-333045.jpg,2446759347-347016.jpg,A1HG8X94R5JJIX
73,1.0,right,right,1.0,33.8446,0.0,13.0,13.0,13.0,1.0,2862691449-137104.jpg,2238481198-19822.jpg,A1HG8X94R5JJIX
74,2.0,right,right,1.0,6.1367,0.0,14.0,14.0,14.0,1.0,2986408373-73286.jpg,2449442529-124445.jpg,A1HG8X94R5JJIX
75,2.0,right,left,0.0,14.3466,0.0,15.0,15.0,15.0,1.0,2575120738-55528.jpg,2575120738-55529.jpg,A1HG8X94R5JJIX
76,2.0,left,left,1.0,60.0435,0.0,16.0,16.0,16.0,1.0,2238572663-35822.jpg,2238571930-184143.jpg,A1HG8X94R5JJIX
77,2.0,left,left,1.0,8.8452,0.0,17.0,17.0,17.0,1.0,2512875899-126682.jpg,2592380177-354628.jpg,A1HG8X94R5JJIX
78,1.0,right,right,1.0,6.1899,0.0,18.0,18.0,18.0,1.0,2901942428-69919.jpg,2901939379-143480.jpg,A1HG8X94R5JJIX
79,1.0,left,left,1.0,11.3474,0.0,19.0,19.0,19.0,1.0,2883254439-140941.jpg,2446760844-124088.jpg,A1HG8X94R5JJIX
80,3.0,right,right,1.0,2.5702,0.0,20.0,20.0,20.0,1.0,2238550049-105691.jpg,2898633421-291973.jpg,A1HG8X94R5JJIX
81,2.0,right,right,1.0,29.7015,0.0,21.0,21.0,21.0,1.0,2986397322-371109.jpg,2874301407-363895.jpg,A1HG8X94R5JJIX
82,3.0,right,right,1.0,3.1026,0.0,22.0,22.0,22.0,1.0,2864911457-362260.jpg,2874303365-214262.jpg,A1HG8X94R5JJIX
83,1.0,left,left,1.0,59.9076,0.0,23.0,23.0,23.0,1.0,2964218374-144967.jpg,2964218374-144968.jpg,A1HG8X94R5JJIX
84,1.0,right,right,1.0,13.5631,0.0,24.0,24.0,24.0,1.0,2981240424-145795.jpg,2446758985-197609.jpg,A1HG8X94R5JJIX
85,3.0,left,left,1.0,23.9873,0.0,25.0,25.0,25.0,1.0,2449441881-272368.jpg,2449441881-272367.jpg,A1HG8X94R5JJIX
86,1.0,right,right,1.0,16.3874,0.0,26.0,26.0,26.0,1.0,2986408339-146952.jpg,2592380177-354626.jpg,A1HG8X94R5JJIX
87,2.0,right,right,1.0,14.1853,0.0,27.0,27.0,27.0,1.0,2901941438-69836.jpg,2964223381-294447.jpg,A1HG8X94R5JJIX
88,2.0,right,right,1.0,3.0518,0.0,28.0,28.0,28.0,1.0,2868487415-213924.jpg,2460547467-349422.jpg,A1HG8X94R5JJIX
89,1.0,right,right,1.0,20.219,0.0,29.0,29.0,29.0,1.0,2446760601-272099.jpg,2446759803-49249.jpg,A1HG8X94R5JJIX
90,3.0,left,left,1.0,52.3282,0.0,30.0,30.0,30.0,1.0,2883256307-365057.jpg,2864904453-63933.jpg,A1HG8X94R5JJIX
91,2.0,left,left,1.0,26.015,0.0,31.0,31.0,31.0,1.0,2901948350-218459.jpg,2417208001-267065.jpg,A1HG8X94R5JJIX
92,2.0,left,left,1.0,37.5289,0.0,32.0,32.0,32.0,1.0,2874307433-66280.jpg,2981246400-220365.jpg,A1HG8X94R5JJIX
93,3.0,right,right,1.0,3.9411,0.0,33.0,33.0,33.0,1.0,2592380272-354673.jpg,2592379964-131054.jpg,A1HG8X94R5JJIX
94,3.0,left,left,1.0,11.6047,0.0,34.0,34.0,34.0,1.0,2898635427-367120.jpg,2898621427-366486.jpg,A1HG8X94R5JJIX
95,1.0,left,left,1.0,8.7555,0.0,35.0,35.0,35.0,1.0,2883268471-290842.jpg,2883268471-290843.jpg,A1HG8X94R5JJIX
96,1.0,left,left,1.0,3.1219,0.0,36.0,36.0,36.0,1.0,2864910426-287204.jpg,2864902304-137862.jpg,A1HG8X94R5JJIX
97,2.0,right,right,1.0,1.6734,0.0,37.0,37.0,37.0,1.0,2458348012-349114.jpg,2964213381-294060.jpg,A1HG8X94R5JJIX
98,3.0,left,left,1.0,3.7296,0.0,38.0,38.0,38.0,1.0,2898618444-142233.jpg,2898618444-142232.jpg,A1HG8X94R5JJIX
99,3.0,right,right,1.0,11.9713,0.0,39.0,39.0,39.0,1.0,2458347252-348911.jpg,2458347385-199723.jpg,A1HG8X94R5JJIX
100,1.0,right,right,1.0,2.0586,0.0,40.0,40.0,40.0,1.0,2238544191-252422.jpg,2964216465-219242.jpg,A1HG8X94R5JJIX
101,3.0,right,right,1.0,15.6309,0.0,41.0,41.0,41.0,1.0,2512875587-350044.jpg,2592380177-354629.jpg,A1HG8X94R5JJIX
102,1.0,right,right,1.0,19.0338,0.0,42.0,42.0,42.0,1.0,2238516618-25604.jpg,2868474407-362883.jpg,A1HG8X94R5JJIX
103,2.0,left,left,1.0,9.7532,0.0,43.0,43.0,43.0,1.0,2238480677-317399.jpg,2238573546-258454.jpg,A1HG8X94R5JJIX
104,3.0,right,right,1.0,2.4547,0.0,44.0,44.0,44.0,1.0,2575120609-129862.jpg,2898618390-216538.jpg,A1HG8X94R5JJIX
105,3.0,left,left,1.0,7.2269,0.0,45.0,45.0,45.0,1.0,2449442529-124446.jpg,2898632385-217139.jpg,A1HG8X94R5JJIX
106,3.0,left,left,1.0,3.6878,0.0,46.0,46.0,46.0,1.0,2874302418-65979.jpg,2238578544-111698.jpg,A1HG8X94R5JJIX
107,3.0,right,right,1.0,10.1058,0.0,47.0,47.0,47.0,1.0,2994401319-148290.jpg,2452381505-199546.jpg,A1HG8X94R5JJIX
108,2.0,right,right,1.0,2.2872,0.0,48.0,48.0,48.0,1.0,2981243412-370222.jpg,2901941401-292798.jpg,A1HG8X94R5JJIX
109,1.0,right,right,1.0,51.0422,0.0,49.0,49.0,49.0,1.0,2883264367-365620.jpg,2238481928-19949.jpg,A1HG8X94R5JJIX
110,2.0,left,left,1.0,5.3516,0.0,50.0,50.0,50.0,1.0,2874299429-139695.jpg,2901942443-69923.jpg,A1HG8X94R5JJIX
111,2.0,right,right,1.0,57.8958,0.0,51.0,51.0,51.0,1.0,2984615361-295510.jpg,2883268412-365898.jpg,A1HG8X94R5JJIX
112,1.0,right,right,1.0,3.5573,0.0,52.0,52.0,52.0,1.0,2238471391-240918.jpg,2238425482-313537.jpg,A1HG8X94R5JJIX
113,2.0,left,left,1.0,2.466,0.0,53.0,53.0,53.0,1.0,2898634397-367080.jpg,2901934408-69289.jpg,A1HG8X94R5JJIX
114,1.0,left,left,1.0,31.248,0.0,54.0,54.0,54.0,1.0,2981231403-71642.jpg,2274829821-263682.jpg,A1HG8X94R5JJIX
115,3.0,right,left,0.0,7.5569,0.0,55.0,55.0,55.0,1.0,2981235446-294900.jpg,2898624426-291546.jpg,A1HG8X94R5JJIX
116,3.0,left,left,1.0,1.9087,0.0,56.0,56.0,56.0,1.0,2901952513-70703.jpg,2238481198-19821.jpg,A1HG8X94R5JJIX
117,1.0,left,left,1.0,3.3067,0.0,57.0,57.0,57.0,1.0,2981241414-145842.jpg,2856919327-359676.jpg,A1HG8X94R5JJIX
118,1.0,left,left,1.0,26.7093,0.0,58.0,58.0,58.0,1.0,2898617468-68274.jpg,2864906345-212360.jpg,A1HG8X94R5JJIX
119,2.0,left,left,1.0,10.283,0.0,59.0,59.0,59.0,1.0,2238580740-186218.jpg,2238521193-26285.jpg,A1HG8X94R5JJIX
120,3.0,left,left,1.0,3.3402,0.0,0.0,0.0,0.0,1.0,2460547467-349422.jpg,2864909447-362146.jpg,A1YZ0ETOCJO1B2
121,2.0,left,right,0.0,2.5643,0.0,1.0,1.0,1.0,1.0,2898624426-291546.jpg,2981236443-71859.jpg,A1YZ0ETOCJO1B2
122,2.0,right,right,1.0,3.3133,0.0,2.0,2.0,2.0,1.0,2238573447-333826.jpg,2901947423-70311.jpg,A1YZ0ETOCJO1B2
123,2.0,right,right,1.0,3.5821,0.0,3.0,3.0,3.0,1.0,2901934408-69289.jpg,2898634397-367080.jpg,A1YZ0ETOCJO1B2
124,3.0,left,left,1.0,4.6015,0.0,4.0,4.0,4.0,1.0,2238481198-19822.jpg,2238480803-19737.jpg,A1YZ0ETOCJO1B2
125,3.0,right,left,0.0,1.759299999,0.0,5.0,5.0,5.0,1.0,2964220333-71258.jpg,2238580740-186218.jpg,A1YZ0ETOCJO1B2
126,2.0,right,right,1.0,3.239599999,0.0,6.0,6.0,6.0,1.0,2575120738-55528.jpg,2575120738-55529.jpg,A1YZ0ETOCJO1B2
127,2.0,right,left,0.0,1.0732,0.0,7.0,7.0,7.0,1.0,2238480648-19714.jpg,2874302418-65979.jpg,A1YZ0ETOCJO1B2
128,3.0,left,right,0.0,3.6573,0.0,8.0,8.0,8.0,1.0,2868475410-213219.jpg,2868474407-362885.jpg,A1YZ0ETOCJO1B2
129,3.0,right,right,1.0,5.4381,0.0,9.0,9.0,9.0,1.0,2986447332-371497.jpg,2512875899-126682.jpg,A1YZ0ETOCJO1B2
130,3.0,left,left,1.0,1.8905,0.0,10.0,10.0,10.0,1.0,2864910426-287204.jpg,2901939433-69672.jpg,A1YZ0ETOCJO1B2
131,2.0,left,left,1.0,2.7387,0.0,11.0,11.0,11.0,1.0,2964218374-144967.jpg,2883254439-140940.jpg,A1YZ0ETOCJO1B2
132,3.0,left,right,0.0,1.403,0.0,12.0,12.0,12.0,1.0,2883254439-140941.jpg,2981231446-294730.jpg,A1YZ0ETOCJO1B2
133,1.0,left,left,1.0,2.9094,0.0,13.0,13.0,13.0,1.0,2981231403-71642.jpg,2274829821-263682.jpg,A1YZ0ETOCJO1B2
134,3.0,right,right,1.0,2.2713,0.0,14.0,14.0,14.0,1.0,2901947448-70314.jpg,2883268471-290842.jpg,A1YZ0ETOCJO1B2
135,1.0,right,right,1.0,1.9325,0.0,15.0,15.0,15.0,1.0,2611628310-206388.jpg,2883256307-365057.jpg,A1YZ0ETOCJO1B2
136,3.0,left,left,1.0,3.524,0.0,16.0,16.0,16.0,1.0,2238481928-19949.jpg,2981241419-145844.jpg,A1YZ0ETOCJO1B2
137,3.0,right,left,0.0,1.5478,0.0,17.0,17.0,17.0,1.0,2238569117-333045.jpg,2446759347-347016.jpg,A1YZ0ETOCJO1B2
138,1.0,left,left,1.0,1.922,0.0,18.0,18.0,18.0,1.0,2449442529-124445.jpg,2452380171-273112.jpg,A1YZ0ETOCJO1B2
139,1.0,right,right,1.0,2.8728,0.0,19.0,19.0,19.0,1.0,2986419333-73361.jpg,2238572663-35822.jpg,A1YZ0ETOCJO1B2
140,1.0,right,left,0.0,1.924900001,0.0,20.0,20.0,20.0,1.0,2901946439-144040.jpg,2898635427-367120.jpg,A1YZ0ETOCJO1B2
141,2.0,right,right,1.0,2.682299999,0.0,21.0,21.0,21.0,1.0,2238481813-19930.jpg,2452380832-348593.jpg,A1YZ0ETOCJO1B2
142,1.0,right,right,1.0,2.5218,0.0,22.0,22.0,22.0,1.0,2901938432-367627.jpg,2452381505-199546.jpg,A1YZ0ETOCJO1B2
143,1.0,right,right,1.0,1.7967,0.0,23.0,23.0,23.0,1.0,2427874231-269884.jpg,2964223381-294447.jpg,A1YZ0ETOCJO1B2
144,1.0,right,right,1.0,1.687900001,0.0,24.0,24.0,24.0,1.0,2238471391-240918.jpg,2238425482-313537.jpg,A1YZ0ETOCJO1B2
145,1.0,left,left,1.0,2.475400001,0.0,25.0,25.0,25.0,1.0,2238560245-182099.jpg,2549106624-127823.jpg,A1YZ0ETOCJO1B2
146,2.0,right,left,0.0,3.06,0.0,26.0,26.0,26.0,1.0,2460547536-274181.jpg,2449442529-124446.jpg,A1YZ0ETOCJO1B2
147,3.0,left,left,1.0,2.087900001,0.0,27.0,27.0,27.0,1.0,2874302418-65978.jpg,2898633321-291943.jpg,A1YZ0ETOCJO1B2
148,2.0,left,right,0.0,4.012,0.0,28.0,28.0,28.0,1.0,2901939379-143480.jpg,2981229442-369621.jpg,A1YZ0ETOCJO1B2
149,2.0,left,right,0.0,1.2693,0.0,29.0,29.0,29.0,1.0,2898618390-216538.jpg,2901939327-367670.jpg,A1YZ0ETOCJO1B2
150,1.0,right,right,1.0,2.791799999,0.0,30.0,30.0,30.0,1.0,2446759803-49250.jpg,2898635428-69104.jpg,A1YZ0ETOCJO1B2
151,1.0,left,left,1.0,1.9803,0.0,31.0,31.0,31.0,1.0,2874303365-214262.jpg,2609793677-355397.jpg,A1YZ0ETOCJO1B2
152,3.0,left,left,1.0,2.170599999,0.0,32.0,32.0,32.0,1.0,2986451363-73599.jpg,2238434559-90406.jpg,A1YZ0ETOCJO1B2
153,2.0,left,left,1.0,2.7256,0.0,33.0,33.0,33.0,1.0,2238480677-317399.jpg,2238573546-258454.jpg,A1YZ0ETOCJO1B2
154,1.0,right,right,1.0,1.2097,0.0,34.0,34.0,34.0,1.0,2446760601-272099.jpg,2446759803-49249.jpg,A1YZ0ETOCJO1B2
155,2.0,left,left,1.0,3.057200001,0.0,35.0,35.0,35.0,1.0,2901939379-143479.jpg,2446758985-197610.jpg,A1YZ0ETOCJO1B2
156,2.0,left,left,1.0,1.475099999,0.0,36.0,36.0,36.0,1.0,2449441881-272368.jpg,2984615358-72439.jpg,A1YZ0ETOCJO1B2
157,2.0,right,left,0.0,2.3417,0.0,37.0,37.0,37.0,1.0,2981246400-220365.jpg,2874307433-66280.jpg,A1YZ0ETOCJO1B2
158,1.0,left,right,0.0,2.3047,0.0,38.0,38.0,38.0,1.0,2901952513-70703.jpg,2864907361-287062.jpg,A1YZ0ETOCJO1B2
159,1.0,left,right,0.0,3.757099999,0.0,39.0,39.0,39.0,1.0,2901941401-292798.jpg,2898618327-366317.jpg,A1YZ0ETOCJO1B2
160,1.0,left,left,1.0,2.2691,0.0,40.0,40.0,40.0,1.0,2883268412-365898.jpg,2984626312-370849.jpg,A1YZ0ETOCJO1B2
161,2.0,right,left,0.0,3.6073,0.0,41.0,41.0,41.0,1.0,2579432534-130704.jpg,2592380177-354629.jpg,A1YZ0ETOCJO1B2
162,3.0,right,left,0.0,2.021,0.0,42.0,42.0,42.0,1.0,2989726338-74002.jpg,2864907432-362042.jpg,A1YZ0ETOCJO1B2
163,3.0,right,right,1.0,2.5977,0.0,43.0,43.0,43.0,1.0,2964213381-294061.jpg,2964213381-294060.jpg,A1YZ0ETOCJO1B2
164,3.0,right,left,0.0,1.7372,0.0,44.0,44.0,44.0,1.0,2981246360-220352.jpg,2901948350-218459.jpg,A1YZ0ETOCJO1B2
165,1.0,right,right,1.0,1.8592,0.0,45.0,45.0,45.0,1.0,2512876023-52283.jpg,2898633421-291973.jpg,A1YZ0ETOCJO1B2
166,3.0,right,right,1.0,3.014599999,0.0,46.0,46.0,46.0,1.0,2446760917-347439.jpg,2874299429-139695.jpg,A1YZ0ETOCJO1B2
167,1.0,right,left,0.0,1.6563,0.0,47.0,47.0,47.0,1.0,2238499057-320266.jpg,2238428357-313623.jpg,A1YZ0ETOCJO1B2
168,2.0,right,right,1.0,1.7723,0.0,48.0,48.0,48.0,1.0,2452380166-273110.jpg,2460547467-349421.jpg,A1YZ0ETOCJO1B2
169,3.0,right,right,1.0,1.610299999,0.0,49.0,49.0,49.0,1.0,2964207374-144577.jpg,2898617468-68274.jpg,A1YZ0ETOCJO1B2
170,1.0,right,right,1.0,1.921,0.0,50.0,50.0,50.0,1.0,2238480434-93829.jpg,2458347385-199723.jpg,A1YZ0ETOCJO1B2
171,2.0,left,left,1.0,2.6652,0.0,51.0,51.0,51.0,1.0,2964216465-219242.jpg,2864900319-137787.jpg,A1YZ0ETOCJO1B2
172,3.0,left,left,1.0,1.6368,0.0,52.0,52.0,52.0,1.0,2874301407-363895.jpg,2901947323-70275.jpg,A1YZ0ETOCJO1B2
173,2.0,left,left,1.0,3.480599999,0.0,53.0,53.0,53.0,1.0,2592379964-131054.jpg,2238479053-19457.jpg,A1YZ0ETOCJO1B2
174,2.0,left,right,0.0,3.2956,0.0,54.0,54.0,54.0,1.0,2868474407-362883.jpg,2981246400-220363.jpg,A1YZ0ETOCJO1B2
175,1.0,right,right,1.0,2.6681,0.0,55.0,55.0,55.0,1.0,2981240424-145795.jpg,2446758985-197609.jpg,A1YZ0ETOCJO1B2
176,1.0,left,right,0.0,2.363900001,0.0,56.0,56.0,56.0,1.0,2898618444-142233.jpg,2898631359-142721.jpg,A1YZ0ETOCJO1B2
177,3.0,right,left,0.0,1.7366,0.0,57.0,57.0,57.0,1.0,2901941438-69835.jpg,2460547508-51571.jpg,A1YZ0ETOCJO1B2
178,3.0,left,left,1.0,1.6908,0.0,58.0,58.0,58.0,1.0,2981241414-145842.jpg,2427873848-47312.jpg,A1YZ0ETOCJO1B2
179,2.0,left,right,0.0,1.690700001,0.0,59.0,59.0,59.0,1.0,2592380177-354626.jpg,2864901386-286797.jpg,A1YZ0ETOCJO1B2
180,1.0,right,right,1.0,2.2643,0.0,0.0,0.0,0.0,1.0,2611628310-206388.jpg,2883256307-365057.jpg,A20OEK6BVW13NV
181,1.0,right,left,0.0,0.8663,0.0,1.0,1.0,1.0,1.0,2964218432-369263.jpg,2898624426-291546.jpg,A20OEK6BVW13NV
182,3.0,right,left,0.0,1.3132,0.0,2.0,2.0,2.0,1.0,2964207374-144577.jpg,2898617468-68274.jpg,A20OEK6BVW13NV
183,1.0,right,right,1.0,1.4335,0.0,3.0,3.0,3.0,1.0,2238499057-320266.jpg,2238428357-313623.jpg,A20OEK6BVW13NV
184,2.0,right,right,1.0,1.311099999,0.0,4.0,4.0,4.0,1.0,2984615361-295510.jpg,2883268412-365898.jpg,A20OEK6BVW13NV
185,1.0,right,right,1.0,1.125700001,0.0,5.0,5.0,5.0,1.0,2898618440-216545.jpg,2460547467-349422.jpg,A20OEK6BVW13NV
186,1.0,right,left,0.0,1.2929,0.0,6.0,6.0,6.0,1.0,2981244394-145974.jpg,2964213381-294060.jpg,A20OEK6BVW13NV
187,3.0,right,left,0.0,1.3735,0.0,7.0,7.0,7.0,1.0,2449441881-272367.jpg,2449441881-272368.jpg,A20OEK6BVW13NV
188,3.0,left,right,0.0,1.7448,0.0,8.0,8.0,8.0,1.0,2592379964-131054.jpg,2592380272-354673.jpg,A20OEK6BVW13NV
189,3.0,left,right,0.0,1.54,0.0,9.0,9.0,9.0,1.0,2964216465-219242.jpg,2898619327-366362.jpg,A20OEK6BVW13NV
190,1.0,right,left,0.0,1.0951,0.0,10.0,10.0,10.0,1.0,2413147898-43548.jpg,2874302418-65979.jpg,A20OEK6BVW13NV
191,1.0,left,right,0.0,1.0327,0.0,11.0,11.0,11.0,1.0,2238572663-35822.jpg,2986419333-73361.jpg,A20OEK6BVW13NV
192,3.0,left,right,0.0,1.276900001,0.0,12.0,12.0,12.0,1.0,2901952513-70703.jpg,2238481198-19821.jpg,A20OEK6BVW13NV
193,2.0,left,right,0.0,1.9833,0.0,13.0,13.0,13.0,1.0,2592380177-354626.jpg,2864901386-286797.jpg,A20OEK6BVW13NV
194,3.0,right,right,1.0,1.2867,0.0,14.0,14.0,14.0,1.0,2449442181-272436.jpg,2452380832-348593.jpg,A20OEK6BVW13NV
195,3.0,left,right,0.0,1.1906,0.0,15.0,15.0,15.0,1.0,2874307433-66280.jpg,2981231422-369714.jpg,A20OEK6BVW13NV
196,2.0,right,right,1.0,0.9173,0.0,16.0,16.0,16.0,1.0,2460547536-274181.jpg,2449442529-124446.jpg,A20OEK6BVW13NV
197,1.0,left,right,0.0,1.3857,0.0,17.0,17.0,17.0,1.0,2874303365-214262.jpg,2609793677-355397.jpg,A20OEK6BVW13NV
198,3.0,left,left,1.0,1.0059,0.0,18.0,18.0,18.0,1.0,2864910426-287204.jpg,2901939433-69672.jpg,A20OEK6BVW13NV
199,3.0,left,right,0.0,0.737,0.0,19.0,19.0,19.0,1.0,2874299429-139695.jpg,2446760917-347439.jpg,A20OEK6BVW13NV
200,1.0,right,right,1.0,0.8347,0.0,20.0,20.0,20.0,1.0,2898631359-142721.jpg,2898618444-142233.jpg,A20OEK6BVW13NV
201,1.0,right,left,0.0,1.563200001,0.0,21.0,21.0,21.0,1.0,2883264368-67631.jpg,2874301407-363895.jpg,A20OEK6BVW13NV
202,1.0,left,right,0.0,0.8886,0.0,22.0,22.0,22.0,1.0,2238560245-182099.jpg,2549106624-127823.jpg,A20OEK6BVW13NV
203,1.0,right,right,1.0,3.0867,0.0,23.0,23.0,23.0,1.0,2238550816-254000.jpg,2238580740-186218.jpg,A20OEK6BVW13NV
204,2.0,left,right,0.0,1.2688,0.0,24.0,24.0,24.0,1.0,2864907432-362042.jpg,2901947423-70310.jpg,A20OEK6BVW13NV
205,1.0,left,right,0.0,1.0082,0.0,25.0,25.0,25.0,1.0,2898633421-291973.jpg,2512876023-52283.jpg,A20OEK6BVW13NV
206,3.0,right,left,0.0,1.642,0.0,26.0,26.0,26.0,1.0,2901947448-70314.jpg,2883268471-290842.jpg,A20OEK6BVW13NV
207,2.0,right,left,0.0,1.1988,0.0,27.0,27.0,27.0,1.0,2981229442-369621.jpg,2901939379-143480.jpg,A20OEK6BVW13NV
208,3.0,right,right,1.0,1.8295,0.0,28.0,28.0,28.0,1.0,2427873848-47312.jpg,2981241414-145842.jpg,A20OEK6BVW13NV
209,3.0,right,right,1.0,0.988700001,0.0,29.0,29.0,29.0,1.0,2238577590-185467.jpg,2901947423-70311.jpg,A20OEK6BVW13NV
210,2.0,left,left,1.0,1.4483,0.0,30.0,30.0,30.0,1.0,2575120738-55529.jpg,2575120738-55528.jpg,A20OEK6BVW13NV
211,1.0,right,left,0.0,0.8327,0.0,31.0,31.0,31.0,1.0,2804906319-133082.jpg,2901948350-218459.jpg,A20OEK6BVW13NV
212,2.0,left,right,0.0,0.9193,0.0,32.0,32.0,32.0,1.0,2460547508-51571.jpg,2981232437-369759.jpg,A20OEK6BVW13NV
213,2.0,left,left,1.0,2.1105,0.0,33.0,33.0,33.0,1.0,2874302418-65978.jpg,2238481198-19823.jpg,A20OEK6BVW13NV
214,2.0,right,left,0.0,2.7488,0.0,34.0,34.0,34.0,1.0,2981244403-72215.jpg,2981231403-71642.jpg,A20OEK6BVW13NV
215,2.0,left,right,0.0,1.063,0.0,35.0,35.0,35.0,1.0,2460547467-349421.jpg,2452380166-273110.jpg,A20OEK6BVW13NV
216,1.0,left,left,1.0,1.275599999,0.0,36.0,36.0,36.0,1.0,2898635427-367120.jpg,2901946439-144040.jpg,A20OEK6BVW13NV
217,2.0,right,right,1.0,1.1075,0.0,37.0,37.0,37.0,1.0,2898632385-217136.jpg,2883254439-140941.jpg,A20OEK6BVW13NV
218,3.0,left,left,1.0,1.5977,0.0,38.0,38.0,38.0,1.0,2898635428-69104.jpg,2898625336-291572.jpg,A20OEK6BVW13NV
219,3.0,right,left,0.0,1.0236,0.0,39.0,39.0,39.0,1.0,2458347252-348911.jpg,2458347385-199723.jpg,A20OEK6BVW13NV
220,1.0,right,right,1.0,1.1158,0.0,40.0,40.0,40.0,1.0,2901946465-218350.jpg,2868475410-213219.jpg,A20OEK6BVW13NV
221,2.0,left,left,1.0,2.05,0.0,41.0,41.0,41.0,1.0,2868474407-362883.jpg,2981246400-220363.jpg,A20OEK6BVW13NV
222,1.0,right,left,0.0,1.132400001,0.0,42.0,42.0,42.0,1.0,2460547536-274179.jpg,2512875899-126682.jpg,A20OEK6BVW13NV
223,2.0,left,left,1.0,0.885400001,0.0,43.0,43.0,43.0,1.0,2238425482-313537.jpg,2238436322-314047.jpg,A20OEK6BVW13NV
224,3.0,right,left,0.0,1.089900001,0.0,44.0,44.0,44.0,1.0,2981241419-145844.jpg,2238481928-19949.jpg,A20OEK6BVW13NV
225,3.0,left,left,1.0,0.922,0.0,45.0,45.0,45.0,1.0,2446758985-197609.jpg,2898624426-291544.jpg,A20OEK6BVW13NV
226,2.0,left,right,0.0,1.0849,0.0,46.0,46.0,46.0,1.0,2592380177-354629.jpg,2579432534-130704.jpg,A20OEK6BVW13NV
227,2.0,left,right,0.0,1.2187,0.0,47.0,47.0,47.0,1.0,2964223381-294447.jpg,2901941438-69836.jpg,A20OEK6BVW13NV
228,2.0,right,left,0.0,1.298,0.0,48.0,48.0,48.0,1.0,2860302315-210704.jpg,2986451363-73599.jpg,A20OEK6BVW13NV
229,3.0,right,right,1.0,1.3741,0.0,49.0,49.0,49.0,1.0,2238569117-333045.jpg,2446759347-347016.jpg,A20OEK6BVW13NV
230,2.0,right,right,1.0,1.287,0.0,50.0,50.0,50.0,1.0,2898618440-216547.jpg,2446759803-49249.jpg,A20OEK6BVW13NV
231,3.0,right,left,0.0,1.0131,0.0,51.0,51.0,51.0,1.0,2883273443-68193.jpg,2901941401-292798.jpg,A20OEK6BVW13NV
232,2.0,left,left,1.0,1.090200001,0.0,52.0,52.0,52.0,1.0,2452381505-199546.jpg,2238567168-34916.jpg,A20OEK6BVW13NV
233,1.0,left,left,1.0,1.2486,0.0,53.0,53.0,53.0,1.0,2238481198-19822.jpg,2862691449-137104.jpg,A20OEK6BVW13NV
234,1.0,right,left,0.0,1.1972,0.0,54.0,54.0,54.0,1.0,2986449336-296644.jpg,2898618390-216538.jpg,A20OEK6BVW13NV
235,1.0,left,left,1.0,0.3667,0.0,55.0,55.0,55.0,1.0,2898634397-367080.jpg,2237944827-301472.jpg,A20OEK6BVW13NV
236,2.0,left,left,1.0,0.4505,0.0,56.0,56.0,56.0,1.0,2901939379-143479.jpg,2446758985-197610.jpg,A20OEK6BVW13NV
237,3.0,left,left,1.0,1.103900001,0.0,57.0,57.0,57.0,1.0,2449442529-124445.jpg,2898632385-217137.jpg,A20OEK6BVW13NV
238,2.0,left,left,1.0,1.4828,0.0,58.0,58.0,58.0,1.0,2964218374-144967.jpg,2883254439-140940.jpg,A20OEK6BVW13NV
239,3.0,left,right,0.0,1.6598,0.0,59.0,59.0,59.0,1.0,2238480677-317399.jpg,2238480278-19661.jpg,A20OEK6BVW13NV
240,3.0,right,right,1.0,2.1597,0.0,0.0,0.0,0.0,1.0,2864911457-362260.jpg,2874303365-214262.jpg,A21YNTPZSVT4QX
241,3.0,right,right,1.0,1.5268,0.0,1.0,1.0,1.0,1.0,2994401319-148290.jpg,2452381505-199546.jpg,A21YNTPZSVT4QX
242,2.0,right,right,1.0,1.8359,0.0,2.0,2.0,2.0,1.0,2575118671-277663.jpg,2898633421-291973.jpg,A21YNTPZSVT4QX
243,1.0,left,left,1.0,1.5837,0.0,3.0,3.0,3.0,1.0,2512875899-126682.jpg,2460547536-274179.jpg,A21YNTPZSVT4QX
244,1.0,left,left,1.0,2.348,0.0,4.0,4.0,4.0,1.0,2864907432-362042.jpg,2864901420-212147.jpg,A21YNTPZSVT4QX
245,3.0,right,right,1.0,3.0023,0.0,5.0,5.0,5.0,1.0,2238578544-111698.jpg,2874302418-65979.jpg,A21YNTPZSVT4QX
246,2.0,right,left,0.0,2.6668,0.0,6.0,6.0,6.0,1.0,2238481813-19930.jpg,2452380832-348593.jpg,A21YNTPZSVT4QX
247,2.0,right,right,1.0,2.1959,0.0,7.0,7.0,7.0,1.0,2874301404-139813.jpg,2981241414-145842.jpg,A21YNTPZSVT4QX
248,3.0,left,right,0.0,1.9626,0.0,8.0,8.0,8.0,1.0,2238428357-313623.jpg,2575121987-353817.jpg,A21YNTPZSVT4QX
249,2.0,left,left,1.0,6.3866,0.0,9.0,9.0,9.0,1.0,2898635428-69104.jpg,2901943411-292945.jpg,A21YNTPZSVT4QX
250,3.0,right,right,1.0,15.9892,0.0,10.0,10.0,10.0,1.0,2883273443-68193.jpg,2901941401-292798.jpg,A21YNTPZSVT4QX
251,3.0,left,right,0.0,5.9966,0.0,11.0,11.0,11.0,1.0,2446759347-347016.jpg,2238569117-333045.jpg,A21YNTPZSVT4QX
252,3.0,left,right,0.0,5.4584,0.0,12.0,12.0,12.0,1.0,2874302418-65978.jpg,2898633321-291943.jpg,A21YNTPZSVT4QX
253,3.0,left,left,1.0,1.5374,0.0,13.0,13.0,13.0,1.0,2446758985-197609.jpg,2898624426-291544.jpg,A21YNTPZSVT4QX
254,1.0,left,right,0.0,1.476,0.0,14.0,14.0,14.0,1.0,2575120738-55529.jpg,2898632385-217138.jpg,A21YNTPZSVT4QX
255,1.0,right,right,1.0,2.9538,0.0,15.0,15.0,15.0,1.0,2986447306-296584.jpg,2874307433-66280.jpg,A21YNTPZSVT4QX
256,2.0,left,right,0.0,7.3186,0.0,16.0,16.0,16.0,1.0,2898617468-68274.jpg,2901943387-368037.jpg,A21YNTPZSVT4QX
257,2.0,right,left,0.0,2.0176,0.0,17.0,17.0,17.0,1.0,2981244403-72215.jpg,2981231403-71642.jpg,A21YNTPZSVT4QX
258,2.0,left,right,0.0,1.7131,0.0,18.0,18.0,18.0,1.0,2874299429-139695.jpg,2901942443-69923.jpg,A21YNTPZSVT4QX
259,2.0,right,right,1.0,3.5287,0.0,19.0,19.0,19.0,1.0,2874299429-139694.jpg,2864910426-287204.jpg,A21YNTPZSVT4QX
260,2.0,right,left,0.0,1.9663,0.0,20.0,20.0,20.0,1.0,2868469411-287540.jpg,2901952513-70703.jpg,A21YNTPZSVT4QX
261,1.0,left,left,1.0,1.3548,0.0,21.0,21.0,21.0,1.0,2460547467-349421.jpg,2898631394-142727.jpg,A21YNTPZSVT4QX
262,3.0,left,left,1.0,1.6552,0.0,22.0,22.0,22.0,1.0,2460547467-349422.jpg,2864909447-362146.jpg,A21YNTPZSVT4QX
263,3.0,left,right,0.0,1.8438,0.0,23.0,23.0,23.0,1.0,2874301407-363895.jpg,2901947323-70275.jpg,A21YNTPZSVT4QX
264,3.0,left,left,1.0,3.0071,0.0,24.0,24.0,24.0,1.0,2238481928-19949.jpg,2981241419-145844.jpg,A21YNTPZSVT4QX
265,3.0,right,right,1.0,1.4672,0.0,25.0,25.0,25.0,1.0,2864903351-286874.jpg,2238572663-35822.jpg,A21YNTPZSVT4QX
266,1.0,right,right,1.0,1.8413,0.0,26.0,26.0,26.0,1.0,2984626312-370849.jpg,2883268412-365898.jpg,A21YNTPZSVT4QX
267,1.0,left,left,1.0,1.4373,0.0,27.0,27.0,27.0,1.0,2458347385-199723.jpg,2238480434-93829.jpg,A21YNTPZSVT4QX
268,2.0,left,left,1.0,1.8479,0.0,28.0,28.0,28.0,1.0,2901939379-143480.jpg,2981229442-369621.jpg,A21YNTPZSVT4QX
269,1.0,right,right,1.0,2.7235,0.0,29.0,29.0,29.0,1.0,2981244394-145974.jpg,2964213381-294060.jpg,A21YNTPZSVT4QX
270,2.0,right,right,1.0,2.8434,0.0,30.0,30.0,30.0,1.0,2883255450-215310.jpg,2883268471-290842.jpg,A21YNTPZSVT4QX
271,1.0,right,right,1.0,6.1451,0.0,31.0,31.0,31.0,1.0,2460547291-274110.jpg,2460547508-51571.jpg,A21YNTPZSVT4QX
272,1.0,left,right,0.0,2.6092,0.0,32.0,32.0,32.0,1.0,2592379964-131054.jpg,2575963989-130576.jpg,A21YNTPZSVT4QX
273,1.0,left,left,1.0,2.1232,0.0,33.0,33.0,33.0,1.0,2868474407-362883.jpg,2238516618-25604.jpg,A21YNTPZSVT4QX
274,1.0,right,right,1.0,1.8849,0.0,34.0,34.0,34.0,1.0,2986449336-296644.jpg,2898618390-216538.jpg,A21YNTPZSVT4QX
275,1.0,left,left,1.0,1.928,0.0,35.0,35.0,35.0,1.0,2449441881-272368.jpg,2883268412-365899.jpg,A21YNTPZSVT4QX
276,1.0,left,left,1.0,2.2341,0.0,36.0,36.0,36.0,1.0,2238580740-186218.jpg,2238550816-254000.jpg,A21YNTPZSVT4QX
277,3.0,right,left,0.0,1.8719,0.0,37.0,37.0,37.0,1.0,2898632385-217137.jpg,2449442529-124445.jpg,A21YNTPZSVT4QX
278,3.0,left,right,0.0,1.5838,0.0,38.0,38.0,38.0,1.0,2898624426-291546.jpg,2981235446-294900.jpg,A21YNTPZSVT4QX
279,3.0,left,right,0.0,2.8427,0.0,39.0,39.0,39.0,1.0,2986451363-73599.jpg,2238434559-90406.jpg,A21YNTPZSVT4QX
280,3.0,right,right,1.0,2.2493,0.0,40.0,40.0,40.0,1.0,2981240424-145794.jpg,2901939379-143479.jpg,A21YNTPZSVT4QX
281,3.0,left,left,1.0,2.5413,0.0,41.0,41.0,41.0,1.0,2964218374-144967.jpg,2981231446-294732.jpg,A21YNTPZSVT4QX
282,2.0,right,left,0.0,6.5493,0.0,42.0,42.0,42.0,1.0,2864900319-137787.jpg,2964216465-219242.jpg,A21YNTPZSVT4QX
283,1.0,left,right,0.0,1.7921,0.0,43.0,43.0,43.0,1.0,2898635427-367120.jpg,2901946439-144040.jpg,A21YNTPZSVT4QX
284,3.0,left,right,0.0,3.8326,0.0,44.0,44.0,44.0,1.0,2898618444-142233.jpg,2898618444-142232.jpg,A21YNTPZSVT4QX
285,1.0,right,right,1.0,4.2142,0.0,45.0,45.0,45.0,1.0,2860312398-62572.jpg,2901947423-70311.jpg,A21YNTPZSVT4QX
286,1.0,right,right,1.0,2.1947,0.0,46.0,46.0,46.0,1.0,2549106624-127823.jpg,2238560245-182099.jpg,A21YNTPZSVT4QX
287,2.0,left,right,0.0,2.1314,0.0,47.0,47.0,47.0,1.0,2238481198-19822.jpg,2901946436-293242.jpg,A21YNTPZSVT4QX
288,2.0,right,left,0.0,2.5081,0.0,48.0,48.0,48.0,1.0,2417208001-267065.jpg,2901948350-218459.jpg,A21YNTPZSVT4QX
289,2.0,right,right,1.0,1.8271,0.0,49.0,49.0,49.0,1.0,2579432534-130704.jpg,2592380177-354629.jpg,A21YNTPZSVT4QX
290,2.0,left,left,1.0,1.8654,0.0,50.0,50.0,50.0,1.0,2238425482-313537.jpg,2238436322-314047.jpg,A21YNTPZSVT4QX
291,2.0,right,right,1.0,2.5412,0.0,51.0,51.0,51.0,1.0,2898632385-217136.jpg,2883254439-140941.jpg,A21YNTPZSVT4QX
292,1.0,left,left,1.0,1.8002,0.0,52.0,52.0,52.0,1.0,2964223381-294447.jpg,2427874231-269884.jpg,A21YNTPZSVT4QX
293,3.0,left,right,0.0,2.4031,0.0,53.0,53.0,53.0,1.0,2883256307-365057.jpg,2864904453-63933.jpg,A21YNTPZSVT4QX
294,2.0,left,right,0.0,1.9798,0.0,54.0,54.0,54.0,1.0,2238480677-317399.jpg,2238573546-258454.jpg,A21YNTPZSVT4QX
295,3.0,right,left,0.0,1.8365,0.0,55.0,55.0,55.0,1.0,2964217461-294238.jpg,2898634397-367080.jpg,A21YNTPZSVT4QX
296,2.0,left,left,1.0,1.9949,0.0,56.0,56.0,56.0,1.0,2449442529-124446.jpg,2460547536-274181.jpg,A21YNTPZSVT4QX
297,2.0,left,right,0.0,2.6019,0.0,57.0,57.0,57.0,1.0,2592380177-354626.jpg,2864901386-286797.jpg,A21YNTPZSVT4QX
298,1.0,left,left,1.0,4.134,0.0,58.0,58.0,58.0,1.0,2868475410-213219.jpg,2901946465-218350.jpg,A21YNTPZSVT4QX
299,1.0,left,left,1.0,2.1315,0.0,59.0,59.0,59.0,1.0,2446759803-49249.jpg,2446760601-272099.jpg,A21YNTPZSVT4QX
300,1.0,right,right,1.0,1.6133,0.0,0.0,0.0,0.0,1.0,2446760844-124088.jpg,2883254439-140941.jpg,A2AILDQQ4UTXD0
301,3.0,left,left,1.0,0.4006,0.0,1.0,1.0,1.0,1.0,2238580740-186218.jpg,2964220333-71258.jpg,A2AILDQQ4UTXD0
302,2.0,left,right,0.0,0.2024,0.0,2.0,2.0,2.0,1.0,2449442529-124445.jpg,2986408373-73286.jpg,A2AILDQQ4UTXD0
303,2.0,right,left,0.0,0.1481,0.0,3.0,3.0,3.0,1.0,2238481813-19930.jpg,2452380832-348593.jpg,A2AILDQQ4UTXD0
304,2.0,right,right,1.0,0.1706,0.0,4.0,4.0,4.0,1.0,2592380177-354628.jpg,2512875899-126682.jpg,A2AILDQQ4UTXD0
305,1.0,right,left,0.0,0.1669,0.0,5.0,5.0,5.0,1.0,2964224310-219528.jpg,2446759347-347016.jpg,A2AILDQQ4UTXD0
306,1.0,right,right,1.0,0.1173,0.0,6.0,6.0,6.0,1.0,2460547291-274110.jpg,2460547508-51571.jpg,A2AILDQQ4UTXD0
307,2.0,left,left,1.0,0.1483,0.0,7.0,7.0,7.0,1.0,2981241414-145842.jpg,2874301404-139813.jpg,A2AILDQQ4UTXD0
308,2.0,right,right,1.0,0.0847,0.0,8.0,8.0,8.0,1.0,2874314526-289684.jpg,2238560245-182099.jpg,A2AILDQQ4UTXD0
309,1.0,left,left,1.0,0.1463,0.0,9.0,9.0,9.0,1.0,2898617468-68274.jpg,2864906345-212360.jpg,A2AILDQQ4UTXD0
310,3.0,left,right,0.0,0.0987,0.0,10.0,10.0,10.0,1.0,2874307433-66280.jpg,2981231422-369714.jpg,A2AILDQQ4UTXD0
311,3.0,right,left,0.0,0.1403,0.0,11.0,11.0,11.0,1.0,2981235446-294901.jpg,2460547467-349421.jpg,A2AILDQQ4UTXD0
312,3.0,right,right,1.0,0.1329,0.0,12.0,12.0,12.0,1.0,2238480803-19737.jpg,2238481198-19822.jpg,A2AILDQQ4UTXD0
313,3.0,left,left,1.0,0.1499,0.0,13.0,13.0,13.0,1.0,2238480677-317399.jpg,2238480278-19661.jpg,A2AILDQQ4UTXD0
314,2.0,right,right,1.0,0.0827,0.0,14.0,14.0,14.0,1.0,2901947423-70310.jpg,2864907432-362042.jpg,A2AILDQQ4UTXD0
315,3.0,right,left,0.0,0.2126,0.0,15.0,15.0,15.0,1.0,2238117096-228518.jpg,2592380177-354626.jpg,A2AILDQQ4UTXD0
316,3.0,left,right,0.0,0.1633,0.0,16.0,16.0,16.0,1.0,2898635427-367120.jpg,2898621427-366486.jpg,A2AILDQQ4UTXD0
317,2.0,left,left,1.0,0.1882,0.0,17.0,17.0,17.0,1.0,2238425482-313537.jpg,2238436322-314047.jpg,A2AILDQQ4UTXD0
318,2.0,right,right,1.0,0.1286,0.0,18.0,18.0,18.0,1.0,2575120738-55528.jpg,2575120738-55529.jpg,A2AILDQQ4UTXD0
319,3.0,left,left,1.0,0.1303,0.0,19.0,19.0,19.0,1.0,2898633421-291973.jpg,2238550049-105691.jpg,A2AILDQQ4UTXD0
320,1.0,left,left,1.0,0.1624,0.0,20.0,20.0,20.0,1.0,2883256307-365057.jpg,2611628310-206388.jpg,A2AILDQQ4UTXD0
321,2.0,right,left,0.0,0.1651,0.0,21.0,21.0,21.0,1.0,2238563377-332054.jpg,2874303365-214262.jpg,A2AILDQQ4UTXD0
322,2.0,left,right,0.0,0.0732,0.0,22.0,22.0,22.0,1.0,2981231403-71642.jpg,2981244403-72215.jpg,A2AILDQQ4UTXD0
323,2.0,right,left,0.0,0.2203,0.0,23.0,23.0,23.0,1.0,2874299429-139694.jpg,2864910426-287204.jpg,A2AILDQQ4UTXD0
324,3.0,left,right,0.0,0.1159,0.0,24.0,24.0,24.0,1.0,2898618444-142233.jpg,2898618444-142232.jpg,A2AILDQQ4UTXD0
325,3.0,right,right,1.0,0.1615,0.0,25.0,25.0,25.0,1.0,2898625336-291572.jpg,2898635428-69104.jpg,A2AILDQQ4UTXD0
326,3.0,left,left,1.0,0.2604,0.0,26.0,26.0,26.0,1.0,2898618390-216538.jpg,2575120609-129862.jpg,A2AILDQQ4UTXD0
327,2.0,left,left,1.0,0.1804,0.0,27.0,27.0,27.0,1.0,2446759803-49249.jpg,2898618440-216547.jpg,A2AILDQQ4UTXD0
328,1.0,right,left,0.0,0.1873,0.0,28.0,28.0,28.0,1.0,2883264368-67631.jpg,2874301407-363895.jpg,A2AILDQQ4UTXD0
329,1.0,left,right,0.0,0.1997,0.0,29.0,29.0,29.0,1.0,2901939379-143480.jpg,2901942428-69919.jpg,A2AILDQQ4UTXD0
330,3.0,left,right,0.0,0.2992,0.0,30.0,30.0,30.0,1.0,2458347385-199723.jpg,2458347252-348911.jpg,A2AILDQQ4UTXD0
331,1.0,left,right,0.0,0.2128,0.0,31.0,31.0,31.0,1.0,2238481928-19949.jpg,2883264367-365620.jpg,A2AILDQQ4UTXD0
332,3.0,left,left,1.0,0.2063,0.0,32.0,32.0,32.0,1.0,2964218374-144967.jpg,2981231446-294732.jpg,A2AILDQQ4UTXD0
333,1.0,right,right,1.0,0.1553,0.0,33.0,33.0,33.0,1.0,2238544191-252422.jpg,2964216465-219242.jpg,A2AILDQQ4UTXD0
334,3.0,right,left,0.0,0.1865,0.0,34.0,34.0,34.0,1.0,2898632385-217139.jpg,2449442529-124446.jpg,A2AILDQQ4UTXD0
335,1.0,left,right,0.0,0.1309,0.0,35.0,35.0,35.0,1.0,2898624426-291546.jpg,2964218432-369263.jpg,A2AILDQQ4UTXD0
336,2.0,right,left,0.0,0.3656,0.0,36.0,36.0,36.0,1.0,2238571930-184143.jpg,2238572663-35822.jpg,A2AILDQQ4UTXD0
337,1.0,left,right,0.0,0.1803,0.0,37.0,37.0,37.0,1.0,2986451363-73599.jpg,2901939327-367669.jpg,A2AILDQQ4UTXD0
338,3.0,left,left,1.0,0.3134,0.0,38.0,38.0,38.0,1.0,2901952513-70703.jpg,2238481198-19821.jpg,A2AILDQQ4UTXD0
339,2.0,right,right,1.0,0.1143,0.0,39.0,39.0,39.0,1.0,2238480803-19739.jpg,2868475410-213219.jpg,A2AILDQQ4UTXD0
340,1.0,right,right,1.0,0.1974,0.0,40.0,40.0,40.0,1.0,2883268471-290843.jpg,2883268471-290842.jpg,A2AILDQQ4UTXD0
341,2.0,right,left,0.0,0.3445,0.0,41.0,41.0,41.0,1.0,2864909447-362144.jpg,2446758985-197609.jpg,A2AILDQQ4UTXD0
342,3.0,right,right,1.0,0.551,0.0,42.0,42.0,42.0,1.0,2898628438-68785.jpg,2964223381-294447.jpg,A2AILDQQ4UTXD0
343,1.0,right,left,0.0,0.2331,0.0,43.0,43.0,43.0,1.0,2238516618-25604.jpg,2868474407-362883.jpg,A2AILDQQ4UTXD0
344,1.0,right,right,1.0,0.1773,0.0,44.0,44.0,44.0,1.0,2237944827-301472.jpg,2898634397-367080.jpg,A2AILDQQ4UTXD0
345,1.0,left,right,0.0,0.2296,0.0,45.0,45.0,45.0,1.0,2874302418-65978.jpg,2898626385-216899.jpg,A2AILDQQ4UTXD0
346,1.0,right,left,0.0,0.1624,0.0,46.0,46.0,46.0,1.0,2575963989-130576.jpg,2592379964-131054.jpg,A2AILDQQ4UTXD0
347,3.0,right,right,1.0,0.1469,0.0,47.0,47.0,47.0,1.0,2238436252-314037.jpg,2883268412-365898.jpg,A2AILDQQ4UTXD0
348,3.0,right,left,0.0,0.1778,0.0,48.0,48.0,48.0,1.0,2994401319-148290.jpg,2452381505-199546.jpg,A2AILDQQ4UTXD0
349,3.0,right,right,1.0,0.1144,0.0,49.0,49.0,49.0,1.0,2575121987-353817.jpg,2238428357-313623.jpg,A2AILDQQ4UTXD0
350,2.0,left,left,1.0,0.3126,0.0,50.0,50.0,50.0,1.0,2874302418-65979.jpg,2238480648-19714.jpg,A2AILDQQ4UTXD0
351,1.0,right,left,0.0,0.182,0.0,51.0,51.0,51.0,1.0,2883268412-365899.jpg,2449441881-272368.jpg,A2AILDQQ4UTXD0
352,2.0,right,left,0.0,0.1511,0.0,52.0,52.0,52.0,1.0,2417208001-267065.jpg,2901948350-218459.jpg,A2AILDQQ4UTXD0
353,2.0,right,right,1.0,0.1467,0.0,53.0,53.0,53.0,1.0,2981243412-370222.jpg,2901941401-292798.jpg,A2AILDQQ4UTXD0
354,2.0,right,left,0.0,0.2147,0.0,54.0,54.0,54.0,1.0,2579432534-130704.jpg,2592380177-354629.jpg,A2AILDQQ4UTXD0
355,3.0,right,right,1.0,0.1494,0.0,55.0,55.0,55.0,1.0,2964213381-294061.jpg,2964213381-294060.jpg,A2AILDQQ4UTXD0
356,1.0,left,left,1.0,0.148,0.0,56.0,56.0,56.0,1.0,2901939379-143479.jpg,2460547467-349423.jpg,A2AILDQQ4UTXD0
357,2.0,right,right,1.0,0.1017,0.0,57.0,57.0,57.0,1.0,2868487415-213924.jpg,2460547467-349422.jpg,A2AILDQQ4UTXD0
358,1.0,right,left,0.0,0.1838,0.0,58.0,58.0,58.0,1.0,2883266388-67750.jpg,2874299429-139695.jpg,A2AILDQQ4UTXD0
359,1.0,right,right,1.0,0.1468,0.0,59.0,59.0,59.0,1.0,2860312398-62572.jpg,2901947423-70311.jpg,A2AILDQQ4UTXD0
360,2.0,right,right,1.0,4.1622,0.0,0.0,0.0,0.0,1.0,2238479053-19457.jpg,2592379964-131054.jpg,A2LKGF193ZR5JP
361,1.0,right,right,1.0,1.7064,0.0,1.0,1.0,1.0,1.0,2964218432-369263.jpg,2898624426-291546.jpg,A2LKGF193ZR5JP
362,2.0,left,left,1.0,1.5696,0.0,2.0,2.0,2.0,1.0,2238481198-19822.jpg,2901946436-293242.jpg,A2LKGF193ZR5JP
363,3.0,right,right,1.0,1.0131,0.0,3.0,3.0,3.0,1.0,2981240424-145794.jpg,2901939379-143479.jpg,A2LKGF193ZR5JP
364,2.0,left,right,0.0,1.2732,0.0,4.0,4.0,4.0,1.0,2449441881-272368.jpg,2984615358-72439.jpg,A2LKGF193ZR5JP
365,3.0,left,right,0.0,1.1309,0.0,5.0,5.0,5.0,1.0,2874299429-139695.jpg,2446760917-347439.jpg,A2LKGF193ZR5JP
366,2.0,left,left,1.0,0.9877,0.0,6.0,6.0,6.0,1.0,2898633421-291973.jpg,2575118671-277663.jpg,A2LKGF193ZR5JP
367,2.0,right,left,0.0,0.913,0.0,7.0,7.0,7.0,1.0,2864900319-137787.jpg,2964216465-219242.jpg,A2LKGF193ZR5JP
368,2.0,left,left,1.0,1.5581,0.0,8.0,8.0,8.0,1.0,2575120738-55529.jpg,2575120738-55528.jpg,A2LKGF193ZR5JP
369,1.0,right,right,1.0,2.4049,0.0,9.0,9.0,9.0,1.0,2611628310-206388.jpg,2883256307-365057.jpg,A2LKGF193ZR5JP
370,1.0,left,left,1.0,1.6493,0.0,10.0,10.0,10.0,1.0,2446759347-347016.jpg,2964224310-219528.jpg,A2LKGF193ZR5JP
371,3.0,left,right,0.0,1.1647,0.0,11.0,11.0,11.0,1.0,2449442529-124446.jpg,2898632385-217139.jpg,A2LKGF193ZR5JP
372,3.0,right,right,1.0,1.7206,0.0,12.0,12.0,12.0,1.0,2452380166-273109.jpg,2446759803-49249.jpg,A2LKGF193ZR5JP
373,1.0,left,left,1.0,1.127,0.0,13.0,13.0,13.0,1.0,2898635427-367120.jpg,2901946439-144040.jpg,A2LKGF193ZR5JP
374,1.0,left,left,1.0,1.5107,0.0,14.0,14.0,14.0,1.0,2592380177-354626.jpg,2986408339-146952.jpg,A2LKGF193ZR5JP
375,3.0,right,left,0.0,1.8522,0.0,15.0,15.0,15.0,1.0,2575120609-129862.jpg,2898618390-216538.jpg,A2LKGF193ZR5JP
376,3.0,left,right,0.0,0.8893,0.0,16.0,16.0,16.0,1.0,2964218374-144967.jpg,2981231446-294732.jpg,A2LKGF193ZR5JP
377,3.0,left,left,1.0,1.4151,0.0,17.0,17.0,17.0,1.0,2981241414-145842.jpg,2427873848-47312.jpg,A2LKGF193ZR5JP
378,3.0,left,left,1.0,1.4335,0.0,18.0,18.0,18.0,1.0,2238560245-182099.jpg,2238480980-168129.jpg,A2LKGF193ZR5JP
379,2.0,left,right,0.0,1.279,0.0,19.0,19.0,19.0,1.0,2874307433-66280.jpg,2981246400-220365.jpg,A2LKGF193ZR5JP
380,3.0,left,right,0.0,1.6943,0.0,20.0,20.0,20.0,1.0,2864910426-287204.jpg,2901939433-69672.jpg,A2LKGF193ZR5JP
381,3.0,left,left,1.0,0.9761,0.0,21.0,21.0,21.0,1.0,2868475410-213219.jpg,2868474407-362885.jpg,A2LKGF193ZR5JP
382,3.0,right,left,0.0,1.6722,0.0,22.0,22.0,22.0,1.0,2898633321-291943.jpg,2874302418-65978.jpg,A2LKGF193ZR5JP
383,2.0,left,left,1.0,1.515,0.0,23.0,23.0,23.0,1.0,2883268412-365898.jpg,2984615361-295510.jpg,A2LKGF193ZR5JP
384,1.0,left,left,1.0,0.9833,0.0,24.0,24.0,24.0,1.0,2874303365-214262.jpg,2609793677-355397.jpg,A2LKGF193ZR5JP
385,1.0,right,right,1.0,1.1202,0.0,25.0,25.0,25.0,1.0,2883268471-290843.jpg,2883268471-290842.jpg,A2LKGF193ZR5JP
386,2.0,left,right,0.0,3.0665,0.0,26.0,26.0,26.0,1.0,2901952513-70703.jpg,2868469411-287540.jpg,A2LKGF193ZR5JP
387,1.0,left,left,1.0,1.1247,0.0,27.0,27.0,27.0,1.0,2898635428-69104.jpg,2446759803-49250.jpg,A2LKGF193ZR5JP
388,3.0,right,right,1.0,1.6576,0.0,28.0,28.0,28.0,1.0,2989726338-74002.jpg,2864907432-362042.jpg,A2LKGF193ZR5JP
389,2.0,left,right,0.0,0.8243,0.0,29.0,29.0,29.0,1.0,2964223381-294447.jpg,2901941438-69836.jpg,A2LKGF193ZR5JP
390,3.0,right,right,1.0,3.5329,0.0,30.0,30.0,30.0,1.0,2898618444-142232.jpg,2898618444-142233.jpg,A2LKGF193ZR5JP
391,1.0,left,right,0.0,5.0616,0.0,31.0,31.0,31.0,1.0,2238428357-313623.jpg,2238499057-320266.jpg,A2LKGF193ZR5JP
392,2.0,right,left,0.0,1.1181,0.0,32.0,32.0,32.0,1.0,2860302315-210704.jpg,2986451363-73599.jpg,A2LKGF193ZR5JP
393,2.0,left,left,1.0,1.0024,0.0,33.0,33.0,33.0,1.0,2238481928-19949.jpg,2864900357-361688.jpg,A2LKGF193ZR5JP
394,2.0,right,left,0.0,0.9913,0.0,34.0,34.0,34.0,1.0,2864909447-362144.jpg,2446758985-197609.jpg,A2LKGF193ZR5JP
395,2.0,left,left,1.0,2.0298,0.0,35.0,35.0,35.0,1.0,2512875899-126682.jpg,2592380177-354628.jpg,A2LKGF193ZR5JP
396,1.0,left,left,1.0,0.9535,0.0,36.0,36.0,36.0,1.0,2238580740-186218.jpg,2238550816-254000.jpg,A2LKGF193ZR5JP
397,3.0,left,left,1.0,4.3887,0.0,37.0,37.0,37.0,1.0,2874301407-363895.jpg,2901947323-70275.jpg,A2LKGF193ZR5JP
398,2.0,right,left,0.0,0.9793,0.0,38.0,38.0,38.0,1.0,2238573546-258454.jpg,2238480677-317399.jpg,A2LKGF193ZR5JP
399,1.0,right,left,0.0,1.1303,0.0,39.0,39.0,39.0,1.0,2901938432-367627.jpg,2452381505-199546.jpg,A2LKGF193ZR5JP
400,1.0,left,right,0.0,1.1112,0.0,40.0,40.0,40.0,1.0,2901941401-292798.jpg,2898618327-366317.jpg,A2LKGF193ZR5JP
401,3.0,left,right,0.0,1.2593,0.0,41.0,41.0,41.0,1.0,2898634397-367080.jpg,2964217461-294238.jpg,A2LKGF193ZR5JP
402,1.0,right,right,1.0,1.5522,0.0,42.0,42.0,42.0,1.0,2238471391-240918.jpg,2238425482-313537.jpg,A2LKGF193ZR5JP
403,3.0,left,left,1.0,0.9705,0.0,43.0,43.0,43.0,1.0,2901948350-218459.jpg,2981246360-220352.jpg,A2LKGF193ZR5JP
404,1.0,left,left,1.0,0.9597,0.0,44.0,44.0,44.0,1.0,2460547467-349422.jpg,2898618440-216545.jpg,A2LKGF193ZR5JP
405,1.0,left,left,1.0,2.3296,0.0,45.0,45.0,45.0,1.0,2238572663-35822.jpg,2986419333-73361.jpg,A2LKGF193ZR5JP
406,2.0,right,right,1.0,1.7913,0.0,46.0,46.0,46.0,1.0,2901943387-368037.jpg,2898617468-68274.jpg,A2LKGF193ZR5JP
407,3.0,left,left,1.0,2.5968,0.0,47.0,47.0,47.0,1.0,2981231403-71642.jpg,2427873763-47290.jpg,A2LKGF193ZR5JP
408,1.0,left,left,1.0,1.2473,0.0,48.0,48.0,48.0,1.0,2458347385-199723.jpg,2238480434-93829.jpg,A2LKGF193ZR5JP
409,2.0,left,right,0.0,3.437,0.0,49.0,49.0,49.0,1.0,2874302418-65979.jpg,2238480648-19714.jpg,A2LKGF193ZR5JP
410,1.0,right,left,0.0,1.1122,0.0,50.0,50.0,50.0,1.0,2238328478-11678.jpg,2452380832-348593.jpg,A2LKGF193ZR5JP
411,3.0,right,right,1.0,0.8295,0.0,51.0,51.0,51.0,1.0,2898632385-217137.jpg,2449442529-124445.jpg,A2LKGF193ZR5JP
412,2.0,left,left,1.0,0.8294,0.0,52.0,52.0,52.0,1.0,2901939379-143480.jpg,2981229442-369621.jpg,A2LKGF193ZR5JP
413,3.0,right,right,1.0,0.8289,0.0,53.0,53.0,53.0,1.0,2981235446-294901.jpg,2460547467-349421.jpg,A2LKGF193ZR5JP
414,1.0,left,left,1.0,1.0904,0.0,54.0,54.0,54.0,1.0,2592380177-354629.jpg,2898633421-291974.jpg,A2LKGF193ZR5JP
415,2.0,left,left,1.0,1.2355,0.0,55.0,55.0,55.0,1.0,2460547508-51571.jpg,2981232437-369759.jpg,A2LKGF193ZR5JP
416,3.0,right,left,0.0,1.1117,0.0,56.0,56.0,56.0,1.0,2964213381-294061.jpg,2964213381-294060.jpg,A2LKGF193ZR5JP
417,1.0,right,right,1.0,0.9711,0.0,57.0,57.0,57.0,1.0,2446760844-124088.jpg,2883254439-140941.jpg,A2LKGF193ZR5JP
418,1.0,left,left,1.0,0.9581,0.0,58.0,58.0,58.0,1.0,2901947423-70311.jpg,2860312398-62572.jpg,A2LKGF193ZR5JP
419,2.0,left,left,1.0,1.3668,0.0,59.0,59.0,59.0,1.0,2868474407-362883.jpg,2981246400-220363.jpg,A2LKGF193ZR5JP
420,3.0,right,right,1.0,1.43,0.0,0.0,0.0,0.0,1.0,2981235446-294901.jpg,2460547467-349421.jpg,A2M3FPQF852HW4
421,1.0,right,left,0.0,1.1929,0.0,1.0,1.0,1.0,1.0,2883266388-67750.jpg,2874299429-139695.jpg,A2M3FPQF852HW4
422,3.0,right,right,1.0,1.3321,0.0,2.0,2.0,2.0,1.0,2994401319-148290.jpg,2452381505-199546.jpg,A2M3FPQF852HW4
423,1.0,left,left,1.0,1.3225,0.0,3.0,3.0,3.0,1.0,2592380177-354626.jpg,2986408339-146952.jpg,A2M3FPQF852HW4
424,3.0,right,right,1.0,1.6388,0.0,4.0,4.0,4.0,1.0,2427873763-47290.jpg,2981231403-71642.jpg,A2M3FPQF852HW4
425,2.0,left,right,0.0,1.534,0.0,5.0,5.0,5.0,1.0,2458347385-199723.jpg,2427874554-121863.jpg,A2M3FPQF852HW4
426,3.0,right,right,1.0,1.3363,0.0,6.0,6.0,6.0,1.0,2898632385-217137.jpg,2449442529-124445.jpg,A2M3FPQF852HW4
427,3.0,right,right,1.0,1.3005,0.0,7.0,7.0,7.0,1.0,2868474407-362885.jpg,2868475410-213219.jpg,A2M3FPQF852HW4
428,2.0,right,left,0.0,1.7185,0.0,8.0,8.0,8.0,1.0,2984615361-295510.jpg,2883268412-365898.jpg,A2M3FPQF852HW4
429,2.0,left,left,1.0,1.4577,0.0,9.0,9.0,9.0,1.0,2898618444-142233.jpg,2238555262-330312.jpg,A2M3FPQF852HW4
430,1.0,right,right,1.0,1.0933,0.0,10.0,10.0,10.0,1.0,2446759803-49251.jpg,2449442529-124446.jpg,A2M3FPQF852HW4
431,2.0,left,left,1.0,1.8302,0.0,11.0,11.0,11.0,1.0,2964216465-219242.jpg,2864900319-137787.jpg,A2M3FPQF852HW4
432,1.0,left,left,1.0,1.6587,0.0,12.0,12.0,12.0,1.0,2446759347-347016.jpg,2964224310-219528.jpg,A2M3FPQF852HW4
433,2.0,right,right,1.0,1.4396,0.0,13.0,13.0,13.0,1.0,2981229442-369621.jpg,2901939379-143480.jpg,A2M3FPQF852HW4
434,1.0,right,right,1.0,1.318,0.0,14.0,14.0,14.0,1.0,2238328478-11678.jpg,2452380832-348593.jpg,A2M3FPQF852HW4
435,3.0,left,left,1.0,1.6387,0.0,15.0,15.0,15.0,1.0,2898617468-68274.jpg,2964207374-144577.jpg,A2M3FPQF852HW4
436,1.0,left,left,1.0,1.2633,0.0,16.0,16.0,16.0,1.0,2238580740-186218.jpg,2238550816-254000.jpg,A2M3FPQF852HW4
437,3.0,right,right,1.0,1.1727,0.0,17.0,17.0,17.0,1.0,2238480803-19737.jpg,2238481198-19822.jpg,A2M3FPQF852HW4
438,2.0,left,right,0.0,1.5093,0.0,18.0,18.0,18.0,1.0,2898624426-291546.jpg,2981236443-71859.jpg,A2M3FPQF852HW4
439,2.0,left,right,0.0,1.1752,0.0,19.0,19.0,19.0,1.0,2238428357-313623.jpg,2984615361-295509.jpg,A2M3FPQF852HW4
440,3.0,right,right,1.0,2.7126,0.0,20.0,20.0,20.0,1.0,2964213381-294061.jpg,2964213381-294060.jpg,A2M3FPQF852HW4
441,2.0,right,right,1.0,1.0692,0.0,21.0,21.0,21.0,1.0,2864909447-362144.jpg,2446758985-197609.jpg,A2M3FPQF852HW4
442,1.0,right,left,0.0,1.4168,0.0,22.0,22.0,22.0,1.0,2512876023-52283.jpg,2898633421-291973.jpg,A2M3FPQF852HW4
443,3.0,left,left,1.0,1.1111,0.0,23.0,23.0,23.0,1.0,2592380177-354629.jpg,2512875587-350044.jpg,A2M3FPQF852HW4
444,1.0,left,left,1.0,1.8903,0.0,24.0,24.0,24.0,1.0,2238481928-19949.jpg,2883264367-365620.jpg,A2M3FPQF852HW4
445,1.0,left,left,1.0,1.476,0.0,25.0,25.0,25.0,1.0,2874302418-65978.jpg,2898626385-216899.jpg,A2M3FPQF852HW4
446,2.0,left,left,1.0,2.4706,0.0,26.0,26.0,26.0,1.0,2883268471-290842.jpg,2883255450-215310.jpg,A2M3FPQF852HW4
447,3.0,right,right,1.0,0.9796,0.0,27.0,27.0,27.0,1.0,2901941438-69835.jpg,2460547508-51571.jpg,A2M3FPQF852HW4
448,3.0,left,left,1.0,1.6168,0.0,28.0,28.0,28.0,1.0,2238560245-182099.jpg,2238480980-168129.jpg,A2M3FPQF852HW4
449,3.0,left,right,0.0,1.1241,0.0,29.0,29.0,29.0,1.0,2964223381-294447.jpg,2898628438-68785.jpg,A2M3FPQF852HW4
450,2.0,left,right,0.0,1.2095,0.0,30.0,30.0,30.0,1.0,2874302418-65979.jpg,2238480648-19714.jpg,A2M3FPQF852HW4
451,1.0,right,right,1.0,1.4932,0.0,31.0,31.0,31.0,1.0,2883268412-365899.jpg,2449441881-272368.jpg,A2M3FPQF852HW4
452,3.0,right,left,0.0,1.4433,0.0,32.0,32.0,32.0,1.0,2864904453-63933.jpg,2883256307-365057.jpg,A2M3FPQF852HW4
453,1.0,left,left,1.0,2.0148,0.0,33.0,33.0,33.0,1.0,2898618390-216538.jpg,2986449336-296644.jpg,A2M3FPQF852HW4
454,2.0,left,right,0.0,1.4474,0.0,34.0,34.0,34.0,1.0,2874303365-214262.jpg,2238563377-332054.jpg,A2M3FPQF852HW4
455,1.0,right,left,0.0,1.0612,0.0,35.0,35.0,35.0,1.0,2986419333-73361.jpg,2238572663-35822.jpg,A2M3FPQF852HW4
456,2.0,right,left,0.0,1.6072,0.0,36.0,36.0,36.0,1.0,2874299429-139694.jpg,2864910426-287204.jpg,A2M3FPQF852HW4
457,1.0,left,right,0.0,2.3011,0.0,37.0,37.0,37.0,1.0,2238480677-317399.jpg,2238481630-168218.jpg,A2M3FPQF852HW4
458,1.0,right,left,0.0,1.5853,0.0,38.0,38.0,38.0,1.0,2986447306-296584.jpg,2874307433-66280.jpg,A2M3FPQF852HW4
459,1.0,left,right,0.0,1.4224,0.0,39.0,39.0,39.0,1.0,2981241414-145842.jpg,2856919327-359676.jpg,A2M3FPQF852HW4
460,1.0,right,left,0.0,1.6767,0.0,40.0,40.0,40.0,1.0,2964218374-144968.jpg,2964218374-144967.jpg,A2M3FPQF852HW4
461,2.0,left,left,1.0,1.297,0.0,41.0,41.0,41.0,1.0,2901948350-218459.jpg,2417208001-267065.jpg,A2M3FPQF852HW4
462,3.0,right,right,1.0,2.0275,0.0,42.0,42.0,42.0,1.0,2238531493-28260.jpg,2575120738-55529.jpg,A2M3FPQF852HW4
463,3.0,right,right,1.0,1.3566,0.0,43.0,43.0,43.0,1.0,2592380272-354673.jpg,2592379964-131054.jpg,A2M3FPQF852HW4
464,2.0,left,right,0.0,2.4403,0.0,44.0,44.0,44.0,1.0,2883254439-140941.jpg,2898632385-217136.jpg,A2M3FPQF852HW4
465,2.0,left,right,0.0,1.5271,0.0,45.0,45.0,45.0,1.0,2986451363-73599.jpg,2860302315-210704.jpg,A2M3FPQF852HW4
466,2.0,right,right,1.0,1.4012,0.0,46.0,46.0,46.0,1.0,2238436322-314047.jpg,2238425482-313537.jpg,A2M3FPQF852HW4
467,3.0,right,left,0.0,1.1129,0.0,47.0,47.0,47.0,1.0,2964217461-294238.jpg,2898634397-367080.jpg,A2M3FPQF852HW4
468,1.0,left,left,1.0,1.2651,0.0,48.0,48.0,48.0,1.0,2901952513-70703.jpg,2864907361-287062.jpg,A2M3FPQF852HW4
469,3.0,left,left,1.0,2.0585,0.0,49.0,49.0,49.0,1.0,2901939379-143479.jpg,2981240424-145794.jpg,A2M3FPQF852HW4
470,2.0,right,right,1.0,1.07,0.0,50.0,50.0,50.0,1.0,2898618440-216547.jpg,2446759803-49249.jpg,A2M3FPQF852HW4
471,3.0,left,left,1.0,1.3333,0.0,51.0,51.0,51.0,1.0,2874301407-363895.jpg,2901947323-70275.jpg,A2M3FPQF852HW4
472,2.0,right,right,1.0,2.7227,0.0,52.0,52.0,52.0,1.0,2592380177-354628.jpg,2512875899-126682.jpg,A2M3FPQF852HW4
473,1.0,right,left,0.0,1.3414,0.0,53.0,53.0,53.0,1.0,2446759803-49250.jpg,2898635428-69104.jpg,A2M3FPQF852HW4
474,3.0,left,left,1.0,1.6725,0.0,54.0,54.0,54.0,1.0,2901947423-70311.jpg,2238577590-185467.jpg,A2M3FPQF852HW4
475,2.0,left,left,1.0,1.0329,0.0,55.0,55.0,55.0,1.0,2460547467-349422.jpg,2868487415-213924.jpg,A2M3FPQF852HW4
476,1.0,left,left,1.0,1.3987,0.0,56.0,56.0,56.0,1.0,2868474407-362883.jpg,2238516618-25604.jpg,A2M3FPQF852HW4
477,3.0,right,right,1.0,1.2645,0.0,57.0,57.0,57.0,1.0,2989726338-74002.jpg,2864907432-362042.jpg,A2M3FPQF852HW4
478,1.0,right,right,1.0,1.7852,0.0,58.0,58.0,58.0,1.0,2898618327-366317.jpg,2901941401-292798.jpg,A2M3FPQF852HW4
479,2.0,right,right,1.0,1.471,0.0,59.0,59.0,59.0,1.0,2868479517-363220.jpg,2898635427-367120.jpg,A2M3FPQF852HW4
480,3.0,left,right,0.0,2.0269,0.0,0.0,0.0,0.0,1.0,2512875899-126682.jpg,2986447332-371497.jpg,A2NT3OQZUUZPEO
481,2.0,right,left,0.0,1.397,0.0,1.0,1.0,1.0,1.0,2981243412-370222.jpg,2901941401-292798.jpg,A2NT3OQZUUZPEO
482,3.0,left,left,1.0,2.1938,0.0,2.0,2.0,2.0,1.0,2868474407-362883.jpg,2901948383-70363.jpg,A2NT3OQZUUZPEO
483,2.0,left,left,1.0,1.5445,0.0,3.0,3.0,3.0,1.0,2898633421-291973.jpg,2575118671-277663.jpg,A2NT3OQZUUZPEO
484,1.0,right,right,1.0,4.1644,0.0,4.0,4.0,4.0,1.0,2274829821-263682.jpg,2981231403-71642.jpg,A2NT3OQZUUZPEO
485,1.0,right,right,1.0,2.8831,0.0,5.0,5.0,5.0,1.0,2901946439-144040.jpg,2898635427-367120.jpg,A2NT3OQZUUZPEO
486,2.0,right,left,0.0,2.9461,0.0,6.0,6.0,6.0,1.0,2984615358-72439.jpg,2449441881-272368.jpg,A2NT3OQZUUZPEO
487,3.0,left,left,1.0,2.4516,0.0,7.0,7.0,7.0,1.0,2883268471-290842.jpg,2901947448-70314.jpg,A2NT3OQZUUZPEO
488,3.0,left,left,1.0,3.9216,0.0,8.0,8.0,8.0,1.0,2592379964-131054.jpg,2592380272-354673.jpg,A2NT3OQZUUZPEO
489,3.0,left,left,1.0,4.039,0.0,9.0,9.0,9.0,1.0,2874302418-65978.jpg,2898633321-291943.jpg,A2NT3OQZUUZPEO
490,1.0,left,left,1.0,3.1177,0.0,10.0,10.0,10.0,1.0,2446759803-49249.jpg,2446760601-272099.jpg,A2NT3OQZUUZPEO
491,1.0,right,left,0.0,4.0305,0.0,11.0,11.0,11.0,1.0,2238481630-168218.jpg,2238480677-317399.jpg,A2NT3OQZUUZPEO
492,3.0,right,right,1.0,6.1192,0.0,12.0,12.0,12.0,1.0,2981241419-145844.jpg,2238481928-19949.jpg,A2NT3OQZUUZPEO
493,2.0,left,left,1.0,2.1299,0.0,13.0,13.0,13.0,1.0,2575120738-55529.jpg,2575120738-55528.jpg,A2NT3OQZUUZPEO
494,1.0,left,left,1.0,2.5662,0.0,14.0,14.0,14.0,1.0,2446759347-347016.jpg,2964224310-219528.jpg,A2NT3OQZUUZPEO
495,1.0,left,left,1.0,3.3809,0.0,15.0,15.0,15.0,1.0,2458347385-199723.jpg,2238480434-93829.jpg,A2NT3OQZUUZPEO
496,1.0,right,left,0.0,3.4189,0.0,16.0,16.0,16.0,1.0,2981244394-145974.jpg,2964213381-294060.jpg,A2NT3OQZUUZPEO
497,1.0,right,right,1.0,4.1952,0.0,17.0,17.0,17.0,1.0,2452380171-273112.jpg,2449442529-124445.jpg,A2NT3OQZUUZPEO
498,2.0,right,left,0.0,3.1857,0.0,18.0,18.0,18.0,1.0,2901947423-70310.jpg,2864907432-362042.jpg,A2NT3OQZUUZPEO
499,3.0,right,right,1.0,5.8692,0.0,19.0,19.0,19.0,1.0,2238577590-185467.jpg,2901947423-70311.jpg,A2NT3OQZUUZPEO
500,3.0,left,left,1.0,2.6529,0.0,20.0,20.0,20.0,1.0,2460547467-349422.jpg,2864909447-362146.jpg,A2NT3OQZUUZPEO
501,1.0,right,left,0.0,3.1295,0.0,21.0,21.0,21.0,1.0,2986408339-146952.jpg,2592380177-354626.jpg,A2NT3OQZUUZPEO
502,1.0,right,right,1.0,3.4185,0.0,22.0,22.0,22.0,1.0,2864906345-212360.jpg,2898617468-68274.jpg,A2NT3OQZUUZPEO
503,2.0,left,left,1.0,5.2531,0.0,23.0,23.0,23.0,1.0,2874299429-139695.jpg,2901942443-69923.jpg,A2NT3OQZUUZPEO
504,3.0,right,left,0.0,4.7362,0.0,24.0,24.0,24.0,1.0,2864904453-63933.jpg,2883256307-365057.jpg,A2NT3OQZUUZPEO
505,2.0,left,left,1.0,2.842,0.0,25.0,25.0,25.0,1.0,2238580740-186218.jpg,2238521193-26285.jpg,A2NT3OQZUUZPEO
506,2.0,right,left,0.0,3.6943,0.0,26.0,26.0,26.0,1.0,2238480648-19714.jpg,2874302418-65979.jpg,A2NT3OQZUUZPEO
507,1.0,left,left,1.0,5.2692,0.0,27.0,27.0,27.0,1.0,2901939379-143479.jpg,2460547467-349423.jpg,A2NT3OQZUUZPEO
508,1.0,right,left,0.0,3.1485,0.0,28.0,28.0,28.0,1.0,2883264368-67631.jpg,2874301407-363895.jpg,A2NT3OQZUUZPEO
509,3.0,right,right,1.0,4.5302,0.0,29.0,29.0,29.0,1.0,2964217461-294238.jpg,2898634397-367080.jpg,A2NT3OQZUUZPEO
510,3.0,right,right,1.0,1.5525,0.0,30.0,30.0,30.0,1.0,2449442181-272436.jpg,2452380832-348593.jpg,A2NT3OQZUUZPEO
511,2.0,left,right,0.0,3.2795,0.0,31.0,31.0,31.0,1.0,2964216465-219242.jpg,2864900319-137787.jpg,A2NT3OQZUUZPEO
512,3.0,right,left,0.0,3.0078,0.0,32.0,32.0,32.0,1.0,2901938432-367629.jpg,2901939379-143480.jpg,A2NT3OQZUUZPEO
513,2.0,right,right,1.0,5.6303,0.0,33.0,33.0,33.0,1.0,2874299429-139694.jpg,2864910426-287204.jpg,A2NT3OQZUUZPEO
514,3.0,left,left,1.0,1.5573,0.0,34.0,34.0,34.0,1.0,2898635428-69104.jpg,2898625336-291572.jpg,A2NT3OQZUUZPEO
515,3.0,left,right,0.0,2.3789,0.0,35.0,35.0,35.0,1.0,2964223381-294447.jpg,2898628438-68785.jpg,A2NT3OQZUUZPEO
516,3.0,left,right,0.0,4.8155,0.0,36.0,36.0,36.0,1.0,2868475410-213219.jpg,2868474407-362885.jpg,A2NT3OQZUUZPEO
517,1.0,right,right,1.0,3.1356,0.0,37.0,37.0,37.0,1.0,2549106624-127823.jpg,2238560245-182099.jpg,A2NT3OQZUUZPEO
518,1.0,left,right,0.0,4.4282,0.0,38.0,38.0,38.0,1.0,2452381505-199546.jpg,2901938432-367627.jpg,A2NT3OQZUUZPEO
519,1.0,left,left,1.0,1.9854,0.0,39.0,39.0,39.0,1.0,2238428357-313623.jpg,2238499057-320266.jpg,A2NT3OQZUUZPEO
520,3.0,right,left,0.0,2.6278,0.0,40.0,40.0,40.0,1.0,2238436252-314037.jpg,2883268412-365898.jpg,A2NT3OQZUUZPEO
521,3.0,left,right,0.0,2.2195,0.0,41.0,41.0,41.0,1.0,2901952513-70703.jpg,2238481198-19821.jpg,A2NT3OQZUUZPEO
522,2.0,right,right,1.0,2.018,0.0,42.0,42.0,42.0,1.0,2238436322-314047.jpg,2238425482-313537.jpg,A2NT3OQZUUZPEO
523,2.0,left,left,1.0,4.4641,0.0,43.0,43.0,43.0,1.0,2874303365-214262.jpg,2238563377-332054.jpg,A2NT3OQZUUZPEO
524,2.0,left,left,1.0,3.2026,0.0,44.0,44.0,44.0,1.0,2446758985-197609.jpg,2864909447-362144.jpg,A2NT3OQZUUZPEO
525,1.0,right,right,1.0,1.6867,0.0,45.0,45.0,45.0,1.0,2986419333-73361.jpg,2238572663-35822.jpg,A2NT3OQZUUZPEO
526,2.0,left,left,1.0,1.9475,0.0,46.0,46.0,46.0,1.0,2460547467-349421.jpg,2452380166-273110.jpg,A2NT3OQZUUZPEO
527,1.0,right,right,1.0,1.3434,0.0,47.0,47.0,47.0,1.0,2901939327-367669.jpg,2986451363-73599.jpg,A2NT3OQZUUZPEO
528,1.0,left,left,1.0,4.18,0.0,48.0,48.0,48.0,1.0,2874307433-66280.jpg,2986447306-296584.jpg,A2NT3OQZUUZPEO
529,1.0,right,left,0.0,1.4537,0.0,49.0,49.0,49.0,1.0,2446759803-49251.jpg,2449442529-124446.jpg,A2NT3OQZUUZPEO
530,3.0,left,left,1.0,1.4149,0.0,50.0,50.0,50.0,1.0,2964218374-144967.jpg,2981231446-294732.jpg,A2NT3OQZUUZPEO
531,2.0,left,left,1.0,1.7291,0.0,51.0,51.0,51.0,1.0,2901948350-218459.jpg,2417208001-267065.jpg,A2NT3OQZUUZPEO
532,1.0,right,right,1.0,1.8465,0.0,52.0,52.0,52.0,1.0,2862691449-137104.jpg,2238481198-19822.jpg,A2NT3OQZUUZPEO
533,3.0,right,right,1.0,2.3605,0.0,53.0,53.0,53.0,1.0,2427873848-47312.jpg,2981241414-145842.jpg,A2NT3OQZUUZPEO
534,2.0,right,left,0.0,2.4174,0.0,54.0,54.0,54.0,1.0,2898632385-217136.jpg,2883254439-140941.jpg,A2NT3OQZUUZPEO
535,3.0,right,left,0.0,4.1798,0.0,55.0,55.0,55.0,1.0,2512875587-350044.jpg,2592380177-354629.jpg,A2NT3OQZUUZPEO
536,2.0,left,left,1.0,2.8189,0.0,56.0,56.0,56.0,1.0,2898618390-216538.jpg,2901939327-367670.jpg,A2NT3OQZUUZPEO
537,2.0,left,left,1.0,2.0797,0.0,57.0,57.0,57.0,1.0,2898618444-142233.jpg,2238555262-330312.jpg,A2NT3OQZUUZPEO
538,2.0,left,left,1.0,1.0645,0.0,58.0,58.0,58.0,1.0,2460547508-51571.jpg,2981232437-369759.jpg,A2NT3OQZUUZPEO
539,2.0,right,right,1.0,3.8637,0.0,59.0,59.0,59.0,1.0,2981236443-71859.jpg,2898624426-291546.jpg,A2NT3OQZUUZPEO
540,3.0,left,left,1.0,5.7821,0.0,0.0,0.0,0.0,1.0,2874299429-139695.jpg,2446760917-347439.jpg,A2OZN198ZV1VKK
541,2.0,left,left,1.0,1.6422,0.0,1.0,1.0,1.0,1.0,2446758985-197609.jpg,2864909447-362144.jpg,A2OZN198ZV1VKK
542,2.0,right,left,0.0,1.4394,0.0,2.0,2.0,2.0,1.0,2901934408-69289.jpg,2898634397-367080.jpg,A2OZN198ZV1VKK
543,2.0,right,right,1.0,2.3531,0.0,3.0,3.0,3.0,1.0,2964210336-293945.jpg,2883256307-365057.jpg,A2OZN198ZV1VKK
544,2.0,right,right,1.0,1.2296,0.0,4.0,4.0,4.0,1.0,2575118671-277663.jpg,2898633421-291973.jpg,A2OZN198ZV1VKK
545,3.0,right,left,0.0,2.3163,0.0,5.0,5.0,5.0,1.0,2901941438-69835.jpg,2460547508-51571.jpg,A2OZN198ZV1VKK
546,2.0,left,right,0.0,1.321,0.0,6.0,6.0,6.0,1.0,2883268471-290842.jpg,2883255450-215310.jpg,A2OZN198ZV1VKK
547,1.0,left,left,1.0,1.2991,0.0,7.0,7.0,7.0,1.0,2901948350-218459.jpg,2804906319-133082.jpg,A2OZN198ZV1VKK
548,2.0,left,left,1.0,1.4515,0.0,8.0,8.0,8.0,1.0,2460547467-349421.jpg,2452380166-273110.jpg,A2OZN198ZV1VKK
549,1.0,right,right,1.0,1.5795,0.0,9.0,9.0,9.0,1.0,2460547467-349423.jpg,2901939379-143479.jpg,A2OZN198ZV1VKK
550,1.0,left,left,1.0,1.1323,0.0,10.0,10.0,10.0,1.0,2898617468-68274.jpg,2864906345-212360.jpg,A2OZN198ZV1VKK
551,2.0,left,right,0.0,1.2234,0.0,11.0,11.0,11.0,1.0,2883268412-365898.jpg,2984615361-295510.jpg,A2OZN198ZV1VKK
552,2.0,left,right,0.0,1.5836,0.0,12.0,12.0,12.0,1.0,2898618444-142233.jpg,2238555262-330312.jpg,A2OZN198ZV1VKK
553,1.0,left,left,1.0,2.845,0.0,13.0,13.0,13.0,1.0,2874303365-214262.jpg,2609793677-355397.jpg,A2OZN198ZV1VKK
554,2.0,left,left,1.0,1.4167,0.0,14.0,14.0,14.0,1.0,2874307433-66280.jpg,2981246400-220365.jpg,A2OZN198ZV1VKK
555,1.0,left,left,1.0,2.4109,0.0,15.0,15.0,15.0,1.0,2592379964-131054.jpg,2575963989-130576.jpg,A2OZN198ZV1VKK
556,3.0,left,right,0.0,1.1971,0.0,16.0,16.0,16.0,1.0,2238580740-186218.jpg,2964220333-71258.jpg,A2OZN198ZV1VKK
557,1.0,left,left,1.0,1.9046,0.0,17.0,17.0,17.0,1.0,2449442529-124446.jpg,2446759803-49251.jpg,A2OZN198ZV1VKK
558,1.0,right,right,1.0,2.0157,0.0,18.0,18.0,18.0,1.0,2860312398-62572.jpg,2901947423-70311.jpg,A2OZN198ZV1VKK
559,3.0,left,right,0.0,2.4896,0.0,19.0,19.0,19.0,1.0,2238428357-313623.jpg,2575121987-353817.jpg,A2OZN198ZV1VKK
560,3.0,left,left,1.0,2.3495,0.0,20.0,20.0,20.0,1.0,2898635428-69104.jpg,2898625336-291572.jpg,A2OZN198ZV1VKK
561,2.0,right,right,1.0,1.5721,0.0,21.0,21.0,21.0,1.0,2898618440-216547.jpg,2446759803-49249.jpg,A2OZN198ZV1VKK
562,3.0,right,right,1.0,1.8371,0.0,22.0,22.0,22.0,1.0,2427873763-47290.jpg,2981231403-71642.jpg,A2OZN198ZV1VKK
563,3.0,left,right,0.0,1.7897,0.0,23.0,23.0,23.0,1.0,2901941401-292798.jpg,2883273443-68193.jpg,A2OZN198ZV1VKK
564,3.0,left,left,1.0,1.0142,0.0,24.0,24.0,24.0,1.0,2964218374-144967.jpg,2981231446-294732.jpg,A2OZN198ZV1VKK
565,1.0,left,right,0.0,0.9912,0.0,25.0,25.0,25.0,1.0,2592380177-354629.jpg,2898633421-291974.jpg,A2OZN198ZV1VKK
566,1.0,right,right,1.0,1.1108,0.0,26.0,26.0,26.0,1.0,2856919327-359676.jpg,2981241414-145842.jpg,A2OZN198ZV1VKK
567,1.0,left,right,0.0,1.7416,0.0,27.0,27.0,27.0,1.0,2446759347-347016.jpg,2964224310-219528.jpg,A2OZN198ZV1VKK
568,3.0,left,left,1.0,0.9947,0.0,28.0,28.0,28.0,1.0,2901939379-143480.jpg,2901938432-367629.jpg,A2OZN198ZV1VKK
569,2.0,right,right,1.0,1.3821,0.0,29.0,29.0,29.0,1.0,2238573546-258454.jpg,2238480677-317399.jpg,A2OZN198ZV1VKK
570,3.0,left,left,1.0,1.7432,0.0,30.0,30.0,30.0,1.0,2238572663-35822.jpg,2864903351-286874.jpg,A2OZN198ZV1VKK
571,1.0,left,right,0.0,1.826,0.0,31.0,31.0,31.0,1.0,2868475410-213219.jpg,2901946465-218350.jpg,A2OZN198ZV1VKK
572,3.0,left,right,0.0,3.9872,0.0,32.0,32.0,32.0,1.0,2986451363-73599.jpg,2238434559-90406.jpg,A2OZN198ZV1VKK
573,1.0,left,left,1.0,1.2746,0.0,33.0,33.0,33.0,1.0,2868474407-362883.jpg,2238516618-25604.jpg,A2OZN198ZV1VKK
574,2.0,left,left,1.0,1.163,0.0,34.0,34.0,34.0,1.0,2864907432-362042.jpg,2901947423-70310.jpg,A2OZN198ZV1VKK
575,2.0,left,left,1.0,2.9776,0.0,35.0,35.0,35.0,1.0,2238425482-313537.jpg,2238436322-314047.jpg,A2OZN198ZV1VKK
576,2.0,left,right,0.0,1.1745,0.0,36.0,36.0,36.0,1.0,2898618390-216538.jpg,2901939327-367670.jpg,A2OZN198ZV1VKK
577,3.0,left,left,1.0,1.7127,0.0,37.0,37.0,37.0,1.0,2575120738-55529.jpg,2238531493-28260.jpg,A2OZN198ZV1VKK
578,3.0,left,right,0.0,1.4898,0.0,38.0,38.0,38.0,1.0,2901952513-70703.jpg,2238481198-19821.jpg,A2OZN198ZV1VKK
579,3.0,left,left,1.0,1.59,0.0,39.0,39.0,39.0,1.0,2874302418-65979.jpg,2238578544-111698.jpg,A2OZN198ZV1VKK
580,2.0,right,left,0.0,1.7184,0.0,40.0,40.0,40.0,1.0,2874299429-139694.jpg,2864910426-287204.jpg,A2OZN198ZV1VKK
581,1.0,right,right,1.0,1.8198,0.0,41.0,41.0,41.0,1.0,2238544191-252422.jpg,2964216465-219242.jpg,A2OZN198ZV1VKK
582,1.0,left,right,0.0,1.8234,0.0,42.0,42.0,42.0,1.0,2512875899-126682.jpg,2460547536-274179.jpg,A2OZN198ZV1VKK
583,3.0,right,right,1.0,5.3657,0.0,43.0,43.0,43.0,1.0,2449442181-272436.jpg,2452380832-348593.jpg,A2OZN198ZV1VKK
584,1.0,right,right,1.0,1.2681,0.0,44.0,44.0,44.0,1.0,2549106624-127823.jpg,2238560245-182099.jpg,A2OZN198ZV1VKK
585,3.0,left,left,1.0,1.338,0.0,45.0,45.0,45.0,1.0,2883254439-140941.jpg,2981231446-294730.jpg,A2OZN198ZV1VKK
586,3.0,left,left,1.0,1.2816,0.0,46.0,46.0,46.0,1.0,2458347385-199723.jpg,2458347252-348911.jpg,A2OZN198ZV1VKK
587,2.0,right,right,1.0,1.1283,0.0,47.0,47.0,47.0,1.0,2986397322-371109.jpg,2874301407-363895.jpg,A2OZN198ZV1VKK
588,3.0,left,left,1.0,2.2452,0.0,48.0,48.0,48.0,1.0,2460547467-349422.jpg,2864909447-362146.jpg,A2OZN198ZV1VKK
589,3.0,right,right,1.0,1.9628,0.0,49.0,49.0,49.0,1.0,2898632385-217137.jpg,2449442529-124445.jpg,A2OZN198ZV1VKK
590,1.0,left,left,1.0,1.3913,0.0,50.0,50.0,50.0,1.0,2898624426-291546.jpg,2964218432-369263.jpg,A2OZN198ZV1VKK
591,1.0,left,right,0.0,1.6589,0.0,51.0,51.0,51.0,1.0,2964213381-294060.jpg,2981244394-145974.jpg,A2OZN198ZV1VKK
592,3.0,right,right,1.0,2.0682,0.0,52.0,52.0,52.0,1.0,2898633321-291943.jpg,2874302418-65978.jpg,A2OZN198ZV1VKK
593,1.0,right,right,1.0,2.1485,0.0,53.0,53.0,53.0,1.0,2901946439-144040.jpg,2898635427-367120.jpg,A2OZN198ZV1VKK
594,2.0,left,right,0.0,2.2199,0.0,54.0,54.0,54.0,1.0,2592380177-354626.jpg,2864901386-286797.jpg,A2OZN198ZV1VKK
595,1.0,right,left,0.0,2.1488,0.0,55.0,55.0,55.0,1.0,2901938432-367627.jpg,2452381505-199546.jpg,A2OZN198ZV1VKK
596,2.0,left,left,1.0,1.5249,0.0,56.0,56.0,56.0,1.0,2238481928-19949.jpg,2864900357-361688.jpg,A2OZN198ZV1VKK
597,1.0,right,right,1.0,1.7557,0.0,57.0,57.0,57.0,1.0,2883268412-365899.jpg,2449441881-272368.jpg,A2OZN198ZV1VKK
598,2.0,right,left,0.0,1.2453,0.0,58.0,58.0,58.0,1.0,2901946436-293242.jpg,2238481198-19822.jpg,A2OZN198ZV1VKK
599,2.0,right,right,1.0,1.3044,0.0,59.0,59.0,59.0,1.0,2901941438-69836.jpg,2964223381-294447.jpg,A2OZN198ZV1VKK
600,1.0,left,left,1.0,10.4847,0.0,0.0,0.0,0.0,1.0,2238480677-317399.jpg,2238481630-168218.jpg,A2V27A9GZA1NR2
601,3.0,left,left,1.0,3.3838,0.0,1.0,1.0,1.0,1.0,2458347385-199723.jpg,2458347252-348911.jpg,A2V27A9GZA1NR2
602,3.0,right,right,1.0,1.7862,0.0,2.0,2.0,2.0,1.0,2238480803-19737.jpg,2238481198-19822.jpg,A2V27A9GZA1NR2
603,3.0,right,right,1.0,2.1492,0.0,3.0,3.0,3.0,1.0,2238117096-228518.jpg,2592380177-354626.jpg,A2V27A9GZA1NR2
604,2.0,left,left,1.0,2.2309,0.0,4.0,4.0,4.0,1.0,2901952513-70703.jpg,2868469411-287540.jpg,A2V27A9GZA1NR2
605,2.0,left,right,0.0,5.0734,0.0,5.0,5.0,5.0,1.0,2901947423-70311.jpg,2238573447-333826.jpg,A2V27A9GZA1NR2
606,1.0,left,right,0.0,1.4306,0.0,6.0,6.0,6.0,1.0,2238428357-313623.jpg,2238499057-320266.jpg,A2V27A9GZA1NR2
607,3.0,right,right,1.0,1.989,0.0,7.0,7.0,7.0,1.0,2981235446-294900.jpg,2898624426-291546.jpg,A2V27A9GZA1NR2
608,3.0,right,left,0.0,1.6049,0.0,8.0,8.0,8.0,1.0,2575120609-129862.jpg,2898618390-216538.jpg,A2V27A9GZA1NR2
609,1.0,left,left,1.0,1.2509,0.0,9.0,9.0,9.0,1.0,2449441881-272368.jpg,2883268412-365899.jpg,A2V27A9GZA1NR2
610,3.0,left,left,1.0,1.2888,0.0,10.0,10.0,10.0,1.0,2901941401-292798.jpg,2883273443-68193.jpg,A2V27A9GZA1NR2
611,1.0,left,right,0.0,1.3538,0.0,11.0,11.0,11.0,1.0,2449442529-124445.jpg,2452380171-273112.jpg,A2V27A9GZA1NR2
612,1.0,left,right,0.0,0.7847,0.0,12.0,12.0,12.0,1.0,2898617468-68274.jpg,2864906345-212360.jpg,A2V27A9GZA1NR2
613,1.0,left,right,0.0,0.8373,0.0,13.0,13.0,13.0,1.0,2446759803-49249.jpg,2446760601-272099.jpg,A2V27A9GZA1NR2
614,3.0,left,left,1.0,1.2055,0.0,14.0,14.0,14.0,1.0,2460547508-51571.jpg,2901941438-69835.jpg,A2V27A9GZA1NR2
615,2.0,right,left,0.0,0.8974,0.0,15.0,15.0,15.0,1.0,2901947423-70310.jpg,2864907432-362042.jpg,A2V27A9GZA1NR2
616,1.0,left,left,1.0,0.9126,0.0,16.0,16.0,16.0,1.0,2460547467-349421.jpg,2898631394-142727.jpg,A2V27A9GZA1NR2
617,1.0,right,right,1.0,1.2826,0.0,17.0,17.0,17.0,1.0,2427874231-269884.jpg,2964223381-294447.jpg,A2V27A9GZA1NR2
618,2.0,left,right,0.0,0.7856,0.0,18.0,18.0,18.0,1.0,2238572663-35822.jpg,2238571930-184143.jpg,A2V27A9GZA1NR2
619,2.0,left,left,1.0,1.0996,0.0,19.0,19.0,19.0,1.0,2981231403-71642.jpg,2981244403-72215.jpg,A2V27A9GZA1NR2
620,2.0,left,left,1.0,1.3917,0.0,20.0,20.0,20.0,1.0,2964213381-294060.jpg,2458348012-349114.jpg,A2V27A9GZA1NR2
621,3.0,right,left,0.0,0.643,0.0,21.0,21.0,21.0,1.0,2238578544-111698.jpg,2874302418-65979.jpg,A2V27A9GZA1NR2
622,2.0,left,right,0.0,1.2761,0.0,22.0,22.0,22.0,1.0,2452380832-348593.jpg,2238481813-19930.jpg,A2V27A9GZA1NR2
623,3.0,left,right,0.0,0.7646,0.0,23.0,23.0,23.0,1.0,2981241414-145842.jpg,2427873848-47312.jpg,A2V27A9GZA1NR2
624,1.0,right,left,0.0,1.1716,0.0,24.0,24.0,24.0,1.0,2901942428-69919.jpg,2901939379-143480.jpg,A2V27A9GZA1NR2
625,1.0,right,left,0.0,0.8547,0.0,25.0,25.0,25.0,1.0,2901946465-218350.jpg,2868475410-213219.jpg,A2V27A9GZA1NR2
626,3.0,left,right,0.0,0.8687,0.0,26.0,26.0,26.0,1.0,2898633421-291973.jpg,2238550049-105691.jpg,A2V27A9GZA1NR2
627,2.0,left,right,0.0,0.7694,0.0,27.0,27.0,27.0,1.0,2449442529-124446.jpg,2460547536-274181.jpg,A2V27A9GZA1NR2
628,2.0,left,left,1.0,0.9206,0.0,28.0,28.0,28.0,1.0,2874301407-363895.jpg,2986397322-371109.jpg,A2V27A9GZA1NR2
629,1.0,left,left,1.0,1.0303,0.0,29.0,29.0,29.0,1.0,2874299429-139695.jpg,2883266388-67750.jpg,A2V27A9GZA1NR2
630,2.0,left,left,1.0,0.9521,0.0,30.0,30.0,30.0,1.0,2874303365-214262.jpg,2238563377-332054.jpg,A2V27A9GZA1NR2
631,1.0,left,right,0.0,1.4805,0.0,31.0,31.0,31.0,1.0,2883256307-365057.jpg,2611628310-206388.jpg,A2V27A9GZA1NR2
632,2.0,left,right,0.0,0.729,0.0,32.0,32.0,32.0,1.0,2238481928-19949.jpg,2864900357-361688.jpg,A2V27A9GZA1NR2
633,1.0,left,left,1.0,0.8172,0.0,33.0,33.0,33.0,1.0,2901948350-218459.jpg,2804906319-133082.jpg,A2V27A9GZA1NR2
634,2.0,left,left,1.0,0.912,0.0,34.0,34.0,34.0,1.0,2238560245-182099.jpg,2874314526-289684.jpg,A2V27A9GZA1NR2
635,3.0,right,left,0.0,0.9707,0.0,35.0,35.0,35.0,1.0,2864909447-362146.jpg,2460547467-349422.jpg,A2V27A9GZA1NR2
636,3.0,right,right,1.0,0.4975,0.0,36.0,36.0,36.0,1.0,2898621427-366486.jpg,2898635427-367120.jpg,A2V27A9GZA1NR2
637,2.0,right,right,1.0,0.6639,0.0,37.0,37.0,37.0,1.0,2874299429-139694.jpg,2864910426-287204.jpg,A2V27A9GZA1NR2
638,3.0,right,left,0.0,0.714,0.0,38.0,38.0,38.0,1.0,2898625336-291572.jpg,2898635428-69104.jpg,A2V27A9GZA1NR2
639,1.0,left,left,1.0,0.697,0.0,39.0,39.0,39.0,1.0,2901939379-143479.jpg,2460547467-349423.jpg,A2V27A9GZA1NR2
640,3.0,left,right,0.0,0.3831,0.0,40.0,40.0,40.0,1.0,2868474407-362883.jpg,2901948383-70363.jpg,A2V27A9GZA1NR2
641,2.0,left,right,0.0,1.5019,0.0,41.0,41.0,41.0,1.0,2898634397-367080.jpg,2901934408-69289.jpg,A2V27A9GZA1NR2
642,3.0,right,left,0.0,0.4217,0.0,42.0,42.0,42.0,1.0,2964220333-71258.jpg,2238580740-186218.jpg,A2V27A9GZA1NR2
643,2.0,left,left,1.0,0.9359,0.0,43.0,43.0,43.0,1.0,2512875899-126682.jpg,2592380177-354628.jpg,A2V27A9GZA1NR2
644,3.0,right,left,0.0,0.1667,0.0,44.0,44.0,44.0,1.0,2898618444-142232.jpg,2898618444-142233.jpg,A2V27A9GZA1NR2
645,2.0,right,right,1.0,0.6577,0.0,45.0,45.0,45.0,1.0,2883254439-140940.jpg,2964218374-144967.jpg,A2V27A9GZA1NR2
646,2.0,right,right,1.0,0.6999,0.0,46.0,46.0,46.0,1.0,2898632385-217136.jpg,2883254439-140941.jpg,A2V27A9GZA1NR2
647,3.0,right,left,0.0,0.7565,0.0,47.0,47.0,47.0,1.0,2898633480-217190.jpg,2238425482-313537.jpg,A2V27A9GZA1NR2
648,1.0,right,left,0.0,0.7558,0.0,48.0,48.0,48.0,1.0,2883268471-290843.jpg,2883268471-290842.jpg,A2V27A9GZA1NR2
649,1.0,left,left,1.0,0.7664,0.0,49.0,49.0,49.0,1.0,2986451363-73599.jpg,2901939327-367669.jpg,A2V27A9GZA1NR2
650,1.0,left,right,0.0,0.5366,0.0,50.0,50.0,50.0,1.0,2446758985-197609.jpg,2981240424-145795.jpg,A2V27A9GZA1NR2
651,2.0,right,right,1.0,0.7156,0.0,51.0,51.0,51.0,1.0,2238479053-19457.jpg,2592379964-131054.jpg,A2V27A9GZA1NR2
652,1.0,left,left,1.0,0.4821,0.0,52.0,52.0,52.0,1.0,2452381505-199546.jpg,2901938432-367627.jpg,A2V27A9GZA1NR2
653,3.0,right,right,1.0,1.0223,0.0,53.0,53.0,53.0,1.0,2238531493-28260.jpg,2575120738-55529.jpg,A2V27A9GZA1NR2
654,3.0,right,right,1.0,0.7783,0.0,54.0,54.0,54.0,1.0,2898619327-366362.jpg,2964216465-219242.jpg,A2V27A9GZA1NR2
655,1.0,left,left,1.0,0.8194,0.0,55.0,55.0,55.0,1.0,2874302418-65978.jpg,2898626385-216899.jpg,A2V27A9GZA1NR2
656,3.0,left,left,1.0,0.9142,0.0,56.0,56.0,56.0,1.0,2446759347-347016.jpg,2238569117-333045.jpg,A2V27A9GZA1NR2
657,2.0,right,right,1.0,0.513,0.0,57.0,57.0,57.0,1.0,2984615361-295510.jpg,2883268412-365898.jpg,A2V27A9GZA1NR2
658,1.0,left,right,0.0,0.8433,0.0,58.0,58.0,58.0,1.0,2874307433-66280.jpg,2986447306-296584.jpg,A2V27A9GZA1NR2
659,2.0,left,left,1.0,0.5865,0.0,59.0,59.0,59.0,1.0,2592380177-354629.jpg,2579432534-130704.jpg,A2V27A9GZA1NR2
660,2.0,left,right,0.0,1.216,0.0,0.0,0.0,0.0,1.0,2898618390-216538.jpg,2901939327-367670.jpg,A2VIKCIM9TZL22
661,2.0,right,left,0.0,1.3957,0.0,1.0,1.0,1.0,1.0,2901943387-368037.jpg,2898617468-68274.jpg,A2VIKCIM9TZL22
662,1.0,left,left,1.0,1.243,0.0,2.0,2.0,2.0,1.0,2874302418-65979.jpg,2413147898-43548.jpg,A2VIKCIM9TZL22
663,2.0,left,left,1.0,1.1522,0.0,3.0,3.0,3.0,1.0,2458347385-199723.jpg,2427874554-121863.jpg,A2VIKCIM9TZL22
664,3.0,left,right,0.0,1.777,0.0,4.0,4.0,4.0,1.0,2238425482-313537.jpg,2898633480-217190.jpg,A2VIKCIM9TZL22
665,2.0,right,left,0.0,1.0828,0.0,5.0,5.0,5.0,1.0,2874314526-289684.jpg,2238560245-182099.jpg,A2VIKCIM9TZL22
666,3.0,right,left,0.0,1.2283,0.0,6.0,6.0,6.0,1.0,2864904453-63933.jpg,2883256307-365057.jpg,A2VIKCIM9TZL22
667,1.0,right,right,1.0,1.1705,0.0,7.0,7.0,7.0,1.0,2237944827-301472.jpg,2898634397-367080.jpg,A2VIKCIM9TZL22
668,1.0,left,right,0.0,1.2588,0.0,8.0,8.0,8.0,1.0,2446758985-197609.jpg,2981240424-145795.jpg,A2VIKCIM9TZL22
669,2.0,left,right,0.0,0.9511,0.0,9.0,9.0,9.0,1.0,2964216465-219242.jpg,2864900319-137787.jpg,A2VIKCIM9TZL22
670,3.0,left,left,1.0,1.0829,0.0,10.0,10.0,10.0,1.0,2460547508-51571.jpg,2901941438-69835.jpg,A2VIKCIM9TZL22
671,2.0,right,right,1.0,1.011,0.0,11.0,11.0,11.0,1.0,2898618440-216547.jpg,2446759803-49249.jpg,A2VIKCIM9TZL22
672,1.0,left,left,1.0,1.1779,0.0,12.0,12.0,12.0,1.0,2460547467-349421.jpg,2898631394-142727.jpg,A2VIKCIM9TZL22
673,1.0,left,left,1.0,1.1777,0.0,13.0,13.0,13.0,1.0,2864907432-362042.jpg,2864901420-212147.jpg,A2VIKCIM9TZL22
674,1.0,right,left,0.0,1.2995,0.0,14.0,14.0,14.0,1.0,2860312398-62572.jpg,2901947423-70311.jpg,A2VIKCIM9TZL22
675,3.0,right,left,0.0,1.3005,0.0,15.0,15.0,15.0,1.0,2868474407-362885.jpg,2868475410-213219.jpg,A2VIKCIM9TZL22
676,1.0,right,right,1.0,1.3501,0.0,16.0,16.0,16.0,1.0,2986447306-296584.jpg,2874307433-66280.jpg,A2VIKCIM9TZL22
677,3.0,left,right,0.0,1.0662,0.0,17.0,17.0,17.0,1.0,2449442529-124445.jpg,2898632385-217137.jpg,A2VIKCIM9TZL22
678,3.0,left,left,1.0,1.6367,0.0,18.0,18.0,18.0,1.0,2898635428-69104.jpg,2898625336-291572.jpg,A2VIKCIM9TZL22
679,1.0,right,right,1.0,1.25,0.0,19.0,19.0,19.0,1.0,2238516618-25604.jpg,2868474407-362883.jpg,A2VIKCIM9TZL22
680,3.0,right,left,0.0,1.3346,0.0,20.0,20.0,20.0,1.0,2901939433-69672.jpg,2864910426-287204.jpg,A2VIKCIM9TZL22
681,3.0,left,right,0.0,1.2561,0.0,21.0,21.0,21.0,1.0,2874301407-363895.jpg,2901947323-70275.jpg,A2VIKCIM9TZL22
682,2.0,left,left,1.0,1.0847,0.0,22.0,22.0,22.0,1.0,2460547467-349422.jpg,2868487415-213924.jpg,A2VIKCIM9TZL22
683,2.0,left,left,1.0,1.4721,0.0,23.0,23.0,23.0,1.0,2898635427-367120.jpg,2868479517-363220.jpg,A2VIKCIM9TZL22
684,1.0,left,left,1.0,1.3333,0.0,24.0,24.0,24.0,1.0,2898618444-142233.jpg,2898631359-142721.jpg,A2VIKCIM9TZL22
685,2.0,left,right,0.0,1.0161,0.0,25.0,25.0,25.0,1.0,2452381505-199546.jpg,2238567168-34916.jpg,A2VIKCIM9TZL22
686,3.0,left,left,1.0,0.9884,0.0,26.0,26.0,26.0,1.0,2238481198-19822.jpg,2238480803-19737.jpg,A2VIKCIM9TZL22
687,2.0,left,right,0.0,1.0835,0.0,27.0,27.0,27.0,1.0,2986451363-73599.jpg,2860302315-210704.jpg,A2VIKCIM9TZL22
688,1.0,left,left,1.0,1.3348,0.0,28.0,28.0,28.0,1.0,2883268412-365898.jpg,2984626312-370849.jpg,A2VIKCIM9TZL22
689,3.0,right,left,0.0,1.3043,0.0,29.0,29.0,29.0,1.0,2449442181-272436.jpg,2452380832-348593.jpg,A2VIKCIM9TZL22
690,3.0,right,left,0.0,1.0189,0.0,30.0,30.0,30.0,1.0,2901947448-70314.jpg,2883268471-290842.jpg,A2VIKCIM9TZL22
691,1.0,right,left,0.0,1.1163,0.0,31.0,31.0,31.0,1.0,2460547536-274179.jpg,2512875899-126682.jpg,A2VIKCIM9TZL22
692,2.0,left,right,0.0,1.651,0.0,32.0,32.0,32.0,1.0,2964213381-294060.jpg,2458348012-349114.jpg,A2VIKCIM9TZL22
693,3.0,left,left,1.0,1.072,0.0,33.0,33.0,33.0,1.0,2592379964-131054.jpg,2592380272-354673.jpg,A2VIKCIM9TZL22
694,2.0,right,left,0.0,0.9403,0.0,34.0,34.0,34.0,1.0,2984615361-295509.jpg,2238428357-313623.jpg,A2VIKCIM9TZL22
695,1.0,left,right,0.0,0.8932,0.0,35.0,35.0,35.0,1.0,2238580740-186218.jpg,2238550816-254000.jpg,A2VIKCIM9TZL22
696,3.0,left,left,1.0,1.0164,0.0,36.0,36.0,36.0,1.0,2901952513-70703.jpg,2238481198-19821.jpg,A2VIKCIM9TZL22
697,3.0,right,right,1.0,0.9905,0.0,37.0,37.0,37.0,1.0,2981246360-220352.jpg,2901948350-218459.jpg,A2VIKCIM9TZL22
698,2.0,right,left,0.0,0.9337,0.0,38.0,38.0,38.0,1.0,2874301404-139813.jpg,2981241414-145842.jpg,A2VIKCIM9TZL22
699,1.0,left,left,1.0,0.8162,0.0,39.0,39.0,39.0,1.0,2901941401-292798.jpg,2898618327-366317.jpg,A2VIKCIM9TZL22
700,2.0,left,right,0.0,1.1331,0.0,40.0,40.0,40.0,1.0,2883254439-140941.jpg,2898632385-217136.jpg,A2VIKCIM9TZL22
701,2.0,right,left,0.0,0.8166,0.0,41.0,41.0,41.0,1.0,2446758985-197610.jpg,2901939379-143479.jpg,A2VIKCIM9TZL22
702,2.0,left,left,1.0,0.9566,0.0,42.0,42.0,42.0,1.0,2238481928-19949.jpg,2864900357-361688.jpg,A2VIKCIM9TZL22
703,3.0,left,left,1.0,0.9996,0.0,43.0,43.0,43.0,1.0,2238480677-317399.jpg,2238480278-19661.jpg,A2VIKCIM9TZL22
704,3.0,right,left,0.0,0.66,0.0,44.0,44.0,44.0,1.0,2898628438-68785.jpg,2964223381-294447.jpg,A2VIKCIM9TZL22
705,2.0,left,left,1.0,1.1617,0.0,45.0,45.0,45.0,1.0,2575120738-55529.jpg,2575120738-55528.jpg,A2VIKCIM9TZL22
706,3.0,left,left,1.0,0.7332,0.0,46.0,46.0,46.0,1.0,2898633421-291973.jpg,2238550049-105691.jpg,A2VIKCIM9TZL22
707,2.0,left,left,1.0,0.6515,0.0,47.0,47.0,47.0,1.0,2874299429-139695.jpg,2901942443-69923.jpg,A2VIKCIM9TZL22
708,3.0,right,right,1.0,0.6662,0.0,48.0,48.0,48.0,1.0,2901938432-367629.jpg,2901939379-143480.jpg,A2VIKCIM9TZL22
709,1.0,right,right,1.0,0.66,0.0,49.0,49.0,49.0,1.0,2964224310-219528.jpg,2446759347-347016.jpg,A2VIKCIM9TZL22
710,1.0,left,left,1.0,0.6167,0.0,50.0,50.0,50.0,1.0,2238572663-35822.jpg,2986419333-73361.jpg,A2VIKCIM9TZL22
711,1.0,right,right,1.0,0.6868,0.0,51.0,51.0,51.0,1.0,2446759803-49251.jpg,2449442529-124446.jpg,A2VIKCIM9TZL22
712,2.0,right,right,1.0,1.0101,0.0,52.0,52.0,52.0,1.0,2883254439-140940.jpg,2964218374-144967.jpg,A2VIKCIM9TZL22
713,3.0,left,left,1.0,0.8728,0.0,53.0,53.0,53.0,1.0,2874302418-65978.jpg,2898633321-291943.jpg,A2VIKCIM9TZL22
714,1.0,right,right,1.0,1.0208,0.0,54.0,54.0,54.0,1.0,2274829821-263682.jpg,2981231403-71642.jpg,A2VIKCIM9TZL22
715,3.0,left,left,1.0,0.939,0.0,55.0,55.0,55.0,1.0,2592380177-354626.jpg,2238117096-228518.jpg,A2VIKCIM9TZL22
716,1.0,right,left,0.0,1.3994,0.0,56.0,56.0,56.0,1.0,2964218432-369263.jpg,2898624426-291546.jpg,A2VIKCIM9TZL22
717,1.0,right,right,1.0,0.9391,0.0,57.0,57.0,57.0,1.0,2883268412-365899.jpg,2449441881-272368.jpg,A2VIKCIM9TZL22
718,1.0,left,right,0.0,1.4522,0.0,58.0,58.0,58.0,1.0,2592380177-354629.jpg,2898633421-291974.jpg,A2VIKCIM9TZL22
719,2.0,right,right,1.0,1.393,0.0,59.0,59.0,59.0,1.0,2238563377-332054.jpg,2874303365-214262.jpg,A2VIKCIM9TZL22
720,1.0,left,left,1.0,1.612,0.0,0.0,0.0,0.0,1.0,2460547508-51571.jpg,2460547291-274110.jpg,A2XFO0X6RCS98M
721,3.0,left,right,0.0,2.1167,0.0,1.0,1.0,1.0,1.0,2238481198-19822.jpg,2238480803-19737.jpg,A2XFO0X6RCS98M
722,2.0,right,right,1.0,1.6333,0.0,2.0,2.0,2.0,1.0,2238567168-34916.jpg,2452381505-199546.jpg,A2XFO0X6RCS98M
723,1.0,right,left,0.0,2.1587,0.0,3.0,3.0,3.0,1.0,2609793677-355397.jpg,2874303365-214262.jpg,A2XFO0X6RCS98M
724,1.0,left,left,1.0,2.3778,0.0,4.0,4.0,4.0,1.0,2964223381-294447.jpg,2427874231-269884.jpg,A2XFO0X6RCS98M
725,1.0,left,left,1.0,1.5367,0.0,5.0,5.0,5.0,1.0,2964218374-144967.jpg,2964218374-144968.jpg,A2XFO0X6RCS98M
726,1.0,left,left,1.0,2.0551,0.0,6.0,6.0,6.0,1.0,2901939379-143479.jpg,2460547467-349423.jpg,A2XFO0X6RCS98M
727,1.0,left,left,1.0,2.2293,0.0,7.0,7.0,7.0,1.0,2898617468-68274.jpg,2864906345-212360.jpg,A2XFO0X6RCS98M
728,3.0,left,right,0.0,1.5258,0.0,8.0,8.0,8.0,1.0,2898618444-142233.jpg,2898618444-142232.jpg,A2XFO0X6RCS98M
729,2.0,right,left,0.0,1.5191,0.0,9.0,9.0,9.0,1.0,2898632385-217136.jpg,2883254439-140941.jpg,A2XFO0X6RCS98M
730,3.0,right,right,1.0,1.7874,0.0,10.0,10.0,10.0,1.0,2883273443-68193.jpg,2901941401-292798.jpg,A2XFO0X6RCS98M
731,3.0,right,right,1.0,2.0472,0.0,11.0,11.0,11.0,1.0,2238531493-28260.jpg,2575120738-55529.jpg,A2XFO0X6RCS98M
732,1.0,left,right,0.0,2.8478,0.0,12.0,12.0,12.0,1.0,2901947423-70311.jpg,2860312398-62572.jpg,A2XFO0X6RCS98M
733,3.0,left,left,1.0,1.8234,0.0,13.0,13.0,13.0,1.0,2883256307-365057.jpg,2864904453-63933.jpg,A2XFO0X6RCS98M
734,2.0,left,right,0.0,1.6683,0.0,14.0,14.0,14.0,1.0,2592380177-354626.jpg,2864901386-286797.jpg,A2XFO0X6RCS98M
735,2.0,right,left,0.0,1.3435,0.0,15.0,15.0,15.0,1.0,2579432534-130704.jpg,2592380177-354629.jpg,A2XFO0X6RCS98M
736,3.0,left,left,1.0,1.8794,0.0,16.0,16.0,16.0,1.0,2868474407-362883.jpg,2901948383-70363.jpg,A2XFO0X6RCS98M
737,2.0,right,right,1.0,1.4668,0.0,17.0,17.0,17.0,1.0,2860302315-210704.jpg,2986451363-73599.jpg,A2XFO0X6RCS98M
738,2.0,left,right,0.0,1.4993,0.0,18.0,18.0,18.0,1.0,2874302418-65979.jpg,2238480648-19714.jpg,A2XFO0X6RCS98M
739,3.0,right,right,1.0,1.1001,0.0,19.0,19.0,19.0,1.0,2901947448-70314.jpg,2883268471-290842.jpg,A2XFO0X6RCS98M
740,1.0,left,right,0.0,1.4208,0.0,20.0,20.0,20.0,1.0,2964213381-294060.jpg,2981244394-145974.jpg,A2XFO0X6RCS98M
741,3.0,right,left,0.0,0.958,0.0,21.0,21.0,21.0,1.0,2981241419-145844.jpg,2238481928-19949.jpg,A2XFO0X6RCS98M
742,1.0,right,right,1.0,1.8021,0.0,22.0,22.0,22.0,1.0,2901942428-69919.jpg,2901939379-143480.jpg,A2XFO0X6RCS98M
743,2.0,right,right,1.0,2.5193,0.0,23.0,23.0,23.0,1.0,2901943411-292945.jpg,2898635428-69104.jpg,A2XFO0X6RCS98M
744,2.0,right,left,0.0,2.6044,0.0,24.0,24.0,24.0,1.0,2417208001-267065.jpg,2901948350-218459.jpg,A2XFO0X6RCS98M
745,2.0,left,right,0.0,2.1233,0.0,25.0,25.0,25.0,1.0,2446758985-197609.jpg,2864909447-362144.jpg,A2XFO0X6RCS98M
746,3.0,right,right,1.0,1.9444,0.0,26.0,26.0,26.0,1.0,2427873848-47312.jpg,2981241414-145842.jpg,A2XFO0X6RCS98M
747,2.0,left,left,1.0,1.4363,0.0,27.0,27.0,27.0,1.0,2874301407-363895.jpg,2986397322-371109.jpg,A2XFO0X6RCS98M
748,3.0,right,right,1.0,1.0478,0.0,28.0,28.0,28.0,1.0,2238569117-333045.jpg,2446759347-347016.jpg,A2XFO0X6RCS98M
749,1.0,left,left,1.0,1.5963,0.0,29.0,29.0,29.0,1.0,2238425482-313537.jpg,2238471391-240918.jpg,A2XFO0X6RCS98M
750,1.0,left,left,1.0,1.5202,0.0,30.0,30.0,30.0,1.0,2460547467-349421.jpg,2898631394-142727.jpg,A2XFO0X6RCS98M
751,3.0,right,left,0.0,1.5169,0.0,31.0,31.0,31.0,1.0,2449442181-272436.jpg,2452380832-348593.jpg,A2XFO0X6RCS98M
752,3.0,right,right,1.0,0.7502,0.0,32.0,32.0,32.0,1.0,2898632385-217139.jpg,2449442529-124446.jpg,A2XFO0X6RCS98M
753,1.0,left,right,0.0,1.5429,0.0,33.0,33.0,33.0,1.0,2449441881-272368.jpg,2883268412-365899.jpg,A2XFO0X6RCS98M
754,3.0,left,right,0.0,0.8118,0.0,34.0,34.0,34.0,1.0,2868475410-213219.jpg,2868474407-362885.jpg,A2XFO0X6RCS98M
755,1.0,left,right,0.0,0.7317,0.0,35.0,35.0,35.0,1.0,2874302418-65978.jpg,2898626385-216899.jpg,A2XFO0X6RCS98M
756,3.0,left,right,0.0,1.3682,0.0,36.0,36.0,36.0,1.0,2238480677-317399.jpg,2238480278-19661.jpg,A2XFO0X6RCS98M
757,1.0,right,left,0.0,0.9195,0.0,37.0,37.0,37.0,1.0,2452380171-273112.jpg,2449442529-124445.jpg,A2XFO0X6RCS98M
758,2.0,left,left,1.0,0.9472,0.0,38.0,38.0,38.0,1.0,2458347385-199723.jpg,2427874554-121863.jpg,A2XFO0X6RCS98M
759,1.0,right,left,0.0,0.8667,0.0,39.0,39.0,39.0,1.0,2986447306-296584.jpg,2874307433-66280.jpg,A2XFO0X6RCS98M
760,2.0,right,right,1.0,0.8022,0.0,40.0,40.0,40.0,1.0,2238521193-26285.jpg,2238580740-186218.jpg,A2XFO0X6RCS98M
761,2.0,right,left,0.0,1.0078,0.0,41.0,41.0,41.0,1.0,2984615361-295510.jpg,2883268412-365898.jpg,A2XFO0X6RCS98M
762,1.0,left,left,1.0,0.9023,0.0,42.0,42.0,42.0,1.0,2898618390-216538.jpg,2986449336-296644.jpg,A2XFO0X6RCS98M
763,2.0,right,left,0.0,0.8884,0.0,43.0,43.0,43.0,1.0,2868479517-363220.jpg,2898635427-367120.jpg,A2XFO0X6RCS98M
764,3.0,left,right,0.0,0.6845,0.0,44.0,44.0,44.0,1.0,2898634397-367080.jpg,2964217461-294238.jpg,A2XFO0X6RCS98M
765,2.0,right,right,1.0,0.8332,0.0,45.0,45.0,45.0,1.0,2901942443-69923.jpg,2874299429-139695.jpg,A2XFO0X6RCS98M
766,2.0,left,right,0.0,0.9649,0.0,46.0,46.0,46.0,1.0,2864910426-287204.jpg,2874299429-139694.jpg,A2XFO0X6RCS98M
767,1.0,left,right,0.0,0.7851,0.0,47.0,47.0,47.0,1.0,2981231403-71642.jpg,2274829821-263682.jpg,A2XFO0X6RCS98M
768,3.0,left,left,1.0,0.839,0.0,48.0,48.0,48.0,1.0,2964216465-219242.jpg,2898619327-366362.jpg,A2XFO0X6RCS98M
769,1.0,left,left,1.0,0.7485,0.0,49.0,49.0,49.0,1.0,2592379964-131054.jpg,2575963989-130576.jpg,A2XFO0X6RCS98M
770,1.0,left,left,1.0,1.2143,0.0,50.0,50.0,50.0,1.0,2898624426-291546.jpg,2964218432-369263.jpg,A2XFO0X6RCS98M
771,1.0,left,left,1.0,1.157,0.0,51.0,51.0,51.0,1.0,2238560245-182099.jpg,2549106624-127823.jpg,A2XFO0X6RCS98M
772,2.0,right,right,1.0,0.952,0.0,52.0,52.0,52.0,1.0,2238571930-184143.jpg,2238572663-35822.jpg,A2XFO0X6RCS98M
773,3.0,right,right,1.0,0.7478,0.0,53.0,53.0,53.0,1.0,2864909447-362146.jpg,2460547467-349422.jpg,A2XFO0X6RCS98M
774,3.0,right,right,1.0,2.7222,0.0,54.0,54.0,54.0,1.0,2452380166-273109.jpg,2446759803-49249.jpg,A2XFO0X6RCS98M
775,2.0,left,right,0.0,0.8177,0.0,55.0,55.0,55.0,1.0,2864907432-362042.jpg,2901947423-70310.jpg,A2XFO0X6RCS98M
776,3.0,right,left,0.0,0.8293,0.0,56.0,56.0,56.0,1.0,2575121987-353817.jpg,2238428357-313623.jpg,A2XFO0X6RCS98M
777,3.0,left,left,1.0,0.9503,0.0,57.0,57.0,57.0,1.0,2901952513-70703.jpg,2238481198-19821.jpg,A2XFO0X6RCS98M
778,2.0,left,right,0.0,0.7336,0.0,58.0,58.0,58.0,1.0,2512875899-126682.jpg,2592380177-354628.jpg,A2XFO0X6RCS98M
779,2.0,left,right,0.0,0.9999,0.0,59.0,59.0,59.0,1.0,2898633421-291973.jpg,2575118671-277663.jpg,A2XFO0X6RCS98M
780,3.0,right,right,1.0,6.0564,0.0,0.0,0.0,0.0,1.0,2981235446-294901.jpg,2460547467-349421.jpg,A376AZWIBALRC
781,3.0,left,right,0.0,1.9112,0.0,1.0,1.0,1.0,1.0,2964216465-219242.jpg,2898619327-366362.jpg,A376AZWIBALRC
782,2.0,left,right,0.0,4.6891,0.0,2.0,2.0,2.0,1.0,2592380177-354626.jpg,2864901386-286797.jpg,A376AZWIBALRC
783,1.0,left,left,1.0,2.0845,0.0,3.0,3.0,3.0,1.0,2901939379-143480.jpg,2901942428-69919.jpg,A376AZWIBALRC
784,2.0,right,right,1.0,1.8676,0.0,4.0,4.0,4.0,1.0,2868487415-213924.jpg,2460547467-349422.jpg,A376AZWIBALRC
785,1.0,right,left,0.0,2.2836,0.0,5.0,5.0,5.0,1.0,2238499057-320266.jpg,2238428357-313623.jpg,A376AZWIBALRC
786,3.0,right,right,1.0,1.8868,0.0,6.0,6.0,6.0,1.0,2238436252-314037.jpg,2883268412-365898.jpg,A376AZWIBALRC
787,2.0,right,left,0.0,3.7085,0.0,7.0,7.0,7.0,1.0,2981246400-220363.jpg,2868474407-362883.jpg,A376AZWIBALRC
788,2.0,right,right,1.0,2.1929,0.0,8.0,8.0,8.0,1.0,2860302315-210704.jpg,2986451363-73599.jpg,A376AZWIBALRC
789,1.0,left,left,1.0,2.9593,0.0,9.0,9.0,9.0,1.0,2898624426-291546.jpg,2964218432-369263.jpg,A376AZWIBALRC
790,3.0,left,right,0.0,2.0138,0.0,10.0,10.0,10.0,1.0,2868475410-213219.jpg,2868474407-362885.jpg,A376AZWIBALRC
791,3.0,left,left,1.0,3.034,0.0,11.0,11.0,11.0,1.0,2238480677-317399.jpg,2238480278-19661.jpg,A376AZWIBALRC
792,1.0,right,left,0.0,2.5654,0.0,12.0,12.0,12.0,1.0,2575963989-130576.jpg,2592379964-131054.jpg,A376AZWIBALRC
793,1.0,left,left,1.0,2.2687,0.0,13.0,13.0,13.0,1.0,2864907432-362042.jpg,2864901420-212147.jpg,A376AZWIBALRC
794,3.0,right,left,0.0,2.5363,0.0,14.0,14.0,14.0,1.0,2981231446-294730.jpg,2883254439-140941.jpg,A376AZWIBALRC
795,1.0,left,right,0.0,1.949,0.0,15.0,15.0,15.0,1.0,2575120738-55529.jpg,2898632385-217138.jpg,A376AZWIBALRC
796,2.0,right,right,1.0,3.0299,0.0,16.0,16.0,16.0,1.0,2981243412-370222.jpg,2901941401-292798.jpg,A376AZWIBALRC
797,3.0,right,left,0.0,3.0808,0.0,17.0,17.0,17.0,1.0,2986447332-371497.jpg,2512875899-126682.jpg,A376AZWIBALRC
798,2.0,left,left,1.0,3.1705,0.0,18.0,18.0,18.0,1.0,2898633421-291973.jpg,2575118671-277663.jpg,A376AZWIBALRC
799,3.0,right,left,0.0,2.1442,0.0,19.0,19.0,19.0,1.0,2994401319-148290.jpg,2452381505-199546.jpg,A376AZWIBALRC
800,3.0,right,right,1.0,2.0596,0.0,20.0,20.0,20.0,1.0,2981231446-294732.jpg,2964218374-144967.jpg,A376AZWIBALRC
801,2.0,left,left,1.0,2.4748,0.0,21.0,21.0,21.0,1.0,2460547508-51571.jpg,2981232437-369759.jpg,A376AZWIBALRC
802,2.0,left,left,1.0,3.168,0.0,22.0,22.0,22.0,1.0,2592380177-354629.jpg,2579432534-130704.jpg,A376AZWIBALRC
803,2.0,left,left,1.0,4.2192,0.0,23.0,23.0,23.0,1.0,2452380832-348593.jpg,2238481813-19930.jpg,A376AZWIBALRC
804,2.0,left,left,1.0,3.0419,0.0,24.0,24.0,24.0,1.0,2446759803-49249.jpg,2898618440-216547.jpg,A376AZWIBALRC
805,1.0,right,right,1.0,3.595,0.0,25.0,25.0,25.0,1.0,2883266388-67750.jpg,2874299429-139695.jpg,A376AZWIBALRC
806,3.0,right,left,0.0,4.7848,0.0,26.0,26.0,26.0,1.0,2964213381-294061.jpg,2964213381-294060.jpg,A376AZWIBALRC
807,1.0,right,right,1.0,2.1376,0.0,27.0,27.0,27.0,1.0,2864902304-137862.jpg,2864910426-287204.jpg,A376AZWIBALRC
808,1.0,right,right,1.0,2.8541,0.0,28.0,28.0,28.0,1.0,2427874231-269884.jpg,2964223381-294447.jpg,A376AZWIBALRC
809,3.0,right,right,1.0,2.4919,0.0,29.0,29.0,29.0,1.0,2427873763-47290.jpg,2981231403-71642.jpg,A376AZWIBALRC
810,3.0,right,right,1.0,3.2088,0.0,30.0,30.0,30.0,1.0,2898633321-291943.jpg,2874302418-65978.jpg,A376AZWIBALRC
811,3.0,left,right,0.0,2.1422,0.0,31.0,31.0,31.0,1.0,2458347385-199723.jpg,2458347252-348911.jpg,A376AZWIBALRC
812,2.0,right,left,0.0,1.9163,0.0,32.0,32.0,32.0,1.0,2874314526-289684.jpg,2238560245-182099.jpg,A376AZWIBALRC
813,2.0,right,right,1.0,1.9147,0.0,33.0,33.0,33.0,1.0,2460547536-274181.jpg,2449442529-124446.jpg,A376AZWIBALRC
814,1.0,left,left,1.0,2.3287,0.0,34.0,34.0,34.0,1.0,2874307433-66280.jpg,2986447306-296584.jpg,A376AZWIBALRC
815,1.0,left,left,1.0,1.9653,0.0,35.0,35.0,35.0,1.0,2898634397-367080.jpg,2237944827-301472.jpg,A376AZWIBALRC
816,3.0,left,left,1.0,2.4648,0.0,36.0,36.0,36.0,1.0,2898618444-142233.jpg,2898618444-142232.jpg,A376AZWIBALRC
817,2.0,right,left,0.0,2.9155,0.0,37.0,37.0,37.0,1.0,2238571930-184143.jpg,2238572663-35822.jpg,A376AZWIBALRC
818,3.0,right,right,1.0,3.0585,0.0,38.0,38.0,38.0,1.0,2898621427-366486.jpg,2898635427-367120.jpg,A376AZWIBALRC
819,1.0,left,left,1.0,2.5263,0.0,39.0,39.0,39.0,1.0,2898617468-68274.jpg,2864906345-212360.jpg,A376AZWIBALRC
820,1.0,left,right,0.0,6.2238,0.0,40.0,40.0,40.0,1.0,2238481928-19949.jpg,2883264367-365620.jpg,A376AZWIBALRC
821,2.0,right,left,0.0,2.5828,0.0,41.0,41.0,41.0,1.0,2901943411-292945.jpg,2898635428-69104.jpg,A376AZWIBALRC
822,1.0,right,right,1.0,3.3566,0.0,42.0,42.0,42.0,1.0,2611628310-206388.jpg,2883256307-365057.jpg,A376AZWIBALRC
823,2.0,left,left,1.0,1.3911,0.0,43.0,43.0,43.0,1.0,2449442529-124445.jpg,2986408373-73286.jpg,A376AZWIBALRC
824,3.0,left,right,0.0,1.9237,0.0,44.0,44.0,44.0,1.0,2901952513-70703.jpg,2238481198-19821.jpg,A376AZWIBALRC
825,3.0,left,left,1.0,2.8449,0.0,45.0,45.0,45.0,1.0,2449441881-272368.jpg,2449441881-272367.jpg,A376AZWIBALRC
826,3.0,right,right,1.0,3.6497,0.0,46.0,46.0,46.0,1.0,2864911457-362260.jpg,2874303365-214262.jpg,A376AZWIBALRC
827,3.0,left,right,0.0,3.4443,0.0,47.0,47.0,47.0,1.0,2901948350-218459.jpg,2981246360-220352.jpg,A376AZWIBALRC
828,2.0,left,right,0.0,3.0224,0.0,48.0,48.0,48.0,1.0,2898618390-216538.jpg,2901939327-367670.jpg,A376AZWIBALRC
829,1.0,right,right,1.0,2.6935,0.0,49.0,49.0,49.0,1.0,2413147898-43548.jpg,2874302418-65979.jpg,A376AZWIBALRC
830,1.0,right,left,0.0,11.2445,0.0,50.0,50.0,50.0,1.0,2460547467-349423.jpg,2901939379-143479.jpg,A376AZWIBALRC
831,1.0,left,left,1.0,1.9795,0.0,51.0,51.0,51.0,1.0,2446758985-197609.jpg,2981240424-145795.jpg,A376AZWIBALRC
832,2.0,left,left,1.0,4.2053,0.0,52.0,52.0,52.0,1.0,2874301407-363895.jpg,2986397322-371109.jpg,A376AZWIBALRC
833,1.0,left,left,1.0,1.8607,0.0,53.0,53.0,53.0,1.0,2238425482-313537.jpg,2238471391-240918.jpg,A376AZWIBALRC
834,1.0,left,left,1.0,2.7464,0.0,54.0,54.0,54.0,1.0,2883268471-290842.jpg,2883268471-290843.jpg,A376AZWIBALRC
835,2.0,right,left,0.0,2.5144,0.0,55.0,55.0,55.0,1.0,2901951350-218702.jpg,2446759347-347016.jpg,A376AZWIBALRC
836,3.0,right,left,0.0,2.7264,0.0,56.0,56.0,56.0,1.0,2964220333-71258.jpg,2238580740-186218.jpg,A376AZWIBALRC
837,2.0,right,left,0.0,2.6445,0.0,57.0,57.0,57.0,1.0,2238573447-333826.jpg,2901947423-70311.jpg,A376AZWIBALRC
838,1.0,left,left,1.0,4.9228,0.0,58.0,58.0,58.0,1.0,2238481198-19822.jpg,2862691449-137104.jpg,A376AZWIBALRC
839,2.0,left,left,1.0,3.528,0.0,59.0,59.0,59.0,1.0,2981241414-145842.jpg,2874301404-139813.jpg,A376AZWIBALRC
840,2.0,left,right,0.0,36.572,0.0,0.0,0.0,0.0,1.0,2874299429-139695.jpg,2901942443-69923.jpg,A3E3H1NCSN4DQK
841,1.0,right,left,0.0,0.642,0.0,1.0,1.0,1.0,1.0,2864907361-287062.jpg,2901952513-70703.jpg,A3E3H1NCSN4DQK
842,1.0,left,right,0.0,10.853,0.0,2.0,2.0,2.0,1.0,2981231403-71642.jpg,2274829821-263682.jpg,A3E3H1NCSN4DQK
843,2.0,left,right,0.0,2.671,0.0,3.0,3.0,3.0,1.0,2238480677-317399.jpg,2238573546-258454.jpg,A3E3H1NCSN4DQK
844,1.0,right,right,1.0,3.191,0.0,4.0,4.0,4.0,1.0,2238471391-240918.jpg,2238425482-313537.jpg,A3E3H1NCSN4DQK
845,2.0,left,left,1.0,3.0,0.0,5.0,5.0,5.0,1.0,2898618444-142233.jpg,2238555262-330312.jpg,A3E3H1NCSN4DQK
846,1.0,right,left,0.0,3.107,0.0,6.0,6.0,6.0,1.0,2901939327-367669.jpg,2986451363-73599.jpg,A3E3H1NCSN4DQK
847,3.0,left,right,0.0,8.661,0.0,7.0,7.0,7.0,1.0,2449442529-124446.jpg,2898632385-217139.jpg,A3E3H1NCSN4DQK
848,2.0,right,right,1.0,4.498,0.0,8.0,8.0,8.0,1.0,2964210336-293945.jpg,2883256307-365057.jpg,A3E3H1NCSN4DQK
849,1.0,right,right,1.0,30.541,0.0,9.0,9.0,9.0,1.0,2238328478-11678.jpg,2452380832-348593.jpg,A3E3H1NCSN4DQK
850,1.0,right,left,0.0,4.174,0.0,10.0,10.0,10.0,1.0,2986419333-73361.jpg,2238572663-35822.jpg,A3E3H1NCSN4DQK
851,2.0,right,right,1.0,6.974,0.0,11.0,11.0,11.0,1.0,2579432534-130704.jpg,2592380177-354629.jpg,A3E3H1NCSN4DQK
852,1.0,left,right,0.0,3.08,0.0,12.0,12.0,12.0,1.0,2238481198-19822.jpg,2862691449-137104.jpg,A3E3H1NCSN4DQK
853,2.0,right,right,1.0,3.02,0.0,13.0,13.0,13.0,1.0,2458348012-349114.jpg,2964213381-294060.jpg,A3E3H1NCSN4DQK
854,2.0,left,left,1.0,3.213,0.0,14.0,14.0,14.0,1.0,2449442529-124445.jpg,2986408373-73286.jpg,A3E3H1NCSN4DQK
855,1.0,right,right,1.0,3.993,0.0,15.0,15.0,15.0,1.0,2427874231-269884.jpg,2964223381-294447.jpg,A3E3H1NCSN4DQK
856,3.0,right,left,0.0,4.673,0.0,16.0,16.0,16.0,1.0,2238480980-168129.jpg,2238560245-182099.jpg,A3E3H1NCSN4DQK
857,2.0,right,left,0.0,2.506,0.0,17.0,17.0,17.0,1.0,2238480803-19739.jpg,2868475410-213219.jpg,A3E3H1NCSN4DQK
858,3.0,right,left,0.0,2.477,0.0,18.0,18.0,18.0,1.0,2883273443-68193.jpg,2901941401-292798.jpg,A3E3H1NCSN4DQK
859,3.0,right,right,1.0,2.809,0.0,19.0,19.0,19.0,1.0,2238577590-185467.jpg,2901947423-70311.jpg,A3E3H1NCSN4DQK
860,2.0,right,left,0.0,2.303,0.0,20.0,20.0,20.0,1.0,2452380166-273110.jpg,2460547467-349421.jpg,A3E3H1NCSN4DQK
861,2.0,right,left,0.0,2.865,0.0,21.0,21.0,21.0,1.0,2901951350-218702.jpg,2446759347-347016.jpg,A3E3H1NCSN4DQK
862,2.0,right,right,1.0,3.194,0.0,22.0,22.0,22.0,1.0,2986397322-371109.jpg,2874301407-363895.jpg,A3E3H1NCSN4DQK
863,3.0,right,right,1.0,2.976,0.0,23.0,23.0,23.0,1.0,2964217461-294238.jpg,2898634397-367080.jpg,A3E3H1NCSN4DQK
864,2.0,right,right,1.0,3.014,0.0,24.0,24.0,24.0,1.0,2981229442-369621.jpg,2901939379-143480.jpg,A3E3H1NCSN4DQK
865,1.0,left,left,1.0,2.727,0.0,25.0,25.0,25.0,1.0,2901948350-218459.jpg,2804906319-133082.jpg,A3E3H1NCSN4DQK
866,3.0,left,left,1.0,2.703,0.0,26.0,26.0,26.0,1.0,2449441881-272368.jpg,2449441881-272367.jpg,A3E3H1NCSN4DQK
867,1.0,left,left,1.0,5.907,0.0,27.0,27.0,27.0,1.0,2964218374-144967.jpg,2964218374-144968.jpg,A3E3H1NCSN4DQK
868,1.0,right,right,1.0,6.417,0.0,28.0,28.0,28.0,1.0,2238480434-93829.jpg,2458347385-199723.jpg,A3E3H1NCSN4DQK
869,3.0,left,left,1.0,4.508,0.0,29.0,29.0,29.0,1.0,2864907432-362042.jpg,2989726338-74002.jpg,A3E3H1NCSN4DQK
870,2.0,right,right,1.0,12.91,0.0,30.0,30.0,30.0,1.0,2981246400-220365.jpg,2874307433-66280.jpg,A3E3H1NCSN4DQK
871,3.0,left,left,1.0,5.07,0.0,31.0,31.0,31.0,1.0,2238428357-313623.jpg,2575121987-353817.jpg,A3E3H1NCSN4DQK
872,2.0,left,left,1.0,2.936,0.0,32.0,32.0,32.0,1.0,2460547508-51571.jpg,2981232437-369759.jpg,A3E3H1NCSN4DQK
873,2.0,left,right,0.0,3.687,0.0,33.0,33.0,33.0,1.0,2883254439-140941.jpg,2898632385-217136.jpg,A3E3H1NCSN4DQK
874,2.0,right,right,1.0,8.684,0.0,34.0,34.0,34.0,1.0,2981246400-220363.jpg,2868474407-362883.jpg,A3E3H1NCSN4DQK
875,2.0,left,left,1.0,3.603,0.0,35.0,35.0,35.0,1.0,2964216465-219242.jpg,2864900319-137787.jpg,A3E3H1NCSN4DQK
876,1.0,right,left,0.0,3.675,0.0,36.0,36.0,36.0,1.0,2575963989-130576.jpg,2592379964-131054.jpg,A3E3H1NCSN4DQK
877,3.0,left,right,0.0,17.247,0.0,37.0,37.0,37.0,1.0,2592380177-354626.jpg,2238117096-228518.jpg,A3E3H1NCSN4DQK
878,3.0,right,left,0.0,8.151,0.0,38.0,38.0,38.0,1.0,2901947448-70314.jpg,2883268471-290842.jpg,A3E3H1NCSN4DQK
879,3.0,right,left,0.0,0.363,0.0,39.0,39.0,39.0,1.0,2981240424-145794.jpg,2901939379-143479.jpg,A3E3H1NCSN4DQK
880,1.0,left,right,0.0,3.741,0.0,40.0,40.0,40.0,1.0,2898624426-291546.jpg,2964218432-369263.jpg,A3E3H1NCSN4DQK
881,2.0,right,left,0.0,16.022,0.0,41.0,41.0,41.0,1.0,2874299429-139694.jpg,2864910426-287204.jpg,A3E3H1NCSN4DQK
882,3.0,left,left,1.0,13.132,0.0,42.0,42.0,42.0,1.0,2452381505-199546.jpg,2994401319-148290.jpg,A3E3H1NCSN4DQK
883,3.0,right,right,1.0,8.885,0.0,43.0,43.0,43.0,1.0,2575120609-129862.jpg,2898618390-216538.jpg,A3E3H1NCSN4DQK
884,1.0,left,right,0.0,12.636,0.0,44.0,44.0,44.0,1.0,2238580740-186218.jpg,2238550816-254000.jpg,A3E3H1NCSN4DQK
885,1.0,left,left,1.0,10.712,0.0,45.0,45.0,45.0,1.0,2883268412-365898.jpg,2984626312-370849.jpg,A3E3H1NCSN4DQK
886,1.0,right,right,1.0,5.934,0.0,46.0,46.0,46.0,1.0,2981240424-145795.jpg,2446758985-197609.jpg,A3E3H1NCSN4DQK
887,2.0,left,left,1.0,9.06,0.0,47.0,47.0,47.0,1.0,2874302418-65978.jpg,2238481198-19823.jpg,A3E3H1NCSN4DQK
888,3.0,left,right,0.0,3.344,0.0,48.0,48.0,48.0,1.0,2898635428-69104.jpg,2898625336-291572.jpg,A3E3H1NCSN4DQK
889,3.0,right,right,1.0,6.282,0.0,49.0,49.0,49.0,1.0,2238550049-105691.jpg,2898633421-291973.jpg,A3E3H1NCSN4DQK
890,1.0,left,right,0.0,2.979,0.0,50.0,50.0,50.0,1.0,2446759803-49249.jpg,2446760601-272099.jpg,A3E3H1NCSN4DQK
891,3.0,right,left,0.0,7.134,0.0,51.0,51.0,51.0,1.0,2427873848-47312.jpg,2981241414-145842.jpg,A3E3H1NCSN4DQK
892,1.0,right,left,0.0,4.658,0.0,52.0,52.0,52.0,1.0,2460547536-274179.jpg,2512875899-126682.jpg,A3E3H1NCSN4DQK
893,3.0,right,right,1.0,2.855,0.0,53.0,53.0,53.0,1.0,2898621427-366486.jpg,2898635427-367120.jpg,A3E3H1NCSN4DQK
894,3.0,right,right,1.0,8.256,0.0,54.0,54.0,54.0,1.0,2864911457-362260.jpg,2874303365-214262.jpg,A3E3H1NCSN4DQK
895,1.0,left,left,1.0,6.372,0.0,55.0,55.0,55.0,1.0,2874302418-65979.jpg,2413147898-43548.jpg,A3E3H1NCSN4DQK
896,3.0,left,left,1.0,6.873,0.0,56.0,56.0,56.0,1.0,2575120738-55529.jpg,2238531493-28260.jpg,A3E3H1NCSN4DQK
897,3.0,right,right,1.0,3.943,0.0,57.0,57.0,57.0,1.0,2864909447-362146.jpg,2460547467-349422.jpg,A3E3H1NCSN4DQK
898,2.0,left,left,1.0,2.873,0.0,58.0,58.0,58.0,1.0,2898617468-68274.jpg,2901943387-368037.jpg,A3E3H1NCSN4DQK
