,workID,Age,Gender,target,image1,image2,correct,background_0,background_1,background_2,background_3,background_4,background_5,target_index,test_key_resp.keys,test_key_resp.rt,distractor_level,category,selected_dist,slider_part2.response,slider_part2.rt,subject
0,A245B3Q3BILZCL,30,male,highway_177.jpg,highway_177.jpg,highway_87.jpg,left,badlands_81.jpg,playground_162.jpg,golf_course_219.jpg,mountain_180.jpg,highway_177.jpg,bridge_120.jpg,4.0,left,6.789,0.0,highway,highway_87.jpg,1.032,6.3916,A245B3Q3BILZCL
1,A245B3Q3BILZCL,30,male,bridge_172.jpg,bridge_17.jpg,bridge_172.jpg,right,highway_305.jpg,playground_258.jpg,bridge_172.jpg,badlands_201.jpg,golf_course_166.jpg,mountain_102.jpg,2.0,left,2.6393,0.0,bridge,bridge_17.jpg,1.864,2.7804,A245B3Q3BILZCL
2,A245B3Q3BILZCL,30,male,playground_240.jpg,playground_2.jpg,playground_240.jpg,right,bridge_167.jpg,mountain_202.jpg,playground_240.jpg,highway_404.jpg,badlands_164.jpg,golf_course_164.jpg,2.0,right,1.4549,0.0,playground,playground_2.jpg,5.0768,2.6018,A245B3Q3BILZCL
3,A245B3Q3BILZCL,30,male,golf_course_193.jpg,golf_course_123.jpg,golf_course_193.jpg,right,playground_55.jpg,mountain_92.jpg,golf_course_193.jpg,bridge_142.jpg,highway_102.jpg,badlands_9.jpg,2.0,left,2.2142,1.0,golf,golf_course_123.jpg,4.1552,2.3434,A245B3Q3BILZCL
4,A245B3Q3BILZCL,30,male,badlands_23.jpg,badlands_23.jpg,badlands_114.jpg,left,mountain_146.jpg,playground_54.jpg,highway_138.jpg,golf_course_71.jpg,badlands_23.jpg,bridge_39.jpg,4.0,right,2.6352,0.0,badlands,badlands_114.jpg,4.0016,2.3789,A245B3Q3BILZCL
5,A245B3Q3BILZCL,30,male,playground_257.jpg,playground_257.jpg,playground_215.jpg,left,bridge_76.jpg,highway_315.jpg,playground_257.jpg,badlands_36.jpg,mountain_22.jpg,golf_course_265.jpg,2.0,right,11.81,1.0,playground,playground_215.jpg,5.2816,1.6619,A245B3Q3BILZCL
6,A245B3Q3BILZCL,30,male,highway_156.jpg,highway_156.jpg,highway_293.jpg,left,mountain_166.jpg,highway_156.jpg,golf_course_116.jpg,bridge_197.jpg,playground_132.jpg,badlands_47.jpg,1.0,left,1.6006,1.0,highway,highway_293.jpg,7.048,2.4756,A245B3Q3BILZCL
7,A245B3Q3BILZCL,30,male,highway_415.jpg,highway_415.jpg,highway_174.jpg,left,golf_course_241.jpg,badlands_129.jpg,highway_415.jpg,mountain_35.jpg,playground_36.jpg,bridge_24.jpg,2.0,right,2.0621,1.0,highway,highway_174.jpg,7.9184,2.7223,A245B3Q3BILZCL
8,A245B3Q3BILZCL,30,male,mountain_293.jpg,mountain_72.jpg,mountain_293.jpg,right,badlands_60.jpg,mountain_293.jpg,playground_78.jpg,highway_58.jpg,bridge_225.jpg,golf_course_171.jpg,1.0,right,1.4477,0.0,mountain,mountain_72.jpg,7.8288,2.7271,A245B3Q3BILZCL
9,A245B3Q3BILZCL,30,male,golf_course_78.jpg,golf_course_78.jpg,golf_course_101.jpg,left,playground_16.jpg,badlands_88.jpg,mountain_169.jpg,golf_course_78.jpg,highway_247.jpg,bridge_112.jpg,3.0,left,2.8756,1.0,golf,golf_course_101.jpg,5.9472,3.1054,A245B3Q3BILZCL
10,A245B3Q3BILZCL,30,male,golf_course_309.jpg,golf_course_209.jpg,golf_course_309.jpg,right,badlands_16.jpg,playground_237.jpg,golf_course_309.jpg,bridge_204.jpg,mountain_137.jpg,highway_413.jpg,2.0,right,1.8059,1.0,golf,golf_course_209.jpg,5.9472,1.9131,A245B3Q3BILZCL
11,A245B3Q3BILZCL,30,male,playground_117.jpg,playground_167.jpg,playground_117.jpg,right,badlands_215.jpg,highway_269.jpg,bridge_118.jpg,golf_course_61.jpg,playground_117.jpg,mountain_294.jpg,4.0,left,1.3989,0.0,playground,playground_167.jpg,8.8784,4.3249,A245B3Q3BILZCL
12,A245B3Q3BILZCL,30,male,playground_76.jpg,playground_76.jpg,playground_22.jpg,left,highway_29.jpg,playground_76.jpg,golf_course_282.jpg,bridge_102.jpg,badlands_122.jpg,mountain_88.jpg,1.0,right,2.248,0.0,playground,playground_22.jpg,8.8784,1.6218,A245B3Q3BILZCL
13,A245B3Q3BILZCL,30,male,highway_294.jpg,highway_294.jpg,highway_203.jpg,left,golf_course_3.jpg,highway_294.jpg,playground_14.jpg,badlands_6.jpg,mountain_135.jpg,bridge_117.jpg,1.0,left,2.9925,0.0,highway,highway_203.jpg,6.9072,2.4817,A245B3Q3BILZCL
14,A245B3Q3BILZCL,30,male,badlands_21.jpg,badlands_21.jpg,badlands_98.jpg,left,highway_335.jpg,bridge_212.jpg,badlands_21.jpg,playground_30.jpg,golf_course_300.jpg,mountain_290.jpg,2.0,right,1.1029,1.0,badlands,badlands_98.jpg,4.9872,3.8204,A245B3Q3BILZCL
15,A245B3Q3BILZCL,30,male,badlands_184.jpg,badlands_228.jpg,badlands_184.jpg,right,golf_course_202.jpg,mountain_268.jpg,bridge_156.jpg,badlands_184.jpg,highway_42.jpg,playground_74.jpg,3.0,left,1.4479,0.0,badlands,badlands_228.jpg,8.0592,2.3338,A245B3Q3BILZCL
16,A245B3Q3BILZCL,30,male,highway_245.jpg,highway_134.jpg,highway_245.jpg,right,playground_33.jpg,golf_course_252.jpg,mountain_228.jpg,badlands_10.jpg,highway_245.jpg,bridge_133.jpg,4.0,right,6.2828,0.0,highway,highway_134.jpg,8.4816,2.315,A245B3Q3BILZCL
17,A245B3Q3BILZCL,30,male,golf_course_331.jpg,golf_course_331.jpg,golf_course_26.jpg,left,highway_17.jpg,golf_course_331.jpg,bridge_96.jpg,badlands_227.jpg,mountain_32.jpg,playground_118.jpg,1.0,left,2.3039,1.0,golf,golf_course_26.jpg,8.7504,1.8142,A245B3Q3BILZCL
18,A245B3Q3BILZCL,30,male,playground_10.jpg,playground_10.jpg,playground_122.jpg,left,badlands_30.jpg,playground_10.jpg,golf_course_41.jpg,highway_148.jpg,mountain_187.jpg,bridge_4.jpg,1.0,left,1.2723,0.0,playground,playground_122.jpg,8.0848,2.5987,A245B3Q3BILZCL
19,A245B3Q3BILZCL,30,male,bridge_250.jpg,bridge_205.jpg,bridge_250.jpg,right,playground_124.jpg,golf_course_218.jpg,bridge_250.jpg,badlands_150.jpg,mountain_89.jpg,highway_76.jpg,2.0,right,1.5832,1.0,bridge,bridge_205.jpg,7.88,2.5942,A245B3Q3BILZCL
20,A245B3Q3BILZCL,30,male,bridge_191.jpg,bridge_184.jpg,bridge_191.jpg,right,bridge_191.jpg,golf_course_55.jpg,mountain_233.jpg,badlands_180.jpg,highway_290.jpg,playground_103.jpg,0.0,left,2.137,0.0,bridge,bridge_184.jpg,1.0192,3.9612,A245B3Q3BILZCL
21,A245B3Q3BILZCL,30,male,bridge_65.jpg,bridge_65.jpg,bridge_181.jpg,left,golf_course_56.jpg,mountain_250.jpg,bridge_65.jpg,playground_249.jpg,badlands_85.jpg,highway_342.jpg,2.0,right,1.263,0.0,bridge,bridge_181.jpg,8.6096,6.0791,A245B3Q3BILZCL
22,A245B3Q3BILZCL,30,male,golf_course_87.jpg,golf_course_161.jpg,golf_course_87.jpg,right,badlands_106.jpg,highway_295.jpg,mountain_76.jpg,golf_course_87.jpg,playground_141.jpg,bridge_193.jpg,3.0,right,4.026,1.0,golf,golf_course_161.jpg,6.6512,2.2048,A245B3Q3BILZCL
23,A245B3Q3BILZCL,30,male,bridge_128.jpg,bridge_244.jpg,bridge_128.jpg,right,badlands_105.jpg,playground_83.jpg,golf_course_59.jpg,bridge_128.jpg,mountain_176.jpg,highway_31.jpg,3.0,right,1.1772,1.0,bridge,bridge_244.jpg,6.0752,3.2516,A245B3Q3BILZCL
24,A245B3Q3BILZCL,30,male,bridge_146.jpg,bridge_146.jpg,bridge_121.jpg,left,playground_235.jpg,badlands_26.jpg,mountain_251.jpg,golf_course_23.jpg,bridge_146.jpg,highway_78.jpg,4.0,right,0.8527,1.0,bridge,bridge_121.jpg,8.6736,3.7028,A245B3Q3BILZCL
25,A245B3Q3BILZCL,30,male,highway_359.jpg,highway_359.jpg,highway_389.jpg,left,playground_246.jpg,bridge_228.jpg,mountain_43.jpg,golf_course_212.jpg,highway_359.jpg,badlands_20.jpg,4.0,left,3.9823,0.0,highway,highway_389.jpg,6.9072,3.7743,A245B3Q3BILZCL
26,A245B3Q3BILZCL,30,male,highway_273.jpg,highway_273.jpg,highway_384.jpg,left,playground_154.jpg,highway_273.jpg,bridge_35.jpg,mountain_152.jpg,golf_course_221.jpg,badlands_125.jpg,1.0,left,1.9791,0.0,highway,highway_384.jpg,6.0752,3.5655,A245B3Q3BILZCL
27,A245B3Q3BILZCL,30,male,golf_course_15.jpg,golf_course_97.jpg,golf_course_15.jpg,right,playground_63.jpg,badlands_174.jpg,highway_15.jpg,bridge_72.jpg,golf_course_15.jpg,mountain_306.jpg,4.0,left,1.5131,1.0,golf,golf_course_97.jpg,7.9952,5.8851,A245B3Q3BILZCL
28,A245B3Q3BILZCL,30,male,playground_131.jpg,playground_164.jpg,playground_131.jpg,right,playground_131.jpg,golf_course_199.jpg,mountain_33.jpg,highway_107.jpg,badlands_185.jpg,bridge_158.jpg,0.0,left,5.391,1.0,playground,playground_164.jpg,8.8272,2.6744,A245B3Q3BILZCL
29,A245B3Q3BILZCL,30,male,badlands_52.jpg,badlands_52.jpg,badlands_63.jpg,left,bridge_155.jpg,playground_196.jpg,golf_course_269.jpg,mountain_34.jpg,badlands_52.jpg,highway_191.jpg,4.0,right,2.8193,1.0,badlands,badlands_63.jpg,7.0864,2.3308,A245B3Q3BILZCL
30,A245B3Q3BILZCL,30,male,bridge_108.jpg,bridge_108.jpg,bridge_116.jpg,left,bridge_108.jpg,golf_course_194.jpg,mountain_307.jpg,highway_319.jpg,badlands_152.jpg,playground_120.jpg,0.0,right,1.0156,0.0,bridge,bridge_116.jpg,6.8816,2.8062,A245B3Q3BILZCL
31,A245B3Q3BILZCL,30,male,playground_219.jpg,playground_205.jpg,playground_219.jpg,right,highway_9.jpg,mountain_120.jpg,badlands_120.jpg,bridge_144.jpg,playground_219.jpg,golf_course_226.jpg,4.0,left,6.8345,1.0,playground,playground_205.jpg,6.8816,1.8147,A245B3Q3BILZCL
32,A245B3Q3BILZCL,30,male,mountain_101.jpg,mountain_101.jpg,mountain_221.jpg,left,highway_50.jpg,mountain_101.jpg,bridge_79.jpg,playground_26.jpg,badlands_138.jpg,golf_course_333.jpg,1.0,right,0.863,1.0,mountain,mountain_221.jpg,5.9472,2.9909,A245B3Q3BILZCL
33,A245B3Q3BILZCL,30,male,mountain_230.jpg,mountain_184.jpg,mountain_230.jpg,right,playground_173.jpg,mountain_230.jpg,highway_265.jpg,badlands_213.jpg,golf_course_253.jpg,bridge_1.jpg,1.0,left,0.9102,0.0,mountain,mountain_184.jpg,5.9472,1.8703,A245B3Q3BILZCL
34,A245B3Q3BILZCL,30,male,badlands_222.jpg,badlands_34.jpg,badlands_222.jpg,right,badlands_222.jpg,highway_308.jpg,playground_6.jpg,golf_course_308.jpg,bridge_254.jpg,mountain_126.jpg,0.0,left,1.7302,0.0,badlands,badlands_34.jpg,7.0096,1.923,A245B3Q3BILZCL
35,A245B3Q3BILZCL,30,male,golf_course_217.jpg,golf_course_217.jpg,golf_course_262.jpg,left,golf_course_217.jpg,badlands_104.jpg,playground_227.jpg,bridge_179.jpg,mountain_19.jpg,highway_81.jpg,0.0,left,0.1316,1.0,golf,golf_course_262.jpg,7.0096,3.2474,A245B3Q3BILZCL
36,A245B3Q3BILZCL,30,male,bridge_202.jpg,bridge_38.jpg,bridge_202.jpg,right,badlands_211.jpg,bridge_202.jpg,golf_course_102.jpg,playground_204.jpg,highway_154.jpg,mountain_256.jpg,1.0,right,0.0052,1.0,bridge,bridge_38.jpg,5.9984,2.0651,A245B3Q3BILZCL
37,A245B3Q3BILZCL,30,male,golf_course_214.jpg,golf_course_312.jpg,golf_course_214.jpg,right,bridge_110.jpg,mountain_199.jpg,badlands_128.jpg,playground_176.jpg,golf_course_214.jpg,highway_147.jpg,4.0,left,0.2697,0.0,golf,golf_course_312.jpg,7.1632,3.1214,A245B3Q3BILZCL
38,A245B3Q3BILZCL,30,male,badlands_113.jpg,badlands_203.jpg,badlands_113.jpg,right,bridge_62.jpg,badlands_113.jpg,playground_85.jpg,mountain_253.jpg,golf_course_338.jpg,highway_178.jpg,1.0,right,0.1995,1.0,badlands,badlands_203.jpg,6.0368,1.8139,A245B3Q3BILZCL
39,A245B3Q3BILZCL,30,male,badlands_221.jpg,badlands_115.jpg,badlands_221.jpg,right,badlands_221.jpg,mountain_192.jpg,playground_84.jpg,golf_course_181.jpg,bridge_106.jpg,highway_199.jpg,0.0,right,0.0056,0.0,badlands,badlands_115.jpg,7.8288,1.989,A245B3Q3BILZCL
40,A245B3Q3BILZCL,30,male,highway_209.jpg,highway_122.jpg,highway_209.jpg,right,golf_course_72.jpg,playground_181.jpg,highway_209.jpg,badlands_171.jpg,bridge_124.jpg,mountain_40.jpg,2.0,right,0.3996,1.0,highway,highway_122.jpg,8.2128,2.3826,A245B3Q3BILZCL
41,A245B3Q3BILZCL,30,male,mountain_110.jpg,mountain_110.jpg,mountain_223.jpg,left,mountain_110.jpg,bridge_152.jpg,badlands_44.jpg,highway_399.jpg,golf_course_297.jpg,playground_241.jpg,0.0,left,0.3235,1.0,mountain,mountain_223.jpg,5.9984,2.2973,A245B3Q3BILZCL
42,A245B3Q3BILZCL,30,male,playground_60.jpg,playground_60.jpg,playground_268.jpg,left,badlands_173.jpg,playground_60.jpg,highway_90.jpg,mountain_226.jpg,bridge_126.jpg,golf_course_291.jpg,1.0,right,0.0049,0.0,playground,playground_268.jpg,5.0768,1.3912,A245B3Q3BILZCL
43,A245B3Q3BILZCL,30,male,bridge_91.jpg,bridge_253.jpg,bridge_91.jpg,right,mountain_62.jpg,golf_course_174.jpg,playground_50.jpg,badlands_79.jpg,bridge_91.jpg,highway_288.jpg,4.0,right,0.0048,0.0,bridge,bridge_253.jpg,7.048,1.3502,A245B3Q3BILZCL
44,A245B3Q3BILZCL,30,male,mountain_123.jpg,mountain_123.jpg,mountain_94.jpg,left,mountain_123.jpg,golf_course_328.jpg,bridge_74.jpg,playground_184.jpg,badlands_166.jpg,highway_83.jpg,0.0,left,0.1977,0.0,mountain,mountain_94.jpg,7.0352,1.1644,A245B3Q3BILZCL
45,A245B3Q3BILZCL,30,male,highway_394.jpg,highway_394.jpg,highway_204.jpg,left,highway_394.jpg,golf_course_176.jpg,badlands_216.jpg,playground_140.jpg,bridge_68.jpg,mountain_206.jpg,0.0,right,2.4392,0.0,highway,highway_204.jpg,6.2416,0.6826,A245B3Q3BILZCL
46,A245B3Q3BILZCL,30,male,golf_course_188.jpg,golf_course_160.jpg,golf_course_188.jpg,right,bridge_45.jpg,badlands_46.jpg,highway_383.jpg,mountain_29.jpg,golf_course_188.jpg,playground_37.jpg,4.0,left,0.0047,1.0,golf,golf_course_160.jpg,5.9088,1.3468,A245B3Q3BILZCL
47,A245B3Q3BILZCL,30,male,mountain_156.jpg,mountain_156.jpg,mountain_128.jpg,left,highway_3.jpg,golf_course_105.jpg,playground_195.jpg,badlands_54.jpg,mountain_156.jpg,bridge_147.jpg,4.0,left,0.3946,0.0,mountain,mountain_128.jpg,5.064,1.452,A245B3Q3BILZCL
48,A245B3Q3BILZCL,30,male,mountain_232.jpg,mountain_3.jpg,mountain_232.jpg,right,bridge_169.jpg,highway_37.jpg,mountain_232.jpg,badlands_156.jpg,playground_15.jpg,golf_course_313.jpg,2.0,right,0.2675,0.0,mountain,mountain_3.jpg,5.9984,1.0641,A245B3Q3BILZCL
49,A245B3Q3BILZCL,30,male,bridge_256.jpg,bridge_256.jpg,bridge_211.jpg,left,badlands_170.jpg,mountain_91.jpg,golf_course_316.jpg,playground_191.jpg,bridge_256.jpg,highway_287.jpg,4.0,left,0.1349,1.0,bridge,bridge_211.jpg,7.0736,0.9338,A245B3Q3BILZCL
50,A245B3Q3BILZCL,30,male,mountain_154.jpg,mountain_95.jpg,mountain_154.jpg,right,badlands_217.jpg,playground_126.jpg,highway_226.jpg,golf_course_42.jpg,mountain_154.jpg,bridge_22.jpg,4.0,right,0.2741,1.0,mountain,mountain_95.jpg,5.064,1.4544,A245B3Q3BILZCL
51,A245B3Q3BILZCL,30,male,golf_course_195.jpg,golf_course_195.jpg,golf_course_25.jpg,left,highway_101.jpg,bridge_136.jpg,badlands_121.jpg,golf_course_195.jpg,playground_165.jpg,mountain_39.jpg,3.0,left,0.1329,0.0,golf,golf_course_25.jpg,4.9744,1.2667,A245B3Q3BILZCL
52,A245B3Q3BILZCL,30,male,badlands_137.jpg,badlands_194.jpg,badlands_137.jpg,right,mountain_151.jpg,bridge_266.jpg,badlands_137.jpg,golf_course_342.jpg,playground_222.jpg,highway_33.jpg,2.0,left,0.1366,0.0,badlands,badlands_194.jpg,5.384,1.8414,A245B3Q3BILZCL
53,A245B3Q3BILZCL,30,male,playground_145.jpg,playground_145.jpg,playground_242.jpg,left,highway_18.jpg,playground_145.jpg,bridge_164.jpg,badlands_72.jpg,mountain_51.jpg,golf_course_33.jpg,1.0,left,0.0051,1.0,playground,playground_242.jpg,4.0784,1.8565,A245B3Q3BILZCL
54,A245B3Q3BILZCL,30,male,highway_93.jpg,highway_93.jpg,highway_85.jpg,left,highway_93.jpg,badlands_55.jpg,playground_248.jpg,golf_course_128.jpg,mountain_41.jpg,bridge_20.jpg,0.0,right,0.0047,0.0,highway,highway_85.jpg,3.0672,1.7309,A245B3Q3BILZCL
55,A245B3Q3BILZCL,30,male,mountain_57.jpg,mountain_138.jpg,mountain_57.jpg,right,mountain_57.jpg,playground_7.jpg,highway_257.jpg,golf_course_238.jpg,bridge_63.jpg,badlands_59.jpg,0.0,right,0.0048,1.0,mountain,mountain_138.jpg,3.0928,2.9118,A245B3Q3BILZCL
56,A245B3Q3BILZCL,30,male,mountain_222.jpg,mountain_93.jpg,mountain_222.jpg,right,mountain_222.jpg,bridge_218.jpg,playground_98.jpg,badlands_214.jpg,highway_268.jpg,golf_course_137.jpg,0.0,right,0.4735,1.0,mountain,mountain_93.jpg,4.936,3.6213,A245B3Q3BILZCL
57,A245B3Q3BILZCL,30,male,badlands_24.jpg,badlands_3.jpg,badlands_24.jpg,right,golf_course_162.jpg,mountain_198.jpg,badlands_24.jpg,playground_233.jpg,bridge_224.jpg,highway_36.jpg,2.0,right,0.1225,0.0,badlands,badlands_3.jpg,4.9744,1.5074,A245B3Q3BILZCL
58,A245B3Q3BILZCL,30,male,badlands_70.jpg,badlands_70.jpg,badlands_119.jpg,left,golf_course_196.jpg,badlands_70.jpg,mountain_38.jpg,bridge_87.jpg,highway_172.jpg,playground_110.jpg,1.0,right,0.0047,1.0,badlands,badlands_119.jpg,4.0272,3.3518,A245B3Q3BILZCL
59,A245B3Q3BILZCL,30,male,playground_144.jpg,playground_144.jpg,playground_65.jpg,left,highway_251.jpg,playground_144.jpg,golf_course_179.jpg,mountain_190.jpg,badlands_219.jpg,bridge_143.jpg,1.0,left,0.1361,1.0,playground,playground_65.jpg,8.9808,4.8228,A245B3Q3BILZCL
60,A3KXQT51DR0ZS4,30,MALE,golf_course_78.jpg,golf_course_134.jpg,golf_course_78.jpg,right,bridge_143.jpg,badlands_213.jpg,playground_154.jpg,golf_course_78.jpg,highway_265.jpg,mountain_143.jpg,3.0,left,1.6988,0.0,golf,golf_course_134.jpg,6.955555556,14.714,A3KXQT51DR0ZS4
61,A3KXQT51DR0ZS4,30,MALE,highway_394.jpg,highway_394.jpg,highway_406.jpg,left,badlands_54.jpg,golf_course_305.jpg,bridge_124.jpg,mountain_33.jpg,highway_394.jpg,playground_195.jpg,4.0,right,1.528,1.0,highway,highway_406.jpg,3.631111111,4.0172,A3KXQT51DR0ZS4
62,A3KXQT51DR0ZS4,30,MALE,mountain_154.jpg,mountain_154.jpg,mountain_131.jpg,left,badlands_55.jpg,mountain_154.jpg,playground_246.jpg,golf_course_219.jpg,bridge_136.jpg,highway_30.jpg,1.0,left,2.3144,0.0,mountain,mountain_131.jpg,3.648888889,0.6905,A3KXQT51DR0ZS4
63,A3KXQT51DR0ZS4,30,MALE,badlands_52.jpg,badlands_52.jpg,badlands_94.jpg,left,golf_course_176.jpg,highway_36.jpg,mountain_187.jpg,playground_222.jpg,badlands_52.jpg,bridge_164.jpg,4.0,right,2.2354,0.0,badlands,badlands_94.jpg,3.773333333,1.3033,A3KXQT51DR0ZS4
64,A3KXQT51DR0ZS4,30,MALE,golf_course_193.jpg,golf_course_235.jpg,golf_course_193.jpg,right,golf_course_193.jpg,playground_63.jpg,bridge_22.jpg,highway_269.jpg,badlands_46.jpg,mountain_204.jpg,0.0,left,1.2141,0.0,golf,golf_course_235.jpg,3.8,0.8992,A3KXQT51DR0ZS4
65,A3KXQT51DR0ZS4,30,MALE,playground_219.jpg,playground_21.jpg,playground_219.jpg,right,playground_219.jpg,golf_course_137.jpg,bridge_204.jpg,mountain_92.jpg,highway_365.jpg,badlands_129.jpg,0.0,right,0.2103,0.0,playground,playground_21.jpg,6.706666667,1.6443,A3KXQT51DR0ZS4
66,A3KXQT51DR0ZS4,30,MALE,bridge_91.jpg,bridge_91.jpg,bridge_253.jpg,left,badlands_10.jpg,playground_47.jpg,mountain_38.jpg,bridge_91.jpg,highway_268.jpg,golf_course_221.jpg,3.0,right,1.1807,0.0,bridge,bridge_253.jpg,4.448888889,1.1915,A3KXQT51DR0ZS4
67,A3KXQT51DR0ZS4,30,MALE,badlands_70.jpg,badlands_70.jpg,badlands_119.jpg,left,mountain_228.jpg,golf_course_226.jpg,playground_26.jpg,badlands_70.jpg,highway_42.jpg,bridge_112.jpg,3.0,left,1.4883,1.0,badlands,badlands_119.jpg,4.093333333,1.0931,A3KXQT51DR0ZS4
68,A3KXQT51DR0ZS4,30,MALE,golf_course_214.jpg,golf_course_312.jpg,golf_course_214.jpg,right,badlands_171.jpg,golf_course_214.jpg,playground_153.jpg,mountain_45.jpg,bridge_156.jpg,highway_31.jpg,1.0,left,0.9053,0.0,golf,golf_course_312.jpg,7.026666667,2.2219,A3KXQT51DR0ZS4
69,A3KXQT51DR0ZS4,30,MALE,golf_course_15.jpg,golf_course_15.jpg,golf_course_97.jpg,left,highway_354.jpg,badlands_59.jpg,playground_98.jpg,golf_course_15.jpg,bridge_45.jpg,mountain_88.jpg,3.0,left,1.1653,1.0,golf,golf_course_97.jpg,7.0,1.2445,A3KXQT51DR0ZS4
70,A3KXQT51DR0ZS4,30,MALE,golf_course_87.jpg,golf_course_87.jpg,golf_course_130.jpg,left,badlands_104.jpg,playground_33.jpg,mountain_34.jpg,bridge_87.jpg,golf_course_87.jpg,highway_399.jpg,4.0,left,0.2029,0.0,golf,golf_course_130.jpg,7.0,0.9867,A3KXQT51DR0ZS4
71,A3KXQT51DR0ZS4,30,MALE,badlands_137.jpg,badlands_137.jpg,badlands_139.jpg,left,playground_110.jpg,mountain_89.jpg,bridge_266.jpg,badlands_137.jpg,golf_course_120.jpg,highway_9.jpg,3.0,left,3.961,1.0,badlands,badlands_139.jpg,3.951111111,0.9821,A3KXQT51DR0ZS4
72,A3KXQT51DR0ZS4,30,MALE,highway_245.jpg,highway_245.jpg,highway_206.jpg,left,highway_245.jpg,golf_course_164.jpg,badlands_216.jpg,mountain_166.jpg,bridge_179.jpg,playground_42.jpg,0.0,left,1.3299,1.0,highway,highway_206.jpg,4.004444444,1.1661,A3KXQT51DR0ZS4
73,A3KXQT51DR0ZS4,30,MALE,highway_177.jpg,highway_177.jpg,highway_87.jpg,left,badlands_180.jpg,golf_course_171.jpg,highway_177.jpg,playground_64.jpg,bridge_35.jpg,mountain_62.jpg,2.0,left,0.3835,0.0,highway,highway_87.jpg,3.96,1.6676,A3KXQT51DR0ZS4
74,A3KXQT51DR0ZS4,30,MALE,bridge_172.jpg,bridge_163.jpg,bridge_172.jpg,right,badlands_9.jpg,bridge_172.jpg,mountain_43.jpg,highway_319.jpg,golf_course_138.jpg,playground_251.jpg,1.0,left,2.7522,1.0,bridge,bridge_163.jpg,3.96,1.0756,A3KXQT51DR0ZS4
75,A3KXQT51DR0ZS4,30,MALE,playground_131.jpg,playground_131.jpg,playground_164.jpg,left,mountain_102.jpg,bridge_20.jpg,golf_course_23.jpg,playground_131.jpg,badlands_185.jpg,highway_247.jpg,3.0,right,0.0999,1.0,playground,playground_164.jpg,3.897777778,0.8776,A3KXQT51DR0ZS4
76,A3KXQT51DR0ZS4,30,MALE,mountain_123.jpg,mountain_189.jpg,mountain_123.jpg,right,golf_course_199.jpg,mountain_123.jpg,badlands_157.jpg,bridge_68.jpg,highway_308.jpg,playground_258.jpg,1.0,right,1.9773,1.0,mountain,mountain_189.jpg,4.04,0.8872,A3KXQT51DR0ZS4
77,A3KXQT51DR0ZS4,30,MALE,bridge_250.jpg,bridge_250.jpg,bridge_205.jpg,left,badlands_175.jpg,golf_course_313.jpg,bridge_250.jpg,highway_53.jpg,playground_54.jpg,mountain_233.jpg,2.0,left,2.643,1.0,bridge,bridge_205.jpg,3.995555556,0.9543,A3KXQT51DR0ZS4
78,A3KXQT51DR0ZS4,30,MALE,mountain_110.jpg,mountain_110.jpg,mountain_223.jpg,left,mountain_110.jpg,bridge_180.jpg,highway_287.jpg,golf_course_144.jpg,badlands_44.jpg,playground_124.jpg,0.0,left,2.0393,1.0,mountain,mountain_223.jpg,7.097777778,0.971,A3KXQT51DR0ZS4
79,A3KXQT51DR0ZS4,30,MALE,badlands_23.jpg,badlands_23.jpg,badlands_101.jpg,left,bridge_64.jpg,golf_course_128.jpg,highway_251.jpg,mountain_190.jpg,badlands_23.jpg,playground_85.jpg,4.0,left,0.3986,1.0,badlands,badlands_101.jpg,7.097777778,0.5995,A3KXQT51DR0ZS4
80,A3KXQT51DR0ZS4,30,MALE,playground_240.jpg,playground_240.jpg,playground_2.jpg,left,bridge_193.jpg,golf_course_61.jpg,mountain_294.jpg,badlands_164.jpg,playground_240.jpg,highway_257.jpg,4.0,left,1.765,0.0,playground,playground_2.jpg,3.275555556,1.5643,A3KXQT51DR0ZS4
81,A3KXQT51DR0ZS4,30,MALE,playground_76.jpg,playground_76.jpg,playground_22.jpg,left,mountain_135.jpg,bridge_1.jpg,golf_course_238.jpg,highway_191.jpg,playground_76.jpg,badlands_47.jpg,4.0,right,1.5412,0.0,playground,playground_22.jpg,3.533333333,1.0039,A3KXQT51DR0ZS4
82,A3KXQT51DR0ZS4,30,MALE,highway_415.jpg,highway_174.jpg,highway_415.jpg,right,bridge_228.jpg,highway_415.jpg,badlands_138.jpg,golf_course_102.jpg,playground_196.jpg,mountain_169.jpg,1.0,right,1.958,1.0,highway,highway_174.jpg,3.64,1.1407,A3KXQT51DR0ZS4
83,A3KXQT51DR0ZS4,30,MALE,mountain_293.jpg,mountain_293.jpg,mountain_47.jpg,left,mountain_293.jpg,golf_course_0.jpg,badlands_227.jpg,playground_30.jpg,highway_50.jpg,bridge_4.jpg,0.0,left,0.6109,1.0,mountain,mountain_47.jpg,7.186666667,1.0594,A3KXQT51DR0ZS4
84,A3KXQT51DR0ZS4,30,MALE,mountain_57.jpg,mountain_57.jpg,mountain_193.jpg,left,badlands_30.jpg,golf_course_3.jpg,mountain_57.jpg,bridge_147.jpg,highway_107.jpg,playground_249.jpg,2.0,left,2.0357,0.0,mountain,mountain_193.jpg,8.351111111,0.4063,A3KXQT51DR0ZS4
85,A3KXQT51DR0ZS4,30,MALE,highway_273.jpg,highway_273.jpg,highway_384.jpg,left,golf_course_252.jpg,bridge_118.jpg,mountain_249.jpg,badlands_128.jpg,highway_273.jpg,playground_248.jpg,4.0,left,1.5743,0.0,highway,highway_384.jpg,4.235555556,1.0453,A3KXQT51DR0ZS4
86,A3KXQT51DR0ZS4,30,MALE,playground_10.jpg,playground_10.jpg,playground_122.jpg,left,highway_17.jpg,badlands_81.jpg,playground_10.jpg,mountain_120.jpg,bridge_212.jpg,golf_course_253.jpg,2.0,left,2.2737,0.0,playground,playground_122.jpg,6.6,0.5774,A3KXQT51DR0ZS4
87,A3KXQT51DR0ZS4,30,MALE,highway_294.jpg,highway_368.jpg,highway_294.jpg,right,playground_181.jpg,highway_294.jpg,badlands_215.jpg,bridge_120.jpg,golf_course_71.jpg,mountain_40.jpg,1.0,right,6.535,1.0,highway,highway_368.jpg,4.84,0.4905,A3KXQT51DR0ZS4
88,A3KXQT51DR0ZS4,30,MALE,bridge_191.jpg,bridge_184.jpg,bridge_191.jpg,right,golf_course_282.jpg,playground_141.jpg,bridge_191.jpg,badlands_156.jpg,highway_81.jpg,mountain_146.jpg,2.0,right,1.4279,0.0,bridge,bridge_184.jpg,3.693333333,0.3878,A3KXQT51DR0ZS4
89,A3KXQT51DR0ZS4,30,MALE,badlands_222.jpg,badlands_222.jpg,badlands_62.jpg,left,mountain_180.jpg,golf_course_218.jpg,badlands_222.jpg,playground_191.jpg,bridge_96.jpg,highway_147.jpg,2.0,right,3.239,1.0,badlands,badlands_62.jpg,2.591111111,0.413,A3KXQT51DR0ZS4
90,A3KXQT51DR0ZS4,30,MALE,playground_145.jpg,playground_145.jpg,playground_229.jpg,left,playground_145.jpg,golf_course_72.jpg,bridge_62.jpg,highway_335.jpg,mountain_251.jpg,badlands_166.jpg,0.0,left,1.6544,0.0,playground,playground_229.jpg,2.004444444,1.2499,A3KXQT51DR0ZS4
91,A3KXQT51DR0ZS4,30,MALE,golf_course_331.jpg,golf_course_26.jpg,golf_course_331.jpg,right,bridge_218.jpg,golf_course_331.jpg,mountain_250.jpg,badlands_27.jpg,highway_83.jpg,playground_132.jpg,1.0,left,0.5857,1.0,golf,golf_course_26.jpg,8.004444444,1.9783,A3KXQT51DR0ZS4
92,A3KXQT51DR0ZS4,30,MALE,mountain_101.jpg,mountain_101.jpg,mountain_221.jpg,left,badlands_201.jpg,mountain_101.jpg,playground_140.jpg,golf_course_181.jpg,highway_404.jpg,bridge_254.jpg,1.0,right,1.4088,1.0,mountain,mountain_221.jpg,6.964444444,1.4972,A3KXQT51DR0ZS4
93,A3KXQT51DR0ZS4,30,MALE,highway_359.jpg,highway_359.jpg,highway_389.jpg,left,bridge_152.jpg,highway_359.jpg,golf_course_342.jpg,mountain_206.jpg,playground_176.jpg,badlands_120.jpg,1.0,left,2.9431,0.0,highway,highway_389.jpg,7.035555556,1.0584,A3KXQT51DR0ZS4
94,A3KXQT51DR0ZS4,30,MALE,mountain_230.jpg,mountain_230.jpg,mountain_97.jpg,left,highway_172.jpg,playground_84.jpg,golf_course_55.jpg,mountain_230.jpg,bridge_142.jpg,badlands_35.jpg,3.0,left,2.9649,1.0,mountain,mountain_97.jpg,7.924444444,4.1032,A3KXQT51DR0ZS4
95,A3KXQT51DR0ZS4,30,MALE,badlands_221.jpg,badlands_115.jpg,badlands_221.jpg,right,golf_course_269.jpg,bridge_24.jpg,playground_39.jpg,badlands_221.jpg,mountain_307.jpg,highway_18.jpg,3.0,right,1.4706,0.0,badlands,badlands_115.jpg,9.0,1.5328,A3KXQT51DR0ZS4
96,A3KXQT51DR0ZS4,30,MALE,mountain_232.jpg,mountain_232.jpg,mountain_3.jpg,left,playground_68.jpg,highway_78.jpg,bridge_238.jpg,mountain_232.jpg,golf_course_33.jpg,badlands_72.jpg,3.0,right,0.3204,0.0,mountain,mountain_3.jpg,4.911111111,3.4027,A3KXQT51DR0ZS4
97,A3KXQT51DR0ZS4,30,MALE,badlands_113.jpg,badlands_113.jpg,badlands_203.jpg,left,highway_138.jpg,bridge_224.jpg,mountain_137.jpg,badlands_113.jpg,playground_103.jpg,golf_course_179.jpg,3.0,right,0.0084,1.0,badlands,badlands_203.jpg,4.955555556,0.399,A3KXQT51DR0ZS4
98,A3KXQT51DR0ZS4,30,MALE,golf_course_188.jpg,golf_course_188.jpg,golf_course_160.jpg,left,badlands_170.jpg,bridge_106.jpg,highway_28.jpg,golf_course_188.jpg,mountain_51.jpg,playground_241.jpg,3.0,left,1.4074,1.0,golf,golf_course_160.jpg,7.871111111,1.6365,A3KXQT51DR0ZS4
99,A3KXQT51DR0ZS4,30,MALE,bridge_146.jpg,bridge_121.jpg,bridge_146.jpg,right,golf_course_241.jpg,badlands_217.jpg,playground_74.jpg,mountain_302.jpg,bridge_146.jpg,highway_313.jpg,4.0,left,1.7778,1.0,bridge,bridge_121.jpg,9.0,2.0128,A3KXQT51DR0ZS4
100,A3KXQT51DR0ZS4,30,MALE,bridge_202.jpg,bridge_31.jpg,bridge_202.jpg,right,mountain_35.jpg,playground_7.jpg,bridge_202.jpg,highway_288.jpg,golf_course_265.jpg,badlands_6.jpg,2.0,right,1.6281,0.0,bridge,bridge_31.jpg,8.928888889,7.6222,A3KXQT51DR0ZS4
101,A3KXQT51DR0ZS4,30,MALE,golf_course_217.jpg,golf_course_217.jpg,golf_course_35.jpg,left,badlands_105.jpg,highway_274.jpg,golf_course_217.jpg,bridge_158.jpg,mountain_202.jpg,playground_165.jpg,2.0,left,2.3767,0.0,golf,golf_course_35.jpg,8.937777778,0.22,A3KXQT51DR0ZS4
102,A3KXQT51DR0ZS4,30,MALE,mountain_222.jpg,mountain_244.jpg,mountain_222.jpg,right,mountain_222.jpg,golf_course_42.jpg,playground_15.jpg,bridge_173.jpg,highway_246.jpg,badlands_97.jpg,0.0,left,1.9171,0.0,mountain,mountain_244.jpg,8.964444444,0.2978,A3KXQT51DR0ZS4
103,A3KXQT51DR0ZS4,30,MALE,playground_60.jpg,playground_60.jpg,playground_244.jpg,left,playground_60.jpg,golf_course_127.jpg,highway_102.jpg,bridge_86.jpg,mountain_226.jpg,badlands_200.jpg,0.0,right,2.3797,1.0,playground,playground_244.jpg,8.964444444,0.6694,A3KXQT51DR0ZS4
104,A3KXQT51DR0ZS4,30,MALE,highway_156.jpg,highway_293.jpg,highway_156.jpg,right,golf_course_196.jpg,bridge_74.jpg,badlands_219.jpg,mountain_306.jpg,highway_156.jpg,playground_37.jpg,4.0,left,1.7577,1.0,highway,highway_293.jpg,8.964444444,0.1067,A3KXQT51DR0ZS4
105,A3KXQT51DR0ZS4,30,MALE,playground_257.jpg,playground_257.jpg,playground_214.jpg,left,highway_413.jpg,golf_course_333.jpg,badlands_106.jpg,playground_257.jpg,mountain_277.jpg,bridge_197.jpg,3.0,left,5.0724,0.0,playground,playground_214.jpg,8.964444444,0.965,A3KXQT51DR0ZS4
106,A3KXQT51DR0ZS4,30,MALE,highway_209.jpg,highway_122.jpg,highway_209.jpg,right,badlands_33.jpg,highway_209.jpg,golf_course_291.jpg,playground_233.jpg,mountain_309.jpg,bridge_76.jpg,1.0,left,1.3723,1.0,highway,highway_122.jpg,8.92,0.2991,A3KXQT51DR0ZS4
107,A3KXQT51DR0ZS4,30,MALE,playground_117.jpg,playground_117.jpg,playground_167.jpg,left,golf_course_56.jpg,highway_3.jpg,bridge_72.jpg,playground_117.jpg,mountain_87.jpg,badlands_88.jpg,3.0,left,3.0983,0.0,playground,playground_167.jpg,8.946666667,0.4961,A3KXQT51DR0ZS4
108,A3KXQT51DR0ZS4,30,MALE,mountain_156.jpg,mountain_156.jpg,mountain_128.jpg,left,bridge_140.jpg,golf_course_338.jpg,mountain_156.jpg,badlands_26.jpg,highway_226.jpg,playground_184.jpg,2.0,left,2.7096,0.0,mountain,mountain_128.jpg,8.946666667,0.294,A3KXQT51DR0ZS4
109,A3KXQT51DR0ZS4,30,MALE,bridge_65.jpg,bridge_65.jpg,bridge_60.jpg,left,mountain_39.jpg,bridge_65.jpg,playground_55.jpg,highway_199.jpg,golf_course_174.jpg,badlands_122.jpg,1.0,left,2.6169,1.0,bridge,bridge_60.jpg,8.946666667,0.2008,A3KXQT51DR0ZS4
110,A3KXQT51DR0ZS4,30,MALE,bridge_128.jpg,bridge_244.jpg,bridge_128.jpg,right,mountain_29.jpg,bridge_128.jpg,highway_58.jpg,playground_126.jpg,golf_course_328.jpg,badlands_36.jpg,1.0,left,0.6713,1.0,bridge,bridge_244.jpg,8.022222222,0.7627,A3KXQT51DR0ZS4
111,A3KXQT51DR0ZS4,30,MALE,badlands_184.jpg,badlands_103.jpg,badlands_184.jpg,right,highway_178.jpg,mountain_290.jpg,bridge_155.jpg,playground_256.jpg,badlands_184.jpg,golf_course_194.jpg,4.0,left,2.1759,1.0,badlands,badlands_103.jpg,8.022222222,0.1963,A3KXQT51DR0ZS4
112,A3KXQT51DR0ZS4,30,MALE,playground_144.jpg,playground_144.jpg,playground_137.jpg,left,playground_144.jpg,golf_course_307.jpg,mountain_160.jpg,highway_154.jpg,bridge_52.jpg,badlands_214.jpg,0.0,right,2.4412,0.0,playground,playground_137.jpg,8.022222222,0.4115,A3KXQT51DR0ZS4
113,A3KXQT51DR0ZS4,30,MALE,badlands_21.jpg,badlands_98.jpg,badlands_21.jpg,right,golf_course_67.jpg,playground_16.jpg,bridge_225.jpg,badlands_21.jpg,highway_342.jpg,mountain_151.jpg,3.0,left,1.7736,1.0,badlands,badlands_98.jpg,1.124444444,1.4903,A3KXQT51DR0ZS4
114,A3KXQT51DR0ZS4,30,MALE,highway_93.jpg,highway_93.jpg,highway_369.jpg,left,playground_204.jpg,golf_course_59.jpg,mountain_192.jpg,bridge_63.jpg,highway_93.jpg,badlands_125.jpg,4.0,left,2.1492,1.0,highway,highway_369.jpg,1.115555556,0.2916,A3KXQT51DR0ZS4
115,A3KXQT51DR0ZS4,30,MALE,golf_course_309.jpg,golf_course_16.jpg,golf_course_309.jpg,right,golf_course_309.jpg,mountain_76.jpg,badlands_80.jpg,highway_101.jpg,playground_227.jpg,bridge_144.jpg,0.0,left,1.8683,0.0,golf,golf_course_16.jpg,1.106666667,0.2047,A3KXQT51DR0ZS4
116,A3KXQT51DR0ZS4,30,MALE,badlands_24.jpg,badlands_24.jpg,badlands_53.jpg,left,playground_118.jpg,highway_315.jpg,bridge_167.jpg,badlands_24.jpg,mountain_212.jpg,golf_course_166.jpg,3.0,left,2.7382,1.0,badlands,badlands_53.jpg,1.106666667,0.2966,A3KXQT51DR0ZS4
117,A3KXQT51DR0ZS4,30,MALE,bridge_256.jpg,bridge_256.jpg,bridge_54.jpg,left,golf_course_105.jpg,highway_76.jpg,mountain_19.jpg,bridge_256.jpg,playground_14.jpg,badlands_211.jpg,3.0,left,4.7648,0.0,bridge,bridge_54.jpg,1.026666667,0.5944,A3KXQT51DR0ZS4
118,A3KXQT51DR0ZS4,30,MALE,golf_course_195.jpg,golf_course_25.jpg,golf_course_195.jpg,right,playground_120.jpg,bridge_126.jpg,mountain_256.jpg,golf_course_195.jpg,highway_15.jpg,badlands_152.jpg,3.0,left,2.747,0.0,golf,golf_course_25.jpg,1.764444444,0.4788,A3KXQT51DR0ZS4
119,A3KXQT51DR0ZS4,30,MALE,bridge_108.jpg,bridge_108.jpg,bridge_116.jpg,left,golf_course_41.jpg,playground_78.jpg,bridge_108.jpg,badlands_174.jpg,highway_33.jpg,mountain_91.jpg,2.0,left,1.1921,0.0,bridge,bridge_116.jpg,2.057777778,0.2208,A3KXQT51DR0ZS4
120,A2JGO9YCQFQ8CF,27,male,bridge_91.jpg,bridge_82.jpg,bridge_91.jpg,right,golf_course_297.jpg,playground_249.jpg,mountain_309.jpg,highway_36.jpg,bridge_91.jpg,badlands_30.jpg,4.0,right,3.8848,1.0,bridge,bridge_82.jpg,1.083333333,14.1082,A2JGO9YCQFQ8CF
121,A2JGO9YCQFQ8CF,27,male,golf_course_78.jpg,golf_course_78.jpg,golf_course_101.jpg,left,badlands_80.jpg,bridge_86.jpg,mountain_137.jpg,playground_50.jpg,golf_course_78.jpg,highway_101.jpg,4.0,left,2.5972,1.0,golf,golf_course_101.jpg,2.296296296,0.5569,A2JGO9YCQFQ8CF
122,A2JGO9YCQFQ8CF,27,male,playground_117.jpg,playground_117.jpg,playground_167.jpg,left,badlands_200.jpg,golf_course_305.jpg,playground_117.jpg,bridge_76.jpg,mountain_204.jpg,highway_251.jpg,2.0,left,3.6578,0.0,playground,playground_167.jpg,3.694444444,0.2952,A2JGO9YCQFQ8CF
123,A2JGO9YCQFQ8CF,27,male,golf_course_15.jpg,golf_course_15.jpg,golf_course_113.jpg,left,golf_course_15.jpg,highway_413.jpg,mountain_212.jpg,bridge_118.jpg,playground_85.jpg,badlands_219.jpg,0.0,right,2.6031,0.0,golf,golf_course_113.jpg,4.101851852,0.298799999,A2JGO9YCQFQ8CF
124,A2JGO9YCQFQ8CF,27,male,highway_294.jpg,highway_294.jpg,highway_368.jpg,left,bridge_62.jpg,mountain_89.jpg,playground_191.jpg,highway_294.jpg,golf_course_307.jpg,badlands_105.jpg,3.0,left,3.422900001,1.0,highway,highway_368.jpg,4.962962963,0.5582,A2JGO9YCQFQ8CF
125,A2JGO9YCQFQ8CF,27,male,golf_course_309.jpg,golf_course_16.jpg,golf_course_309.jpg,right,highway_154.jpg,golf_course_309.jpg,mountain_160.jpg,badlands_171.jpg,playground_162.jpg,bridge_102.jpg,1.0,right,2.5187,0.0,golf,golf_course_16.jpg,7.018518519,1.875799999,A2JGO9YCQFQ8CF
126,A2JGO9YCQFQ8CF,27,male,highway_156.jpg,highway_156.jpg,highway_293.jpg,left,golf_course_56.jpg,mountain_253.jpg,highway_156.jpg,badlands_47.jpg,playground_195.jpg,bridge_120.jpg,2.0,left,2.355099999,1.0,highway,highway_293.jpg,7.0,0.5581,A2JGO9YCQFQ8CF
127,A2JGO9YCQFQ8CF,27,male,golf_course_193.jpg,golf_course_193.jpg,golf_course_235.jpg,left,golf_course_193.jpg,bridge_64.jpg,badlands_128.jpg,playground_64.jpg,mountain_41.jpg,highway_199.jpg,0.0,right,4.194299999,0.0,golf,golf_course_235.jpg,7.0,0.2759,A2JGO9YCQFQ8CF
128,A2JGO9YCQFQ8CF,27,male,highway_359.jpg,highway_359.jpg,highway_379.jpg,left,bridge_66.jpg,badlands_213.jpg,mountain_250.jpg,playground_14.jpg,highway_359.jpg,golf_course_0.jpg,4.0,left,2.6303,1.0,highway,highway_379.jpg,7.0,0.2968,A2JGO9YCQFQ8CF
129,A2JGO9YCQFQ8CF,27,male,bridge_256.jpg,bridge_256.jpg,bridge_54.jpg,left,playground_55.jpg,bridge_256.jpg,mountain_135.jpg,badlands_170.jpg,highway_102.jpg,golf_course_71.jpg,1.0,right,2.3511,0.0,bridge,bridge_54.jpg,7.0,0.3241,A2JGO9YCQFQ8CF
130,A2JGO9YCQFQ8CF,27,male,golf_course_214.jpg,golf_course_214.jpg,golf_course_317.jpg,left,playground_36.jpg,bridge_167.jpg,highway_9.jpg,golf_course_214.jpg,mountain_22.jpg,badlands_54.jpg,3.0,left,1.8615,1.0,golf,golf_course_317.jpg,7.0,0.549900001,A2JGO9YCQFQ8CF
131,A2JGO9YCQFQ8CF,27,male,mountain_110.jpg,mountain_223.jpg,mountain_110.jpg,right,golf_course_269.jpg,highway_90.jpg,playground_49.jpg,mountain_110.jpg,badlands_72.jpg,bridge_79.jpg,3.0,right,1.8219,1.0,mountain,mountain_223.jpg,7.0,0.2873,A2JGO9YCQFQ8CF
132,A2JGO9YCQFQ8CF,27,male,playground_219.jpg,playground_205.jpg,playground_219.jpg,right,golf_course_59.jpg,playground_219.jpg,mountain_33.jpg,bridge_143.jpg,highway_290.jpg,badlands_164.jpg,1.0,right,2.144,1.0,playground,playground_205.jpg,7.0,0.289400001,A2JGO9YCQFQ8CF
133,A2JGO9YCQFQ8CF,27,male,playground_240.jpg,playground_2.jpg,playground_240.jpg,right,mountain_92.jpg,golf_course_199.jpg,badlands_180.jpg,highway_313.jpg,playground_240.jpg,bridge_133.jpg,4.0,right,1.5732,0.0,playground,playground_2.jpg,7.0,0.2989,A2JGO9YCQFQ8CF
134,A2JGO9YCQFQ8CF,27,male,playground_76.jpg,playground_76.jpg,playground_22.jpg,left,badlands_106.jpg,bridge_155.jpg,golf_course_288.jpg,highway_247.jpg,playground_76.jpg,mountain_169.jpg,4.0,left,1.8238,0.0,playground,playground_22.jpg,7.0,0.3113,A2JGO9YCQFQ8CF
135,A2JGO9YCQFQ8CF,27,male,bridge_172.jpg,bridge_172.jpg,bridge_163.jpg,left,bridge_172.jpg,golf_course_116.jpg,playground_204.jpg,highway_141.jpg,badlands_79.jpg,mountain_19.jpg,0.0,right,1.8287,1.0,bridge,bridge_163.jpg,7.0,0.2893,A2JGO9YCQFQ8CF
136,A2JGO9YCQFQ8CF,27,male,highway_394.jpg,highway_394.jpg,highway_406.jpg,left,bridge_190.jpg,playground_141.jpg,badlands_183.jpg,golf_course_212.jpg,highway_394.jpg,mountain_126.jpg,4.0,left,2.5973,1.0,highway,highway_406.jpg,7.953703704,1.9314,A2JGO9YCQFQ8CF
137,A2JGO9YCQFQ8CF,27,male,bridge_146.jpg,bridge_27.jpg,bridge_146.jpg,right,playground_154.jpg,badlands_120.jpg,bridge_146.jpg,highway_288.jpg,mountain_307.jpg,golf_course_164.jpg,2.0,right,2.104900001,0.0,bridge,bridge_27.jpg,6.009259259,0.5632,A2JGO9YCQFQ8CF
138,A2JGO9YCQFQ8CF,27,male,highway_245.jpg,highway_245.jpg,highway_134.jpg,left,highway_245.jpg,bridge_224.jpg,badlands_88.jpg,playground_61.jpg,golf_course_265.jpg,mountain_306.jpg,0.0,left,2.9228,0.0,highway,highway_134.jpg,8.037037037,2.1337,A2JGO9YCQFQ8CF
139,A2JGO9YCQFQ8CF,27,male,bridge_128.jpg,bridge_128.jpg,bridge_244.jpg,left,badlands_211.jpg,playground_196.jpg,golf_course_226.jpg,highway_28.jpg,bridge_128.jpg,mountain_198.jpg,4.0,left,1.8256,1.0,bridge,bridge_244.jpg,8.037037037,0.544,A2JGO9YCQFQ8CF
140,A2JGO9YCQFQ8CF,27,male,badlands_21.jpg,badlands_21.jpg,badlands_1.jpg,left,golf_course_202.jpg,bridge_254.jpg,mountain_190.jpg,playground_54.jpg,badlands_21.jpg,highway_33.jpg,4.0,left,1.854900001,0.0,badlands,badlands_1.jpg,8.037037037,0.2755,A2JGO9YCQFQ8CF
141,A2JGO9YCQFQ8CF,27,male,playground_144.jpg,playground_144.jpg,playground_137.jpg,left,mountain_120.jpg,bridge_74.jpg,badlands_174.jpg,playground_144.jpg,golf_course_176.jpg,highway_342.jpg,3.0,left,1.5875,0.0,playground,playground_137.jpg,8.037037037,0.3064,A2JGO9YCQFQ8CF
142,A2JGO9YCQFQ8CF,27,male,bridge_108.jpg,bridge_116.jpg,bridge_108.jpg,right,badlands_85.jpg,highway_269.jpg,mountain_290.jpg,golf_course_174.jpg,bridge_108.jpg,playground_16.jpg,4.0,right,2.389099999,0.0,bridge,bridge_116.jpg,8.037037037,0.2998,A2JGO9YCQFQ8CF
143,A2JGO9YCQFQ8CF,27,male,mountain_232.jpg,mountain_232.jpg,mountain_3.jpg,left,golf_course_128.jpg,playground_15.jpg,highway_3.jpg,badlands_173.jpg,mountain_232.jpg,bridge_147.jpg,4.0,left,2.387900001,0.0,mountain,mountain_3.jpg,8.037037037,0.2813,A2JGO9YCQFQ8CF
144,A2JGO9YCQFQ8CF,27,male,playground_145.jpg,playground_145.jpg,playground_229.jpg,left,badlands_227.jpg,mountain_152.jpg,highway_37.jpg,playground_145.jpg,bridge_24.jpg,golf_course_162.jpg,3.0,left,3.5362,0.0,playground,playground_229.jpg,8.037037037,0.2997,A2JGO9YCQFQ8CF
145,A2JGO9YCQFQ8CF,27,male,highway_93.jpg,highway_369.jpg,highway_93.jpg,right,badlands_122.jpg,bridge_197.jpg,playground_103.jpg,golf_course_127.jpg,highway_93.jpg,mountain_146.jpg,4.0,right,1.8664,1.0,highway,highway_369.jpg,8.037037037,0.2794,A2JGO9YCQFQ8CF
146,A2JGO9YCQFQ8CF,27,male,badlands_221.jpg,badlands_221.jpg,badlands_115.jpg,left,mountain_91.jpg,highway_18.jpg,bridge_106.jpg,badlands_221.jpg,golf_course_194.jpg,playground_126.jpg,3.0,left,2.474700001,0.0,badlands,badlands_115.jpg,8.037037037,0.2886,A2JGO9YCQFQ8CF
147,A2JGO9YCQFQ8CF,27,male,mountain_230.jpg,mountain_184.jpg,mountain_230.jpg,right,golf_course_33.jpg,badlands_60.jpg,bridge_136.jpg,playground_181.jpg,mountain_230.jpg,highway_15.jpg,4.0,right,1.579900001,0.0,mountain,mountain_184.jpg,8.87037037,0.8279,A2JGO9YCQFQ8CF
148,A2JGO9YCQFQ8CF,27,male,badlands_184.jpg,badlands_228.jpg,badlands_184.jpg,right,mountain_233.jpg,bridge_204.jpg,badlands_184.jpg,playground_68.jpg,highway_287.jpg,golf_course_342.jpg,2.0,left,1.9019,0.0,badlands,badlands_228.jpg,6.574074074,0.280900001,A2JGO9YCQFQ8CF
149,A2JGO9YCQFQ8CF,27,male,badlands_23.jpg,badlands_114.jpg,badlands_23.jpg,right,playground_84.jpg,badlands_23.jpg,golf_course_221.jpg,bridge_158.jpg,mountain_38.jpg,highway_76.jpg,1.0,right,3.899400001,0.0,badlands,badlands_114.jpg,5.953703704,0.3018,A2JGO9YCQFQ8CF
150,A2JGO9YCQFQ8CF,27,male,playground_131.jpg,playground_131.jpg,playground_164.jpg,left,mountain_268.jpg,playground_131.jpg,bridge_238.jpg,golf_course_282.jpg,badlands_59.jpg,highway_246.jpg,1.0,right,2.915700001,1.0,playground,playground_164.jpg,4.925925926,0.8098,A2JGO9YCQFQ8CF
151,A2JGO9YCQFQ8CF,27,male,mountain_123.jpg,mountain_123.jpg,mountain_94.jpg,left,highway_50.jpg,bridge_218.jpg,mountain_123.jpg,golf_course_67.jpg,badlands_125.jpg,playground_110.jpg,2.0,left,2.633299999,0.0,mountain,mountain_94.jpg,4.925925926,0.2825,A2JGO9YCQFQ8CF
152,A2JGO9YCQFQ8CF,27,male,playground_60.jpg,playground_60.jpg,playground_268.jpg,left,highway_83.jpg,badlands_55.jpg,golf_course_300.jpg,mountain_40.jpg,playground_60.jpg,bridge_228.jpg,4.0,right,5.177799999,0.0,playground,playground_268.jpg,4.925925926,0.559099999,A2JGO9YCQFQ8CF
153,A2JGO9YCQFQ8CF,27,male,bridge_65.jpg,bridge_60.jpg,bridge_65.jpg,right,highway_399.jpg,golf_course_171.jpg,mountain_199.jpg,bridge_65.jpg,playground_241.jpg,badlands_97.jpg,3.0,left,5.78,1.0,bridge,bridge_60.jpg,4.925925926,0.2744,A2JGO9YCQFQ8CF
154,A2JGO9YCQFQ8CF,27,male,badlands_24.jpg,badlands_3.jpg,badlands_24.jpg,right,golf_course_133.jpg,playground_176.jpg,mountain_277.jpg,badlands_24.jpg,bridge_212.jpg,highway_404.jpg,3.0,right,2.893299999,0.0,badlands,badlands_3.jpg,4.925925926,0.795900001,A2JGO9YCQFQ8CF
155,A2JGO9YCQFQ8CF,27,male,bridge_191.jpg,bridge_191.jpg,bridge_75.jpg,left,badlands_138.jpg,golf_course_253.jpg,playground_153.jpg,bridge_191.jpg,mountain_76.jpg,highway_42.jpg,3.0,right,2.3715,1.0,bridge,bridge_75.jpg,4.925925926,0.281299999,A2JGO9YCQFQ8CF
156,A2JGO9YCQFQ8CF,27,male,mountain_101.jpg,mountain_221.jpg,mountain_101.jpg,right,highway_265.jpg,playground_6.jpg,golf_course_219.jpg,mountain_101.jpg,badlands_36.jpg,bridge_180.jpg,3.0,left,1.8171,1.0,mountain,mountain_221.jpg,4.925925926,0.2746,A2JGO9YCQFQ8CF
157,A2JGO9YCQFQ8CF,27,male,golf_course_217.jpg,golf_course_35.jpg,golf_course_217.jpg,right,bridge_152.jpg,highway_58.jpg,golf_course_217.jpg,badlands_9.jpg,playground_173.jpg,mountain_62.jpg,2.0,right,9.4074,0.0,golf,golf_course_35.jpg,4.925925926,0.550599999,A2JGO9YCQFQ8CF
158,A2JGO9YCQFQ8CF,27,male,playground_10.jpg,playground_12.jpg,playground_10.jpg,right,badlands_216.jpg,playground_10.jpg,bridge_63.jpg,golf_course_61.jpg,mountain_87.jpg,highway_383.jpg,1.0,left,2.629,1.0,playground,playground_12.jpg,4.925925926,0.5575,A2JGO9YCQFQ8CF
159,A2JGO9YCQFQ8CF,27,male,badlands_222.jpg,badlands_62.jpg,badlands_222.jpg,right,mountain_29.jpg,badlands_222.jpg,playground_30.jpg,highway_53.jpg,bridge_39.jpg,golf_course_120.jpg,1.0,right,2.4209,1.0,badlands,badlands_62.jpg,4.925925926,1.642,A2JGO9YCQFQ8CF
160,A2JGO9YCQFQ8CF,27,male,golf_course_331.jpg,golf_course_114.jpg,golf_course_331.jpg,right,bridge_144.jpg,highway_191.jpg,badlands_217.jpg,golf_course_331.jpg,playground_83.jpg,mountain_192.jpg,3.0,right,4.7326,0.0,golf,golf_course_114.jpg,4.925925926,0.2645,A2JGO9YCQFQ8CF
161,A2JGO9YCQFQ8CF,27,male,badlands_113.jpg,badlands_113.jpg,badlands_203.jpg,left,mountain_302.jpg,badlands_113.jpg,playground_140.jpg,bridge_20.jpg,golf_course_72.jpg,highway_81.jpg,1.0,right,2.239900001,1.0,badlands,badlands_203.jpg,4.925925926,0.6139,A2JGO9YCQFQ8CF
162,A2JGO9YCQFQ8CF,27,male,golf_course_195.jpg,golf_course_195.jpg,golf_course_2.jpg,left,golf_course_195.jpg,badlands_215.jpg,mountain_166.jpg,highway_148.jpg,bridge_1.jpg,playground_165.jpg,0.0,right,1.5526,1.0,golf,golf_course_2.jpg,8.148148148,1.335900001,A2JGO9YCQFQ8CF
163,A2JGO9YCQFQ8CF,27,male,highway_177.jpg,highway_177.jpg,highway_278.jpg,left,mountain_88.jpg,playground_251.jpg,highway_177.jpg,bridge_124.jpg,golf_course_138.jpg,badlands_152.jpg,2.0,left,1.864900001,1.0,highway,highway_278.jpg,8.12037037,2.664599999,A2JGO9YCQFQ8CF
164,A2JGO9YCQFQ8CF,27,male,badlands_52.jpg,badlands_52.jpg,badlands_63.jpg,left,bridge_45.jpg,playground_120.jpg,badlands_52.jpg,mountain_256.jpg,highway_172.jpg,golf_course_252.jpg,2.0,left,1.5677,1.0,badlands,badlands_63.jpg,8.101851852,1.3032,A2JGO9YCQFQ8CF
165,A2JGO9YCQFQ8CF,27,male,mountain_222.jpg,mountain_222.jpg,mountain_244.jpg,left,bridge_234.jpg,highway_178.jpg,mountain_222.jpg,golf_course_102.jpg,playground_7.jpg,badlands_16.jpg,2.0,right,1.8345,0.0,mountain,mountain_244.jpg,8.101851852,0.2853,A2JGO9YCQFQ8CF
166,A2JGO9YCQFQ8CF,27,male,golf_course_87.jpg,golf_course_161.jpg,golf_course_87.jpg,right,highway_365.jpg,mountain_180.jpg,playground_98.jpg,golf_course_87.jpg,bridge_225.jpg,badlands_157.jpg,3.0,right,1.8448,1.0,golf,golf_course_161.jpg,8.101851852,0.8329,A2JGO9YCQFQ8CF
167,A2JGO9YCQFQ8CF,27,male,playground_257.jpg,playground_215.jpg,playground_257.jpg,right,highway_315.jpg,mountain_228.jpg,badlands_175.jpg,playground_257.jpg,bridge_52.jpg,golf_course_144.jpg,3.0,right,2.109599999,1.0,playground,playground_215.jpg,8.101851852,0.7983,A2JGO9YCQFQ8CF
168,A2JGO9YCQFQ8CF,27,male,highway_209.jpg,highway_209.jpg,highway_314.jpg,left,mountain_226.jpg,badlands_81.jpg,highway_209.jpg,golf_course_42.jpg,playground_235.jpg,bridge_193.jpg,2.0,left,3.8773,0.0,highway,highway_314.jpg,8.101851852,1.8356,A2JGO9YCQFQ8CF
169,A2JGO9YCQFQ8CF,27,male,badlands_70.jpg,badlands_70.jpg,badlands_102.jpg,left,golf_course_23.jpg,badlands_70.jpg,bridge_169.jpg,playground_26.jpg,mountain_176.jpg,highway_308.jpg,1.0,right,1.6288,0.0,badlands,badlands_102.jpg,8.101851852,0.271,A2JGO9YCQFQ8CF
170,A2JGO9YCQFQ8CF,27,male,mountain_154.jpg,mountain_95.jpg,mountain_154.jpg,right,mountain_154.jpg,playground_74.jpg,badlands_214.jpg,bridge_173.jpg,golf_course_166.jpg,highway_305.jpg,0.0,right,2.3757,1.0,mountain,mountain_95.jpg,8.101851852,0.282,A2JGO9YCQFQ8CF
171,A2JGO9YCQFQ8CF,27,male,badlands_137.jpg,badlands_137.jpg,badlands_139.jpg,left,bridge_142.jpg,mountain_51.jpg,golf_course_179.jpg,playground_118.jpg,badlands_137.jpg,highway_274.jpg,4.0,right,1.8251,1.0,badlands,badlands_139.jpg,8.101851852,0.283099999,A2JGO9YCQFQ8CF
172,A2JGO9YCQFQ8CF,27,male,mountain_156.jpg,mountain_128.jpg,mountain_156.jpg,right,golf_course_218.jpg,playground_37.jpg,badlands_27.jpg,mountain_156.jpg,bridge_110.jpg,highway_147.jpg,3.0,right,1.7153,0.0,mountain,mountain_128.jpg,8.101851852,0.2924,A2JGO9YCQFQ8CF
173,A2JGO9YCQFQ8CF,27,male,golf_course_188.jpg,golf_course_160.jpg,golf_course_188.jpg,right,playground_256.jpg,badlands_46.jpg,golf_course_188.jpg,mountain_102.jpg,highway_30.jpg,bridge_4.jpg,2.0,right,4.754900001,1.0,golf,golf_course_160.jpg,8.101851852,0.5466,A2JGO9YCQFQ8CF
174,A2JGO9YCQFQ8CF,27,male,bridge_202.jpg,bridge_31.jpg,bridge_202.jpg,right,bridge_202.jpg,golf_course_55.jpg,mountain_34.jpg,badlands_33.jpg,highway_226.jpg,playground_184.jpg,0.0,right,11.2134,0.0,bridge,bridge_31.jpg,8.101851852,0.579799999,A2JGO9YCQFQ8CF
175,A2JGO9YCQFQ8CF,27,male,highway_415.jpg,highway_415.jpg,highway_174.jpg,left,bridge_126.jpg,badlands_26.jpg,mountain_294.jpg,playground_227.jpg,highway_415.jpg,golf_course_241.jpg,4.0,right,4.2094,1.0,highway,highway_174.jpg,8.101851852,0.5474,A2JGO9YCQFQ8CF
176,A2JGO9YCQFQ8CF,27,male,highway_273.jpg,highway_171.jpg,highway_273.jpg,right,badlands_185.jpg,golf_course_181.jpg,bridge_72.jpg,highway_273.jpg,playground_258.jpg,mountain_202.jpg,3.0,right,1.9129,1.0,highway,highway_171.jpg,8.101851852,0.816,A2JGO9YCQFQ8CF
177,A2JGO9YCQFQ8CF,27,male,bridge_250.jpg,bridge_250.jpg,bridge_134.jpg,left,golf_course_308.jpg,mountain_249.jpg,highway_193.jpg,bridge_250.jpg,playground_222.jpg,badlands_104.jpg,3.0,left,1.4507,0.0,bridge,bridge_134.jpg,8.101851852,0.296599999,A2JGO9YCQFQ8CF
178,A2JGO9YCQFQ8CF,27,male,mountain_57.jpg,mountain_57.jpg,mountain_193.jpg,left,badlands_35.jpg,bridge_87.jpg,mountain_57.jpg,highway_354.jpg,golf_course_137.jpg,playground_78.jpg,2.0,left,1.5614,0.0,mountain,mountain_193.jpg,8.101851852,0.293200001,A2JGO9YCQFQ8CF
179,A2JGO9YCQFQ8CF,27,male,mountain_293.jpg,mountain_47.jpg,mountain_293.jpg,right,bridge_164.jpg,highway_107.jpg,mountain_293.jpg,badlands_10.jpg,playground_233.jpg,golf_course_105.jpg,2.0,left,58.7794,1.0,mountain,mountain_47.jpg,8.101851852,0.2858,A2JGO9YCQFQ8CF
180,A12NDIK7C4TFPC,21,Male,mountain_110.jpg,mountain_110.jpg,mountain_223.jpg,left,badlands_120.jpg,golf_course_265.jpg,mountain_110.jpg,highway_138.jpg,bridge_143.jpg,playground_6.jpg,2.0,right,4.4761,1.0,mountain,mountain_223.jpg,5.99847793,7.1416,A12NDIK7C4TFPC
181,A12NDIK7C4TFPC,21,Male,badlands_113.jpg,badlands_113.jpg,badlands_203.jpg,left,badlands_113.jpg,highway_50.jpg,playground_124.jpg,golf_course_181.jpg,bridge_254.jpg,mountain_152.jpg,0.0,left,7.2977,1.0,badlands,badlands_203.jpg,5.01217656,4.8372,A12NDIK7C4TFPC
182,A12NDIK7C4TFPC,21,Male,bridge_191.jpg,bridge_184.jpg,bridge_191.jpg,right,bridge_191.jpg,golf_course_307.jpg,badlands_20.jpg,highway_30.jpg,mountain_204.jpg,playground_54.jpg,0.0,right,2.3225,0.0,bridge,bridge_184.jpg,1.95585997,4.1855,A12NDIK7C4TFPC
183,A12NDIK7C4TFPC,21,Male,badlands_24.jpg,badlands_24.jpg,badlands_53.jpg,left,highway_319.jpg,golf_course_33.jpg,badlands_24.jpg,mountain_166.jpg,playground_258.jpg,bridge_79.jpg,2.0,right,3.6112,1.0,badlands,badlands_53.jpg,8.00761035,3.6206,A12NDIK7C4TFPC
184,A12NDIK7C4TFPC,21,Male,playground_240.jpg,playground_240.jpg,playground_40.jpg,left,bridge_1.jpg,playground_240.jpg,mountain_102.jpg,highway_29.jpg,badlands_129.jpg,golf_course_133.jpg,1.0,left,5.6982,1.0,playground,playground_40.jpg,4.02587519,12.8841,A12NDIK7C4TFPC
185,A12NDIK7C4TFPC,21,Male,golf_course_15.jpg,golf_course_15.jpg,golf_course_113.jpg,left,highway_383.jpg,playground_63.jpg,badlands_164.jpg,bridge_68.jpg,golf_course_15.jpg,mountain_22.jpg,4.0,left,3.5364,0.0,golf,golf_course_113.jpg,3.00304414,4.7031,A12NDIK7C4TFPC
186,A12NDIK7C4TFPC,21,Male,golf_course_87.jpg,golf_course_87.jpg,golf_course_130.jpg,left,bridge_133.jpg,highway_31.jpg,playground_241.jpg,badlands_44.jpg,golf_course_87.jpg,mountain_187.jpg,4.0,left,2.4464,0.0,golf,golf_course_130.jpg,5.925418569,19.9004,A12NDIK7C4TFPC
187,A12NDIK7C4TFPC,21,Male,badlands_137.jpg,badlands_137.jpg,badlands_139.jpg,left,golf_course_308.jpg,mountain_160.jpg,highway_193.jpg,badlands_137.jpg,bridge_118.jpg,playground_246.jpg,3.0,left,2.355,1.0,badlands,badlands_139.jpg,6.899543379,7.9818,A12NDIK7C4TFPC
188,A12NDIK7C4TFPC,21,Male,playground_144.jpg,playground_144.jpg,playground_137.jpg,left,badlands_183.jpg,playground_144.jpg,highway_141.jpg,bridge_169.jpg,mountain_190.jpg,golf_course_219.jpg,1.0,left,1.6247,0.0,playground,playground_137.jpg,1.99238965,4.0388,A12NDIK7C4TFPC
189,A12NDIK7C4TFPC,21,Male,bridge_172.jpg,bridge_172.jpg,bridge_17.jpg,left,mountain_228.jpg,bridge_172.jpg,golf_course_328.jpg,badlands_105.jpg,playground_84.jpg,highway_365.jpg,1.0,left,2.0167,0.0,bridge,bridge_17.jpg,1.98021309,4.4463,A12NDIK7C4TFPC
190,A12NDIK7C4TFPC,21,Male,badlands_184.jpg,badlands_184.jpg,badlands_103.jpg,left,playground_196.jpg,highway_315.jpg,badlands_184.jpg,mountain_251.jpg,bridge_179.jpg,golf_course_23.jpg,2.0,right,2.5156,1.0,badlands,badlands_103.jpg,5.937595129,3.0171,A12NDIK7C4TFPC
191,A12NDIK7C4TFPC,21,Male,highway_394.jpg,highway_394.jpg,highway_406.jpg,left,highway_394.jpg,mountain_34.jpg,badlands_47.jpg,golf_course_194.jpg,bridge_22.jpg,playground_251.jpg,0.0,left,2.2272,1.0,highway,highway_406.jpg,5.98630137,4.8304,A12NDIK7C4TFPC
192,A12NDIK7C4TFPC,21,Male,playground_131.jpg,playground_164.jpg,playground_131.jpg,right,mountain_309.jpg,bridge_140.jpg,playground_131.jpg,badlands_213.jpg,golf_course_300.jpg,highway_101.jpg,2.0,right,4.7302,1.0,playground,playground_164.jpg,7.946727549,4.4498,A12NDIK7C4TFPC
193,A12NDIK7C4TFPC,21,Male,bridge_250.jpg,bridge_205.jpg,bridge_250.jpg,right,playground_85.jpg,mountain_226.jpg,golf_course_202.jpg,badlands_200.jpg,bridge_250.jpg,highway_37.jpg,4.0,right,2.0049,1.0,bridge,bridge_205.jpg,7.95890411,3.1433,A12NDIK7C4TFPC
194,A12NDIK7C4TFPC,21,Male,golf_course_188.jpg,golf_course_188.jpg,golf_course_157.jpg,left,mountain_169.jpg,bridge_126.jpg,playground_16.jpg,highway_226.jpg,golf_course_188.jpg,badlands_33.jpg,4.0,left,2.5319,0.0,golf,golf_course_157.jpg,2.01674277,4.8512,A12NDIK7C4TFPC
195,A12NDIK7C4TFPC,21,Male,mountain_156.jpg,mountain_128.jpg,mountain_156.jpg,right,golf_course_72.jpg,bridge_20.jpg,mountain_156.jpg,badlands_166.jpg,playground_83.jpg,highway_58.jpg,2.0,left,2.674,0.0,mountain,mountain_128.jpg,6.01065449,8.482,A12NDIK7C4TFPC
196,A12NDIK7C4TFPC,21,Male,highway_156.jpg,highway_156.jpg,highway_293.jpg,left,badlands_88.jpg,highway_156.jpg,golf_course_252.jpg,mountain_290.jpg,bridge_112.jpg,playground_173.jpg,1.0,left,1.7793,1.0,highway,highway_293.jpg,7.946727549,5.2281,A12NDIK7C4TFPC
197,A12NDIK7C4TFPC,21,Male,bridge_146.jpg,bridge_27.jpg,bridge_146.jpg,right,mountain_307.jpg,badlands_104.jpg,highway_78.jpg,bridge_146.jpg,playground_140.jpg,golf_course_291.jpg,3.0,right,1.8746,0.0,bridge,bridge_27.jpg,7.95890411,7.2043,A12NDIK7C4TFPC
198,A12NDIK7C4TFPC,21,Male,golf_course_214.jpg,golf_course_214.jpg,golf_course_312.jpg,left,bridge_4.jpg,golf_course_214.jpg,badlands_80.jpg,highway_3.jpg,mountain_202.jpg,playground_233.jpg,1.0,right,1.4906,0.0,golf,golf_course_312.jpg,6.948249619,7.1548,A12NDIK7C4TFPC
199,A12NDIK7C4TFPC,21,Male,bridge_65.jpg,bridge_60.jpg,bridge_65.jpg,right,badlands_125.jpg,mountain_29.jpg,bridge_65.jpg,highway_246.jpg,golf_course_42.jpg,playground_7.jpg,2.0,left,2.5878,1.0,bridge,bridge_60.jpg,5.98630137,4.5379,A12NDIK7C4TFPC
200,A12NDIK7C4TFPC,21,Male,playground_117.jpg,playground_127.jpg,playground_117.jpg,right,badlands_27.jpg,playground_117.jpg,golf_course_59.jpg,mountain_92.jpg,bridge_64.jpg,highway_191.jpg,1.0,right,2.2124,1.0,playground,playground_127.jpg,5.888888889,2.3724,A12NDIK7C4TFPC
201,A12NDIK7C4TFPC,21,Male,badlands_21.jpg,badlands_21.jpg,badlands_98.jpg,left,bridge_173.jpg,mountain_41.jpg,golf_course_282.jpg,playground_42.jpg,badlands_21.jpg,highway_308.jpg,4.0,left,1.7795,1.0,badlands,badlands_98.jpg,4.841704718,2.9436,A12NDIK7C4TFPC
202,A12NDIK7C4TFPC,21,Male,golf_course_331.jpg,golf_course_114.jpg,golf_course_331.jpg,right,badlands_156.jpg,golf_course_331.jpg,bridge_234.jpg,highway_53.jpg,mountain_256.jpg,playground_184.jpg,1.0,right,3.2143,0.0,golf,golf_course_114.jpg,3.97716895,3.4552,A12NDIK7C4TFPC
203,A12NDIK7C4TFPC,21,Male,badlands_222.jpg,badlands_34.jpg,badlands_222.jpg,right,golf_course_269.jpg,badlands_222.jpg,highway_265.jpg,playground_195.jpg,bridge_142.jpg,mountain_45.jpg,1.0,left,1.6762,0.0,badlands,badlands_34.jpg,7.02130898,4.4919,A12NDIK7C4TFPC
204,A12NDIK7C4TFPC,21,Male,playground_219.jpg,playground_205.jpg,playground_219.jpg,right,badlands_10.jpg,highway_269.jpg,golf_course_138.jpg,playground_219.jpg,mountain_33.jpg,bridge_86.jpg,3.0,right,2.5856,1.0,playground,playground_205.jpg,7.898021309,2.7956,A12NDIK7C4TFPC
205,A12NDIK7C4TFPC,21,Male,playground_145.jpg,playground_242.jpg,playground_145.jpg,right,highway_413.jpg,badlands_174.jpg,bridge_167.jpg,playground_145.jpg,golf_course_102.jpg,mountain_294.jpg,3.0,left,1.4233,1.0,playground,playground_242.jpg,6.826484018,5.4387,A12NDIK7C4TFPC
206,A12NDIK7C4TFPC,21,Male,highway_294.jpg,highway_368.jpg,highway_294.jpg,right,playground_39.jpg,highway_294.jpg,golf_course_288.jpg,badlands_55.jpg,mountain_268.jpg,bridge_204.jpg,1.0,left,1.958,1.0,highway,highway_368.jpg,7.02130898,4.1891,A12NDIK7C4TFPC
207,A12NDIK7C4TFPC,21,Male,highway_93.jpg,highway_93.jpg,highway_85.jpg,left,mountain_51.jpg,badlands_180.jpg,golf_course_212.jpg,highway_93.jpg,playground_61.jpg,bridge_102.jpg,3.0,left,1.734,0.0,highway,highway_85.jpg,5.97412481,3.0607,A12NDIK7C4TFPC
208,A12NDIK7C4TFPC,21,Male,mountain_230.jpg,mountain_230.jpg,mountain_97.jpg,left,highway_154.jpg,bridge_197.jpg,mountain_230.jpg,playground_248.jpg,badlands_9.jpg,golf_course_144.jpg,2.0,right,1.5565,1.0,mountain,mountain_97.jpg,5.937595129,4.5659,A12NDIK7C4TFPC
209,A12NDIK7C4TFPC,21,Male,mountain_232.jpg,mountain_3.jpg,mountain_232.jpg,right,mountain_232.jpg,playground_68.jpg,golf_course_55.jpg,badlands_59.jpg,highway_399.jpg,bridge_39.jpg,0.0,right,1.7902,0.0,mountain,mountain_3.jpg,5.99847793,19.7813,A12NDIK7C4TFPC
210,A12NDIK7C4TFPC,21,Male,golf_course_217.jpg,golf_course_35.jpg,golf_course_217.jpg,right,mountain_32.jpg,badlands_81.jpg,golf_course_217.jpg,highway_76.jpg,bridge_218.jpg,playground_237.jpg,2.0,right,2.2165,0.0,golf,golf_course_35.jpg,5.96194825,7.9938,A12NDIK7C4TFPC
211,A12NDIK7C4TFPC,21,Male,mountain_222.jpg,mountain_222.jpg,mountain_244.jpg,left,playground_126.jpg,bridge_266.jpg,golf_course_120.jpg,badlands_175.jpg,mountain_222.jpg,highway_290.jpg,4.0,right,1.395,0.0,mountain,mountain_244.jpg,6.911719939,7.5587,A12NDIK7C4TFPC
212,A12NDIK7C4TFPC,21,Male,badlands_70.jpg,badlands_70.jpg,badlands_102.jpg,left,playground_14.jpg,bridge_96.jpg,highway_81.jpg,golf_course_199.jpg,badlands_70.jpg,mountain_146.jpg,4.0,left,1.5011,0.0,badlands,badlands_102.jpg,6.059360731,2.5606,A12NDIK7C4TFPC
213,A12NDIK7C4TFPC,21,Male,highway_359.jpg,highway_359.jpg,highway_389.jpg,left,bridge_152.jpg,badlands_36.jpg,mountain_126.jpg,highway_359.jpg,golf_course_116.jpg,playground_235.jpg,3.0,left,1.1058,0.0,highway,highway_389.jpg,5.888888889,3.8443,A12NDIK7C4TFPC
214,A12NDIK7C4TFPC,21,Male,highway_415.jpg,highway_415.jpg,highway_174.jpg,left,mountain_40.jpg,golf_course_179.jpg,highway_415.jpg,bridge_87.jpg,badlands_60.jpg,playground_98.jpg,2.0,right,1.2465,1.0,highway,highway_174.jpg,6.97260274,2.704,A12NDIK7C4TFPC
215,A12NDIK7C4TFPC,21,Male,golf_course_195.jpg,golf_course_195.jpg,golf_course_2.jpg,left,playground_191.jpg,golf_course_195.jpg,bridge_35.jpg,mountain_277.jpg,highway_15.jpg,badlands_173.jpg,1.0,left,2.0133,1.0,golf,golf_course_2.jpg,7.934550989,2.7113,A12NDIK7C4TFPC
216,A12NDIK7C4TFPC,21,Male,badlands_23.jpg,badlands_101.jpg,badlands_23.jpg,right,mountain_198.jpg,golf_course_0.jpg,highway_9.jpg,bridge_76.jpg,badlands_23.jpg,playground_153.jpg,4.0,right,1.4583,1.0,badlands,badlands_101.jpg,5.901065449,5.3788,A12NDIK7C4TFPC
217,A12NDIK7C4TFPC,21,Male,mountain_293.jpg,mountain_293.jpg,mountain_47.jpg,left,highway_178.jpg,playground_120.jpg,mountain_293.jpg,bridge_120.jpg,badlands_170.jpg,golf_course_71.jpg,2.0,right,2.0289,1.0,mountain,mountain_47.jpg,7.00913242,2.8653,A12NDIK7C4TFPC
218,A12NDIK7C4TFPC,21,Male,golf_course_193.jpg,golf_course_193.jpg,golf_course_235.jpg,left,mountain_137.jpg,bridge_228.jpg,badlands_35.jpg,playground_103.jpg,golf_course_193.jpg,highway_295.jpg,4.0,left,1.5767,0.0,golf,golf_course_235.jpg,5.97412481,2.6706,A12NDIK7C4TFPC
219,A12NDIK7C4TFPC,21,Male,badlands_52.jpg,badlands_94.jpg,badlands_52.jpg,right,mountain_302.jpg,bridge_106.jpg,golf_course_333.jpg,badlands_52.jpg,highway_172.jpg,playground_36.jpg,3.0,right,1.5244,0.0,badlands,badlands_94.jpg,6.96042618,2.7361,A12NDIK7C4TFPC
220,A12NDIK7C4TFPC,21,Male,mountain_123.jpg,mountain_94.jpg,mountain_123.jpg,right,highway_257.jpg,mountain_123.jpg,badlands_122.jpg,bridge_52.jpg,playground_181.jpg,golf_course_137.jpg,1.0,right,1.3767,0.0,mountain,mountain_94.jpg,4.914764079,3.1377,A12NDIK7C4TFPC
221,A12NDIK7C4TFPC,21,Male,highway_245.jpg,highway_206.jpg,highway_245.jpg,right,bridge_63.jpg,mountain_233.jpg,highway_245.jpg,badlands_217.jpg,playground_64.jpg,golf_course_196.jpg,2.0,left,1.1831,1.0,highway,highway_206.jpg,6.02283105,7.4923,A12NDIK7C4TFPC
222,A12NDIK7C4TFPC,21,Male,playground_10.jpg,playground_10.jpg,playground_12.jpg,left,golf_course_105.jpg,playground_10.jpg,bridge_147.jpg,highway_404.jpg,badlands_6.jpg,mountain_176.jpg,1.0,right,3.5276,1.0,playground,playground_12.jpg,6.01065449,23.6771,A12NDIK7C4TFPC
223,A12NDIK7C4TFPC,21,Male,golf_course_309.jpg,golf_course_309.jpg,golf_course_209.jpg,left,golf_course_309.jpg,bridge_193.jpg,badlands_128.jpg,playground_222.jpg,highway_251.jpg,mountain_212.jpg,0.0,left,5.1236,1.0,golf,golf_course_209.jpg,6.99695586,2.889,A12NDIK7C4TFPC
224,A12NDIK7C4TFPC,21,Male,highway_273.jpg,highway_273.jpg,highway_384.jpg,left,bridge_124.jpg,highway_273.jpg,golf_course_164.jpg,playground_15.jpg,badlands_211.jpg,mountain_306.jpg,1.0,right,5.3367,0.0,highway,highway_384.jpg,5.888888889,2.3444,A12NDIK7C4TFPC
225,A12NDIK7C4TFPC,21,Male,mountain_57.jpg,mountain_57.jpg,mountain_193.jpg,left,bridge_110.jpg,golf_course_238.jpg,highway_342.jpg,playground_47.jpg,mountain_57.jpg,badlands_30.jpg,4.0,left,2.3858,0.0,mountain,mountain_193.jpg,6.911719939,4.9943,A12NDIK7C4TFPC
226,A12NDIK7C4TFPC,21,Male,highway_177.jpg,highway_177.jpg,highway_278.jpg,left,highway_177.jpg,playground_154.jpg,bridge_155.jpg,golf_course_305.jpg,mountain_143.jpg,badlands_72.jpg,0.0,left,1.5142,1.0,highway,highway_278.jpg,8.9695586,5.2357,A12NDIK7C4TFPC
227,A12NDIK7C4TFPC,21,Male,mountain_154.jpg,mountain_131.jpg,mountain_154.jpg,right,badlands_97.jpg,playground_74.jpg,mountain_154.jpg,bridge_238.jpg,golf_course_127.jpg,highway_36.jpg,2.0,right,1.6077,0.0,mountain,mountain_131.jpg,4.939117199,2.3849,A12NDIK7C4TFPC
228,A12NDIK7C4TFPC,21,Male,mountain_101.jpg,mountain_171.jpg,mountain_101.jpg,right,playground_26.jpg,bridge_156.jpg,highway_335.jpg,badlands_227.jpg,mountain_101.jpg,golf_course_41.jpg,4.0,left,2.3557,0.0,mountain,mountain_171.jpg,5.925418569,2.407,A12NDIK7C4TFPC
229,A12NDIK7C4TFPC,21,Male,playground_60.jpg,playground_60.jpg,playground_268.jpg,left,playground_60.jpg,badlands_185.jpg,highway_305.jpg,bridge_72.jpg,mountain_91.jpg,golf_course_176.jpg,0.0,right,1.6941,0.0,playground,playground_268.jpg,6.948249619,2.162,A12NDIK7C4TFPC
230,A12NDIK7C4TFPC,21,Male,bridge_202.jpg,bridge_202.jpg,bridge_38.jpg,left,highway_313.jpg,mountain_180.jpg,golf_course_313.jpg,playground_204.jpg,bridge_202.jpg,badlands_152.jpg,4.0,right,4.3524,1.0,bridge,bridge_38.jpg,5.949771689,30.763,A12NDIK7C4TFPC
231,A12NDIK7C4TFPC,21,Male,playground_257.jpg,playground_257.jpg,playground_215.jpg,left,mountain_88.jpg,bridge_24.jpg,golf_course_171.jpg,playground_257.jpg,highway_247.jpg,badlands_26.jpg,3.0,left,3.7108,1.0,playground,playground_215.jpg,3.00304414,189.489,A12NDIK7C4TFPC
232,A12NDIK7C4TFPC,21,Male,bridge_108.jpg,bridge_148.jpg,bridge_108.jpg,right,golf_course_338.jpg,mountain_38.jpg,bridge_108.jpg,playground_55.jpg,badlands_16.jpg,highway_17.jpg,2.0,left,4.421,1.0,bridge,bridge_148.jpg,6.936073059,3.2708,A12NDIK7C4TFPC
233,A12NDIK7C4TFPC,21,Male,bridge_128.jpg,bridge_128.jpg,bridge_61.jpg,left,mountain_120.jpg,badlands_214.jpg,playground_165.jpg,bridge_128.jpg,golf_course_253.jpg,highway_18.jpg,3.0,left,2.2944,0.0,bridge,bridge_61.jpg,3.940639269,5.0698,A12NDIK7C4TFPC
234,A12NDIK7C4TFPC,21,Male,bridge_91.jpg,bridge_253.jpg,bridge_91.jpg,right,highway_288.jpg,bridge_91.jpg,playground_249.jpg,golf_course_297.jpg,badlands_79.jpg,mountain_39.jpg,1.0,right,8.2773,0.0,bridge,bridge_253.jpg,6.9847793,5.9794,A12NDIK7C4TFPC
235,A12NDIK7C4TFPC,21,Male,playground_76.jpg,playground_22.jpg,playground_76.jpg,right,badlands_201.jpg,highway_354.jpg,playground_76.jpg,bridge_224.jpg,mountain_192.jpg,golf_course_128.jpg,2.0,left,2.0033,0.0,playground,playground_22.jpg,6.911719939,4.4708,A12NDIK7C4TFPC
236,A12NDIK7C4TFPC,21,Male,highway_209.jpg,highway_122.jpg,highway_209.jpg,right,golf_course_221.jpg,playground_132.jpg,highway_209.jpg,badlands_85.jpg,bridge_212.jpg,mountain_19.jpg,2.0,right,2.4213,1.0,highway,highway_122.jpg,6.96042618,2.2218,A12NDIK7C4TFPC
237,A12NDIK7C4TFPC,21,Male,golf_course_78.jpg,golf_course_78.jpg,golf_course_134.jpg,left,bridge_62.jpg,highway_33.jpg,badlands_106.jpg,playground_110.jpg,golf_course_78.jpg,mountain_135.jpg,4.0,left,2.6891,0.0,golf,golf_course_134.jpg,6.948249619,2.1722,A12NDIK7C4TFPC
238,A12NDIK7C4TFPC,21,Male,bridge_256.jpg,bridge_211.jpg,bridge_256.jpg,right,badlands_121.jpg,bridge_256.jpg,golf_course_61.jpg,mountain_249.jpg,highway_42.jpg,playground_162.jpg,1.0,right,2.1608,1.0,bridge,bridge_211.jpg,6.948249619,1.4724,A12NDIK7C4TFPC
239,A12NDIK7C4TFPC,21,Male,badlands_221.jpg,badlands_221.jpg,badlands_115.jpg,left,playground_176.jpg,highway_107.jpg,badlands_221.jpg,mountain_43.jpg,golf_course_166.jpg,bridge_136.jpg,2.0,left,2.2683,0.0,badlands,badlands_115.jpg,4.171993912,2.4347,A12NDIK7C4TFPC
240,A15QJT0CC8ADG,35,FEMALE,highway_294.jpg,highway_203.jpg,highway_294.jpg,right,badlands_125.jpg,bridge_218.jpg,highway_294.jpg,playground_85.jpg,golf_course_238.jpg,mountain_29.jpg,2.0,left,0.0178,0.0,highway,highway_203.jpg,7.010416667,2.3034,A15QJT0CC8ADG
241,A15QJT0CC8ADG,35,FEMALE,bridge_250.jpg,bridge_134.jpg,bridge_250.jpg,right,playground_165.jpg,highway_147.jpg,mountain_294.jpg,bridge_250.jpg,badlands_9.jpg,golf_course_138.jpg,3.0,left,0.0155,0.0,bridge,bridge_134.jpg,7.010416667,4.9976,A15QJT0CC8ADG
242,A15QJT0CC8ADG,35,FEMALE,golf_course_78.jpg,golf_course_78.jpg,golf_course_134.jpg,left,bridge_87.jpg,mountain_290.jpg,golf_course_78.jpg,badlands_156.jpg,playground_141.jpg,highway_268.jpg,2.0,left,0.0134,0.0,golf,golf_course_134.jpg,7.010416667,0.1799,A15QJT0CC8ADG
243,A15QJT0CC8ADG,35,FEMALE,bridge_65.jpg,bridge_65.jpg,bridge_60.jpg,left,playground_153.jpg,mountain_250.jpg,highway_399.jpg,bridge_65.jpg,golf_course_308.jpg,badlands_157.jpg,3.0,left,0.0155,1.0,bridge,bridge_60.jpg,7.114583333,0.3627,A15QJT0CC8ADG
244,A15QJT0CC8ADG,35,FEMALE,highway_394.jpg,highway_204.jpg,highway_394.jpg,right,golf_course_137.jpg,mountain_135.jpg,highway_394.jpg,bridge_62.jpg,playground_195.jpg,badlands_72.jpg,2.0,right,0.0147,0.0,highway,highway_204.jpg,7.958333333,0.4912,A15QJT0CC8ADG
245,A15QJT0CC8ADG,35,FEMALE,highway_209.jpg,highway_122.jpg,highway_209.jpg,right,highway_209.jpg,mountain_253.jpg,bridge_190.jpg,playground_246.jpg,golf_course_42.jpg,badlands_180.jpg,0.0,right,0.0257,1.0,highway,highway_122.jpg,7.958333333,0.2846,A15QJT0CC8ADG
246,A15QJT0CC8ADG,35,FEMALE,golf_course_15.jpg,golf_course_15.jpg,golf_course_97.jpg,left,mountain_41.jpg,golf_course_15.jpg,playground_227.jpg,highway_90.jpg,badlands_173.jpg,bridge_124.jpg,1.0,right,0.021,1.0,golf,golf_course_97.jpg,7.958333333,0.3801,A15QJT0CC8ADG
247,A15QJT0CC8ADG,35,FEMALE,mountain_156.jpg,mountain_156.jpg,mountain_128.jpg,left,bridge_238.jpg,golf_course_120.jpg,playground_249.jpg,mountain_156.jpg,highway_274.jpg,badlands_214.jpg,3.0,left,0.0167,0.0,mountain,mountain_128.jpg,7.958333333,0.1434,A15QJT0CC8ADG
248,A15QJT0CC8ADG,35,FEMALE,badlands_21.jpg,badlands_21.jpg,badlands_98.jpg,left,badlands_21.jpg,mountain_88.jpg,playground_204.jpg,highway_251.jpg,golf_course_253.jpg,bridge_254.jpg,0.0,left,0.018,1.0,badlands,badlands_98.jpg,7.958333333,0.3068,A15QJT0CC8ADG
249,A15QJT0CC8ADG,35,FEMALE,highway_156.jpg,highway_156.jpg,highway_293.jpg,left,playground_241.jpg,mountain_38.jpg,badlands_47.jpg,highway_156.jpg,bridge_22.jpg,golf_course_176.jpg,3.0,left,0.016,1.0,highway,highway_293.jpg,7.958333333,0.2975,A15QJT0CC8ADG
250,A15QJT0CC8ADG,35,FEMALE,playground_257.jpg,playground_214.jpg,playground_257.jpg,right,highway_36.jpg,golf_course_338.jpg,playground_257.jpg,mountain_35.jpg,bridge_68.jpg,badlands_201.jpg,2.0,right,0.0177,0.0,playground,playground_214.jpg,7.958333333,0.2003,A15QJT0CC8ADG
251,A15QJT0CC8ADG,35,FEMALE,golf_course_195.jpg,golf_course_195.jpg,golf_course_2.jpg,left,mountain_40.jpg,bridge_164.jpg,highway_404.jpg,badlands_183.jpg,golf_course_195.jpg,playground_132.jpg,4.0,right,0.0144,1.0,golf,golf_course_2.jpg,7.958333333,0.1848,A15QJT0CC8ADG
252,A15QJT0CC8ADG,35,FEMALE,badlands_24.jpg,badlands_53.jpg,badlands_24.jpg,right,bridge_66.jpg,playground_154.jpg,badlands_24.jpg,golf_course_133.jpg,highway_290.jpg,mountain_152.jpg,2.0,left,0.0123,1.0,badlands,badlands_53.jpg,7.958333333,0.5518,A15QJT0CC8ADG
253,A15QJT0CC8ADG,35,FEMALE,playground_117.jpg,playground_117.jpg,playground_167.jpg,left,bridge_179.jpg,badlands_185.jpg,highway_226.jpg,mountain_251.jpg,playground_117.jpg,golf_course_162.jpg,4.0,right,0.0197,0.0,playground,playground_167.jpg,7.958333333,0.1713,A15QJT0CC8ADG
254,A15QJT0CC8ADG,35,FEMALE,badlands_184.jpg,badlands_228.jpg,badlands_184.jpg,right,badlands_184.jpg,playground_49.jpg,bridge_24.jpg,highway_42.jpg,golf_course_55.jpg,mountain_102.jpg,0.0,right,0.0182,0.0,badlands,badlands_228.jpg,7.958333333,0.3067,A15QJT0CC8ADG
255,A15QJT0CC8ADG,35,FEMALE,badlands_70.jpg,badlands_102.jpg,badlands_70.jpg,right,highway_383.jpg,bridge_126.jpg,golf_course_41.jpg,playground_233.jpg,badlands_70.jpg,mountain_62.jpg,4.0,left,0.0174,0.0,badlands,badlands_102.jpg,7.958333333,0.356,A15QJT0CC8ADG
256,A15QJT0CC8ADG,35,FEMALE,playground_240.jpg,playground_2.jpg,playground_240.jpg,right,golf_course_144.jpg,bridge_158.jpg,badlands_138.jpg,mountain_126.jpg,playground_240.jpg,highway_365.jpg,4.0,right,0.0225,0.0,playground,playground_2.jpg,7.958333333,0.2427,A15QJT0CC8ADG
257,A15QJT0CC8ADG,35,FEMALE,bridge_256.jpg,bridge_211.jpg,bridge_256.jpg,right,golf_course_241.jpg,bridge_256.jpg,badlands_152.jpg,highway_50.jpg,mountain_202.jpg,playground_7.jpg,1.0,left,0.0222,1.0,bridge,bridge_211.jpg,7.958333333,0.3399,A15QJT0CC8ADG
258,A15QJT0CC8ADG,35,FEMALE,badlands_113.jpg,badlands_203.jpg,badlands_113.jpg,right,playground_98.jpg,mountain_204.jpg,badlands_113.jpg,highway_319.jpg,bridge_63.jpg,golf_course_291.jpg,2.0,right,0.0149,1.0,badlands,badlands_203.jpg,7.958333333,0.1886,A15QJT0CC8ADG
259,A15QJT0CC8ADG,35,FEMALE,golf_course_309.jpg,golf_course_209.jpg,golf_course_309.jpg,right,mountain_43.jpg,golf_course_309.jpg,bridge_1.jpg,highway_141.jpg,playground_55.jpg,badlands_33.jpg,1.0,right,0.0155,1.0,golf,golf_course_209.jpg,7.958333333,0.1836,A15QJT0CC8ADG
260,A15QJT0CC8ADG,35,FEMALE,highway_177.jpg,highway_278.jpg,highway_177.jpg,right,bridge_144.jpg,highway_177.jpg,badlands_219.jpg,golf_course_0.jpg,mountain_92.jpg,playground_50.jpg,1.0,right,0.0138,1.0,highway,highway_278.jpg,7.958333333,0.2944,A15QJT0CC8ADG
261,A15QJT0CC8ADG,35,FEMALE,mountain_154.jpg,mountain_95.jpg,mountain_154.jpg,right,bridge_147.jpg,highway_17.jpg,mountain_154.jpg,badlands_129.jpg,golf_course_313.jpg,playground_173.jpg,2.0,left,0.0195,1.0,mountain,mountain_95.jpg,7.958333333,0.2945,A15QJT0CC8ADG
262,A15QJT0CC8ADG,35,FEMALE,golf_course_331.jpg,golf_course_114.jpg,golf_course_331.jpg,right,mountain_307.jpg,bridge_64.jpg,highway_83.jpg,golf_course_331.jpg,badlands_54.jpg,playground_30.jpg,3.0,right,0.0157,0.0,golf,golf_course_114.jpg,7.958333333,0.1692,A15QJT0CC8ADG
263,A15QJT0CC8ADG,35,FEMALE,mountain_57.jpg,mountain_193.jpg,mountain_57.jpg,right,badlands_175.jpg,bridge_169.jpg,highway_313.jpg,mountain_57.jpg,playground_39.jpg,golf_course_56.jpg,3.0,left,0.0134,0.0,mountain,mountain_193.jpg,7.958333333,0.2954,A15QJT0CC8ADG
264,A15QJT0CC8ADG,35,FEMALE,golf_course_214.jpg,golf_course_312.jpg,golf_course_214.jpg,right,golf_course_214.jpg,bridge_204.jpg,badlands_120.jpg,playground_6.jpg,highway_15.jpg,mountain_212.jpg,0.0,left,0.0136,0.0,golf,golf_course_312.jpg,7.958333333,0.3764,A15QJT0CC8ADG
265,A15QJT0CC8ADG,35,FEMALE,golf_course_217.jpg,golf_course_217.jpg,golf_course_35.jpg,left,golf_course_217.jpg,playground_181.jpg,bridge_4.jpg,badlands_227.jpg,highway_257.jpg,mountain_166.jpg,0.0,right,0.0116,0.0,golf,golf_course_35.jpg,7.958333333,0.1335,A15QJT0CC8ADG
266,A15QJT0CC8ADG,35,FEMALE,playground_145.jpg,playground_145.jpg,playground_242.jpg,left,highway_102.jpg,golf_course_164.jpg,mountain_206.jpg,badlands_215.jpg,playground_145.jpg,bridge_86.jpg,4.0,left,0.0148,1.0,playground,playground_242.jpg,7.958333333,0.2651,A15QJT0CC8ADG
267,A15QJT0CC8ADG,35,FEMALE,playground_219.jpg,playground_205.jpg,playground_219.jpg,right,golf_course_128.jpg,highway_193.jpg,badlands_170.jpg,playground_219.jpg,mountain_160.jpg,bridge_35.jpg,3.0,left,0.0163,1.0,playground,playground_205.jpg,7.958333333,2.4896,A15QJT0CC8ADG
268,A15QJT0CC8ADG,35,FEMALE,badlands_23.jpg,badlands_23.jpg,badlands_101.jpg,left,golf_course_127.jpg,highway_342.jpg,badlands_23.jpg,playground_78.jpg,bridge_112.jpg,mountain_309.jpg,2.0,right,0.1089,1.0,badlands,badlands_101.jpg,7.958333333,0.1508,A15QJT0CC8ADG
269,A15QJT0CC8ADG,35,FEMALE,highway_359.jpg,highway_359.jpg,highway_379.jpg,left,highway_359.jpg,playground_26.jpg,mountain_34.jpg,golf_course_67.jpg,bridge_224.jpg,badlands_60.jpg,0.0,right,0.0142,1.0,highway,highway_379.jpg,7.958333333,0.1417,A15QJT0CC8ADG
270,A15QJT0CC8ADG,35,FEMALE,badlands_221.jpg,badlands_221.jpg,badlands_115.jpg,left,mountain_187.jpg,golf_course_102.jpg,bridge_173.jpg,badlands_221.jpg,highway_9.jpg,playground_84.jpg,3.0,left,0.0095,0.0,badlands,badlands_115.jpg,7.958333333,0.2897,A15QJT0CC8ADG
271,A15QJT0CC8ADG,35,FEMALE,badlands_52.jpg,badlands_52.jpg,badlands_63.jpg,left,golf_course_116.jpg,mountain_302.jpg,playground_184.jpg,highway_29.jpg,badlands_52.jpg,bridge_110.jpg,4.0,right,0.0211,1.0,badlands,badlands_63.jpg,7.958333333,0.2896,A15QJT0CC8ADG
272,A15QJT0CC8ADG,35,FEMALE,bridge_202.jpg,bridge_31.jpg,bridge_202.jpg,right,bridge_202.jpg,mountain_91.jpg,playground_63.jpg,golf_course_305.jpg,highway_81.jpg,badlands_79.jpg,0.0,left,0.02,0.0,bridge,bridge_31.jpg,7.958333333,0.1607,A15QJT0CC8ADG
273,A15QJT0CC8ADG,35,FEMALE,highway_93.jpg,highway_85.jpg,highway_93.jpg,right,mountain_151.jpg,badlands_106.jpg,bridge_197.jpg,highway_93.jpg,golf_course_171.jpg,playground_64.jpg,3.0,right,0.0109,0.0,highway,highway_85.jpg,7.958333333,0.2876,A15QJT0CC8ADG
274,A15QJT0CC8ADG,35,FEMALE,mountain_232.jpg,mountain_232.jpg,mountain_54.jpg,left,badlands_171.jpg,golf_course_218.jpg,highway_305.jpg,mountain_232.jpg,bridge_167.jpg,playground_124.jpg,3.0,left,0.1459,1.0,mountain,mountain_54.jpg,7.958333333,0.2072,A15QJT0CC8ADG
275,A15QJT0CC8ADG,35,FEMALE,highway_415.jpg,highway_174.jpg,highway_415.jpg,right,golf_course_181.jpg,highway_415.jpg,bridge_117.jpg,playground_162.jpg,badlands_55.jpg,mountain_256.jpg,1.0,right,0.025,1.0,highway,highway_174.jpg,7.958333333,0.1632,A15QJT0CC8ADG
276,A15QJT0CC8ADG,35,FEMALE,playground_10.jpg,playground_10.jpg,playground_122.jpg,left,playground_10.jpg,badlands_6.jpg,bridge_234.jpg,golf_course_105.jpg,highway_295.jpg,mountain_89.jpg,0.0,right,0.0194,0.0,playground,playground_122.jpg,7.958333333,0.2946,A15QJT0CC8ADG
277,A15QJT0CC8ADG,35,FEMALE,playground_131.jpg,playground_131.jpg,playground_164.jpg,left,badlands_97.jpg,playground_131.jpg,mountain_228.jpg,bridge_96.jpg,golf_course_33.jpg,highway_58.jpg,1.0,right,0.1462,1.0,playground,playground_164.jpg,7.958333333,0.2749,A15QJT0CC8ADG
278,A15QJT0CC8ADG,35,FEMALE,badlands_222.jpg,badlands_62.jpg,badlands_222.jpg,right,highway_33.jpg,playground_16.jpg,mountain_76.jpg,golf_course_333.jpg,badlands_222.jpg,bridge_136.jpg,4.0,left,0.0128,1.0,badlands,badlands_62.jpg,7.958333333,0.1498,A15QJT0CC8ADG
279,A15QJT0CC8ADG,35,FEMALE,bridge_128.jpg,bridge_61.jpg,bridge_128.jpg,right,mountain_226.jpg,playground_191.jpg,bridge_128.jpg,highway_107.jpg,badlands_213.jpg,golf_course_212.jpg,2.0,right,0.0116,0.0,bridge,bridge_61.jpg,7.958333333,0.1522,A15QJT0CC8ADG
280,A15QJT0CC8ADG,35,FEMALE,mountain_123.jpg,mountain_189.jpg,mountain_123.jpg,right,playground_36.jpg,bridge_212.jpg,mountain_123.jpg,badlands_174.jpg,highway_246.jpg,golf_course_166.jpg,2.0,left,0.0175,1.0,mountain,mountain_189.jpg,7.958333333,0.1395,A15QJT0CC8ADG
281,A15QJT0CC8ADG,35,FEMALE,playground_60.jpg,playground_244.jpg,playground_60.jpg,right,playground_60.jpg,highway_3.jpg,golf_course_300.jpg,bridge_39.jpg,mountain_32.jpg,badlands_211.jpg,0.0,right,0.018,1.0,playground,playground_244.jpg,7.958333333,0.1485,A15QJT0CC8ADG
282,A15QJT0CC8ADG,35,FEMALE,mountain_101.jpg,mountain_221.jpg,mountain_101.jpg,right,bridge_74.jpg,mountain_101.jpg,highway_247.jpg,golf_course_174.jpg,badlands_20.jpg,playground_126.jpg,1.0,right,0.0109,1.0,mountain,mountain_221.jpg,7.958333333,0.2553,A15QJT0CC8ADG
283,A15QJT0CC8ADG,35,FEMALE,golf_course_87.jpg,golf_course_87.jpg,golf_course_161.jpg,left,mountain_137.jpg,bridge_72.jpg,playground_176.jpg,highway_413.jpg,golf_course_87.jpg,badlands_85.jpg,4.0,left,0.0216,1.0,golf,golf_course_161.jpg,7.958333333,0.2825,A15QJT0CC8ADG
284,A15QJT0CC8ADG,35,FEMALE,mountain_293.jpg,mountain_72.jpg,mountain_293.jpg,right,mountain_293.jpg,bridge_225.jpg,badlands_59.jpg,golf_course_72.jpg,highway_308.jpg,playground_61.jpg,0.0,left,0.1267,0.0,mountain,mountain_72.jpg,7.958333333,0.1425,A15QJT0CC8ADG
285,A15QJT0CC8ADG,35,FEMALE,highway_273.jpg,highway_171.jpg,highway_273.jpg,right,bridge_76.jpg,playground_15.jpg,badlands_35.jpg,golf_course_199.jpg,highway_273.jpg,mountain_306.jpg,4.0,left,0.0174,1.0,highway,highway_171.jpg,7.958333333,0.286,A15QJT0CC8ADG
286,A15QJT0CC8ADG,35,FEMALE,bridge_191.jpg,bridge_184.jpg,bridge_191.jpg,right,badlands_200.jpg,mountain_22.jpg,bridge_191.jpg,highway_148.jpg,playground_140.jpg,golf_course_297.jpg,2.0,left,0.1397,0.0,bridge,bridge_184.jpg,7.958333333,0.2634,A15QJT0CC8ADG
287,A15QJT0CC8ADG,35,FEMALE,bridge_108.jpg,bridge_108.jpg,bridge_116.jpg,left,playground_120.jpg,golf_course_219.jpg,highway_354.jpg,bridge_108.jpg,mountain_87.jpg,badlands_26.jpg,3.0,left,0.1279,0.0,bridge,bridge_116.jpg,7.958333333,0.2929,A15QJT0CC8ADG
288,A15QJT0CC8ADG,35,FEMALE,bridge_91.jpg,bridge_82.jpg,bridge_91.jpg,right,badlands_88.jpg,bridge_91.jpg,highway_31.jpg,playground_74.jpg,golf_course_269.jpg,mountain_146.jpg,1.0,right,0.0188,1.0,bridge,bridge_82.jpg,7.958333333,0.3044,A15QJT0CC8ADG
289,A15QJT0CC8ADG,35,FEMALE,golf_course_193.jpg,golf_course_193.jpg,golf_course_123.jpg,left,highway_138.jpg,mountain_199.jpg,badlands_166.jpg,golf_course_193.jpg,bridge_133.jpg,playground_54.jpg,3.0,left,0.0115,1.0,golf,golf_course_123.jpg,7.958333333,0.3868,A15QJT0CC8ADG
290,A15QJT0CC8ADG,35,FEMALE,golf_course_188.jpg,golf_course_188.jpg,golf_course_157.jpg,left,mountain_19.jpg,bridge_79.jpg,badlands_10.jpg,golf_course_188.jpg,highway_28.jpg,playground_258.jpg,3.0,right,0.0205,0.0,golf,golf_course_157.jpg,7.958333333,0.4119,A15QJT0CC8ADG
291,A15QJT0CC8ADG,35,FEMALE,badlands_137.jpg,badlands_194.jpg,badlands_137.jpg,right,playground_37.jpg,badlands_137.jpg,mountain_45.jpg,highway_191.jpg,bridge_155.jpg,golf_course_23.jpg,1.0,left,0.018,0.0,badlands,badlands_194.jpg,7.958333333,0.3304,A15QJT0CC8ADG
292,A15QJT0CC8ADG,35,FEMALE,bridge_172.jpg,bridge_163.jpg,bridge_172.jpg,right,mountain_176.jpg,golf_course_61.jpg,highway_30.jpg,playground_110.jpg,bridge_172.jpg,badlands_122.jpg,4.0,right,0.9309,1.0,bridge,bridge_163.jpg,7.958333333,0.2686,A15QJT0CC8ADG
293,A15QJT0CC8ADG,35,FEMALE,bridge_146.jpg,bridge_121.jpg,bridge_146.jpg,right,bridge_146.jpg,playground_222.jpg,mountain_198.jpg,golf_course_71.jpg,badlands_27.jpg,highway_78.jpg,0.0,left,0.0216,1.0,bridge,bridge_121.jpg,7.979166667,0.249,A15QJT0CC8ADG
294,A15QJT0CC8ADG,35,FEMALE,mountain_230.jpg,mountain_230.jpg,mountain_184.jpg,left,mountain_230.jpg,playground_237.jpg,bridge_52.jpg,badlands_105.jpg,highway_154.jpg,golf_course_226.jpg,0.0,left,0.0153,0.0,mountain,mountain_184.jpg,7.979166667,0.2629,A15QJT0CC8ADG
295,A15QJT0CC8ADG,35,FEMALE,mountain_110.jpg,mountain_110.jpg,mountain_157.jpg,left,mountain_110.jpg,golf_course_179.jpg,badlands_164.jpg,playground_118.jpg,bridge_180.jpg,highway_288.jpg,0.0,right,3.7351,0.0,mountain,mountain_157.jpg,7.979166667,0.1513,A15QJT0CC8ADG
296,A15QJT0CC8ADG,35,FEMALE,highway_245.jpg,highway_245.jpg,highway_134.jpg,left,badlands_46.jpg,highway_245.jpg,bridge_45.jpg,mountain_143.jpg,golf_course_221.jpg,playground_103.jpg,1.0,right,1.7237,0.0,highway,highway_134.jpg,7.979166667,0.2633,A15QJT0CC8ADG
297,A15QJT0CC8ADG,35,FEMALE,mountain_222.jpg,mountain_244.jpg,mountain_222.jpg,right,playground_248.jpg,bridge_143.jpg,golf_course_59.jpg,highway_178.jpg,mountain_222.jpg,badlands_36.jpg,4.0,left,1.265,0.0,mountain,mountain_244.jpg,7.979166667,0.2586,A15QJT0CC8ADG
298,A15QJT0CC8ADG,35,FEMALE,playground_76.jpg,playground_76.jpg,playground_22.jpg,left,badlands_67.jpg,mountain_33.jpg,bridge_266.jpg,golf_course_328.jpg,playground_76.jpg,highway_315.jpg,4.0,right,0.0238,0.0,playground,playground_22.jpg,7.979166667,0.9184,A15QJT0CC8ADG
299,A15QJT0CC8ADG,35,FEMALE,playground_144.jpg,playground_137.jpg,playground_144.jpg,right,playground_144.jpg,badlands_150.jpg,bridge_152.jpg,mountain_268.jpg,golf_course_265.jpg,highway_37.jpg,0.0,left,0.0129,0.0,playground,playground_137.jpg,7.979166667,0.2725,A15QJT0CC8ADG
300,AM38L58BYJEO3,39,female,mountain_101.jpg,mountain_171.jpg,mountain_101.jpg,right,golf_course_67.jpg,mountain_101.jpg,playground_36.jpg,bridge_35.jpg,highway_18.jpg,badlands_156.jpg,1.0,right,4.813200001,0.0,mountain,mountain_171.jpg,3.0,20.172,AM38L58BYJEO3
301,AM38L58BYJEO3,39,female,highway_359.jpg,highway_379.jpg,highway_359.jpg,right,playground_54.jpg,highway_359.jpg,mountain_169.jpg,bridge_152.jpg,badlands_216.jpg,golf_course_218.jpg,1.0,left,16.4905,1.0,highway,highway_379.jpg,3.0,10.9755,AM38L58BYJEO3
302,AM38L58BYJEO3,39,female,playground_219.jpg,playground_21.jpg,playground_219.jpg,right,highway_76.jpg,golf_course_194.jpg,playground_219.jpg,bridge_225.jpg,badlands_10.jpg,mountain_120.jpg,2.0,right,3.3328,0.0,playground,playground_21.jpg,3.0,8.9608,AM38L58BYJEO3
303,AM38L58BYJEO3,39,female,highway_177.jpg,highway_177.jpg,highway_87.jpg,left,golf_course_282.jpg,mountain_206.jpg,playground_256.jpg,badlands_164.jpg,highway_177.jpg,bridge_66.jpg,4.0,left,5.814099999,0.0,highway,highway_87.jpg,3.0,4.6294,AM38L58BYJEO3
304,AM38L58BYJEO3,39,female,highway_245.jpg,highway_134.jpg,highway_245.jpg,right,mountain_192.jpg,bridge_147.jpg,highway_245.jpg,golf_course_171.jpg,playground_33.jpg,badlands_6.jpg,2.0,right,1.775900001,0.0,highway,highway_134.jpg,3.0,2.2403,AM38L58BYJEO3
305,AM38L58BYJEO3,39,female,golf_course_15.jpg,golf_course_15.jpg,golf_course_97.jpg,left,highway_288.jpg,playground_49.jpg,mountain_290.jpg,badlands_157.jpg,golf_course_15.jpg,bridge_118.jpg,4.0,left,4.6712,1.0,golf,golf_course_97.jpg,3.0,2.9529,AM38L58BYJEO3
306,AM38L58BYJEO3,39,female,badlands_21.jpg,badlands_21.jpg,badlands_98.jpg,left,bridge_218.jpg,badlands_21.jpg,golf_course_338.jpg,mountain_176.jpg,playground_165.jpg,highway_313.jpg,1.0,left,2.254099999,1.0,badlands,badlands_98.jpg,3.0,4.813599999,AM38L58BYJEO3
307,AM38L58BYJEO3,39,female,mountain_293.jpg,mountain_47.jpg,mountain_293.jpg,right,mountain_293.jpg,playground_195.jpg,badlands_67.jpg,golf_course_23.jpg,highway_154.jpg,bridge_169.jpg,0.0,left,7.5252,1.0,mountain,mountain_47.jpg,3.0,6.1756,AM38L58BYJEO3
308,AM38L58BYJEO3,39,female,badlands_52.jpg,badlands_63.jpg,badlands_52.jpg,right,bridge_68.jpg,golf_course_41.jpg,badlands_52.jpg,playground_241.jpg,mountain_91.jpg,highway_193.jpg,2.0,right,2.250900001,1.0,badlands,badlands_63.jpg,3.0,5.7272,AM38L58BYJEO3
309,AM38L58BYJEO3,39,female,mountain_222.jpg,mountain_222.jpg,mountain_244.jpg,left,playground_26.jpg,mountain_222.jpg,golf_course_105.jpg,bridge_238.jpg,badlands_200.jpg,highway_265.jpg,1.0,left,4.084299999,0.0,mountain,mountain_244.jpg,3.0,3.5122,AM38L58BYJEO3
310,AM38L58BYJEO3,39,female,highway_294.jpg,highway_203.jpg,highway_294.jpg,right,mountain_307.jpg,golf_course_252.jpg,bridge_79.jpg,playground_7.jpg,highway_294.jpg,badlands_55.jpg,4.0,left,7.324599999,0.0,highway,highway_203.jpg,3.0,5.6675,AM38L58BYJEO3
311,AM38L58BYJEO3,39,female,highway_209.jpg,highway_122.jpg,highway_209.jpg,right,mountain_204.jpg,badlands_173.jpg,bridge_117.jpg,highway_209.jpg,golf_course_61.jpg,playground_68.jpg,3.0,right,3.2078,1.0,highway,highway_122.jpg,3.0,7.599599999,AM38L58BYJEO3
312,AM38L58BYJEO3,39,female,badlands_221.jpg,badlands_207.jpg,badlands_221.jpg,right,badlands_221.jpg,mountain_22.jpg,golf_course_120.jpg,highway_9.jpg,playground_227.jpg,bridge_164.jpg,0.0,right,2.2378,1.0,badlands,badlands_207.jpg,3.0,2.178,AM38L58BYJEO3
313,AM38L58BYJEO3,39,female,playground_60.jpg,playground_268.jpg,playground_60.jpg,right,badlands_125.jpg,playground_60.jpg,mountain_166.jpg,highway_15.jpg,bridge_180.jpg,golf_course_127.jpg,1.0,right,5.4172,0.0,playground,playground_268.jpg,3.0,2.5092,AM38L58BYJEO3
314,AM38L58BYJEO3,39,female,playground_117.jpg,playground_127.jpg,playground_117.jpg,right,playground_117.jpg,bridge_87.jpg,highway_30.jpg,mountain_62.jpg,golf_course_333.jpg,badlands_217.jpg,0.0,right,3.5715,1.0,playground,playground_127.jpg,3.0,2.373400001,AM38L58BYJEO3
315,AM38L58BYJEO3,39,female,golf_course_309.jpg,golf_course_209.jpg,golf_course_309.jpg,right,golf_course_309.jpg,highway_90.jpg,bridge_62.jpg,badlands_150.jpg,mountain_87.jpg,playground_235.jpg,0.0,right,3.435,1.0,golf,golf_course_209.jpg,3.0,2.1218,AM38L58BYJEO3
316,AM38L58BYJEO3,39,female,bridge_146.jpg,bridge_146.jpg,bridge_27.jpg,left,badlands_88.jpg,mountain_92.jpg,golf_course_133.jpg,bridge_146.jpg,playground_258.jpg,highway_37.jpg,3.0,left,3.0383,0.0,bridge,bridge_27.jpg,3.0,2.783099999,AM38L58BYJEO3
317,AM38L58BYJEO3,39,female,badlands_113.jpg,badlands_113.jpg,badlands_203.jpg,left,highway_148.jpg,mountain_45.jpg,bridge_20.jpg,badlands_113.jpg,playground_47.jpg,golf_course_226.jpg,3.0,left,4.11,1.0,badlands,badlands_203.jpg,2.989583333,7.828400001,AM38L58BYJEO3
318,AM38L58BYJEO3,39,female,badlands_23.jpg,badlands_23.jpg,badlands_101.jpg,left,playground_184.jpg,mountain_88.jpg,badlands_23.jpg,bridge_179.jpg,golf_course_307.jpg,highway_247.jpg,2.0,left,1.9462,1.0,badlands,badlands_101.jpg,2.989583333,1.587099999,AM38L58BYJEO3
319,AM38L58BYJEO3,39,female,playground_76.jpg,playground_72.jpg,playground_76.jpg,right,bridge_126.jpg,highway_226.jpg,playground_76.jpg,golf_course_291.jpg,mountain_41.jpg,badlands_26.jpg,2.0,right,4.6742,1.0,playground,playground_72.jpg,2.989583333,1.7588,AM38L58BYJEO3
320,AM38L58BYJEO3,39,female,bridge_250.jpg,bridge_205.jpg,bridge_250.jpg,right,golf_course_265.jpg,playground_14.jpg,highway_28.jpg,bridge_250.jpg,mountain_152.jpg,badlands_170.jpg,3.0,right,3.5248,1.0,bridge,bridge_205.jpg,3.020833333,2.1712,AM38L58BYJEO3
321,AM38L58BYJEO3,39,female,playground_145.jpg,playground_145.jpg,playground_229.jpg,left,golf_course_253.jpg,mountain_268.jpg,highway_199.jpg,playground_145.jpg,badlands_138.jpg,bridge_39.jpg,3.0,right,4.5728,0.0,playground,playground_229.jpg,3.020833333,1.6308,AM38L58BYJEO3
322,AM38L58BYJEO3,39,female,golf_course_78.jpg,golf_course_78.jpg,golf_course_101.jpg,left,playground_124.jpg,badlands_213.jpg,golf_course_78.jpg,mountain_306.jpg,bridge_64.jpg,highway_305.jpg,2.0,right,4.1231,1.0,golf,golf_course_101.jpg,3.020833333,1.916799999,AM38L58BYJEO3
323,AM38L58BYJEO3,39,female,bridge_172.jpg,bridge_172.jpg,bridge_17.jpg,left,bridge_172.jpg,golf_course_288.jpg,mountain_76.jpg,badlands_46.jpg,playground_196.jpg,highway_404.jpg,0.0,left,2.6512,0.0,bridge,bridge_17.jpg,1.020833333,6.709,AM38L58BYJEO3
324,AM38L58BYJEO3,39,female,mountain_123.jpg,mountain_189.jpg,mountain_123.jpg,right,badlands_219.jpg,mountain_123.jpg,highway_257.jpg,golf_course_300.jpg,playground_42.jpg,bridge_190.jpg,1.0,left,2.8178,1.0,mountain,mountain_189.jpg,3.020833333,2.9949,AM38L58BYJEO3
325,AM38L58BYJEO3,39,female,mountain_154.jpg,mountain_154.jpg,mountain_131.jpg,left,playground_61.jpg,golf_course_202.jpg,mountain_154.jpg,bridge_102.jpg,badlands_104.jpg,highway_246.jpg,2.0,left,2.3359,0.0,mountain,mountain_131.jpg,3.020833333,3.56,AM38L58BYJEO3
326,AM38L58BYJEO3,39,female,mountain_110.jpg,mountain_157.jpg,mountain_110.jpg,right,mountain_110.jpg,bridge_167.jpg,playground_176.jpg,golf_course_241.jpg,badlands_171.jpg,highway_81.jpg,0.0,left,4.2315,0.0,mountain,mountain_157.jpg,3.020833333,1.7699,AM38L58BYJEO3
327,AM38L58BYJEO3,39,female,bridge_65.jpg,bridge_181.jpg,bridge_65.jpg,right,golf_course_3.jpg,playground_246.jpg,bridge_65.jpg,highway_141.jpg,mountain_212.jpg,badlands_166.jpg,2.0,right,3.1524,0.0,bridge,bridge_181.jpg,1.010416667,13.6784,AM38L58BYJEO3
328,AM38L58BYJEO3,39,female,golf_course_193.jpg,golf_course_123.jpg,golf_course_193.jpg,right,mountain_309.jpg,playground_154.jpg,golf_course_193.jpg,badlands_72.jpg,bridge_1.jpg,highway_319.jpg,2.0,left,2.1035,1.0,golf,golf_course_123.jpg,2.010416667,7.3719,AM38L58BYJEO3
329,AM38L58BYJEO3,39,female,badlands_24.jpg,badlands_24.jpg,badlands_3.jpg,left,mountain_40.jpg,badlands_24.jpg,playground_126.jpg,bridge_193.jpg,highway_287.jpg,golf_course_55.jpg,1.0,left,3.123400001,0.0,badlands,badlands_3.jpg,1.010416667,7.3906,AM38L58BYJEO3
330,AM38L58BYJEO3,39,female,playground_131.jpg,playground_43.jpg,playground_131.jpg,right,badlands_54.jpg,golf_course_33.jpg,bridge_76.jpg,playground_131.jpg,highway_354.jpg,mountain_32.jpg,3.0,right,1.485,0.0,playground,playground_43.jpg,1.010416667,18.1342,AM38L58BYJEO3
331,AM38L58BYJEO3,39,female,playground_240.jpg,playground_2.jpg,playground_240.jpg,right,bridge_156.jpg,mountain_39.jpg,badlands_215.jpg,golf_course_269.jpg,playground_240.jpg,highway_101.jpg,4.0,right,1.1959,0.0,playground,playground_2.jpg,1.010416667,38.3996,AM38L58BYJEO3
332,AM38L58BYJEO3,39,female,mountain_57.jpg,mountain_138.jpg,mountain_57.jpg,right,mountain_57.jpg,golf_course_0.jpg,playground_55.jpg,highway_50.jpg,badlands_211.jpg,bridge_155.jpg,0.0,right,3.1129,1.0,mountain,mountain_138.jpg,1.020833333,32.5771,AM38L58BYJEO3
333,AM38L58BYJEO3,39,female,highway_273.jpg,highway_273.jpg,highway_171.jpg,left,highway_273.jpg,mountain_33.jpg,playground_118.jpg,bridge_143.jpg,golf_course_71.jpg,badlands_174.jpg,0.0,left,2.523700001,1.0,highway,highway_171.jpg,2.979166667,4.7663,AM38L58BYJEO3
334,AM38L58BYJEO3,39,female,golf_course_188.jpg,golf_course_157.jpg,golf_course_188.jpg,right,golf_course_188.jpg,highway_31.jpg,bridge_22.jpg,badlands_175.jpg,playground_64.jpg,mountain_160.jpg,0.0,right,1.8868,0.0,golf,golf_course_157.jpg,1.010416667,5.0337,AM38L58BYJEO3
335,AM38L58BYJEO3,39,female,badlands_70.jpg,badlands_70.jpg,badlands_119.jpg,left,golf_course_179.jpg,playground_140.jpg,badlands_70.jpg,mountain_277.jpg,highway_365.jpg,bridge_254.jpg,2.0,right,4.152200001,1.0,badlands,badlands_119.jpg,2.0,5.8246,AM38L58BYJEO3
336,AM38L58BYJEO3,39,female,bridge_256.jpg,bridge_211.jpg,bridge_256.jpg,right,highway_413.jpg,badlands_106.jpg,playground_249.jpg,bridge_256.jpg,golf_course_342.jpg,mountain_19.jpg,3.0,right,1.8762,1.0,bridge,bridge_211.jpg,1.989583333,6.8688,AM38L58BYJEO3
337,AM38L58BYJEO3,39,female,golf_course_214.jpg,golf_course_214.jpg,golf_course_317.jpg,left,badlands_80.jpg,bridge_124.jpg,golf_course_214.jpg,highway_178.jpg,mountain_198.jpg,playground_98.jpg,2.0,right,2.078599999,1.0,golf,golf_course_317.jpg,5.010416667,5.2285,AM38L58BYJEO3
338,AM38L58BYJEO3,39,female,bridge_108.jpg,bridge_148.jpg,bridge_108.jpg,right,mountain_253.jpg,bridge_108.jpg,playground_37.jpg,badlands_20.jpg,golf_course_221.jpg,highway_53.jpg,1.0,right,2.225,1.0,bridge,bridge_148.jpg,3.010416667,22.439,AM38L58BYJEO3
339,AM38L58BYJEO3,39,female,bridge_202.jpg,bridge_38.jpg,bridge_202.jpg,right,playground_120.jpg,bridge_202.jpg,highway_36.jpg,golf_course_166.jpg,badlands_214.jpg,mountain_143.jpg,1.0,left,5.6383,1.0,bridge,bridge_38.jpg,3.041666667,5.9809,AM38L58BYJEO3
340,AM38L58BYJEO3,39,female,golf_course_87.jpg,golf_course_87.jpg,golf_course_130.jpg,left,mountain_199.jpg,highway_383.jpg,bridge_158.jpg,playground_204.jpg,golf_course_87.jpg,badlands_105.jpg,4.0,left,2.2471,0.0,golf,golf_course_130.jpg,3.010416667,1.8551,AM38L58BYJEO3
341,AM38L58BYJEO3,39,female,golf_course_331.jpg,golf_course_331.jpg,golf_course_26.jpg,left,golf_course_331.jpg,bridge_24.jpg,highway_107.jpg,mountain_249.jpg,playground_132.jpg,badlands_201.jpg,0.0,left,2.041,1.0,golf,golf_course_26.jpg,1.958333333,7.9058,AM38L58BYJEO3
342,AM38L58BYJEO3,39,female,golf_course_195.jpg,golf_course_2.jpg,golf_course_195.jpg,right,badlands_30.jpg,highway_29.jpg,playground_110.jpg,golf_course_195.jpg,bridge_120.jpg,mountain_202.jpg,3.0,left,2.8948,1.0,golf,golf_course_2.jpg,2.0,27.4991,AM38L58BYJEO3
343,AM38L58BYJEO3,39,female,highway_93.jpg,highway_85.jpg,highway_93.jpg,right,badlands_16.jpg,bridge_112.jpg,highway_93.jpg,playground_63.jpg,golf_course_176.jpg,mountain_102.jpg,2.0,left,3.6718,0.0,highway,highway_85.jpg,3.020833333,3.5039,AM38L58BYJEO3
344,AM38L58BYJEO3,39,female,mountain_232.jpg,mountain_3.jpg,mountain_232.jpg,right,highway_269.jpg,bridge_140.jpg,badlands_185.jpg,mountain_232.jpg,playground_74.jpg,golf_course_316.jpg,3.0,right,2.288,0.0,mountain,mountain_3.jpg,1.020833333,4.094,AM38L58BYJEO3
345,AM38L58BYJEO3,39,female,bridge_128.jpg,bridge_244.jpg,bridge_128.jpg,right,mountain_190.jpg,golf_course_181.jpg,bridge_128.jpg,badlands_27.jpg,playground_237.jpg,highway_295.jpg,2.0,left,1.6744,1.0,bridge,bridge_244.jpg,3.03125,3.4516,AM38L58BYJEO3
346,AM38L58BYJEO3,39,female,playground_257.jpg,playground_257.jpg,playground_214.jpg,left,golf_course_328.jpg,playground_257.jpg,mountain_180.jpg,bridge_45.jpg,badlands_152.jpg,highway_102.jpg,1.0,left,6.056099999,0.0,playground,playground_214.jpg,3.020833333,4.5029,AM38L58BYJEO3
347,AM38L58BYJEO3,39,female,mountain_156.jpg,mountain_156.jpg,mountain_128.jpg,left,bridge_224.jpg,playground_78.jpg,golf_course_42.jpg,highway_335.jpg,mountain_156.jpg,badlands_60.jpg,4.0,left,1.6424,0.0,mountain,mountain_128.jpg,3.010416667,10.4772,AM38L58BYJEO3
348,AM38L58BYJEO3,39,female,highway_156.jpg,highway_156.jpg,highway_160.jpg,left,highway_156.jpg,badlands_97.jpg,mountain_294.jpg,golf_course_308.jpg,playground_30.jpg,bridge_212.jpg,0.0,left,1.6641,0.0,highway,highway_160.jpg,2.0,6.1225,AM38L58BYJEO3
349,AM38L58BYJEO3,39,female,bridge_91.jpg,bridge_91.jpg,bridge_253.jpg,left,bridge_91.jpg,badlands_79.jpg,mountain_151.jpg,playground_153.jpg,highway_268.jpg,golf_course_116.jpg,0.0,left,2.1323,0.0,bridge,bridge_253.jpg,1.03125,4.7375,AM38L58BYJEO3
350,AM38L58BYJEO3,39,female,highway_415.jpg,highway_415.jpg,highway_60.jpg,left,playground_162.jpg,mountain_51.jpg,golf_course_102.jpg,highway_415.jpg,badlands_85.jpg,bridge_173.jpg,3.0,left,5.048799999,0.0,highway,highway_60.jpg,3.0,4.712599999,AM38L58BYJEO3
351,AM38L58BYJEO3,39,female,highway_394.jpg,highway_204.jpg,highway_394.jpg,right,highway_394.jpg,bridge_86.jpg,playground_83.jpg,mountain_256.jpg,badlands_44.jpg,golf_course_72.jpg,0.0,right,1.8272,0.0,highway,highway_204.jpg,3.03125,3.5598,AM38L58BYJEO3
352,AM38L58BYJEO3,39,female,golf_course_217.jpg,golf_course_217.jpg,golf_course_35.jpg,left,mountain_38.jpg,golf_course_217.jpg,highway_251.jpg,playground_251.jpg,badlands_180.jpg,bridge_204.jpg,1.0,left,2.8738,0.0,golf,golf_course_35.jpg,3.0,8.656599999,AM38L58BYJEO3
353,AM38L58BYJEO3,39,female,badlands_222.jpg,badlands_34.jpg,badlands_222.jpg,right,golf_course_199.jpg,mountain_35.jpg,badlands_222.jpg,playground_50.jpg,bridge_106.jpg,highway_78.jpg,2.0,left,1.935700001,0.0,badlands,badlands_34.jpg,3.0,8.4814,AM38L58BYJEO3
354,AM38L58BYJEO3,39,female,badlands_184.jpg,badlands_184.jpg,badlands_103.jpg,left,golf_course_144.jpg,badlands_184.jpg,mountain_126.jpg,highway_3.jpg,playground_39.jpg,bridge_142.jpg,1.0,left,2.112400001,1.0,badlands,badlands_103.jpg,3.0,2.9183,AM38L58BYJEO3
355,AM38L58BYJEO3,39,female,playground_144.jpg,playground_137.jpg,playground_144.jpg,right,playground_144.jpg,mountain_89.jpg,bridge_63.jpg,highway_147.jpg,golf_course_305.jpg,badlands_59.jpg,0.0,right,1.5668,0.0,playground,playground_137.jpg,1.020833333,4.740299999,AM38L58BYJEO3
356,AM38L58BYJEO3,39,female,bridge_191.jpg,bridge_75.jpg,bridge_191.jpg,right,bridge_191.jpg,mountain_228.jpg,badlands_183.jpg,highway_58.jpg,golf_course_128.jpg,playground_103.jpg,0.0,right,4.548599999,1.0,bridge,bridge_75.jpg,4.989583333,10.8002,AM38L58BYJEO3
357,AM38L58BYJEO3,39,female,playground_10.jpg,playground_10.jpg,playground_12.jpg,left,mountain_29.jpg,golf_course_212.jpg,playground_10.jpg,highway_42.jpg,badlands_128.jpg,bridge_234.jpg,2.0,left,2.4682,1.0,playground,playground_12.jpg,2.989583333,7.595599999,AM38L58BYJEO3
358,AM38L58BYJEO3,39,female,mountain_230.jpg,mountain_184.jpg,mountain_230.jpg,right,bridge_136.jpg,mountain_230.jpg,golf_course_196.jpg,highway_138.jpg,badlands_129.jpg,playground_248.jpg,1.0,left,2.6345,0.0,mountain,mountain_184.jpg,1.989583333,4.5577,AM38L58BYJEO3
359,AM38L58BYJEO3,39,female,badlands_137.jpg,badlands_139.jpg,badlands_137.jpg,right,badlands_137.jpg,golf_course_162.jpg,mountain_250.jpg,highway_33.jpg,bridge_72.jpg,playground_173.jpg,0.0,left,1.6431,1.0,badlands,badlands_139.jpg,2.020833333,14.8306,AM38L58BYJEO3
360,A1Y3JL53XAO7QV,29,Male,mountain_110.jpg,mountain_110.jpg,mountain_223.jpg,left,bridge_76.jpg,highway_246.jpg,mountain_110.jpg,playground_118.jpg,badlands_125.jpg,golf_course_61.jpg,2.0,right,1.229,1.0,mountain,mountain_223.jpg,6.0,5.826,A1Y3JL53XAO7QV
361,A1Y3JL53XAO7QV,29,Male,playground_10.jpg,playground_10.jpg,playground_12.jpg,left,mountain_45.jpg,playground_10.jpg,highway_90.jpg,golf_course_3.jpg,bridge_45.jpg,badlands_201.jpg,1.0,left,2.104,1.0,playground,playground_12.jpg,7.989583333,4.516,A1Y3JL53XAO7QV
362,A1Y3JL53XAO7QV,29,Male,playground_117.jpg,playground_167.jpg,playground_117.jpg,right,badlands_217.jpg,bridge_1.jpg,highway_36.jpg,playground_117.jpg,golf_course_176.jpg,mountain_33.jpg,3.0,right,1.457,0.0,playground,playground_167.jpg,7.989583333,1.93,A1Y3JL53XAO7QV
363,A1Y3JL53XAO7QV,29,Male,highway_394.jpg,highway_394.jpg,highway_204.jpg,left,badlands_216.jpg,golf_course_328.jpg,mountain_206.jpg,bridge_126.jpg,highway_394.jpg,playground_227.jpg,4.0,left,1.278,0.0,highway,highway_204.jpg,5.958333333,3.316,A1Y3JL53XAO7QV
364,A1Y3JL53XAO7QV,29,Male,badlands_24.jpg,badlands_24.jpg,badlands_3.jpg,left,playground_249.jpg,golf_course_291.jpg,mountain_41.jpg,badlands_24.jpg,highway_404.jpg,bridge_20.jpg,3.0,left,2.351,0.0,badlands,badlands_3.jpg,2.958333333,3.663,A1Y3JL53XAO7QV
365,A1Y3JL53XAO7QV,29,Male,playground_60.jpg,playground_268.jpg,playground_60.jpg,right,mountain_76.jpg,golf_course_116.jpg,badlands_227.jpg,playground_60.jpg,bridge_22.jpg,highway_58.jpg,3.0,right,2.324,0.0,playground,playground_268.jpg,7.979166667,2.998,A1Y3JL53XAO7QV
366,A1Y3JL53XAO7QV,29,Male,golf_course_78.jpg,golf_course_134.jpg,golf_course_78.jpg,right,mountain_187.jpg,golf_course_78.jpg,bridge_266.jpg,playground_84.jpg,highway_29.jpg,badlands_121.jpg,1.0,right,1.621,0.0,golf,golf_course_134.jpg,6.989583333,3.273,A1Y3JL53XAO7QV
367,A1Y3JL53XAO7QV,29,Male,playground_257.jpg,playground_215.jpg,playground_257.jpg,right,mountain_302.jpg,playground_257.jpg,highway_148.jpg,golf_course_194.jpg,bridge_86.jpg,badlands_9.jpg,1.0,left,1.801,1.0,playground,playground_215.jpg,6.989583333,2.845,A1Y3JL53XAO7QV
368,A1Y3JL53XAO7QV,29,Male,badlands_21.jpg,badlands_21.jpg,badlands_98.jpg,left,bridge_238.jpg,badlands_21.jpg,highway_154.jpg,mountain_152.jpg,golf_course_202.jpg,playground_124.jpg,1.0,left,2.51,1.0,badlands,badlands_98.jpg,4.989583333,2.831,A1Y3JL53XAO7QV
369,A1Y3JL53XAO7QV,29,Male,mountain_156.jpg,mountain_295.jpg,mountain_156.jpg,right,mountain_156.jpg,playground_176.jpg,bridge_180.jpg,badlands_164.jpg,highway_9.jpg,golf_course_164.jpg,0.0,right,1.503,1.0,mountain,mountain_295.jpg,4.989583333,2.536,A1Y3JL53XAO7QV
370,A1Y3JL53XAO7QV,29,Male,badlands_70.jpg,badlands_70.jpg,badlands_119.jpg,left,badlands_70.jpg,mountain_198.jpg,golf_course_252.jpg,bridge_169.jpg,playground_184.jpg,highway_265.jpg,0.0,right,1.305,1.0,badlands,badlands_119.jpg,8.020833333,3.081,A1Y3JL53XAO7QV
371,A1Y3JL53XAO7QV,29,Male,playground_76.jpg,playground_72.jpg,playground_76.jpg,right,golf_course_128.jpg,playground_76.jpg,badlands_60.jpg,bridge_117.jpg,highway_354.jpg,mountain_40.jpg,1.0,left,2.326,1.0,playground,playground_72.jpg,7.9375,2.607,A1Y3JL53XAO7QV
372,A1Y3JL53XAO7QV,29,Male,golf_course_193.jpg,golf_course_193.jpg,golf_course_235.jpg,left,badlands_10.jpg,golf_course_193.jpg,playground_55.jpg,mountain_309.jpg,highway_257.jpg,bridge_68.jpg,1.0,right,0.895,0.0,golf,golf_course_235.jpg,7.010416667,3.103,A1Y3JL53XAO7QV
373,A1Y3JL53XAO7QV,29,Male,mountain_101.jpg,mountain_171.jpg,mountain_101.jpg,right,playground_153.jpg,golf_course_305.jpg,highway_107.jpg,mountain_101.jpg,bridge_72.jpg,badlands_166.jpg,3.0,left,1.082,0.0,mountain,mountain_171.jpg,6.927083333,2.315,A1Y3JL53XAO7QV
374,A1Y3JL53XAO7QV,29,Male,mountain_154.jpg,mountain_131.jpg,mountain_154.jpg,right,golf_course_59.jpg,highway_305.jpg,bridge_63.jpg,badlands_156.jpg,mountain_154.jpg,playground_83.jpg,4.0,left,3.207,0.0,mountain,mountain_131.jpg,6.927083333,2.121,A1Y3JL53XAO7QV
375,A1Y3JL53XAO7QV,29,Male,badlands_23.jpg,badlands_101.jpg,badlands_23.jpg,right,bridge_228.jpg,highway_247.jpg,mountain_268.jpg,golf_course_120.jpg,badlands_23.jpg,playground_251.jpg,4.0,right,0.885,1.0,badlands,badlands_101.jpg,8.010416667,3.213,A1Y3JL53XAO7QV
376,A1Y3JL53XAO7QV,29,Male,playground_145.jpg,playground_145.jpg,playground_229.jpg,left,bridge_142.jpg,badlands_185.jpg,highway_342.jpg,mountain_92.jpg,playground_145.jpg,golf_course_72.jpg,4.0,left,1.224,0.0,playground,playground_229.jpg,7.947916667,2.867,A1Y3JL53XAO7QV
377,A1Y3JL53XAO7QV,29,Male,badlands_113.jpg,badlands_113.jpg,badlands_225.jpg,left,bridge_74.jpg,golf_course_171.jpg,playground_120.jpg,mountain_249.jpg,badlands_113.jpg,highway_101.jpg,4.0,left,1.084,0.0,badlands,badlands_225.jpg,7.989583333,1.861,A1Y3JL53XAO7QV
