,layer,correct,test_test_response.keys,test_test_response.corr,test_test_response.rt,trials_2.thisRepN,trials_2.thisTrialN,trials_2.thisN,trials_2.thisIndex,trials_2.ran,image1,image2,subject
0,1.0,left,right,0.0,9.2541,0.0,0.0,0.0,0.0,1.0,IVORY_GULL_3.jpg,INDIGO_FLYCATCHER_2.jpg,A12O0RRD0YT6AD
1,1.0,right,right,1.0,3.1891,0.0,1.0,1.0,1.0,1.0,GUINEA_TURACO_3.jpg,BREWERS_BLACKBIRD_3.jpg,A12O0RRD0YT6AD
2,2.0,right,left,0.0,3.1339,0.0,2.0,2.0,2.0,1.0,CINNAMON_ATTILA_2.jpg,GYRFALCON_1.jpg,A12O0RRD0YT6AD
3,2.0,left,left,1.0,1.6662,0.0,3.0,3.0,3.0,1.0,STRIPPED_SWALLOW_1.jpg,MAGPIE_GOOSE_4.jpg,A12O0RRD0YT6AD
4,3.0,left,left,1.0,1.506099999,0.0,4.0,4.0,4.0,1.0,AMERICAN_PIPIT_5.jpg,HEPATIC_TANAGER_5.jpg,A12O0RRD0YT6AD
5,3.0,left,left,1.0,0.9129,0.0,5.0,5.0,5.0,1.0,DOUBLE_BRESTED_CORMARANT_5.jpg,CHINESE_POND_HERON_2.jpg,A12O0RRD0YT6AD
6,1.0,right,left,0.0,0.8356,0.0,6.0,6.0,6.0,1.0,ALBATROSS_2.jpg,ASIAN_DOLLARD_BIRD_2.jpg,A12O0RRD0YT6AD
7,2.0,right,left,0.0,2.7252,0.0,7.0,7.0,7.0,1.0,SCARLET_MACAW_1.jpg,CASSOWARY_1.jpg,A12O0RRD0YT6AD
8,1.0,left,left,1.0,1.2324,0.0,8.0,8.0,8.0,1.0,RUBY_THROATED_HUMMINGBIRD_2.jpg,GOLDEN_CHLOROPHONIA_2.jpg,A12O0RRD0YT6AD
9,1.0,left,left,1.0,0.9245,0.0,9.0,9.0,9.0,1.0,SCARLET_TANAGER_2.jpg,BEARDED_BARBET_2.jpg,A12O0RRD0YT6AD
10,1.0,right,left,0.0,0.9188,0.0,10.0,10.0,10.0,1.0,FRIGATE_4.jpg,INDIGO_BUNTING_1.jpg,A12O0RRD0YT6AD
11,1.0,left,left,1.0,1.5852,0.0,11.0,11.0,11.0,1.0,MALACHITE_KINGFISHER_2.jpg,AMERICAN_FLAMINGO_1.jpg,A12O0RRD0YT6AD
12,1.0,right,left,0.0,1.3342,0.0,12.0,12.0,12.0,1.0,SCARLET_IBIS_3.jpg,CRESTED_NUTHATCH_2.jpg,A12O0RRD0YT6AD
13,2.0,right,right,1.0,1.8272,0.0,13.0,13.0,13.0,1.0,ALBATROSS_4.jpg,PINK_ROBIN_4.jpg,A12O0RRD0YT6AD
14,3.0,right,left,0.0,3.8224,0.0,14.0,14.0,14.0,1.0,BALD_EAGLE_5.jpg,SHOEBILL_3.jpg,A12O0RRD0YT6AD
15,1.0,left,left,1.0,1.0051,0.0,15.0,15.0,15.0,1.0,LESSER_ADJUTANT_5.jpg,GREEN_BROADBILL_4.jpg,A12O0RRD0YT6AD
16,2.0,right,left,0.0,1.1708,0.0,16.0,16.0,16.0,1.0,OYSTER_CATCHER_2.jpg,ASIAN_CRESTED_IBIS_4.jpg,A12O0RRD0YT6AD
17,3.0,right,left,0.0,1.1679,0.0,17.0,17.0,17.0,1.0,BLACK_THROATED_BUSHTIT_1.jpg,CHUKAR_PARTRIDGE_5.jpg,A12O0RRD0YT6AD
18,2.0,left,left,1.0,1.2479,0.0,18.0,18.0,18.0,1.0,PYGMY_KINGFISHER_5.jpg,MASKED_BOOBY_5.jpg,A12O0RRD0YT6AD
19,3.0,left,left,1.0,3.072400001,0.0,19.0,19.0,19.0,1.0,GRAY_KINGBIRD_5.jpg,AFRICAN_FIREFINCH_3.jpg,A12O0RRD0YT6AD
20,3.0,left,left,1.0,0.9153,0.0,20.0,20.0,20.0,1.0,RUBY_THROATED_HUMMINGBIRD_1.jpg,FRIGATE_1.jpg,A12O0RRD0YT6AD
21,2.0,left,left,1.0,0.9145,0.0,21.0,21.0,21.0,1.0,CERULEAN_WARBLER_1.jpg,AMERICAN_FLAMINGO_5.jpg,A12O0RRD0YT6AD
22,1.0,left,left,1.0,3.7831,0.0,22.0,22.0,22.0,1.0,IVORY_GULL_1.jpg,WILSONS_BIRD_OF_PARADISE_4.jpg,A12O0RRD0YT6AD
23,1.0,left,left,1.0,1.2483,0.0,23.0,23.0,23.0,1.0,ECUADORIAN_HILLSTAR_5.jpg,SCARLET_IBIS_2.jpg,A12O0RRD0YT6AD
24,2.0,right,left,0.0,3.132,0.0,24.0,24.0,24.0,1.0,HOUSE_FINCH_2.jpg,GOLDEN_CHEEKED_WARBLER_2.jpg,A12O0RRD0YT6AD
25,2.0,left,left,1.0,0.9992,0.0,25.0,25.0,25.0,1.0,INCA_TERN_4.jpg,SMITHS_LONGSPUR_5.jpg,A12O0RRD0YT6AD
26,2.0,left,left,1.0,1.2477,0.0,26.0,26.0,26.0,1.0,LESSER_ADJUTANT_4.jpg,RAINBOW_LORIKEET_5.jpg,A12O0RRD0YT6AD
27,1.0,right,left,0.0,5.1896,0.0,27.0,27.0,27.0,1.0,OSTRICH_3.jpg,MYNA_1.jpg,A12O0RRD0YT6AD
28,3.0,right,left,0.0,2.158400001,0.0,28.0,28.0,28.0,1.0,BEARDED_BELLBIRD_1.jpg,LITTLE_AUK_5.jpg,A12O0RRD0YT6AD
29,2.0,left,left,1.0,0.8319,0.0,29.0,29.0,29.0,1.0,KAGU_5.jpg,ASHY_STORM_PETREL_1.jpg,A12O0RRD0YT6AD
30,2.0,right,left,0.0,0.8361,0.0,30.0,30.0,30.0,1.0,SPANGLED_COTINGA_4.jpg,BROWN_NOODY_3.jpg,A12O0RRD0YT6AD
31,3.0,right,left,0.0,1.7197,0.0,31.0,31.0,31.0,1.0,PINK_ROBIN_3.jpg,PARUS_MAJOR_1.jpg,A12O0RRD0YT6AD
32,3.0,left,left,1.0,1.736,0.0,32.0,32.0,32.0,1.0,CASPIAN_TERN_1.jpg,COMMON_LOON_2.jpg,A12O0RRD0YT6AD
33,1.0,right,left,0.0,0.9141,0.0,33.0,33.0,33.0,1.0,PEACOCK_1.jpg,LARK_BUNTING_2.jpg,A12O0RRD0YT6AD
34,3.0,right,left,0.0,2.9873,0.0,34.0,34.0,34.0,1.0,BORNEAN_LEAFBIRD_3.jpg,ARARIPE_MANAKIN_4.jpg,A12O0RRD0YT6AD
35,2.0,right,left,0.0,1.1062,0.0,35.0,35.0,35.0,1.0,COMMON_HOUSE_MARTIN_4.jpg,GOLDEN_CHLOROPHONIA_5.jpg,A12O0RRD0YT6AD
36,2.0,left,left,1.0,0.8519,0.0,36.0,36.0,36.0,1.0,EUROPEAN_TURTLE_DOVE_3.jpg,PAINTED_BUNTING_3.jpg,A12O0RRD0YT6AD
37,1.0,right,left,0.0,0.9477,0.0,37.0,37.0,37.0,1.0,CAPE_LONGCLAW_5.jpg,BALI_STARLING_1.jpg,A12O0RRD0YT6AD
38,2.0,left,left,1.0,0.9141,0.0,38.0,38.0,38.0,1.0,BROWN_THRASHER_3.jpg,OYSTER_CATCHER_4.jpg,A12O0RRD0YT6AD
39,2.0,right,left,0.0,0.8193,0.0,39.0,39.0,39.0,1.0,DOUBLE_BRESTED_CORMARANT_1.jpg,SPLENDID_WREN_1.jpg,A12O0RRD0YT6AD
40,3.0,right,left,0.0,0.832200001,0.0,40.0,40.0,40.0,1.0,SCARLET_IBIS_4.jpg,NORTHERN_JACANA_3.jpg,A12O0RRD0YT6AD
41,2.0,left,left,1.0,0.834599999,0.0,41.0,41.0,41.0,1.0,GREY_PLOVER_1.jpg,GOULDIAN_FINCH_4.jpg,A12O0RRD0YT6AD
42,2.0,left,left,1.0,4.922900001,0.0,42.0,42.0,42.0,1.0,CRESTED_CARACARA_4.jpg,INDIAN_PITTA_2.jpg,A12O0RRD0YT6AD
43,1.0,right,left,0.0,0.8405,0.0,43.0,43.0,43.0,1.0,KIWI_4.jpg,AFRICAN_PIED_HORNBILL_5.jpg,A12O0RRD0YT6AD
44,1.0,left,left,1.0,0.9978,0.0,44.0,44.0,44.0,1.0,ALPINE_CHOUGH_4.jpg,SNOWY_EGRET_2.jpg,A12O0RRD0YT6AD
45,3.0,left,left,1.0,0.889900001,0.0,45.0,45.0,45.0,1.0,EASTERN_TOWEE_2.jpg,NORTHERN_BEARDLESS_TYRANNULET_5.jpg,A12O0RRD0YT6AD
46,3.0,right,left,0.0,0.834,0.0,46.0,46.0,46.0,1.0,HORNED_SUNGEM_4.jpg,RUFOUS_KINGFISHER_1.jpg,A12O0RRD0YT6AD
47,3.0,left,left,1.0,0.849,0.0,47.0,47.0,47.0,1.0,RUBY_THROATED_HUMMINGBIRD_3.jpg,NORTHERN_SHOVELER_1.jpg,A12O0RRD0YT6AD
48,3.0,right,left,0.0,2.0843,0.0,48.0,48.0,48.0,1.0,PYGMY_KINGFISHER_2.jpg,WHITE_CHEEKED_TURACO_5.jpg,A12O0RRD0YT6AD
49,3.0,right,left,0.0,1.4,0.0,49.0,49.0,49.0,1.0,COPPERY_TAILED_COUCAL_1.jpg,TASMANIAN_HEN_5.jpg,A12O0RRD0YT6AD
50,1.0,left,left,1.0,1.0825,0.0,50.0,50.0,50.0,1.0,RED_HEADED_WOODPECKER_5.jpg,ASHY_STORM_PETREL_2.jpg,A12O0RRD0YT6AD
51,1.0,right,left,0.0,2.2968,0.0,51.0,51.0,51.0,1.0,CASSOWARY_2.jpg,INLAND_DOTTEREL_4.jpg,A12O0RRD0YT6AD
52,1.0,right,left,0.0,1.8785,0.0,52.0,52.0,52.0,1.0,INDIAN_BUSTARD_1.jpg,VERMILION_FLYCATHER_3.jpg,A12O0RRD0YT6AD
53,2.0,right,right,1.0,1.875,0.0,53.0,53.0,53.0,1.0,FAIRY_PENGUIN_1.jpg,OVENBIRD_5.jpg,A12O0RRD0YT6AD
54,3.0,left,right,0.0,0.7962,0.0,54.0,54.0,54.0,1.0,KILLDEAR_2.jpg,AZURE_TIT_5.jpg,A12O0RRD0YT6AD
55,3.0,right,right,1.0,0.8262,0.0,55.0,55.0,55.0,1.0,PURPLE_SWAMPHEN_4.jpg,OCELLATED_TURKEY_1.jpg,A12O0RRD0YT6AD
56,1.0,right,left,0.0,1.149200001,0.0,56.0,56.0,56.0,1.0,ANIANIAU_2.jpg,PEACOCK_3.jpg,A12O0RRD0YT6AD
57,3.0,right,right,1.0,0.906,0.0,57.0,57.0,57.0,1.0,WATTLED_LAPWING_3.jpg,HAWAIIAN_GOOSE_4.jpg,A12O0RRD0YT6AD
58,3.0,left,right,0.0,0.9021,0.0,58.0,58.0,58.0,1.0,FLAME_BOWERBIRD_3.jpg,QUETZAL_3.jpg,A12O0RRD0YT6AD
59,2.0,right,right,1.0,0.8981,0.0,59.0,59.0,59.0,1.0,HAMERKOP_1.jpg,MAGPIE_GOOSE_5.jpg,A12O0RRD0YT6AD
60,2.0,left,left,1.0,27.1858,0.0,0.0,0.0,0.0,1.0,RUBY_THROATED_HUMMINGBIRD_2.jpg,APAPANE_4.jpg,A1S0QK9U7INTSX
61,1.0,left,right,0.0,3.1896,0.0,1.0,1.0,1.0,1.0,CASSOWARY_1.jpg,ROSY_FACED_LOVEBIRD_4.jpg,A1S0QK9U7INTSX
62,3.0,left,right,0.0,1.3575,0.0,2.0,2.0,2.0,1.0,ECUADORIAN_HILLSTAR_5.jpg,CRIMSON_SUNBIRD_5.jpg,A1S0QK9U7INTSX
63,1.0,right,left,0.0,1.1613,0.0,3.0,3.0,3.0,1.0,GILDED_FLICKER_2.jpg,DOUBLE_BRESTED_CORMARANT_5.jpg,A1S0QK9U7INTSX
64,2.0,right,right,1.0,1.1539,0.0,4.0,4.0,4.0,1.0,INCA_TERN_2.jpg,MALACHITE_KINGFISHER_2.jpg,A1S0QK9U7INTSX
65,1.0,left,right,0.0,1.7444,0.0,5.0,5.0,5.0,1.0,RED_HEADED_WOODPECKER_5.jpg,ASHY_STORM_PETREL_2.jpg,A1S0QK9U7INTSX
66,1.0,right,right,1.0,1.9726,0.0,6.0,6.0,6.0,1.0,SANDHILL_CRANE_4.jpg,PARUS_MAJOR_1.jpg,A1S0QK9U7INTSX
67,2.0,right,right,1.0,1.8,0.0,7.0,7.0,7.0,1.0,AFRICAN_EMERALD_CUCKOO_5.jpg,TASMANIAN_HEN_5.jpg,A1S0QK9U7INTSX
68,2.0,right,right,1.0,2.4198,0.0,8.0,8.0,8.0,1.0,CAATINGA_CACHOLOTE_4.jpg,KILLDEAR_2.jpg,A1S0QK9U7INTSX
69,1.0,left,left,1.0,1.1492,0.0,9.0,9.0,9.0,1.0,RUBY_THROATED_HUMMINGBIRD_1.jpg,BANANAQUIT_2.jpg,A1S0QK9U7INTSX
70,3.0,left,left,1.0,1.341,0.0,10.0,10.0,10.0,1.0,LARK_BUNTING_2.jpg,CACTUS_WREN_3.jpg,A1S0QK9U7INTSX
71,1.0,right,right,1.0,1.1769,0.0,11.0,11.0,11.0,1.0,MYNA_4.jpg,OVENBIRD_5.jpg,A1S0QK9U7INTSX
72,1.0,right,right,1.0,1.9927,0.0,12.0,12.0,12.0,1.0,SPOONBILL_1.jpg,GOLDEN_CHEEKED_WARBLER_2.jpg,A1S0QK9U7INTSX
73,3.0,right,left,0.0,1.3355,0.0,13.0,13.0,13.0,1.0,BLACK_BAZA_4.jpg,BROWN_THRASHER_3.jpg,A1S0QK9U7INTSX
74,1.0,right,right,1.0,1.9019,0.0,14.0,14.0,14.0,1.0,PEACOCK_2.jpg,BROWN_NOODY_3.jpg,A1S0QK9U7INTSX
75,3.0,right,left,0.0,0.1016,0.0,15.0,15.0,15.0,1.0,CAPE_LONGCLAW_2.jpg,BREWERS_BLACKBIRD_3.jpg,A1S0QK9U7INTSX
76,3.0,right,left,0.0,1.2239,0.0,16.0,16.0,16.0,1.0,DARWINS_FLYCATCHER_2.jpg,INDIGO_BUNTING_1.jpg,A1S0QK9U7INTSX
77,2.0,left,right,0.0,0.7008,0.0,17.0,17.0,17.0,1.0,SCARLET_TANAGER_2.jpg,NORTHERN_GANNET_2.jpg,A1S0QK9U7INTSX
78,3.0,left,right,0.0,1.4736,0.0,18.0,18.0,18.0,1.0,ASIAN_CRESTED_IBIS_4.jpg,IVORY_GULL_2.jpg,A1S0QK9U7INTSX
79,3.0,left,left,1.0,1.0908,0.0,19.0,19.0,19.0,1.0,CRESTED_CARACARA_4.jpg,TOUCHAN_4.jpg,A1S0QK9U7INTSX
80,3.0,right,right,1.0,2.801,0.0,20.0,20.0,20.0,1.0,CRESTED_KINGFISHER_1.jpg,INLAND_DOTTEREL_4.jpg,A1S0QK9U7INTSX
81,2.0,right,right,1.0,0.1991,0.0,21.0,21.0,21.0,1.0,PURPLE_FINCH_2.jpg,BALI_STARLING_1.jpg,A1S0QK9U7INTSX
82,3.0,right,left,0.0,1.001,0.0,22.0,22.0,22.0,1.0,HEPATIC_TANAGER_5.jpg,AMERICAN_PIPIT_5.jpg,A1S0QK9U7INTSX
83,1.0,right,right,1.0,8.5316,0.0,23.0,23.0,23.0,1.0,SCARLET_IBIS_3.jpg,CRESTED_NUTHATCH_2.jpg,A1S0QK9U7INTSX
84,1.0,left,left,1.0,1.2621,0.0,24.0,24.0,24.0,1.0,SHOEBILL_3.jpg,EASTERN_MEADOWLARK_1.jpg,A1S0QK9U7INTSX
85,3.0,right,left,0.0,1.4402,0.0,25.0,25.0,25.0,1.0,VERMILION_FLYCATHER_5.jpg,GOLDEN_CHLOROPHONIA_5.jpg,A1S0QK9U7INTSX
86,3.0,left,right,0.0,0.4236,0.0,26.0,26.0,26.0,1.0,MAGPIE_GOOSE_5.jpg,OYSTER_CATCHER_3.jpg,A1S0QK9U7INTSX
87,2.0,left,right,0.0,0.179,0.0,27.0,27.0,27.0,1.0,MYNA_1.jpg,GREY_PLOVER_4.jpg,A1S0QK9U7INTSX
88,2.0,right,right,1.0,0.1744,0.0,28.0,28.0,28.0,1.0,SMITHS_LONGSPUR_5.jpg,INCA_TERN_4.jpg,A1S0QK9U7INTSX
89,3.0,right,right,1.0,5.6043,0.0,29.0,29.0,29.0,1.0,PYGMY_KINGFISHER_2.jpg,WHITE_CHEEKED_TURACO_5.jpg,A1S0QK9U7INTSX
90,1.0,left,right,0.0,0.167,0.0,30.0,30.0,30.0,1.0,HAWAIIAN_GOOSE_4.jpg,CUBAN_TODY_3.jpg,A1S0QK9U7INTSX
91,2.0,left,right,0.0,0.0936,0.0,31.0,31.0,31.0,1.0,NORTHERN_JACANA_3.jpg,CRAB_PLOVER_3.jpg,A1S0QK9U7INTSX
92,2.0,right,left,0.0,1.8413,0.0,32.0,32.0,32.0,1.0,FLAME_TANAGER_3.jpg,IVORY_GULL_3.jpg,A1S0QK9U7INTSX
93,3.0,right,left,0.0,4.3801,0.0,33.0,33.0,33.0,1.0,PURPLE_SWAMPHEN_4.jpg,OCELLATED_TURKEY_1.jpg,A1S0QK9U7INTSX
94,1.0,left,left,1.0,5.1437,0.0,34.0,34.0,34.0,1.0,EUROPEAN_TURTLE_DOVE_3.jpg,TEAL_DUCK_2.jpg,A1S0QK9U7INTSX
95,1.0,left,left,1.0,0.324,0.0,35.0,35.0,35.0,1.0,LESSER_ADJUTANT_5.jpg,GREEN_BROADBILL_4.jpg,A1S0QK9U7INTSX
96,3.0,left,left,1.0,0.203,0.0,36.0,36.0,36.0,1.0,CASPIAN_TERN_1.jpg,COMMON_LOON_2.jpg,A1S0QK9U7INTSX
97,1.0,right,left,0.0,5.4139,0.0,37.0,37.0,37.0,1.0,ALBATROSS_2.jpg,ASIAN_DOLLARD_BIRD_2.jpg,A1S0QK9U7INTSX
98,3.0,left,right,0.0,1.0712,0.0,38.0,38.0,38.0,1.0,PEACOCK_3.jpg,CHATTERING_LORY_2.jpg,A1S0QK9U7INTSX
99,2.0,left,left,1.0,11.3466,0.0,39.0,39.0,39.0,1.0,PYGMY_KINGFISHER_5.jpg,MASKED_BOOBY_5.jpg,A1S0QK9U7INTSX
100,3.0,right,right,1.0,1.0445,0.0,40.0,40.0,40.0,1.0,RED_BEARDED_BEE_EATER_1.jpg,VERMILION_FLYCATHER_3.jpg,A1S0QK9U7INTSX
101,1.0,left,left,1.0,7.7669,0.0,41.0,41.0,41.0,1.0,GYRFALCON_1.jpg,OSTRICH_1.jpg,A1S0QK9U7INTSX
102,2.0,left,left,1.0,0.256,0.0,42.0,42.0,42.0,1.0,LESSER_ADJUTANT_4.jpg,RAINBOW_LORIKEET_5.jpg,A1S0QK9U7INTSX
103,1.0,left,right,0.0,0.63,0.0,43.0,43.0,43.0,1.0,GREY_PLOVER_1.jpg,HYACINTH_MACAW_3.jpg,A1S0QK9U7INTSX
104,2.0,left,right,0.0,0.1745,0.0,44.0,44.0,44.0,1.0,RUBY_THROATED_HUMMINGBIRD_3.jpg,MYNA_5.jpg,A1S0QK9U7INTSX
105,2.0,right,left,0.0,0.1686,0.0,45.0,45.0,45.0,1.0,BROWN_THRASHER_4.jpg,FLAME_BOWERBIRD_3.jpg,A1S0QK9U7INTSX
106,1.0,right,left,0.0,0.1786,0.0,46.0,46.0,46.0,1.0,RED_BEARDED_BEE_EATER_3.jpg,KAGU_5.jpg,A1S0QK9U7INTSX
107,3.0,left,right,0.0,0.7463,0.0,47.0,47.0,47.0,1.0,AFRICAN_PIED_HORNBILL_5.jpg,CAPUCHINBIRD_2.jpg,A1S0QK9U7INTSX
108,1.0,right,right,1.0,0.3378,0.0,48.0,48.0,48.0,1.0,AMERICAN_FLAMINGO_2.jpg,CERULEAN_WARBLER_1.jpg,A1S0QK9U7INTSX
109,2.0,right,right,1.0,0.1789,0.0,49.0,49.0,49.0,1.0,MAGPIE_GOOSE_4.jpg,STRIPPED_SWALLOW_1.jpg,A1S0QK9U7INTSX
110,1.0,left,left,1.0,0.1824,0.0,50.0,50.0,50.0,1.0,ARARIPE_MANAKIN_4.jpg,KIWI_3.jpg,A1S0QK9U7INTSX
111,2.0,right,left,0.0,0.2721,0.0,51.0,51.0,51.0,1.0,RAZORBILL_1.jpg,CHUKAR_PARTRIDGE_5.jpg,A1S0QK9U7INTSX
112,1.0,left,left,1.0,0.0957,0.0,52.0,52.0,52.0,1.0,GRAY_KINGBIRD_5.jpg,BALD_EAGLE_2.jpg,A1S0QK9U7INTSX
113,2.0,left,left,1.0,0.1778,0.0,53.0,53.0,53.0,1.0,LITTLE_AUK_5.jpg,ORANGE_BRESTED_BUNTING_3.jpg,A1S0QK9U7INTSX
114,3.0,left,right,0.0,2.0812,0.0,54.0,54.0,54.0,1.0,EASTERN_TOWEE_2.jpg,NORTHERN_BEARDLESS_TYRANNULET_5.jpg,A1S0QK9U7INTSX
115,3.0,left,right,0.0,0.1762,0.0,55.0,55.0,55.0,1.0,PINK_ROBIN_4.jpg,COMMON_IORA_4.jpg,A1S0QK9U7INTSX
116,2.0,left,left,1.0,0.4933,0.0,56.0,56.0,56.0,1.0,ALPINE_CHOUGH_4.jpg,EUROPEAN_GOLDFINCH_3.jpg,A1S0QK9U7INTSX
117,3.0,left,left,1.0,1.8042,0.0,57.0,57.0,57.0,1.0,RUFOUS_KINGFISHER_1.jpg,HORNED_SUNGEM_4.jpg,A1S0QK9U7INTSX
118,2.0,right,left,0.0,0.2544,0.0,58.0,58.0,58.0,1.0,DOUBLE_BRESTED_CORMARANT_1.jpg,SPLENDID_WREN_1.jpg,A1S0QK9U7INTSX
119,2.0,left,left,1.0,0.084,0.0,59.0,59.0,59.0,1.0,IVORY_GULL_1.jpg,EASTERN_GOLDEN_WEAVER_5.jpg,A1S0QK9U7INTSX
120,3.0,right,right,1.0,3.282,0.0,0.0,0.0,0.0,1.0,DEMOISELLE_CRANE_1.jpg,KAGU_5.jpg,A21UA6O7ZFAIQJ
121,1.0,left,right,0.0,2.244,0.0,1.0,1.0,1.0,1.0,GOLDEN_CHLOROPHONIA_5.jpg,ROADRUNNER_2.jpg,A21UA6O7ZFAIQJ
122,1.0,right,right,1.0,2.097,0.0,2.0,2.0,2.0,1.0,AMERICAN_GOLDFINCH_4.jpg,NORTHERN_JACANA_3.jpg,A21UA6O7ZFAIQJ
123,1.0,left,left,1.0,2.98,0.0,3.0,3.0,3.0,1.0,AMERICAN_PIPIT_5.jpg,EMU_2.jpg,A21UA6O7ZFAIQJ
124,2.0,left,left,1.0,2.251,0.0,4.0,4.0,4.0,1.0,INCA_TERN_4.jpg,SMITHS_LONGSPUR_5.jpg,A21UA6O7ZFAIQJ
125,1.0,right,right,1.0,2.106,0.0,5.0,5.0,5.0,1.0,DOUBLE_BRESTED_CORMARANT_4.jpg,STRIPPED_SWALLOW_1.jpg,A21UA6O7ZFAIQJ
126,2.0,right,right,1.0,4.069,0.0,6.0,6.0,6.0,1.0,HIMALAYAN_MONAL_2.jpg,HAWAIIAN_GOOSE_4.jpg,A21UA6O7ZFAIQJ
127,1.0,right,left,0.0,3.146,0.0,7.0,7.0,7.0,1.0,ALTAMIRA_YELLOWTHROAT_5.jpg,LESSER_ADJUTANT_4.jpg,A21UA6O7ZFAIQJ
128,2.0,right,left,0.0,6.14,0.0,8.0,8.0,8.0,1.0,CINNAMON_ATTILA_2.jpg,GYRFALCON_1.jpg,A21UA6O7ZFAIQJ
129,1.0,left,right,0.0,2.881,0.0,9.0,9.0,9.0,1.0,BALI_STARLING_1.jpg,CAPE_LONGCLAW_5.jpg,A21UA6O7ZFAIQJ
130,3.0,left,left,1.0,2.53,0.0,10.0,10.0,10.0,1.0,LARK_BUNTING_2.jpg,CACTUS_WREN_3.jpg,A21UA6O7ZFAIQJ
131,2.0,left,left,1.0,2.447,0.0,11.0,11.0,11.0,1.0,CHUKAR_PARTRIDGE_5.jpg,RAZORBILL_1.jpg,A21UA6O7ZFAIQJ
132,3.0,left,left,1.0,4.568,0.0,12.0,12.0,12.0,1.0,FLAME_BOWERBIRD_3.jpg,QUETZAL_3.jpg,A21UA6O7ZFAIQJ
133,3.0,right,left,0.0,2.816,0.0,13.0,13.0,13.0,1.0,ECUADORIAN_HILLSTAR_3.jpg,GREY_PLOVER_1.jpg,A21UA6O7ZFAIQJ
134,1.0,left,left,1.0,4.39,0.0,14.0,14.0,14.0,1.0,PYGMY_KINGFISHER_5.jpg,GRANDALA_2.jpg,A21UA6O7ZFAIQJ
135,3.0,right,left,0.0,4.257,0.0,15.0,15.0,15.0,1.0,CUBAN_TODY_4.jpg,SPLENDID_WREN_1.jpg,A21UA6O7ZFAIQJ
136,2.0,right,right,1.0,3.11,0.0,16.0,16.0,16.0,1.0,INCA_TERN_2.jpg,MALACHITE_KINGFISHER_2.jpg,A21UA6O7ZFAIQJ
137,1.0,right,right,1.0,5.874,0.0,17.0,17.0,17.0,1.0,KIWI_3.jpg,ARARIPE_MANAKIN_4.jpg,A21UA6O7ZFAIQJ
138,1.0,left,left,1.0,4.897,0.0,18.0,18.0,18.0,1.0,INDIGO_BUNTING_1.jpg,FRIGATE_4.jpg,A21UA6O7ZFAIQJ
139,3.0,right,right,1.0,3.93,0.0,19.0,19.0,19.0,1.0,PARADISE_TANAGER_3.jpg,MYNA_1.jpg,A21UA6O7ZFAIQJ
140,1.0,right,right,1.0,3.552,0.0,20.0,20.0,20.0,1.0,SPOONBILL_1.jpg,GOLDEN_CHEEKED_WARBLER_2.jpg,A21UA6O7ZFAIQJ
141,3.0,left,left,1.0,6.107,0.0,21.0,21.0,21.0,1.0,SCARLET_TANAGER_2.jpg,BORNEAN_LEAFBIRD_1.jpg,A21UA6O7ZFAIQJ
142,3.0,right,left,0.0,4.47,0.0,22.0,22.0,22.0,1.0,NORTHERN_BEARDLESS_TYRANNULET_5.jpg,EASTERN_TOWEE_2.jpg,A21UA6O7ZFAIQJ
143,3.0,right,right,1.0,3.37,0.0,23.0,23.0,23.0,1.0,CRESTED_KINGFISHER_1.jpg,INLAND_DOTTEREL_4.jpg,A21UA6O7ZFAIQJ
144,3.0,right,right,1.0,3.749,0.0,24.0,24.0,24.0,1.0,SHORT_BILLED_DOWITCHER_5.jpg,OVENBIRD_5.jpg,A21UA6O7ZFAIQJ
145,3.0,left,left,1.0,4.63,0.0,25.0,25.0,25.0,1.0,IVORY_GULL_3.jpg,SNOWY_EGRET_4.jpg,A21UA6O7ZFAIQJ
146,3.0,left,left,1.0,5.196,0.0,26.0,26.0,26.0,1.0,CASSOWARY_1.jpg,AFRICAN_OYSTER_CATCHER_2.jpg,A21UA6O7ZFAIQJ
147,2.0,right,left,0.0,3.68,0.0,27.0,27.0,27.0,1.0,BOBOLINK_5.jpg,ECUADORIAN_HILLSTAR_5.jpg,A21UA6O7ZFAIQJ
148,1.0,right,right,1.0,4.096,0.0,28.0,28.0,28.0,1.0,SANDHILL_CRANE_4.jpg,PARUS_MAJOR_1.jpg,A21UA6O7ZFAIQJ
149,3.0,right,left,0.0,5.89,0.0,29.0,29.0,29.0,1.0,TOUCHAN_4.jpg,CRESTED_CARACARA_4.jpg,A21UA6O7ZFAIQJ
150,1.0,left,left,1.0,2.358,0.0,30.0,30.0,30.0,1.0,CASPIAN_TERN_1.jpg,GREAT_GRAY_OWL_4.jpg,A21UA6O7ZFAIQJ
151,2.0,left,left,1.0,1.454,0.0,31.0,31.0,31.0,1.0,RUFOUS_KINGFISHER_1.jpg,MAGPIE_GOOSE_3.jpg,A21UA6O7ZFAIQJ
152,1.0,right,right,1.0,5.573,0.0,32.0,32.0,32.0,1.0,GREEN_BROADBILL_1.jpg,TASMANIAN_HEN_5.jpg,A21UA6O7ZFAIQJ
153,2.0,right,left,0.0,4.207,0.0,33.0,33.0,33.0,1.0,MYNA_5.jpg,RUBY_THROATED_HUMMINGBIRD_3.jpg,A21UA6O7ZFAIQJ
154,2.0,right,right,1.0,8.851,0.0,34.0,34.0,34.0,1.0,STRAWBERRY_FINCH_4.jpg,PEACOCK_3.jpg,A21UA6O7ZFAIQJ
155,1.0,right,right,1.0,3.001,0.0,35.0,35.0,35.0,1.0,GUINEA_TURACO_3.jpg,BREWERS_BLACKBIRD_3.jpg,A21UA6O7ZFAIQJ
156,2.0,right,left,0.0,5.856,0.0,36.0,36.0,36.0,1.0,AFRICAN_FIREFINCH_1.jpg,CRESTED_NUTHATCH_2.jpg,A21UA6O7ZFAIQJ
157,2.0,left,left,1.0,7.207,0.0,37.0,37.0,37.0,1.0,LESSER_ADJUTANT_5.jpg,GAMBELS_QUAIL_1.jpg,A21UA6O7ZFAIQJ
158,1.0,right,right,1.0,4.297,0.0,38.0,38.0,38.0,1.0,ALBATROSS_2.jpg,ASIAN_DOLLARD_BIRD_2.jpg,A21UA6O7ZFAIQJ
159,2.0,right,right,1.0,2.409,0.0,39.0,39.0,39.0,1.0,COCK_OF_THE__ROCK_4.jpg,GRAY_KINGBIRD_5.jpg,A21UA6O7ZFAIQJ
160,2.0,right,right,1.0,4.518,0.0,40.0,40.0,40.0,1.0,SPANGLED_COTINGA_4.jpg,BROWN_NOODY_3.jpg,A21UA6O7ZFAIQJ
161,3.0,left,right,0.0,4.339,0.0,41.0,41.0,41.0,1.0,AFRICAN_PIED_HORNBILL_5.jpg,CAPUCHINBIRD_2.jpg,A21UA6O7ZFAIQJ
162,1.0,left,left,1.0,3.708,0.0,42.0,42.0,42.0,1.0,PINK_ROBIN_4.jpg,SPOONBILL_3.jpg,A21UA6O7ZFAIQJ
163,2.0,left,left,1.0,3.83,0.0,43.0,43.0,43.0,1.0,WHITE_CHEEKED_TURACO_5.jpg,GREAT_POTOO_3.jpg,A21UA6O7ZFAIQJ
164,3.0,left,right,0.0,3.716,0.0,44.0,44.0,44.0,1.0,VERMILION_FLYCATHER_3.jpg,RED_BEARDED_BEE_EATER_1.jpg,A21UA6O7ZFAIQJ
165,2.0,right,left,0.0,5.391,0.0,45.0,45.0,45.0,1.0,OYSTER_CATCHER_2.jpg,ASIAN_CRESTED_IBIS_4.jpg,A21UA6O7ZFAIQJ
166,1.0,left,left,1.0,2.148,0.0,46.0,46.0,46.0,1.0,RED_HEADED_WOODPECKER_5.jpg,ASHY_STORM_PETREL_2.jpg,A21UA6O7ZFAIQJ
167,2.0,left,left,1.0,3.547,0.0,47.0,47.0,47.0,1.0,ALPINE_CHOUGH_4.jpg,EUROPEAN_GOLDFINCH_3.jpg,A21UA6O7ZFAIQJ
168,1.0,right,left,0.0,2.268,0.0,48.0,48.0,48.0,1.0,AMERICAN_FLAMINGO_2.jpg,CERULEAN_WARBLER_1.jpg,A21UA6O7ZFAIQJ
169,3.0,right,right,1.0,7.679,0.0,49.0,49.0,49.0,1.0,BALD_EAGLE_5.jpg,SHOEBILL_3.jpg,A21UA6O7ZFAIQJ
170,3.0,right,right,1.0,7.961,0.0,50.0,50.0,50.0,1.0,FRIGATE_1.jpg,RUBY_THROATED_HUMMINGBIRD_1.jpg,A21UA6O7ZFAIQJ
171,3.0,left,left,1.0,4.881,0.0,51.0,51.0,51.0,1.0,BROWN_THRASHER_3.jpg,BLACK_BAZA_4.jpg,A21UA6O7ZFAIQJ
172,3.0,left,right,0.0,1.601,0.0,52.0,52.0,52.0,1.0,RUBY_THROATED_HUMMINGBIRD_2.jpg,DUSKY_ROBIN_5.jpg,A21UA6O7ZFAIQJ
173,1.0,left,right,0.0,3.248,0.0,53.0,53.0,53.0,1.0,OCELLATED_TURKEY_1.jpg,CHIPPING_SPARROW_1.jpg,A21UA6O7ZFAIQJ
174,3.0,left,right,0.0,3.989,0.0,54.0,54.0,54.0,1.0,MAGPIE_GOOSE_5.jpg,OYSTER_CATCHER_3.jpg,A21UA6O7ZFAIQJ
175,2.0,left,left,1.0,4.466,0.0,55.0,55.0,55.0,1.0,KILLDEAR_2.jpg,CAATINGA_CACHOLOTE_4.jpg,A21UA6O7ZFAIQJ
176,2.0,right,right,1.0,4.073,0.0,56.0,56.0,56.0,1.0,EASTERN_GOLDEN_WEAVER_5.jpg,IVORY_GULL_1.jpg,A21UA6O7ZFAIQJ
177,2.0,right,left,0.0,3.798,0.0,57.0,57.0,57.0,1.0,ORANGE_BRESTED_BUNTING_3.jpg,LITTLE_AUK_5.jpg,A21UA6O7ZFAIQJ
178,2.0,left,left,1.0,3.973,0.0,58.0,58.0,58.0,1.0,EUROPEAN_TURTLE_DOVE_3.jpg,PAINTED_BUNTING_3.jpg,A21UA6O7ZFAIQJ
179,1.0,right,left,0.0,5.935,0.0,59.0,59.0,59.0,1.0,GILDED_FLICKER_2.jpg,DOUBLE_BRESTED_CORMARANT_5.jpg,A21UA6O7ZFAIQJ
180,3.0,left,left,1.0,2.6646,0.0,0.0,0.0,0.0,1.0,CASPIAN_TERN_1.jpg,COMMON_LOON_2.jpg,A2HGETLDQKWF1O
181,2.0,right,right,1.0,2.213700001,0.0,1.0,1.0,1.0,1.0,ALEXANDRINE_PARAKEET_1.jpg,AFRICAN_PIED_HORNBILL_5.jpg,A2HGETLDQKWF1O
182,2.0,left,left,1.0,2.030699999,0.0,2.0,2.0,2.0,1.0,MAGPIE_GOOSE_5.jpg,HAMERKOP_1.jpg,A2HGETLDQKWF1O
183,1.0,left,right,0.0,1.4686,0.0,3.0,3.0,3.0,1.0,CHUKAR_PARTRIDGE_5.jpg,OSTRICH_5.jpg,A2HGETLDQKWF1O
184,1.0,left,left,1.0,1.351199999,0.0,4.0,4.0,4.0,1.0,LESSER_ADJUTANT_4.jpg,ALTAMIRA_YELLOWTHROAT_5.jpg,A2HGETLDQKWF1O
185,2.0,right,right,1.0,1.8454,0.0,5.0,5.0,5.0,1.0,GOLDEN_CHLOROPHONIA_1.jpg,EASTERN_TOWEE_2.jpg,A2HGETLDQKWF1O
186,2.0,right,right,1.0,1.346,0.0,6.0,6.0,6.0,1.0,GREEN_MAGPIE_1.jpg,AMERICAN_PIPIT_5.jpg,A2HGETLDQKWF1O
187,2.0,left,left,1.0,1.262299999,0.0,7.0,7.0,7.0,1.0,GRAY_KINGBIRD_5.jpg,COCK_OF_THE__ROCK_4.jpg,A2HGETLDQKWF1O
188,3.0,right,left,0.0,1.472799999,0.0,8.0,8.0,8.0,1.0,MALABAR_HORNBILL_2.jpg,EUROPEAN_TURTLE_DOVE_3.jpg,A2HGETLDQKWF1O
189,1.0,left,left,1.0,1.428199999,0.0,9.0,9.0,9.0,1.0,BROWN_NOODY_3.jpg,PEACOCK_2.jpg,A2HGETLDQKWF1O
190,3.0,right,left,0.0,1.4685,0.0,10.0,10.0,10.0,1.0,CHATTERING_LORY_2.jpg,PEACOCK_3.jpg,A2HGETLDQKWF1O
191,2.0,left,right,0.0,1.1405,0.0,11.0,11.0,11.0,1.0,ALPINE_CHOUGH_4.jpg,EUROPEAN_GOLDFINCH_3.jpg,A2HGETLDQKWF1O
192,3.0,right,left,0.0,1.4505,0.0,12.0,12.0,12.0,1.0,TOUCHAN_4.jpg,CRESTED_CARACARA_4.jpg,A2HGETLDQKWF1O
193,3.0,right,right,1.0,1.0866,0.0,13.0,13.0,13.0,1.0,GREEN_BROADBILL_5.jpg,MALACHITE_KINGFISHER_2.jpg,A2HGETLDQKWF1O
194,1.0,right,left,0.0,1.375199999,0.0,14.0,14.0,14.0,1.0,INDIAN_BUSTARD_2.jpg,FLAME_BOWERBIRD_3.jpg,A2HGETLDQKWF1O
195,1.0,left,left,1.0,1.4615,0.0,15.0,15.0,15.0,1.0,PARUS_MAJOR_1.jpg,SANDHILL_CRANE_4.jpg,A2HGETLDQKWF1O
196,1.0,right,left,0.0,1.9271,0.0,16.0,16.0,16.0,1.0,ROSY_FACED_LOVEBIRD_4.jpg,CASSOWARY_1.jpg,A2HGETLDQKWF1O
197,3.0,right,right,1.0,1.4451,0.0,17.0,17.0,17.0,1.0,VIOLET_GREEN_SWALLOW_4.jpg,ASIAN_DOLLARD_BIRD_2.jpg,A2HGETLDQKWF1O
198,2.0,left,left,1.0,0.4916,0.0,18.0,18.0,18.0,1.0,WHITE_CHEEKED_TURACO_5.jpg,GREAT_POTOO_3.jpg,A2HGETLDQKWF1O
199,3.0,left,left,1.0,28.6526,0.0,19.0,19.0,19.0,1.0,BALI_STARLING_1.jpg,IBERIAN_MAGPIE_1.jpg,A2HGETLDQKWF1O
200,1.0,right,right,1.0,0.845700001,0.0,20.0,20.0,20.0,1.0,DOUBLE_EYED_FIG_PARROT_3.jpg,BROWN_THRASHER_3.jpg,A2HGETLDQKWF1O
201,2.0,right,left,0.0,0.396900002,0.0,21.0,21.0,21.0,1.0,EURASIAN_MAGPIE_4.jpg,DOUBLE_BRESTED_CORMARANT_5.jpg,A2HGETLDQKWF1O
202,2.0,left,left,1.0,0.007200001,0.0,22.0,22.0,22.0,1.0,KAGU_5.jpg,ASHY_STORM_PETREL_1.jpg,A2HGETLDQKWF1O
203,2.0,left,right,0.0,58.8325,0.0,23.0,23.0,23.0,1.0,ASIAN_CRESTED_IBIS_4.jpg,OYSTER_CATCHER_2.jpg,A2HGETLDQKWF1O
204,1.0,left,right,0.0,25.1385,0.0,24.0,24.0,24.0,1.0,VERMILION_FLYCATHER_3.jpg,INDIAN_BUSTARD_1.jpg,A2HGETLDQKWF1O
205,2.0,right,right,1.0,49.1764,0.0,25.0,25.0,25.0,1.0,DOUBLE_BRESTED_CORMARANT_1.jpg,SPLENDID_WREN_1.jpg,A2HGETLDQKWF1O
206,3.0,right,right,1.0,5.608199999,0.0,26.0,26.0,26.0,1.0,BORNEAN_LEAFBIRD_1.jpg,SCARLET_TANAGER_2.jpg,A2HGETLDQKWF1O
207,1.0,right,right,1.0,9.6984,0.0,27.0,27.0,27.0,1.0,EASTERN_MEADOWLARK_1.jpg,SHOEBILL_3.jpg,A2HGETLDQKWF1O
208,3.0,right,right,1.0,17.7928,0.0,28.0,28.0,28.0,1.0,BORNEAN_LEAFBIRD_3.jpg,ARARIPE_MANAKIN_4.jpg,A2HGETLDQKWF1O
209,2.0,left,right,0.0,3.3496,0.0,29.0,29.0,29.0,1.0,ECUADORIAN_HILLSTAR_5.jpg,BOBOLINK_5.jpg,A2HGETLDQKWF1O
210,3.0,right,right,1.0,3.7421,0.0,30.0,30.0,30.0,1.0,VERMILION_FLYCATHER_5.jpg,GOLDEN_CHLOROPHONIA_5.jpg,A2HGETLDQKWF1O
211,1.0,right,right,1.0,2.8901,0.0,31.0,31.0,31.0,1.0,GOLDEN_CHLOROPHONIA_2.jpg,RUBY_THROATED_HUMMINGBIRD_2.jpg,A2HGETLDQKWF1O
212,3.0,left,left,1.0,2.316,0.0,32.0,32.0,32.0,1.0,MYNA_1.jpg,PARADISE_TANAGER_3.jpg,A2HGETLDQKWF1O
213,1.0,left,right,0.0,2.1944,0.0,33.0,33.0,33.0,1.0,LESSER_ADJUTANT_5.jpg,GREEN_BROADBILL_4.jpg,A2HGETLDQKWF1O
214,3.0,left,right,0.0,2.1914,0.0,34.0,34.0,34.0,1.0,INLAND_DOTTEREL_4.jpg,CRESTED_KINGFISHER_1.jpg,A2HGETLDQKWF1O
215,3.0,left,right,0.0,2.1075,0.0,35.0,35.0,35.0,1.0,RUBY_THROATED_HUMMINGBIRD_3.jpg,NORTHERN_SHOVELER_1.jpg,A2HGETLDQKWF1O
216,1.0,right,right,1.0,2.621599998,0.0,36.0,36.0,36.0,1.0,ELLIOTS__PHEASANT_4.jpg,INCA_TERN_4.jpg,A2HGETLDQKWF1O
217,1.0,right,right,1.0,2.287799999,0.0,37.0,37.0,37.0,1.0,DOUBLE_BRESTED_CORMARANT_4.jpg,STRIPPED_SWALLOW_1.jpg,A2HGETLDQKWF1O
218,3.0,left,right,0.0,2.300200001,0.0,38.0,38.0,38.0,1.0,CERULEAN_WARBLER_1.jpg,BANANAQUIT_1.jpg,A2HGETLDQKWF1O
219,1.0,right,right,1.0,1.827700001,0.0,39.0,39.0,39.0,1.0,CHIPPING_SPARROW_1.jpg,OCELLATED_TURKEY_1.jpg,A2HGETLDQKWF1O
220,2.0,left,right,0.0,6.871700001,0.0,40.0,40.0,40.0,1.0,GREY_PLOVER_1.jpg,GOULDIAN_FINCH_4.jpg,A2HGETLDQKWF1O
221,2.0,left,right,0.0,2.103799999,0.0,41.0,41.0,41.0,1.0,LITTLE_AUK_5.jpg,ORANGE_BRESTED_BUNTING_3.jpg,A2HGETLDQKWF1O
222,1.0,left,right,0.0,2.329299999,0.0,42.0,42.0,42.0,1.0,RUBY_THROATED_HUMMINGBIRD_1.jpg,BANANAQUIT_2.jpg,A2HGETLDQKWF1O
223,2.0,right,right,1.0,2.1766,0.0,43.0,43.0,43.0,1.0,HOUSE_FINCH_2.jpg,GOLDEN_CHEEKED_WARBLER_2.jpg,A2HGETLDQKWF1O
224,1.0,left,right,0.0,2.2479,0.0,44.0,44.0,44.0,1.0,PYGMY_KINGFISHER_5.jpg,GRANDALA_2.jpg,A2HGETLDQKWF1O
225,1.0,left,right,0.0,1.462700001,0.0,45.0,45.0,45.0,1.0,RED_HEADED_WOODPECKER_5.jpg,ASHY_STORM_PETREL_2.jpg,A2HGETLDQKWF1O
226,2.0,right,right,1.0,1.4569,0.0,46.0,46.0,46.0,1.0,EASTERN_GOLDEN_WEAVER_5.jpg,IVORY_GULL_1.jpg,A2HGETLDQKWF1O
227,1.0,right,right,1.0,1.516,0.0,47.0,47.0,47.0,1.0,OSTRICH_1.jpg,GYRFALCON_1.jpg,A2HGETLDQKWF1O
228,3.0,left,right,0.0,1.577700001,0.0,48.0,48.0,48.0,1.0,CRESTED_NUTHATCH_2.jpg,CANARY_1.jpg,A2HGETLDQKWF1O
229,3.0,right,right,1.0,1.173299999,0.0,49.0,49.0,49.0,1.0,AZURE_TIT_5.jpg,KILLDEAR_2.jpg,A2HGETLDQKWF1O
230,3.0,left,right,0.0,1.2505,0.0,50.0,50.0,50.0,1.0,TASMANIAN_HEN_5.jpg,COPPERY_TAILED_COUCAL_1.jpg,A2HGETLDQKWF1O
231,3.0,right,right,1.0,1.1555,0.0,51.0,51.0,51.0,1.0,HORNED_SUNGEM_4.jpg,RUFOUS_KINGFISHER_1.jpg,A2HGETLDQKWF1O
232,2.0,right,left,0.0,1.452799999,0.0,52.0,52.0,52.0,1.0,GOLDEN_CHEEKED_WARBLER_3.jpg,BREWERS_BLACKBIRD_3.jpg,A2HGETLDQKWF1O
233,1.0,left,right,0.0,1.068199999,0.0,53.0,53.0,53.0,1.0,LARK_BUNTING_2.jpg,PEACOCK_1.jpg,A2HGETLDQKWF1O
234,2.0,left,right,0.0,0.9656,0.0,54.0,54.0,54.0,1.0,PINK_ROBIN_4.jpg,ALBATROSS_4.jpg,A2HGETLDQKWF1O
235,2.0,right,left,0.0,0.973800001,0.0,55.0,55.0,55.0,1.0,CRAB_PLOVER_3.jpg,NORTHERN_JACANA_3.jpg,A2HGETLDQKWF1O
236,3.0,right,right,1.0,1.7401,0.0,56.0,56.0,56.0,1.0,SHORT_BILLED_DOWITCHER_5.jpg,OVENBIRD_5.jpg,A2HGETLDQKWF1O
237,3.0,left,right,0.0,2.6951,0.0,57.0,57.0,57.0,1.0,IVORY_GULL_3.jpg,SNOWY_EGRET_4.jpg,A2HGETLDQKWF1O
238,2.0,left,right,0.0,2.1995,0.0,58.0,58.0,58.0,1.0,HAWAIIAN_GOOSE_4.jpg,HIMALAYAN_MONAL_2.jpg,A2HGETLDQKWF1O
239,1.0,right,left,0.0,1.0785,0.0,59.0,59.0,59.0,1.0,FRIGATE_4.jpg,INDIGO_BUNTING_1.jpg,A2HGETLDQKWF1O
240,2.0,right,left,0.0,16.9425,0.0,0.0,0.0,0.0,1.0,LOGGERHEAD_SHRIKE_4.jpg,ASIAN_DOLLARD_BIRD_2.jpg,A38L8T6E70LVYE
241,1.0,right,right,1.0,0.1488,0.0,1.0,1.0,1.0,1.0,POMARINE_JAEGER_5.jpg,SPLENDID_WREN_1.jpg,A38L8T6E70LVYE
242,2.0,left,right,0.0,0.1475,0.0,2.0,2.0,2.0,1.0,AFRICAN_PIED_HORNBILL_5.jpg,ALEXANDRINE_PARAKEET_1.jpg,A38L8T6E70LVYE
243,3.0,left,left,1.0,0.0063,0.0,3.0,3.0,3.0,1.0,OVENBIRD_5.jpg,SHORT_BILLED_DOWITCHER_5.jpg,A38L8T6E70LVYE
244,1.0,right,right,1.0,0.0081,0.0,4.0,4.0,4.0,1.0,GOLDEN_CHLOROPHONIA_2.jpg,RUBY_THROATED_HUMMINGBIRD_2.jpg,A38L8T6E70LVYE
245,3.0,left,right,0.0,0.007,0.0,5.0,5.0,5.0,1.0,ASIAN_CRESTED_IBIS_4.jpg,IVORY_GULL_2.jpg,A38L8T6E70LVYE
246,2.0,right,left,0.0,0.006400001,0.0,6.0,6.0,6.0,1.0,FLAME_TANAGER_3.jpg,IVORY_GULL_3.jpg,A38L8T6E70LVYE
247,2.0,left,left,1.0,0.149,0.0,7.0,7.0,7.0,1.0,ALPINE_CHOUGH_4.jpg,EUROPEAN_GOLDFINCH_3.jpg,A38L8T6E70LVYE
248,2.0,right,left,0.0,0.0061,0.0,8.0,8.0,8.0,1.0,PAINTED_BUNTING_3.jpg,EUROPEAN_TURTLE_DOVE_3.jpg,A38L8T6E70LVYE
249,3.0,right,right,1.0,0.1455,0.0,9.0,9.0,9.0,1.0,GREEN_BROADBILL_5.jpg,MALACHITE_KINGFISHER_2.jpg,A38L8T6E70LVYE
250,2.0,right,left,0.0,0.006400001,0.0,10.0,10.0,10.0,1.0,CRIMSON_CHAT_3.jpg,RED_HEADED_WOODPECKER_5.jpg,A38L8T6E70LVYE
251,1.0,right,right,1.0,0.0078,0.0,11.0,11.0,11.0,1.0,INDIAN_BUSTARD_2.jpg,FLAME_BOWERBIRD_3.jpg,A38L8T6E70LVYE
252,3.0,right,right,1.0,0.153900001,0.0,12.0,12.0,12.0,1.0,NORTHERN_BEARDLESS_TYRANNULET_5.jpg,EASTERN_TOWEE_2.jpg,A38L8T6E70LVYE
253,1.0,right,left,0.0,0.0061,0.0,13.0,13.0,13.0,1.0,ROADRUNNER_2.jpg,GOLDEN_CHLOROPHONIA_5.jpg,A38L8T6E70LVYE
254,1.0,right,left,0.0,1.7221,0.0,14.0,14.0,14.0,1.0,CUBAN_TODY_3.jpg,HAWAIIAN_GOOSE_4.jpg,A38L8T6E70LVYE
255,2.0,right,right,1.0,0.007,0.0,15.0,15.0,15.0,1.0,INDIAN_PITTA_2.jpg,CRESTED_CARACARA_4.jpg,A38L8T6E70LVYE
256,1.0,left,right,0.0,0.006,0.0,16.0,16.0,16.0,1.0,PEACOCK_3.jpg,ANIANIAU_2.jpg,A38L8T6E70LVYE
257,3.0,right,left,0.0,0.2922,0.0,17.0,17.0,17.0,1.0,AFRICAN_FIREFINCH_3.jpg,GRAY_KINGBIRD_5.jpg,A38L8T6E70LVYE
258,3.0,left,left,1.0,0.007,0.0,18.0,18.0,18.0,1.0,BALI_STARLING_1.jpg,IBERIAN_MAGPIE_1.jpg,A38L8T6E70LVYE
259,3.0,right,left,0.0,0.1509,0.0,19.0,19.0,19.0,1.0,COMMON_LOON_2.jpg,CASPIAN_TERN_1.jpg,A38L8T6E70LVYE
260,3.0,left,right,0.0,0.1468,0.0,20.0,20.0,20.0,1.0,LESSER_ADJUTANT_5.jpg,RED_HEADED_WOODPECKER_1.jpg,A38L8T6E70LVYE
261,1.0,left,right,0.0,0.1509,0.0,21.0,21.0,21.0,1.0,BREWERS_BLACKBIRD_3.jpg,GUINEA_TURACO_3.jpg,A38L8T6E70LVYE
262,2.0,left,right,0.0,0.1497,0.0,22.0,22.0,22.0,1.0,INCA_TERN_4.jpg,SMITHS_LONGSPUR_5.jpg,A38L8T6E70LVYE
263,3.0,left,left,1.0,0.0061,0.0,23.0,23.0,23.0,1.0,KAGU_5.jpg,DEMOISELLE_CRANE_1.jpg,A38L8T6E70LVYE
264,1.0,right,right,1.0,0.005900001,0.0,24.0,24.0,24.0,1.0,MALAGASY_WHITE_EYE_2.jpg,RUBY_THROATED_HUMMINGBIRD_3.jpg,A38L8T6E70LVYE
265,1.0,left,left,1.0,0.009200001,0.0,25.0,25.0,25.0,1.0,IVORY_GULL_1.jpg,WILSONS_BIRD_OF_PARADISE_4.jpg,A38L8T6E70LVYE
266,1.0,right,right,1.0,0.0062,0.0,26.0,26.0,26.0,1.0,OSTRICH_1.jpg,GYRFALCON_1.jpg,A38L8T6E70LVYE
267,3.0,left,right,0.0,0.1456,0.0,27.0,27.0,27.0,1.0,RUFOUS_KINGFISHER_1.jpg,HORNED_SUNGEM_4.jpg,A38L8T6E70LVYE
268,1.0,left,right,0.0,0.0069,0.0,28.0,28.0,28.0,1.0,NORTHERN_JACANA_3.jpg,AMERICAN_GOLDFINCH_4.jpg,A38L8T6E70LVYE
269,3.0,right,right,1.0,0.1435,0.0,29.0,29.0,29.0,1.0,PARADISE_TANAGER_3.jpg,MYNA_1.jpg,A38L8T6E70LVYE
270,3.0,left,right,0.0,0.006599999,0.0,30.0,30.0,30.0,1.0,VERMILION_FLYCATHER_3.jpg,RED_BEARDED_BEE_EATER_1.jpg,A38L8T6E70LVYE
271,1.0,left,left,1.0,0.1579,0.0,31.0,31.0,31.0,1.0,STRIPPED_SWALLOW_1.jpg,DOUBLE_BRESTED_CORMARANT_4.jpg,A38L8T6E70LVYE
272,2.0,right,right,1.0,0.0063,0.0,32.0,32.0,32.0,1.0,AMERICAN_PIPIT_1.jpg,OCELLATED_TURKEY_1.jpg,A38L8T6E70LVYE
273,1.0,right,left,0.0,0.1589,0.0,33.0,33.0,33.0,1.0,ALTAMIRA_YELLOWTHROAT_5.jpg,LESSER_ADJUTANT_4.jpg,A38L8T6E70LVYE
274,2.0,left,right,0.0,0.0084,0.0,34.0,34.0,34.0,1.0,CERULEAN_WARBLER_1.jpg,AMERICAN_FLAMINGO_5.jpg,A38L8T6E70LVYE
275,2.0,left,right,0.0,0.1448,0.0,35.0,35.0,35.0,1.0,LITTLE_AUK_5.jpg,ORANGE_BRESTED_BUNTING_3.jpg,A38L8T6E70LVYE
276,2.0,right,right,1.0,0.0067,0.0,36.0,36.0,36.0,1.0,RAZORBILL_1.jpg,CHUKAR_PARTRIDGE_5.jpg,A38L8T6E70LVYE
277,3.0,right,right,1.0,0.1517,0.0,37.0,37.0,37.0,1.0,DARWINS_FLYCATCHER_2.jpg,INDIGO_BUNTING_1.jpg,A38L8T6E70LVYE
278,3.0,left,left,1.0,0.006,0.0,38.0,38.0,38.0,1.0,WHITE_CHEEKED_TURACO_5.jpg,PYGMY_KINGFISHER_2.jpg,A38L8T6E70LVYE
279,2.0,right,left,0.0,0.1485,0.0,39.0,39.0,39.0,1.0,GREEN_MAGPIE_1.jpg,AMERICAN_PIPIT_5.jpg,A38L8T6E70LVYE
280,1.0,right,right,1.0,0.006900001,0.0,40.0,40.0,40.0,1.0,BANANAQUIT_2.jpg,RUBY_THROATED_HUMMINGBIRD_1.jpg,A38L8T6E70LVYE
281,1.0,right,right,1.0,0.0085,0.0,41.0,41.0,41.0,1.0,SPOONBILL_3.jpg,PINK_ROBIN_4.jpg,A38L8T6E70LVYE
282,1.0,left,left,1.0,0.1563,0.0,42.0,42.0,42.0,1.0,DOUBLE_BRESTED_CORMARANT_5.jpg,GILDED_FLICKER_2.jpg,A38L8T6E70LVYE
283,3.0,right,left,0.0,0.0061,0.0,43.0,43.0,43.0,1.0,AFRICAN_OYSTER_CATCHER_2.jpg,CASSOWARY_1.jpg,A38L8T6E70LVYE
284,2.0,left,right,0.0,0.0062,0.0,44.0,44.0,44.0,1.0,GREY_PLOVER_1.jpg,GOULDIAN_FINCH_4.jpg,A38L8T6E70LVYE
285,2.0,right,right,1.0,0.1503,0.0,45.0,45.0,45.0,1.0,AFRICAN_FIREFINCH_1.jpg,CRESTED_NUTHATCH_2.jpg,A38L8T6E70LVYE
286,2.0,left,left,1.0,0.0058,0.0,46.0,46.0,46.0,1.0,LARK_BUNTING_2.jpg,KING_VULTURE_3.jpg,A38L8T6E70LVYE
287,2.0,left,left,1.0,0.0071,0.0,47.0,47.0,47.0,1.0,BROWN_THRASHER_3.jpg,OYSTER_CATCHER_4.jpg,A38L8T6E70LVYE
288,1.0,right,left,0.0,0.155099999,0.0,48.0,48.0,48.0,1.0,EASTERN_MEADOWLARK_1.jpg,SHOEBILL_3.jpg,A38L8T6E70LVYE
289,3.0,left,left,1.0,0.0061,0.0,49.0,49.0,49.0,1.0,ECUADORIAN_HILLSTAR_5.jpg,CRIMSON_SUNBIRD_5.jpg,A38L8T6E70LVYE
290,3.0,left,left,1.0,0.005599999,0.0,50.0,50.0,50.0,1.0,SCARLET_TANAGER_2.jpg,BORNEAN_LEAFBIRD_1.jpg,A38L8T6E70LVYE
291,1.0,left,left,1.0,0.0062,0.0,51.0,51.0,51.0,1.0,PARUS_MAJOR_1.jpg,SANDHILL_CRANE_4.jpg,A38L8T6E70LVYE
292,2.0,right,left,0.0,0.1438,0.0,52.0,52.0,52.0,1.0,CAATINGA_CACHOLOTE_4.jpg,KILLDEAR_2.jpg,A38L8T6E70LVYE
293,2.0,left,right,0.0,0.0059,0.0,53.0,53.0,53.0,1.0,BROWN_NOODY_3.jpg,SPANGLED_COTINGA_4.jpg,A38L8T6E70LVYE
294,3.0,right,left,0.0,0.0102,0.0,54.0,54.0,54.0,1.0,OYSTER_CATCHER_3.jpg,MAGPIE_GOOSE_5.jpg,A38L8T6E70LVYE
295,2.0,left,left,1.0,0.0062,0.0,55.0,55.0,55.0,1.0,ARARIPE_MANAKIN_4.jpg,BLACK_VULTURE_1.jpg,A38L8T6E70LVYE
296,1.0,left,left,1.0,0.1494,0.0,56.0,56.0,56.0,1.0,TASMANIAN_HEN_5.jpg,GREEN_BROADBILL_1.jpg,A38L8T6E70LVYE
297,1.0,left,left,1.0,0.0064,0.0,57.0,57.0,57.0,1.0,PYGMY_KINGFISHER_5.jpg,GRANDALA_2.jpg,A38L8T6E70LVYE
298,3.0,right,left,0.0,0.0061,0.0,58.0,58.0,58.0,1.0,WHITE_THROATED_BEE_EATER_1.jpg,GOLDEN_CHEEKED_WARBLER_2.jpg,A38L8T6E70LVYE
299,3.0,right,left,0.0,0.0059,0.0,59.0,59.0,59.0,1.0,CRESTED_KINGFISHER_1.jpg,INLAND_DOTTEREL_4.jpg,A38L8T6E70LVYE
300,1.0,right,right,1.0,12.0194,0.0,0.0,0.0,0.0,1.0,MYNA_4.jpg,OVENBIRD_5.jpg,A3HMRQ4Y0NZKOT
301,2.0,left,left,1.0,1.9199,0.0,1.0,1.0,1.0,1.0,TASMANIAN_HEN_5.jpg,AFRICAN_EMERALD_CUCKOO_5.jpg,A3HMRQ4Y0NZKOT
302,1.0,left,left,1.0,2.1883,0.0,2.0,2.0,2.0,1.0,CASSOWARY_1.jpg,ROSY_FACED_LOVEBIRD_4.jpg,A3HMRQ4Y0NZKOT
303,1.0,left,left,1.0,2.5709,0.0,3.0,3.0,3.0,1.0,RUBY_THROATED_HUMMINGBIRD_1.jpg,BANANAQUIT_2.jpg,A3HMRQ4Y0NZKOT
304,2.0,right,right,1.0,1.8668,0.0,4.0,4.0,4.0,1.0,GREAT_POTOO_3.jpg,WHITE_CHEEKED_TURACO_5.jpg,A3HMRQ4Y0NZKOT
305,3.0,left,left,1.0,1.6455,0.0,5.0,5.0,5.0,1.0,INLAND_DOTTEREL_4.jpg,CRESTED_KINGFISHER_1.jpg,A3HMRQ4Y0NZKOT
306,3.0,left,left,1.0,3.4902,0.0,6.0,6.0,6.0,1.0,LESSER_ADJUTANT_4.jpg,FAIRY_TERN_3.jpg,A3HMRQ4Y0NZKOT
307,3.0,right,right,1.0,2.0277,0.0,7.0,7.0,7.0,1.0,IVORY_GULL_2.jpg,ASIAN_CRESTED_IBIS_4.jpg,A3HMRQ4Y0NZKOT
308,2.0,left,right,0.0,2.8657,0.0,8.0,8.0,8.0,1.0,ASIAN_DOLLARD_BIRD_2.jpg,LOGGERHEAD_SHRIKE_4.jpg,A3HMRQ4Y0NZKOT
309,3.0,left,left,1.0,1.4952,0.0,9.0,9.0,9.0,1.0,RUBY_THROATED_HUMMINGBIRD_2.jpg,DUSKY_ROBIN_5.jpg,A3HMRQ4Y0NZKOT
310,3.0,right,right,1.0,2.272,0.0,10.0,10.0,10.0,1.0,BLACK_BAZA_4.jpg,BROWN_THRASHER_3.jpg,A3HMRQ4Y0NZKOT
311,1.0,left,right,0.0,1.6937,0.0,11.0,11.0,11.0,1.0,GYRFALCON_1.jpg,OSTRICH_1.jpg,A3HMRQ4Y0NZKOT
312,1.0,left,left,1.0,3.2886,0.0,12.0,12.0,12.0,1.0,PEACOCK_3.jpg,ANIANIAU_2.jpg,A3HMRQ4Y0NZKOT
313,1.0,right,left,0.0,7.0991,0.0,13.0,13.0,13.0,1.0,ROADRUNNER_2.jpg,GOLDEN_CHLOROPHONIA_5.jpg,A3HMRQ4Y0NZKOT
314,1.0,right,right,1.0,1.8145,0.0,14.0,14.0,14.0,1.0,SNOWY_OWL_5.jpg,RUFOUS_KINGFISHER_1.jpg,A3HMRQ4Y0NZKOT
315,2.0,left,left,1.0,2.5115,0.0,15.0,15.0,15.0,1.0,GREY_PLOVER_1.jpg,GOULDIAN_FINCH_4.jpg,A3HMRQ4Y0NZKOT
316,3.0,left,right,0.0,6.4059,0.0,16.0,16.0,16.0,1.0,INDIGO_BUNTING_1.jpg,DARWINS_FLYCATCHER_2.jpg,A3HMRQ4Y0NZKOT
317,2.0,left,left,1.0,1.5359,0.0,17.0,17.0,17.0,1.0,PYGMY_KINGFISHER_5.jpg,MASKED_BOOBY_5.jpg,A3HMRQ4Y0NZKOT
318,3.0,left,left,1.0,1.9729,0.0,18.0,18.0,18.0,1.0,BALI_STARLING_1.jpg,IBERIAN_MAGPIE_1.jpg,A3HMRQ4Y0NZKOT
319,2.0,right,right,1.0,2.4984,0.0,19.0,19.0,19.0,1.0,BROWN_THRASHER_4.jpg,FLAME_BOWERBIRD_3.jpg,A3HMRQ4Y0NZKOT
320,2.0,right,right,1.0,11.6737,0.0,20.0,20.0,20.0,1.0,ORANGE_BRESTED_BUNTING_3.jpg,LITTLE_AUK_5.jpg,A3HMRQ4Y0NZKOT
321,1.0,left,left,1.0,1.9719,0.0,21.0,21.0,21.0,1.0,GRAY_KINGBIRD_5.jpg,BALD_EAGLE_2.jpg,A3HMRQ4Y0NZKOT
322,3.0,right,right,1.0,2.023,0.0,22.0,22.0,22.0,1.0,GO_AWAY_BIRD_5.jpg,STRIPPED_SWALLOW_1.jpg,A3HMRQ4Y0NZKOT
323,3.0,left,left,1.0,2.7026,0.0,23.0,23.0,23.0,1.0,ARARIPE_MANAKIN_4.jpg,BORNEAN_LEAFBIRD_3.jpg,A3HMRQ4Y0NZKOT
324,1.0,left,left,1.0,2.2077,0.0,24.0,24.0,24.0,1.0,CERULEAN_WARBLER_1.jpg,AMERICAN_FLAMINGO_2.jpg,A3HMRQ4Y0NZKOT
325,3.0,right,right,1.0,1.8056,0.0,25.0,25.0,25.0,1.0,RED_BEARDED_BEE_EATER_1.jpg,VERMILION_FLYCATHER_3.jpg,A3HMRQ4Y0NZKOT
326,2.0,right,right,1.0,1.4946,0.0,26.0,26.0,26.0,1.0,GOLDEN_CHEEKED_WARBLER_3.jpg,BREWERS_BLACKBIRD_3.jpg,A3HMRQ4Y0NZKOT
327,2.0,right,right,1.0,3.0791,0.0,27.0,27.0,27.0,1.0,SPANGLED_COTINGA_4.jpg,BROWN_NOODY_3.jpg,A3HMRQ4Y0NZKOT
328,2.0,right,right,1.0,1.6725,0.0,28.0,28.0,28.0,1.0,EURASIAN_MAGPIE_4.jpg,DOUBLE_BRESTED_CORMARANT_5.jpg,A3HMRQ4Y0NZKOT
329,1.0,left,right,0.0,1.8544,0.0,29.0,29.0,29.0,1.0,EASTERN_TOWEE_2.jpg,SANDHILL_CRANE_2.jpg,A3HMRQ4Y0NZKOT
330,1.0,right,left,0.0,3.4123,0.0,30.0,30.0,30.0,1.0,AMERICAN_GOLDFINCH_4.jpg,NORTHERN_JACANA_3.jpg,A3HMRQ4Y0NZKOT
331,1.0,right,right,1.0,2.2006,0.0,31.0,31.0,31.0,1.0,DOUBLE_EYED_FIG_PARROT_5.jpg,MAGPIE_GOOSE_5.jpg,A3HMRQ4Y0NZKOT
332,3.0,right,right,1.0,3.0245,0.0,32.0,32.0,32.0,1.0,TOUCHAN_4.jpg,CRESTED_CARACARA_4.jpg,A3HMRQ4Y0NZKOT
333,2.0,right,right,1.0,2.5388,0.0,33.0,33.0,33.0,1.0,AFRICAN_FIREFINCH_1.jpg,CRESTED_NUTHATCH_2.jpg,A3HMRQ4Y0NZKOT
334,2.0,right,left,0.0,1.9381,0.0,34.0,34.0,34.0,1.0,ALEXANDRINE_PARAKEET_1.jpg,AFRICAN_PIED_HORNBILL_5.jpg,A3HMRQ4Y0NZKOT
335,1.0,right,right,1.0,1.9778,0.0,35.0,35.0,35.0,1.0,CUBAN_TODY_3.jpg,HAWAIIAN_GOOSE_4.jpg,A3HMRQ4Y0NZKOT
336,2.0,left,left,1.0,1.597,0.0,36.0,36.0,36.0,1.0,SHOEBILL_3.jpg,GILDED_FLICKER_5.jpg,A3HMRQ4Y0NZKOT
337,3.0,left,left,1.0,2.0957,0.0,37.0,37.0,37.0,1.0,AMERICAN_PIPIT_5.jpg,HEPATIC_TANAGER_5.jpg,A3HMRQ4Y0NZKOT
338,1.0,right,right,1.0,2.1894,0.0,38.0,38.0,38.0,1.0,CHIPPING_SPARROW_1.jpg,OCELLATED_TURKEY_1.jpg,A3HMRQ4Y0NZKOT
339,3.0,left,left,1.0,3.2614,0.0,39.0,39.0,39.0,1.0,IVORY_GULL_3.jpg,SNOWY_EGRET_4.jpg,A3HMRQ4Y0NZKOT
340,1.0,right,right,1.0,2.3266,0.0,40.0,40.0,40.0,1.0,AMERICAN_FLAMINGO_1.jpg,MALACHITE_KINGFISHER_2.jpg,A3HMRQ4Y0NZKOT
341,2.0,left,left,1.0,4.6182,0.0,41.0,41.0,41.0,1.0,MYNA_1.jpg,GREY_PLOVER_4.jpg,A3HMRQ4Y0NZKOT
342,1.0,right,right,1.0,4.2082,0.0,42.0,42.0,42.0,1.0,SPOONBILL_1.jpg,GOLDEN_CHEEKED_WARBLER_2.jpg,A3HMRQ4Y0NZKOT
343,2.0,right,left,0.0,4.4665,0.0,43.0,43.0,43.0,1.0,DOUBLE_BRESTED_CORMARANT_1.jpg,SPLENDID_WREN_1.jpg,A3HMRQ4Y0NZKOT
344,3.0,right,right,1.0,1.6699,0.0,44.0,44.0,44.0,1.0,CACTUS_WREN_3.jpg,LARK_BUNTING_2.jpg,A3HMRQ4Y0NZKOT
345,1.0,left,left,1.0,2.9205,0.0,45.0,45.0,45.0,1.0,CHUKAR_PARTRIDGE_5.jpg,OSTRICH_5.jpg,A3HMRQ4Y0NZKOT
346,3.0,left,left,1.0,2.6278,0.0,46.0,46.0,46.0,1.0,RED_HEADED_WOODPECKER_5.jpg,COLLARED_ARACARI_1.jpg,A3HMRQ4Y0NZKOT
347,3.0,left,left,1.0,1.4686,0.0,47.0,47.0,47.0,1.0,RUBY_THROATED_HUMMINGBIRD_3.jpg,NORTHERN_SHOVELER_1.jpg,A3HMRQ4Y0NZKOT
348,3.0,left,left,1.0,2.1258,0.0,48.0,48.0,48.0,1.0,CASPIAN_TERN_1.jpg,COMMON_LOON_2.jpg,A3HMRQ4Y0NZKOT
349,2.0,left,right,0.0,2.9307,0.0,49.0,49.0,49.0,1.0,PARUS_MAJOR_1.jpg,CALIFORNIA_GULL_2.jpg,A3HMRQ4Y0NZKOT
350,2.0,right,right,1.0,1.6897,0.0,50.0,50.0,50.0,1.0,EUROPEAN_GOLDFINCH_3.jpg,ALPINE_CHOUGH_4.jpg,A3HMRQ4Y0NZKOT
351,2.0,left,left,1.0,2.7013,0.0,51.0,51.0,51.0,1.0,KILLDEAR_2.jpg,CAATINGA_CACHOLOTE_4.jpg,A3HMRQ4Y0NZKOT
352,1.0,left,left,1.0,2.9456,0.0,52.0,52.0,52.0,1.0,INCA_TERN_4.jpg,ELLIOTS__PHEASANT_4.jpg,A3HMRQ4Y0NZKOT
353,2.0,left,left,1.0,1.6598,0.0,53.0,53.0,53.0,1.0,PINK_ROBIN_4.jpg,ALBATROSS_4.jpg,A3HMRQ4Y0NZKOT
354,3.0,right,right,1.0,6.2637,0.0,54.0,54.0,54.0,1.0,CRIMSON_SUNBIRD_5.jpg,ECUADORIAN_HILLSTAR_5.jpg,A3HMRQ4Y0NZKOT
355,2.0,left,left,1.0,1.5618,0.0,55.0,55.0,55.0,1.0,EUROPEAN_TURTLE_DOVE_3.jpg,PAINTED_BUNTING_3.jpg,A3HMRQ4Y0NZKOT
356,3.0,left,left,1.0,1.2327,0.0,56.0,56.0,56.0,1.0,IVORY_GULL_1.jpg,FAIRY_TERN_4.jpg,A3HMRQ4Y0NZKOT
357,1.0,right,right,1.0,2.0359,0.0,57.0,57.0,57.0,1.0,RED_BEARDED_BEE_EATER_3.jpg,KAGU_5.jpg,A3HMRQ4Y0NZKOT
358,3.0,left,left,1.0,1.8896,0.0,58.0,58.0,58.0,1.0,LESSER_ADJUTANT_5.jpg,RED_HEADED_WOODPECKER_1.jpg,A3HMRQ4Y0NZKOT
359,1.0,left,left,1.0,2.1222,0.0,59.0,59.0,59.0,1.0,SCARLET_TANAGER_2.jpg,BEARDED_BARBET_2.jpg,A3HMRQ4Y0NZKOT
360,1.0,right,left,0.0,2.9092,0.0,0.0,0.0,0.0,1.0,SCARLET_IBIS_3.jpg,CRESTED_NUTHATCH_2.jpg,A3MXI2O3JZ0TZH
361,2.0,left,right,0.0,2.0568,0.0,1.0,1.0,1.0,1.0,AMERICAN_PIPIT_5.jpg,GREEN_MAGPIE_1.jpg,A3MXI2O3JZ0TZH
362,1.0,left,left,1.0,2.1703,0.0,2.0,2.0,2.0,1.0,GRAY_KINGBIRD_5.jpg,BALD_EAGLE_2.jpg,A3MXI2O3JZ0TZH
363,3.0,right,right,1.0,2.0594,0.0,3.0,3.0,3.0,1.0,NORTHERN_BEARDLESS_TYRANNULET_5.jpg,EASTERN_TOWEE_2.jpg,A3MXI2O3JZ0TZH
364,3.0,right,right,1.0,1.6635,0.0,4.0,4.0,4.0,1.0,IBERIAN_MAGPIE_1.jpg,BALI_STARLING_1.jpg,A3MXI2O3JZ0TZH
365,2.0,right,right,1.0,1.0498,0.0,5.0,5.0,5.0,1.0,AMERICAN_FLAMINGO_5.jpg,CERULEAN_WARBLER_1.jpg,A3MXI2O3JZ0TZH
366,1.0,left,right,0.0,1.9337,0.0,6.0,6.0,6.0,1.0,MYNA_1.jpg,OSTRICH_3.jpg,A3MXI2O3JZ0TZH
367,3.0,left,right,0.0,1.7273,0.0,7.0,7.0,7.0,1.0,CASSOWARY_1.jpg,AFRICAN_OYSTER_CATCHER_2.jpg,A3MXI2O3JZ0TZH
368,1.0,right,left,0.0,0.5134,0.0,8.0,8.0,8.0,1.0,GILDED_FLICKER_2.jpg,DOUBLE_BRESTED_CORMARANT_5.jpg,A3MXI2O3JZ0TZH
369,3.0,right,right,1.0,0.8319,0.0,9.0,9.0,9.0,1.0,FRIGATE_1.jpg,RUBY_THROATED_HUMMINGBIRD_1.jpg,A3MXI2O3JZ0TZH
370,2.0,right,left,0.0,0.7714,0.0,10.0,10.0,10.0,1.0,INDIAN_PITTA_2.jpg,CRESTED_CARACARA_4.jpg,A3MXI2O3JZ0TZH
371,1.0,right,right,1.0,0.6069,0.0,11.0,11.0,11.0,1.0,FRIGATE_4.jpg,INDIGO_BUNTING_1.jpg,A3MXI2O3JZ0TZH
372,3.0,left,right,0.0,0.6777,0.0,12.0,12.0,12.0,1.0,LITTLE_AUK_5.jpg,BEARDED_BELLBIRD_1.jpg,A3MXI2O3JZ0TZH
373,3.0,right,left,0.0,0.845,0.0,13.0,13.0,13.0,1.0,SNOWY_EGRET_4.jpg,IVORY_GULL_3.jpg,A3MXI2O3JZ0TZH
374,2.0,left,right,0.0,0.3546,0.0,14.0,14.0,14.0,1.0,AFRICAN_PIED_HORNBILL_5.jpg,ALEXANDRINE_PARAKEET_1.jpg,A3MXI2O3JZ0TZH
375,3.0,left,left,1.0,0.6946,0.0,15.0,15.0,15.0,1.0,PARUS_MAJOR_1.jpg,PINK_ROBIN_3.jpg,A3MXI2O3JZ0TZH
376,3.0,right,right,1.0,0.3563,0.0,16.0,16.0,16.0,1.0,BORNEAN_LEAFBIRD_1.jpg,SCARLET_TANAGER_2.jpg,A3MXI2O3JZ0TZH
377,2.0,right,right,1.0,0.5079,0.0,17.0,17.0,17.0,1.0,CRAB_PLOVER_3.jpg,NORTHERN_JACANA_3.jpg,A3MXI2O3JZ0TZH
378,1.0,left,left,1.0,0.3775,0.0,18.0,18.0,18.0,1.0,TASMANIAN_HEN_5.jpg,GREEN_BROADBILL_1.jpg,A3MXI2O3JZ0TZH
379,2.0,right,left,0.0,0.5397,0.0,19.0,19.0,19.0,1.0,SPANGLED_COTINGA_4.jpg,BROWN_NOODY_3.jpg,A3MXI2O3JZ0TZH
380,1.0,right,right,1.0,0.3764,0.0,20.0,20.0,20.0,1.0,NORTHERN_MOCKINGBIRD_4.jpg,WHITE_CHEEKED_TURACO_5.jpg,A3MXI2O3JZ0TZH
381,3.0,right,right,1.0,0.3889,0.0,21.0,21.0,21.0,1.0,QUETZAL_3.jpg,FLAME_BOWERBIRD_3.jpg,A3MXI2O3JZ0TZH
382,1.0,right,left,0.0,0.4294,0.0,22.0,22.0,22.0,1.0,PEACOCK_1.jpg,LARK_BUNTING_2.jpg,A3MXI2O3JZ0TZH
383,3.0,left,left,1.0,0.5392,0.0,23.0,23.0,23.0,1.0,BROWN_THRASHER_3.jpg,BLACK_BAZA_4.jpg,A3MXI2O3JZ0TZH
384,3.0,left,right,0.0,0.373,0.0,24.0,24.0,24.0,1.0,HAWAIIAN_GOOSE_4.jpg,WATTLED_LAPWING_3.jpg,A3MXI2O3JZ0TZH
385,1.0,right,right,1.0,0.3886,0.0,25.0,25.0,25.0,1.0,GRANDALA_2.jpg,PYGMY_KINGFISHER_5.jpg,A3MXI2O3JZ0TZH
386,3.0,left,left,1.0,0.5215,0.0,26.0,26.0,26.0,1.0,ALPINE_CHOUGH_4.jpg,BOBOLINK_3.jpg,A3MXI2O3JZ0TZH
387,2.0,right,right,1.0,0.7184,0.0,27.0,27.0,27.0,1.0,RAINBOW_LORIKEET_5.jpg,LESSER_ADJUTANT_4.jpg,A3MXI2O3JZ0TZH
388,1.0,right,right,1.0,0.6396,0.0,28.0,28.0,28.0,1.0,TEAL_DUCK_2.jpg,EUROPEAN_TURTLE_DOVE_3.jpg,A3MXI2O3JZ0TZH
389,2.0,left,left,1.0,0.5075,0.0,29.0,29.0,29.0,1.0,ECUADORIAN_HILLSTAR_5.jpg,BOBOLINK_5.jpg,A3MXI2O3JZ0TZH
390,3.0,left,left,1.0,0.5863,0.0,30.0,30.0,30.0,1.0,LESSER_ADJUTANT_5.jpg,RED_HEADED_WOODPECKER_1.jpg,A3MXI2O3JZ0TZH
391,2.0,right,right,1.0,0.4307,0.0,31.0,31.0,31.0,1.0,OYSTER_CATCHER_2.jpg,ASIAN_CRESTED_IBIS_4.jpg,A3MXI2O3JZ0TZH
392,1.0,left,right,0.0,0.4535,0.0,32.0,32.0,32.0,1.0,GOLDEN_CHEEKED_WARBLER_2.jpg,SPOONBILL_1.jpg,A3MXI2O3JZ0TZH
393,2.0,right,left,0.0,0.5806,0.0,33.0,33.0,33.0,1.0,AMERICAN_PIPIT_1.jpg,OCELLATED_TURKEY_1.jpg,A3MXI2O3JZ0TZH
394,2.0,right,left,0.0,0.7934,0.0,34.0,34.0,34.0,1.0,FAIRY_PENGUIN_1.jpg,OVENBIRD_5.jpg,A3MXI2O3JZ0TZH
395,1.0,left,right,0.0,0.4555,0.0,35.0,35.0,35.0,1.0,RUBY_THROATED_HUMMINGBIRD_3.jpg,MALAGASY_WHITE_EYE_2.jpg,A3MXI2O3JZ0TZH
396,3.0,right,right,1.0,0.4872,0.0,36.0,36.0,36.0,1.0,BLACK_THROATED_BUSHTIT_1.jpg,CHUKAR_PARTRIDGE_5.jpg,A3MXI2O3JZ0TZH
397,3.0,right,right,1.0,0.6977,0.0,37.0,37.0,37.0,1.0,VIOLET_GREEN_SWALLOW_4.jpg,ASIAN_DOLLARD_BIRD_2.jpg,A3MXI2O3JZ0TZH
398,3.0,right,left,0.0,0.4952,0.0,38.0,38.0,38.0,1.0,COLLARED_ARACARI_1.jpg,RED_HEADED_WOODPECKER_5.jpg,A3MXI2O3JZ0TZH
399,2.0,left,left,1.0,0.4623,0.0,39.0,39.0,39.0,1.0,CASPIAN_TERN_1.jpg,EUROPEAN_GOLDFINCH_4.jpg,A3MXI2O3JZ0TZH
400,2.0,left,right,0.0,0.3957,0.0,40.0,40.0,40.0,1.0,BREWERS_BLACKBIRD_3.jpg,GOLDEN_CHEEKED_WARBLER_3.jpg,A3MXI2O3JZ0TZH
401,2.0,left,right,0.0,0.7713,0.0,41.0,41.0,41.0,1.0,MALACHITE_KINGFISHER_2.jpg,INCA_TERN_2.jpg,A3MXI2O3JZ0TZH
402,3.0,left,left,1.0,0.4448,0.0,42.0,42.0,42.0,1.0,INCA_TERN_4.jpg,BORNEAN_BRISTLEHEAD_5.jpg,A3MXI2O3JZ0TZH
403,2.0,right,left,0.0,0.6138,0.0,43.0,43.0,43.0,1.0,EASTERN_GOLDEN_WEAVER_5.jpg,IVORY_GULL_1.jpg,A3MXI2O3JZ0TZH
404,3.0,left,right,0.0,0.9119,0.0,44.0,44.0,44.0,1.0,GREY_PLOVER_1.jpg,ECUADORIAN_HILLSTAR_3.jpg,A3MXI2O3JZ0TZH
405,2.0,left,left,1.0,0.4212,0.0,45.0,45.0,45.0,1.0,RUBY_THROATED_HUMMINGBIRD_2.jpg,APAPANE_4.jpg,A3MXI2O3JZ0TZH
406,2.0,right,left,0.0,0.5101,0.0,46.0,46.0,46.0,1.0,HAMERKOP_1.jpg,MAGPIE_GOOSE_5.jpg,A3MXI2O3JZ0TZH
407,3.0,right,right,1.0,0.5557,0.0,47.0,47.0,47.0,1.0,AZURE_TIT_5.jpg,KILLDEAR_2.jpg,A3MXI2O3JZ0TZH
408,1.0,left,right,0.0,0.4034,0.0,48.0,48.0,48.0,1.0,PEACOCK_3.jpg,ANIANIAU_2.jpg,A3MXI2O3JZ0TZH
409,1.0,right,left,0.0,0.5933,0.0,49.0,49.0,49.0,1.0,DOUBLE_BRESTED_CORMARANT_4.jpg,STRIPPED_SWALLOW_1.jpg,A3MXI2O3JZ0TZH
410,2.0,left,left,1.0,0.4045,0.0,50.0,50.0,50.0,1.0,VERMILION_FLYCATHER_3.jpg,CALIFORNIA_GULL_1.jpg,A3MXI2O3JZ0TZH
411,2.0,right,right,1.0,1.0216,0.0,51.0,51.0,51.0,1.0,BLACK_VULTURE_1.jpg,ARARIPE_MANAKIN_4.jpg,A3MXI2O3JZ0TZH
412,3.0,right,left,0.0,0.7868,0.0,52.0,52.0,52.0,1.0,COMMON_IORA_4.jpg,PINK_ROBIN_4.jpg,A3MXI2O3JZ0TZH
413,1.0,right,right,1.0,0.6461,0.0,53.0,53.0,53.0,1.0,SNOWY_OWL_5.jpg,RUFOUS_KINGFISHER_1.jpg,A3MXI2O3JZ0TZH
414,1.0,left,right,0.0,0.5056,0.0,54.0,54.0,54.0,1.0,INLAND_DOTTEREL_4.jpg,CASSOWARY_2.jpg,A3MXI2O3JZ0TZH
415,1.0,right,left,0.0,0.3619,0.0,55.0,55.0,55.0,1.0,RED_BEARDED_BEE_EATER_3.jpg,KAGU_5.jpg,A3MXI2O3JZ0TZH
416,1.0,right,left,0.0,0.3879,0.0,56.0,56.0,56.0,1.0,POMARINE_JAEGER_5.jpg,SPLENDID_WREN_1.jpg,A3MXI2O3JZ0TZH
417,1.0,right,right,1.0,0.4642,0.0,57.0,57.0,57.0,1.0,ROADRUNNER_2.jpg,GOLDEN_CHLOROPHONIA_5.jpg,A3MXI2O3JZ0TZH
418,2.0,left,right,0.0,0.3727,0.0,58.0,58.0,58.0,1.0,SHOEBILL_3.jpg,GILDED_FLICKER_5.jpg,A3MXI2O3JZ0TZH
419,1.0,left,right,0.0,0.659,0.0,59.0,59.0,59.0,1.0,GYRFALCON_1.jpg,OSTRICH_1.jpg,A3MXI2O3JZ0TZH
420,3.0,left,left,1.0,10.9048,0.0,0.0,0.0,0.0,1.0,SCARLET_TANAGER_2.jpg,BORNEAN_LEAFBIRD_1.jpg,A3SSZZTJIJLD3Y
421,2.0,right,right,1.0,1.0935,0.0,1.0,1.0,1.0,1.0,AMERICAN_FLAMINGO_5.jpg,CERULEAN_WARBLER_1.jpg,A3SSZZTJIJLD3Y
422,3.0,right,right,1.0,2.9992,0.0,2.0,2.0,2.0,1.0,CRESTED_KINGFISHER_1.jpg,INLAND_DOTTEREL_4.jpg,A3SSZZTJIJLD3Y
423,1.0,right,left,0.0,0.4099,0.0,3.0,3.0,3.0,1.0,BANANAQUIT_2.jpg,RUBY_THROATED_HUMMINGBIRD_1.jpg,A3SSZZTJIJLD3Y
424,3.0,right,left,0.0,0.0863,0.0,4.0,4.0,4.0,1.0,DARWINS_FLYCATCHER_2.jpg,INDIGO_BUNTING_1.jpg,A3SSZZTJIJLD3Y
425,3.0,left,left,1.0,0.4755,0.0,5.0,5.0,5.0,1.0,SHOEBILL_3.jpg,BALD_EAGLE_5.jpg,A3SSZZTJIJLD3Y
426,2.0,right,right,1.0,3.8606,0.0,6.0,6.0,6.0,1.0,KING_VULTURE_3.jpg,LARK_BUNTING_2.jpg,A3SSZZTJIJLD3Y
427,1.0,left,right,0.0,13.9073,0.0,7.0,7.0,7.0,1.0,AFRICAN_PIED_HORNBILL_5.jpg,KIWI_4.jpg,A3SSZZTJIJLD3Y
428,1.0,left,right,0.0,10.409,0.0,8.0,8.0,8.0,1.0,HAWAIIAN_GOOSE_4.jpg,CUBAN_TODY_3.jpg,A3SSZZTJIJLD3Y
429,1.0,right,left,0.0,0.9253,0.0,9.0,9.0,9.0,1.0,PEACOCK_2.jpg,BROWN_NOODY_3.jpg,A3SSZZTJIJLD3Y
430,1.0,left,left,1.0,0.986,0.0,10.0,10.0,10.0,1.0,KAGU_5.jpg,RED_BEARDED_BEE_EATER_3.jpg,A3SSZZTJIJLD3Y
431,1.0,left,right,0.0,0.8539,0.0,11.0,11.0,11.0,1.0,RUBY_THROATED_HUMMINGBIRD_2.jpg,GOLDEN_CHLOROPHONIA_2.jpg,A3SSZZTJIJLD3Y
432,1.0,left,left,1.0,1.3006,0.0,12.0,12.0,12.0,1.0,LESSER_ADJUTANT_5.jpg,GREEN_BROADBILL_4.jpg,A3SSZZTJIJLD3Y
433,3.0,left,left,1.0,2.9545,0.0,13.0,13.0,13.0,1.0,LESSER_ADJUTANT_4.jpg,FAIRY_TERN_3.jpg,A3SSZZTJIJLD3Y
434,2.0,right,left,0.0,0.8414,0.0,14.0,14.0,14.0,1.0,ORANGE_BRESTED_BUNTING_3.jpg,LITTLE_AUK_5.jpg,A3SSZZTJIJLD3Y
435,3.0,left,right,0.0,33.6888,0.0,15.0,15.0,15.0,1.0,IVORY_GULL_3.jpg,SNOWY_EGRET_4.jpg,A3SSZZTJIJLD3Y
436,1.0,right,right,1.0,9.6974,0.0,16.0,16.0,16.0,1.0,FAIRY_PENGUIN_5.jpg,CRESTED_CARACARA_4.jpg,A3SSZZTJIJLD3Y
437,1.0,left,left,1.0,2.631,0.0,17.0,17.0,17.0,1.0,MYNA_1.jpg,OSTRICH_3.jpg,A3SSZZTJIJLD3Y
438,3.0,left,left,1.0,0.636,0.0,18.0,18.0,18.0,1.0,CASPIAN_TERN_1.jpg,COMMON_LOON_2.jpg,A3SSZZTJIJLD3Y
439,2.0,right,right,1.0,5.4002,0.0,19.0,19.0,19.0,1.0,RAZORBILL_1.jpg,CHUKAR_PARTRIDGE_5.jpg,A3SSZZTJIJLD3Y
440,2.0,left,left,1.0,3.4162,0.0,20.0,20.0,20.0,1.0,RUBY_THROATED_HUMMINGBIRD_3.jpg,MYNA_5.jpg,A3SSZZTJIJLD3Y
441,3.0,right,left,0.0,0.3898,0.0,21.0,21.0,21.0,1.0,BOBOLINK_3.jpg,ALPINE_CHOUGH_4.jpg,A3SSZZTJIJLD3Y
442,3.0,right,left,0.0,0.3847,0.0,22.0,22.0,22.0,1.0,FAIRY_TERN_4.jpg,IVORY_GULL_1.jpg,A3SSZZTJIJLD3Y
443,2.0,left,left,1.0,0.742,0.0,23.0,23.0,23.0,1.0,GOLDEN_CHEEKED_WARBLER_2.jpg,HOUSE_FINCH_2.jpg,A3SSZZTJIJLD3Y
444,2.0,left,right,0.0,9.974,0.0,24.0,24.0,24.0,1.0,OVENBIRD_5.jpg,FAIRY_PENGUIN_1.jpg,A3SSZZTJIJLD3Y
445,1.0,right,right,1.0,0.2434,0.0,25.0,25.0,25.0,1.0,EMU_2.jpg,AMERICAN_PIPIT_5.jpg,A3SSZZTJIJLD3Y
446,1.0,right,left,0.0,5.8533,0.0,26.0,26.0,26.0,1.0,OSTRICH_1.jpg,GYRFALCON_1.jpg,A3SSZZTJIJLD3Y
447,2.0,right,right,1.0,12.5952,0.0,27.0,27.0,27.0,1.0,GOULDIAN_FINCH_4.jpg,GREY_PLOVER_1.jpg,A3SSZZTJIJLD3Y
448,3.0,left,left,1.0,0.3238,0.0,28.0,28.0,28.0,1.0,OCELLATED_TURKEY_1.jpg,PURPLE_SWAMPHEN_4.jpg,A3SSZZTJIJLD3Y
449,3.0,left,left,1.0,3.1095,0.0,29.0,29.0,29.0,1.0,GOLDEN_CHLOROPHONIA_5.jpg,VERMILION_FLYCATHER_5.jpg,A3SSZZTJIJLD3Y
450,3.0,left,left,1.0,0.5568,0.0,30.0,30.0,30.0,1.0,WHITE_CHEEKED_TURACO_5.jpg,PYGMY_KINGFISHER_2.jpg,A3SSZZTJIJLD3Y
451,2.0,right,left,0.0,0.3902,0.0,31.0,31.0,31.0,1.0,MAGPIE_GOOSE_4.jpg,STRIPPED_SWALLOW_1.jpg,A3SSZZTJIJLD3Y
452,2.0,right,left,0.0,0.3765,0.0,32.0,32.0,32.0,1.0,CALIFORNIA_GULL_2.jpg,PARUS_MAJOR_1.jpg,A3SSZZTJIJLD3Y
453,2.0,right,left,0.0,0.3912,0.0,33.0,33.0,33.0,1.0,CRAB_PLOVER_3.jpg,NORTHERN_JACANA_3.jpg,A3SSZZTJIJLD3Y
454,3.0,right,left,0.0,0.6801,0.0,34.0,34.0,34.0,1.0,DOUBLE_EYED_FIG_PARROT_4.jpg,PYGMY_KINGFISHER_5.jpg,A3SSZZTJIJLD3Y
455,3.0,left,left,1.0,1.1178,0.0,35.0,35.0,35.0,1.0,CRESTED_NUTHATCH_2.jpg,CANARY_1.jpg,A3SSZZTJIJLD3Y
456,1.0,right,right,1.0,1.9671,0.0,36.0,36.0,36.0,1.0,KIWI_3.jpg,ARARIPE_MANAKIN_4.jpg,A3SSZZTJIJLD3Y
457,3.0,left,right,0.0,1.3048,0.0,37.0,37.0,37.0,1.0,ASIAN_DOLLARD_BIRD_2.jpg,VIOLET_GREEN_SWALLOW_4.jpg,A3SSZZTJIJLD3Y
458,2.0,left,right,0.0,0.5624,0.0,38.0,38.0,38.0,1.0,ECUADORIAN_HILLSTAR_5.jpg,BOBOLINK_5.jpg,A3SSZZTJIJLD3Y
459,1.0,left,left,1.0,8.7751,0.0,39.0,39.0,39.0,1.0,TASMANIAN_HEN_5.jpg,GREEN_BROADBILL_1.jpg,A3SSZZTJIJLD3Y
460,2.0,left,right,0.0,11.9783,0.0,40.0,40.0,40.0,1.0,FLAME_BOWERBIRD_3.jpg,BROWN_THRASHER_4.jpg,A3SSZZTJIJLD3Y
461,1.0,left,right,0.0,0.5816,0.0,41.0,41.0,41.0,1.0,VERMILION_FLYCATHER_3.jpg,INDIAN_BUSTARD_1.jpg,A3SSZZTJIJLD3Y
462,2.0,right,right,1.0,0.388,0.0,42.0,42.0,42.0,1.0,PURPLE_FINCH_2.jpg,BALI_STARLING_1.jpg,A3SSZZTJIJLD3Y
463,2.0,left,left,1.0,63.7315,0.0,43.0,43.0,43.0,1.0,EASTERN_TOWEE_2.jpg,GOLDEN_CHLOROPHONIA_1.jpg,A3SSZZTJIJLD3Y
464,1.0,left,left,1.0,3.0001,0.0,44.0,44.0,44.0,1.0,RED_HEADED_WOODPECKER_5.jpg,ASHY_STORM_PETREL_2.jpg,A3SSZZTJIJLD3Y
465,3.0,right,right,1.0,0.0073,0.0,45.0,45.0,45.0,1.0,BORNEAN_BRISTLEHEAD_5.jpg,INCA_TERN_4.jpg,A3SSZZTJIJLD3Y
466,1.0,right,right,1.0,0.3319,0.0,46.0,46.0,46.0,1.0,SPOONBILL_3.jpg,PINK_ROBIN_4.jpg,A3SSZZTJIJLD3Y
467,1.0,right,left,0.0,0.4697,0.0,47.0,47.0,47.0,1.0,AMERICAN_FLAMINGO_1.jpg,MALACHITE_KINGFISHER_2.jpg,A3SSZZTJIJLD3Y
468,2.0,left,right,0.0,0.4146,0.0,48.0,48.0,48.0,1.0,EUROPEAN_TURTLE_DOVE_3.jpg,PAINTED_BUNTING_3.jpg,A3SSZZTJIJLD3Y
469,2.0,left,left,1.0,17.8055,0.0,49.0,49.0,49.0,1.0,ASIAN_CRESTED_IBIS_4.jpg,OYSTER_CATCHER_2.jpg,A3SSZZTJIJLD3Y
470,2.0,left,right,0.0,1.4215,0.0,50.0,50.0,50.0,1.0,DOUBLE_BRESTED_CORMARANT_5.jpg,EURASIAN_MAGPIE_4.jpg,A3SSZZTJIJLD3Y
471,3.0,left,left,1.0,0.6199,0.0,51.0,51.0,51.0,1.0,SPLENDID_WREN_1.jpg,CUBAN_TODY_4.jpg,A3SSZZTJIJLD3Y
472,1.0,left,right,0.0,0.5197,0.0,52.0,52.0,52.0,1.0,BROWN_THRASHER_3.jpg,DOUBLE_EYED_FIG_PARROT_3.jpg,A3SSZZTJIJLD3Y
473,2.0,right,left,0.0,0.5389,0.0,53.0,53.0,53.0,1.0,MAGPIE_GOOSE_3.jpg,RUFOUS_KINGFISHER_1.jpg,A3SSZZTJIJLD3Y
474,2.0,right,right,1.0,45.4295,0.0,54.0,54.0,54.0,1.0,CAATINGA_CACHOLOTE_4.jpg,KILLDEAR_2.jpg,A3SSZZTJIJLD3Y
475,1.0,right,right,1.0,0.2374,0.0,55.0,55.0,55.0,1.0,GUINEA_TURACO_3.jpg,BREWERS_BLACKBIRD_3.jpg,A3SSZZTJIJLD3Y
476,1.0,right,right,1.0,0.0951,0.0,56.0,56.0,56.0,1.0,DOUBLE_EYED_FIG_PARROT_5.jpg,MAGPIE_GOOSE_5.jpg,A3SSZZTJIJLD3Y
477,3.0,left,right,0.0,0.1669,0.0,57.0,57.0,57.0,1.0,GRAY_KINGBIRD_5.jpg,AFRICAN_FIREFINCH_3.jpg,A3SSZZTJIJLD3Y
478,3.0,right,right,1.0,0.1535,0.0,58.0,58.0,58.0,1.0,CHATTERING_LORY_2.jpg,PEACOCK_3.jpg,A3SSZZTJIJLD3Y
479,3.0,left,right,0.0,0.1714,0.0,59.0,59.0,59.0,1.0,CASSOWARY_1.jpg,AFRICAN_OYSTER_CATCHER_2.jpg,A3SSZZTJIJLD3Y
480,3.0,left,left,1.0,4.9242,0.0,0.0,0.0,0.0,1.0,CRESTED_NUTHATCH_2.jpg,CANARY_1.jpg,ABVBYS63BZWZ6
481,2.0,right,right,1.0,6.4708,0.0,1.0,1.0,1.0,1.0,KING_VULTURE_3.jpg,LARK_BUNTING_2.jpg,ABVBYS63BZWZ6
482,3.0,left,left,1.0,4.0509,0.0,2.0,2.0,2.0,1.0,AFRICAN_PIED_HORNBILL_5.jpg,CAPUCHINBIRD_2.jpg,ABVBYS63BZWZ6
483,1.0,left,left,1.0,2.4355,0.0,3.0,3.0,3.0,1.0,EASTERN_TOWEE_2.jpg,SANDHILL_CRANE_2.jpg,ABVBYS63BZWZ6
484,3.0,left,left,1.0,2.9805,0.0,4.0,4.0,4.0,1.0,INLAND_DOTTEREL_4.jpg,CRESTED_KINGFISHER_1.jpg,ABVBYS63BZWZ6
485,1.0,left,right,0.0,4.7222,0.0,5.0,5.0,5.0,1.0,SCARLET_TANAGER_2.jpg,BEARDED_BARBET_2.jpg,ABVBYS63BZWZ6
486,1.0,left,right,0.0,2.1785,0.0,6.0,6.0,6.0,1.0,MAGPIE_GOOSE_5.jpg,DOUBLE_EYED_FIG_PARROT_5.jpg,ABVBYS63BZWZ6
487,3.0,right,left,0.0,2.3969,0.0,7.0,7.0,7.0,1.0,CHATTERING_LORY_2.jpg,PEACOCK_3.jpg,ABVBYS63BZWZ6
488,3.0,left,left,1.0,2.8712,0.0,8.0,8.0,8.0,1.0,INCA_TERN_4.jpg,BORNEAN_BRISTLEHEAD_5.jpg,ABVBYS63BZWZ6
489,2.0,left,left,1.0,2.7219,0.0,9.0,9.0,9.0,1.0,AMERICAN_PIPIT_5.jpg,GREEN_MAGPIE_1.jpg,ABVBYS63BZWZ6
490,2.0,left,left,1.0,2.8232,0.0,10.0,10.0,10.0,1.0,SPLENDID_WREN_1.jpg,DOUBLE_BRESTED_CORMARANT_1.jpg,ABVBYS63BZWZ6
491,3.0,right,left,0.0,3.5062,0.0,11.0,11.0,11.0,1.0,BOBOLINK_3.jpg,ALPINE_CHOUGH_4.jpg,ABVBYS63BZWZ6
492,1.0,left,left,1.0,30.8797,0.0,12.0,12.0,12.0,1.0,CASPIAN_TERN_1.jpg,GREAT_GRAY_OWL_4.jpg,ABVBYS63BZWZ6
493,3.0,left,left,1.0,2.9967,0.0,13.0,13.0,13.0,1.0,INDIGO_BUNTING_1.jpg,DARWINS_FLYCATCHER_2.jpg,ABVBYS63BZWZ6
494,3.0,right,right,1.0,2.4016,0.0,14.0,14.0,14.0,1.0,QUETZAL_3.jpg,FLAME_BOWERBIRD_3.jpg,ABVBYS63BZWZ6
495,3.0,left,right,0.0,6.7406,0.0,15.0,15.0,15.0,1.0,OCELLATED_TURKEY_1.jpg,PURPLE_SWAMPHEN_4.jpg,ABVBYS63BZWZ6
496,3.0,left,right,0.0,2.0183,0.0,16.0,16.0,16.0,1.0,RUBY_THROATED_HUMMINGBIRD_1.jpg,FRIGATE_1.jpg,ABVBYS63BZWZ6
497,2.0,left,left,1.0,2.3625,0.0,17.0,17.0,17.0,1.0,WHITE_CHEEKED_TURACO_5.jpg,GREAT_POTOO_3.jpg,ABVBYS63BZWZ6
498,2.0,left,left,1.0,1.8389,0.0,18.0,18.0,18.0,1.0,RUFOUS_KINGFISHER_1.jpg,MAGPIE_GOOSE_3.jpg,ABVBYS63BZWZ6
499,3.0,right,left,0.0,6.8803,0.0,19.0,19.0,19.0,1.0,COMMON_IORA_4.jpg,PINK_ROBIN_4.jpg,ABVBYS63BZWZ6
500,2.0,left,left,1.0,3.6373,0.0,20.0,20.0,20.0,1.0,PARUS_MAJOR_1.jpg,CALIFORNIA_GULL_2.jpg,ABVBYS63BZWZ6
501,2.0,left,right,0.0,1.556,0.0,21.0,21.0,21.0,1.0,BALI_STARLING_1.jpg,PURPLE_FINCH_2.jpg,ABVBYS63BZWZ6
502,1.0,right,right,1.0,3.7763,0.0,22.0,22.0,22.0,1.0,CUBAN_TODY_3.jpg,HAWAIIAN_GOOSE_4.jpg,ABVBYS63BZWZ6
503,2.0,left,right,0.0,1.9354,0.0,23.0,23.0,23.0,1.0,TASMANIAN_HEN_5.jpg,AFRICAN_EMERALD_CUCKOO_5.jpg,ABVBYS63BZWZ6
504,1.0,right,left,0.0,0.8794,0.0,24.0,24.0,24.0,1.0,RED_BEARDED_BEE_EATER_3.jpg,KAGU_5.jpg,ABVBYS63BZWZ6
505,1.0,right,right,1.0,1.436,0.0,25.0,25.0,25.0,1.0,OSTRICH_5.jpg,CHUKAR_PARTRIDGE_5.jpg,ABVBYS63BZWZ6
506,1.0,left,right,0.0,2.1911,0.0,26.0,26.0,26.0,1.0,DOUBLE_BRESTED_CORMARANT_5.jpg,GILDED_FLICKER_2.jpg,ABVBYS63BZWZ6
507,1.0,right,right,1.0,3.3936,0.0,27.0,27.0,27.0,1.0,GUINEA_TURACO_3.jpg,BREWERS_BLACKBIRD_3.jpg,ABVBYS63BZWZ6
508,2.0,left,right,0.0,6.0462,0.0,28.0,28.0,28.0,1.0,STRIPPED_SWALLOW_1.jpg,MAGPIE_GOOSE_4.jpg,ABVBYS63BZWZ6
509,2.0,left,right,0.0,6.8241,0.0,29.0,29.0,29.0,1.0,IVORY_GULL_1.jpg,EASTERN_GOLDEN_WEAVER_5.jpg,ABVBYS63BZWZ6
510,3.0,right,right,1.0,5.336,0.0,30.0,30.0,30.0,1.0,SCARLET_IBIS_4.jpg,NORTHERN_JACANA_3.jpg,ABVBYS63BZWZ6
511,1.0,right,right,1.0,3.0336,0.0,31.0,31.0,31.0,1.0,MYNA_4.jpg,OVENBIRD_5.jpg,ABVBYS63BZWZ6
512,2.0,right,right,1.0,2.4668,0.0,32.0,32.0,32.0,1.0,INCA_TERN_2.jpg,MALACHITE_KINGFISHER_2.jpg,ABVBYS63BZWZ6
513,2.0,right,right,1.0,1.7835,0.0,33.0,33.0,33.0,1.0,LOGGERHEAD_SHRIKE_4.jpg,ASIAN_DOLLARD_BIRD_2.jpg,ABVBYS63BZWZ6
514,2.0,left,right,0.0,4.7565,0.0,34.0,34.0,34.0,1.0,LESSER_ADJUTANT_5.jpg,GAMBELS_QUAIL_1.jpg,ABVBYS63BZWZ6
515,1.0,right,right,1.0,1.8169,0.0,35.0,35.0,35.0,1.0,AMERICAN_FLAMINGO_2.jpg,CERULEAN_WARBLER_1.jpg,ABVBYS63BZWZ6
516,3.0,right,left,0.0,2.4948,0.0,36.0,36.0,36.0,1.0,BEARDED_BELLBIRD_1.jpg,LITTLE_AUK_5.jpg,ABVBYS63BZWZ6
517,1.0,right,right,1.0,2.7467,0.0,37.0,37.0,37.0,1.0,TEAL_DUCK_2.jpg,EUROPEAN_TURTLE_DOVE_3.jpg,ABVBYS63BZWZ6
518,1.0,left,right,0.0,8.4197,0.0,38.0,38.0,38.0,1.0,CASSOWARY_1.jpg,ROSY_FACED_LOVEBIRD_4.jpg,ABVBYS63BZWZ6
519,1.0,right,right,1.0,1.9604,0.0,39.0,39.0,39.0,1.0,HYACINTH_MACAW_3.jpg,GREY_PLOVER_1.jpg,ABVBYS63BZWZ6
520,3.0,right,right,1.0,3.1037,0.0,40.0,40.0,40.0,1.0,AZURE_TIT_5.jpg,KILLDEAR_2.jpg,ABVBYS63BZWZ6
521,3.0,right,right,1.0,1.7742,0.0,41.0,41.0,41.0,1.0,SNOWY_EGRET_4.jpg,IVORY_GULL_3.jpg,ABVBYS63BZWZ6
522,3.0,left,right,0.0,1.9463,0.0,42.0,42.0,42.0,1.0,RUBY_THROATED_HUMMINGBIRD_2.jpg,DUSKY_ROBIN_5.jpg,ABVBYS63BZWZ6
523,3.0,left,right,0.0,1.4301,0.0,43.0,43.0,43.0,1.0,SHOEBILL_3.jpg,BALD_EAGLE_5.jpg,ABVBYS63BZWZ6
524,2.0,left,right,0.0,2.8675,0.0,44.0,44.0,44.0,1.0,GOLDEN_CHLOROPHONIA_5.jpg,COMMON_HOUSE_MARTIN_4.jpg,ABVBYS63BZWZ6
525,2.0,left,right,0.0,3.3607,0.0,45.0,45.0,45.0,1.0,VERMILION_FLYCATHER_3.jpg,CALIFORNIA_GULL_1.jpg,ABVBYS63BZWZ6
526,2.0,right,left,0.0,2.0723,0.0,46.0,46.0,46.0,1.0,BOBOLINK_5.jpg,ECUADORIAN_HILLSTAR_5.jpg,ABVBYS63BZWZ6
527,1.0,right,right,1.0,3.0045,0.0,47.0,47.0,47.0,1.0,ASHY_STORM_PETREL_2.jpg,RED_HEADED_WOODPECKER_5.jpg,ABVBYS63BZWZ6
528,3.0,right,right,1.0,1.9639,0.0,48.0,48.0,48.0,1.0,NORTHERN_SHOVELER_1.jpg,RUBY_THROATED_HUMMINGBIRD_3.jpg,ABVBYS63BZWZ6
529,1.0,right,right,1.0,3.3666,0.0,49.0,49.0,49.0,1.0,FAIRY_PENGUIN_5.jpg,CRESTED_CARACARA_4.jpg,ABVBYS63BZWZ6
530,2.0,right,right,1.0,1.8773,0.0,50.0,50.0,50.0,1.0,RAINBOW_LORIKEET_5.jpg,LESSER_ADJUTANT_4.jpg,ABVBYS63BZWZ6
531,2.0,left,right,0.0,2.4581,0.0,51.0,51.0,51.0,1.0,ASIAN_CRESTED_IBIS_4.jpg,OYSTER_CATCHER_2.jpg,ABVBYS63BZWZ6
532,1.0,left,left,1.0,1.8953,0.0,52.0,52.0,52.0,1.0,BROWN_NOODY_3.jpg,PEACOCK_2.jpg,ABVBYS63BZWZ6
533,1.0,right,right,1.0,1.5402,0.0,53.0,53.0,53.0,1.0,SPOONBILL_1.jpg,GOLDEN_CHEEKED_WARBLER_2.jpg,ABVBYS63BZWZ6
534,2.0,left,left,1.0,1.7582,0.0,54.0,54.0,54.0,1.0,ARARIPE_MANAKIN_4.jpg,BLACK_VULTURE_1.jpg,ABVBYS63BZWZ6
535,3.0,left,left,1.0,1.9019,0.0,55.0,55.0,55.0,1.0,MYNA_1.jpg,PARADISE_TANAGER_3.jpg,ABVBYS63BZWZ6
536,3.0,left,left,1.0,1.9215,0.0,56.0,56.0,56.0,1.0,GRAY_KINGBIRD_5.jpg,AFRICAN_FIREFINCH_3.jpg,ABVBYS63BZWZ6
537,1.0,left,left,1.0,1.6525,0.0,57.0,57.0,57.0,1.0,PYGMY_KINGFISHER_5.jpg,GRANDALA_2.jpg,ABVBYS63BZWZ6
538,1.0,left,left,1.0,2.0445,0.0,58.0,58.0,58.0,1.0,GYRFALCON_1.jpg,OSTRICH_1.jpg,ABVBYS63BZWZ6
539,2.0,left,left,1.0,1.7297,0.0,59.0,59.0,59.0,1.0,BROWN_THRASHER_3.jpg,OYSTER_CATCHER_4.jpg,ABVBYS63BZWZ6
540,3.0,left,left,1.0,4.460800001,0.0,0.0,0.0,0.0,1.0,NORTHERN_JACANA_3.jpg,SCARLET_IBIS_4.jpg,AL84FSIS4UM1Q
541,3.0,right,right,1.0,1.474700001,0.0,1.0,1.0,1.0,1.0,QUETZAL_3.jpg,FLAME_BOWERBIRD_3.jpg,AL84FSIS4UM1Q
542,2.0,right,right,1.0,1.722900002,0.0,2.0,2.0,2.0,1.0,MASKED_BOOBY_5.jpg,PYGMY_KINGFISHER_5.jpg,AL84FSIS4UM1Q
543,2.0,right,left,0.0,2.3721,0.0,3.0,3.0,3.0,1.0,SCARLET_MACAW_1.jpg,CASSOWARY_1.jpg,AL84FSIS4UM1Q
544,2.0,right,left,0.0,2.114799999,0.0,4.0,4.0,4.0,1.0,BOBOLINK_5.jpg,ECUADORIAN_HILLSTAR_5.jpg,AL84FSIS4UM1Q
545,3.0,right,right,1.0,1.7599,0.0,5.0,5.0,5.0,1.0,WATTLED_LAPWING_3.jpg,HAWAIIAN_GOOSE_4.jpg,AL84FSIS4UM1Q
546,2.0,right,left,0.0,2.231700001,0.0,6.0,6.0,6.0,1.0,CALIFORNIA_GULL_1.jpg,VERMILION_FLYCATHER_3.jpg,AL84FSIS4UM1Q
547,3.0,left,left,1.0,1.6836,0.0,7.0,7.0,7.0,1.0,MYNA_1.jpg,PARADISE_TANAGER_3.jpg,AL84FSIS4UM1Q
548,3.0,left,right,0.0,1.7529,0.0,8.0,8.0,8.0,1.0,AFRICAN_PIED_HORNBILL_5.jpg,CAPUCHINBIRD_2.jpg,AL84FSIS4UM1Q
549,1.0,left,left,1.0,2.488299999,0.0,9.0,9.0,9.0,1.0,EASTERN_TOWEE_2.jpg,SANDHILL_CRANE_2.jpg,AL84FSIS4UM1Q
550,2.0,left,right,0.0,2.4546,0.0,10.0,10.0,10.0,1.0,ARARIPE_MANAKIN_4.jpg,BLACK_VULTURE_1.jpg,AL84FSIS4UM1Q
551,2.0,right,left,0.0,1.862199999,0.0,11.0,11.0,11.0,1.0,NORTHERN_GANNET_2.jpg,SCARLET_TANAGER_2.jpg,AL84FSIS4UM1Q
552,2.0,left,right,0.0,1.6759,0.0,12.0,12.0,12.0,1.0,RED_HEADED_WOODPECKER_5.jpg,CRIMSON_CHAT_3.jpg,AL84FSIS4UM1Q
553,3.0,right,right,1.0,2.6806,0.0,13.0,13.0,13.0,1.0,CAPE_LONGCLAW_2.jpg,BREWERS_BLACKBIRD_3.jpg,AL84FSIS4UM1Q
554,1.0,left,left,1.0,1.434200001,0.0,14.0,14.0,14.0,1.0,AMERICAN_PIPIT_5.jpg,EMU_2.jpg,AL84FSIS4UM1Q
555,2.0,right,right,1.0,1.6269,0.0,15.0,15.0,15.0,1.0,NICOBAR_PIGEON_4.jpg,INLAND_DOTTEREL_4.jpg,AL84FSIS4UM1Q
556,1.0,right,left,0.0,1.5415,0.0,16.0,16.0,16.0,1.0,TEAL_DUCK_2.jpg,EUROPEAN_TURTLE_DOVE_3.jpg,AL84FSIS4UM1Q
557,3.0,left,right,0.0,1.6115,0.0,17.0,17.0,17.0,1.0,RUBY_THROATED_HUMMINGBIRD_2.jpg,DUSKY_ROBIN_5.jpg,AL84FSIS4UM1Q
558,1.0,right,right,1.0,1.47,0.0,18.0,18.0,18.0,1.0,SPOONBILL_3.jpg,PINK_ROBIN_4.jpg,AL84FSIS4UM1Q
559,2.0,right,left,0.0,1.5441,0.0,19.0,19.0,19.0,1.0,ASHY_STORM_PETREL_1.jpg,KAGU_5.jpg,AL84FSIS4UM1Q
560,3.0,right,right,1.0,1.4016,0.0,20.0,20.0,20.0,1.0,PINK_ROBIN_3.jpg,PARUS_MAJOR_1.jpg,AL84FSIS4UM1Q
561,3.0,left,left,1.0,1.5015,0.0,21.0,21.0,21.0,1.0,ASIAN_CRESTED_IBIS_4.jpg,IVORY_GULL_2.jpg,AL84FSIS4UM1Q
562,2.0,right,right,1.0,2.1264,0.0,22.0,22.0,22.0,1.0,EUROPEAN_GOLDFINCH_3.jpg,ALPINE_CHOUGH_4.jpg,AL84FSIS4UM1Q
563,2.0,right,right,1.0,1.3141,0.0,23.0,23.0,23.0,1.0,SPANGLED_COTINGA_4.jpg,BROWN_NOODY_3.jpg,AL84FSIS4UM1Q
564,1.0,left,right,0.0,1.460700001,0.0,24.0,24.0,24.0,1.0,KILLDEAR_2.jpg,PEACOCK_5.jpg,AL84FSIS4UM1Q
565,3.0,left,right,0.0,1.467200001,0.0,25.0,25.0,25.0,1.0,DOUBLE_BRESTED_CORMARANT_5.jpg,CHINESE_POND_HERON_2.jpg,AL84FSIS4UM1Q
566,1.0,right,left,0.0,1.397800001,0.0,26.0,26.0,26.0,1.0,EASTERN_MEADOWLARK_1.jpg,SHOEBILL_3.jpg,AL84FSIS4UM1Q
567,1.0,right,right,1.0,2.1259,0.0,27.0,27.0,27.0,1.0,ALTAMIRA_YELLOWTHROAT_5.jpg,LESSER_ADJUTANT_4.jpg,AL84FSIS4UM1Q
568,1.0,left,left,1.0,1.4486,0.0,28.0,28.0,28.0,1.0,RUBY_THROATED_HUMMINGBIRD_3.jpg,MALAGASY_WHITE_EYE_2.jpg,AL84FSIS4UM1Q
569,1.0,left,right,0.0,1.9415,0.0,29.0,29.0,29.0,1.0,LITTLE_AUK_5.jpg,SANDHILL_CRANE_3.jpg,AL84FSIS4UM1Q
570,2.0,right,right,1.0,1.488699999,0.0,30.0,30.0,30.0,1.0,AFRICAN_FIREFINCH_1.jpg,CRESTED_NUTHATCH_2.jpg,AL84FSIS4UM1Q
571,2.0,right,left,0.0,1.3271,0.0,31.0,31.0,31.0,1.0,NORTHERN_GANNET_1.jpg,INDIGO_BUNTING_1.jpg,AL84FSIS4UM1Q
572,3.0,left,right,0.0,1.942099998,0.0,32.0,32.0,32.0,1.0,LESSER_ADJUTANT_5.jpg,RED_HEADED_WOODPECKER_1.jpg,AL84FSIS4UM1Q
573,1.0,left,right,0.0,1.691599998,0.0,33.0,33.0,33.0,1.0,ASIAN_DOLLARD_BIRD_2.jpg,ALBATROSS_2.jpg,AL84FSIS4UM1Q
574,3.0,right,left,0.0,1.8711,0.0,34.0,34.0,34.0,1.0,OYSTER_CATCHER_3.jpg,MAGPIE_GOOSE_5.jpg,AL84FSIS4UM1Q
575,1.0,right,right,1.0,2.2546,0.0,35.0,35.0,35.0,1.0,INDIGO_FLYCATCHER_2.jpg,IVORY_GULL_3.jpg,AL84FSIS4UM1Q
576,1.0,right,right,1.0,1.546200001,0.0,36.0,36.0,36.0,1.0,SNOWY_OWL_5.jpg,RUFOUS_KINGFISHER_1.jpg,AL84FSIS4UM1Q
577,3.0,right,right,1.0,1.301200001,0.0,37.0,37.0,37.0,1.0,AFRICAN_FIREFINCH_3.jpg,GRAY_KINGBIRD_5.jpg,AL84FSIS4UM1Q
578,2.0,right,right,1.0,2.233800001,0.0,38.0,38.0,38.0,1.0,GOULDIAN_FINCH_4.jpg,GREY_PLOVER_1.jpg,AL84FSIS4UM1Q
579,1.0,right,left,0.0,1.713700001,0.0,39.0,39.0,39.0,1.0,ROADRUNNER_2.jpg,GOLDEN_CHLOROPHONIA_5.jpg,AL84FSIS4UM1Q
580,2.0,right,left,0.0,1.562799999,0.0,40.0,40.0,40.0,1.0,SMITHS_LONGSPUR_5.jpg,INCA_TERN_4.jpg,AL84FSIS4UM1Q
581,1.0,right,right,1.0,2.045299999,0.0,41.0,41.0,41.0,1.0,OSTRICH_5.jpg,CHUKAR_PARTRIDGE_5.jpg,AL84FSIS4UM1Q
582,3.0,left,left,1.0,1.524699999,0.0,42.0,42.0,42.0,1.0,BALI_STARLING_1.jpg,IBERIAN_MAGPIE_1.jpg,AL84FSIS4UM1Q
583,3.0,right,left,0.0,1.5711,0.0,43.0,43.0,43.0,1.0,COPPERY_TAILED_COUCAL_1.jpg,TASMANIAN_HEN_5.jpg,AL84FSIS4UM1Q
584,3.0,right,right,1.0,2.0145,0.0,44.0,44.0,44.0,1.0,FAIRY_TERN_4.jpg,IVORY_GULL_1.jpg,AL84FSIS4UM1Q
585,1.0,left,left,1.0,1.533,0.0,45.0,45.0,45.0,1.0,LARK_BUNTING_2.jpg,PEACOCK_1.jpg,AL84FSIS4UM1Q
586,2.0,left,right,0.0,1.786400002,0.0,46.0,46.0,46.0,1.0,GOLDEN_CHEEKED_WARBLER_2.jpg,HOUSE_FINCH_2.jpg,AL84FSIS4UM1Q
587,3.0,left,right,0.0,1.9511,0.0,47.0,47.0,47.0,1.0,WHITE_CHEEKED_TURACO_5.jpg,PYGMY_KINGFISHER_2.jpg,AL84FSIS4UM1Q
588,1.0,left,left,1.0,1.3925,0.0,48.0,48.0,48.0,1.0,STRIPPED_SWALLOW_1.jpg,DOUBLE_BRESTED_CORMARANT_4.jpg,AL84FSIS4UM1Q
589,2.0,left,right,0.0,2.233700001,0.0,49.0,49.0,49.0,1.0,CASPIAN_TERN_1.jpg,EUROPEAN_GOLDFINCH_4.jpg,AL84FSIS4UM1Q
590,3.0,right,left,0.0,1.826699999,0.0,50.0,50.0,50.0,1.0,BLACK_BAZA_4.jpg,BROWN_THRASHER_3.jpg,AL84FSIS4UM1Q
591,2.0,right,left,0.0,1.6135,0.0,51.0,51.0,51.0,1.0,AMERICAN_PIPIT_1.jpg,OCELLATED_TURKEY_1.jpg,AL84FSIS4UM1Q
592,1.0,left,left,1.0,1.504699999,0.0,52.0,52.0,52.0,1.0,MALACHITE_KINGFISHER_2.jpg,AMERICAN_FLAMINGO_1.jpg,AL84FSIS4UM1Q
593,1.0,left,left,1.0,1.485300001,0.0,53.0,53.0,53.0,1.0,CERULEAN_WARBLER_1.jpg,AMERICAN_FLAMINGO_2.jpg,AL84FSIS4UM1Q
594,3.0,right,right,1.0,1.368299999,0.0,54.0,54.0,54.0,1.0,CHATTERING_LORY_2.jpg,PEACOCK_3.jpg,AL84FSIS4UM1Q
595,2.0,left,right,0.0,1.7265,0.0,55.0,55.0,55.0,1.0,GYRFALCON_1.jpg,CINNAMON_ATTILA_2.jpg,AL84FSIS4UM1Q
596,1.0,left,left,1.0,2.1259,0.0,56.0,56.0,56.0,1.0,RUBY_THROATED_HUMMINGBIRD_1.jpg,BANANAQUIT_2.jpg,AL84FSIS4UM1Q
597,1.0,right,right,1.0,2.1276,0.0,57.0,57.0,57.0,1.0,FAIRY_PENGUIN_5.jpg,CRESTED_CARACARA_4.jpg,AL84FSIS4UM1Q
598,3.0,right,right,1.0,1.777,0.0,58.0,58.0,58.0,1.0,CUBAN_TODY_4.jpg,SPLENDID_WREN_1.jpg,AL84FSIS4UM1Q
599,2.0,right,right,1.0,1.411800001,0.0,59.0,59.0,59.0,1.0,FAIRY_PENGUIN_1.jpg,OVENBIRD_5.jpg,AL84FSIS4UM1Q
600,2.0,left,right,0.0,3.5011,0.0,0.0,0.0,0.0,1.0,BROWN_NOODY_3.jpg,SPANGLED_COTINGA_4.jpg,AN4P0SU1YSPF2
601,1.0,left,left,1.0,4.9586,0.0,1.0,1.0,1.0,1.0,ALPINE_CHOUGH_4.jpg,SNOWY_EGRET_2.jpg,AN4P0SU1YSPF2
602,3.0,left,left,1.0,4.2831,0.0,2.0,2.0,2.0,1.0,EUROPEAN_TURTLE_DOVE_3.jpg,MALABAR_HORNBILL_2.jpg,AN4P0SU1YSPF2
603,2.0,left,left,1.0,5.3306,0.0,3.0,3.0,3.0,1.0,BALI_STARLING_1.jpg,PURPLE_FINCH_2.jpg,AN4P0SU1YSPF2
604,1.0,left,left,1.0,1.5552,0.0,4.0,4.0,4.0,1.0,SPLENDID_WREN_1.jpg,POMARINE_JAEGER_5.jpg,AN4P0SU1YSPF2
605,1.0,left,right,0.0,1.0386,0.0,5.0,5.0,5.0,1.0,GOLDEN_CHLOROPHONIA_5.jpg,ROADRUNNER_2.jpg,AN4P0SU1YSPF2
606,2.0,right,right,1.0,1.2343,0.0,6.0,6.0,6.0,1.0,CRAB_PLOVER_3.jpg,NORTHERN_JACANA_3.jpg,AN4P0SU1YSPF2
607,1.0,right,right,1.0,2.1736,0.0,7.0,7.0,7.0,1.0,SCARLET_IBIS_2.jpg,ECUADORIAN_HILLSTAR_5.jpg,AN4P0SU1YSPF2
608,2.0,right,left,0.0,1.7149,0.0,8.0,8.0,8.0,1.0,FLAME_TANAGER_3.jpg,IVORY_GULL_3.jpg,AN4P0SU1YSPF2
609,2.0,right,right,1.0,2.4679,0.0,9.0,9.0,9.0,1.0,OYSTER_CATCHER_2.jpg,ASIAN_CRESTED_IBIS_4.jpg,AN4P0SU1YSPF2
610,1.0,left,left,1.0,1.3668,0.0,10.0,10.0,10.0,1.0,STRIPPED_SWALLOW_1.jpg,DOUBLE_BRESTED_CORMARANT_4.jpg,AN4P0SU1YSPF2
611,3.0,right,right,1.0,0.9099,0.0,11.0,11.0,11.0,1.0,BORNEAN_LEAFBIRD_1.jpg,SCARLET_TANAGER_2.jpg,AN4P0SU1YSPF2
612,3.0,right,left,0.0,1.5624,0.0,12.0,12.0,12.0,1.0,ECUADORIAN_HILLSTAR_3.jpg,GREY_PLOVER_1.jpg,AN4P0SU1YSPF2
613,1.0,right,right,1.0,0.9657,0.0,13.0,13.0,13.0,1.0,SNOWY_OWL_5.jpg,RUFOUS_KINGFISHER_1.jpg,AN4P0SU1YSPF2
614,3.0,right,right,1.0,1.4675,0.0,14.0,14.0,14.0,1.0,CAPE_LONGCLAW_2.jpg,BREWERS_BLACKBIRD_3.jpg,AN4P0SU1YSPF2
615,2.0,right,right,1.0,1.1261,0.0,15.0,15.0,15.0,1.0,MASKED_BOOBY_5.jpg,PYGMY_KINGFISHER_5.jpg,AN4P0SU1YSPF2
616,3.0,right,left,0.0,2.8763,0.0,16.0,16.0,16.0,1.0,PARADISE_TANAGER_3.jpg,MYNA_1.jpg,AN4P0SU1YSPF2
617,1.0,right,right,1.0,1.7448,0.0,17.0,17.0,17.0,1.0,DOUBLE_EYED_FIG_PARROT_3.jpg,BROWN_THRASHER_3.jpg,AN4P0SU1YSPF2
618,2.0,left,left,1.0,2.9538,0.0,18.0,18.0,18.0,1.0,KAGU_5.jpg,ASHY_STORM_PETREL_1.jpg,AN4P0SU1YSPF2
619,3.0,right,right,1.0,1.7739,0.0,19.0,19.0,19.0,1.0,PINK_ROBIN_3.jpg,PARUS_MAJOR_1.jpg,AN4P0SU1YSPF2
620,2.0,right,right,1.0,3.3924,0.0,20.0,20.0,20.0,1.0,GREEN_MAGPIE_1.jpg,AMERICAN_PIPIT_5.jpg,AN4P0SU1YSPF2
621,1.0,left,left,1.0,1.4394,0.0,21.0,21.0,21.0,1.0,AFRICAN_PIED_HORNBILL_5.jpg,KIWI_4.jpg,AN4P0SU1YSPF2
622,1.0,right,right,1.0,4.018,0.0,22.0,22.0,22.0,1.0,SCARLET_IBIS_3.jpg,CRESTED_NUTHATCH_2.jpg,AN4P0SU1YSPF2
623,3.0,right,right,1.0,1.9468,0.0,23.0,23.0,23.0,1.0,DARWINS_FLYCATCHER_2.jpg,INDIGO_BUNTING_1.jpg,AN4P0SU1YSPF2
624,1.0,left,left,1.0,1.5744,0.0,24.0,24.0,24.0,1.0,VERMILION_FLYCATHER_3.jpg,INDIAN_BUSTARD_1.jpg,AN4P0SU1YSPF2
625,3.0,left,right,0.0,1.5847,0.0,25.0,25.0,25.0,1.0,ARARIPE_MANAKIN_4.jpg,BORNEAN_LEAFBIRD_3.jpg,AN4P0SU1YSPF2
626,2.0,right,right,1.0,1.3062,0.0,26.0,26.0,26.0,1.0,VULTURINE_GUINEAFOWL_4.jpg,RUBY_THROATED_HUMMINGBIRD_1.jpg,AN4P0SU1YSPF2
627,1.0,right,right,1.0,3.3874,0.0,27.0,27.0,27.0,1.0,GOLDEN_CHLOROPHONIA_2.jpg,RUBY_THROATED_HUMMINGBIRD_2.jpg,AN4P0SU1YSPF2
628,3.0,left,left,1.0,2.5802,0.0,28.0,28.0,28.0,1.0,PINK_ROBIN_4.jpg,COMMON_IORA_4.jpg,AN4P0SU1YSPF2
629,2.0,right,left,0.0,1.8685,0.0,29.0,29.0,29.0,1.0,INDIAN_PITTA_2.jpg,CRESTED_CARACARA_4.jpg,AN4P0SU1YSPF2
630,3.0,right,left,0.0,1.4202,0.0,30.0,30.0,30.0,1.0,BEARDED_BELLBIRD_1.jpg,LITTLE_AUK_5.jpg,AN4P0SU1YSPF2
631,1.0,left,left,1.0,3.4185,0.0,31.0,31.0,31.0,1.0,HAWAIIAN_GOOSE_4.jpg,CUBAN_TODY_3.jpg,AN4P0SU1YSPF2
632,2.0,left,left,1.0,2.2185,0.0,32.0,32.0,32.0,1.0,OCELLATED_TURKEY_1.jpg,AMERICAN_PIPIT_1.jpg,AN4P0SU1YSPF2
633,2.0,right,left,0.0,5.7552,0.0,33.0,33.0,33.0,1.0,LOGGERHEAD_SHRIKE_4.jpg,ASIAN_DOLLARD_BIRD_2.jpg,AN4P0SU1YSPF2
634,2.0,left,left,1.0,2.5647,0.0,34.0,34.0,34.0,1.0,TASMANIAN_HEN_5.jpg,AFRICAN_EMERALD_CUCKOO_5.jpg,AN4P0SU1YSPF2
635,1.0,left,right,0.0,2.6677,0.0,35.0,35.0,35.0,1.0,EASTERN_TOWEE_2.jpg,SANDHILL_CRANE_2.jpg,AN4P0SU1YSPF2
636,1.0,right,right,1.0,0.9443,0.0,36.0,36.0,36.0,1.0,EASTERN_MEADOWLARK_1.jpg,SHOEBILL_3.jpg,AN4P0SU1YSPF2
637,3.0,right,right,1.0,2.2675,0.0,37.0,37.0,37.0,1.0,PYGMY_KINGFISHER_2.jpg,WHITE_CHEEKED_TURACO_5.jpg,AN4P0SU1YSPF2
638,2.0,right,right,1.0,3.2226,0.0,38.0,38.0,38.0,1.0,CAATINGA_CACHOLOTE_4.jpg,KILLDEAR_2.jpg,AN4P0SU1YSPF2
639,3.0,right,left,0.0,2.5389,0.0,39.0,39.0,39.0,1.0,CHINESE_POND_HERON_2.jpg,DOUBLE_BRESTED_CORMARANT_5.jpg,AN4P0SU1YSPF2
640,2.0,right,right,1.0,1.9871,0.0,40.0,40.0,40.0,1.0,CRIMSON_CHAT_3.jpg,RED_HEADED_WOODPECKER_5.jpg,AN4P0SU1YSPF2
641,3.0,right,left,0.0,1.891,0.0,41.0,41.0,41.0,1.0,BORNEAN_BRISTLEHEAD_5.jpg,INCA_TERN_4.jpg,AN4P0SU1YSPF2
642,3.0,left,left,1.0,1.1512,0.0,42.0,42.0,42.0,1.0,PEACOCK_3.jpg,CHATTERING_LORY_2.jpg,AN4P0SU1YSPF2
643,1.0,left,left,1.0,1.4257,0.0,43.0,43.0,43.0,1.0,LESSER_ADJUTANT_5.jpg,GREEN_BROADBILL_4.jpg,AN4P0SU1YSPF2
644,3.0,right,right,1.0,2.5899,0.0,44.0,44.0,44.0,1.0,QUETZAL_3.jpg,FLAME_BOWERBIRD_3.jpg,AN4P0SU1YSPF2
645,3.0,right,left,0.0,2.4047,0.0,45.0,45.0,45.0,1.0,BANANAQUIT_1.jpg,CERULEAN_WARBLER_1.jpg,AN4P0SU1YSPF2
646,1.0,left,left,1.0,1.2568,0.0,46.0,46.0,46.0,1.0,LESSER_ADJUTANT_4.jpg,ALTAMIRA_YELLOWTHROAT_5.jpg,AN4P0SU1YSPF2
647,3.0,left,left,1.0,0.9588,0.0,47.0,47.0,47.0,1.0,CASSOWARY_1.jpg,AFRICAN_OYSTER_CATCHER_2.jpg,AN4P0SU1YSPF2
648,3.0,left,right,0.0,1.5125,0.0,48.0,48.0,48.0,1.0,GOLDEN_CHEEKED_WARBLER_2.jpg,WHITE_THROATED_BEE_EATER_1.jpg,AN4P0SU1YSPF2
649,3.0,right,right,1.0,1.2165,0.0,49.0,49.0,49.0,1.0,CRESTED_KINGFISHER_1.jpg,INLAND_DOTTEREL_4.jpg,AN4P0SU1YSPF2
650,3.0,right,right,1.0,1.7194,0.0,50.0,50.0,50.0,1.0,OYSTER_CATCHER_3.jpg,MAGPIE_GOOSE_5.jpg,AN4P0SU1YSPF2
651,2.0,left,right,0.0,3.6218,0.0,51.0,51.0,51.0,1.0,OVENBIRD_5.jpg,FAIRY_PENGUIN_1.jpg,AN4P0SU1YSPF2
652,1.0,left,left,1.0,1.7898,0.0,52.0,52.0,52.0,1.0,CHUKAR_PARTRIDGE_5.jpg,OSTRICH_5.jpg,AN4P0SU1YSPF2
653,2.0,left,right,0.0,1.7052,0.0,53.0,53.0,53.0,1.0,IVORY_GULL_1.jpg,EASTERN_GOLDEN_WEAVER_5.jpg,AN4P0SU1YSPF2
654,1.0,left,left,1.0,1.4603,0.0,54.0,54.0,54.0,1.0,MALACHITE_KINGFISHER_2.jpg,AMERICAN_FLAMINGO_1.jpg,AN4P0SU1YSPF2
655,2.0,left,left,1.0,1.1091,0.0,55.0,55.0,55.0,1.0,RUBY_THROATED_HUMMINGBIRD_3.jpg,MYNA_5.jpg,AN4P0SU1YSPF2
656,1.0,right,right,1.0,1.4209,0.0,56.0,56.0,56.0,1.0,PEACOCK_1.jpg,LARK_BUNTING_2.jpg,AN4P0SU1YSPF2
657,1.0,right,right,1.0,1.336,0.0,57.0,57.0,57.0,1.0,GREAT_GRAY_OWL_4.jpg,CASPIAN_TERN_1.jpg,AN4P0SU1YSPF2
658,2.0,left,left,1.0,1.2923,0.0,58.0,58.0,58.0,1.0,GRAY_KINGBIRD_5.jpg,COCK_OF_THE__ROCK_4.jpg,AN4P0SU1YSPF2
659,2.0,left,left,1.0,1.6215,0.0,59.0,59.0,59.0,1.0,GYRFALCON_1.jpg,CINNAMON_ATTILA_2.jpg,AN4P0SU1YSPF2
660,1.0,right,right,1.0,2.7193,0.0,0.0,0.0,0.0,1.0,HYACINTH_MACAW_3.jpg,GREY_PLOVER_1.jpg,AOOLS8280CL0Z
661,1.0,right,right,1.0,2.4035,0.0,1.0,1.0,1.0,1.0,INDIAN_BUSTARD_2.jpg,FLAME_BOWERBIRD_3.jpg,AOOLS8280CL0Z
662,3.0,right,right,1.0,1.5848,0.0,2.0,2.0,2.0,1.0,COMMON_LOON_2.jpg,CASPIAN_TERN_1.jpg,AOOLS8280CL0Z
663,2.0,left,right,0.0,2.5726,0.0,3.0,3.0,3.0,1.0,KILLDEAR_2.jpg,CAATINGA_CACHOLOTE_4.jpg,AOOLS8280CL0Z
664,3.0,right,left,0.0,5.0756,0.0,4.0,4.0,4.0,1.0,CAPUCHINBIRD_2.jpg,AFRICAN_PIED_HORNBILL_5.jpg,AOOLS8280CL0Z
665,1.0,right,right,1.0,2.8079,0.0,5.0,5.0,5.0,1.0,POMARINE_JAEGER_5.jpg,SPLENDID_WREN_1.jpg,AOOLS8280CL0Z
666,1.0,right,right,1.0,2.0731,0.0,6.0,6.0,6.0,1.0,TEAL_DUCK_2.jpg,EUROPEAN_TURTLE_DOVE_3.jpg,AOOLS8280CL0Z
667,3.0,left,left,1.0,2.5977,0.0,7.0,7.0,7.0,1.0,ASIAN_CRESTED_IBIS_4.jpg,IVORY_GULL_2.jpg,AOOLS8280CL0Z
668,1.0,right,right,1.0,4.762,0.0,8.0,8.0,8.0,1.0,ALTAMIRA_YELLOWTHROAT_5.jpg,LESSER_ADJUTANT_4.jpg,AOOLS8280CL0Z
669,2.0,left,left,1.0,3.0638,0.0,9.0,9.0,9.0,1.0,KAGU_5.jpg,ASHY_STORM_PETREL_1.jpg,AOOLS8280CL0Z
670,2.0,right,right,1.0,4.0501,0.0,10.0,10.0,10.0,1.0,MYNA_5.jpg,RUBY_THROATED_HUMMINGBIRD_3.jpg,AOOLS8280CL0Z
671,2.0,left,right,0.0,1.5028,0.0,11.0,11.0,11.0,1.0,SHOEBILL_3.jpg,GILDED_FLICKER_5.jpg,AOOLS8280CL0Z
672,1.0,right,left,0.0,3.105,0.0,12.0,12.0,12.0,1.0,DOUBLE_EYED_FIG_PARROT_5.jpg,MAGPIE_GOOSE_5.jpg,AOOLS8280CL0Z
673,2.0,left,left,1.0,4.8468,0.0,13.0,13.0,13.0,1.0,GYRFALCON_1.jpg,CINNAMON_ATTILA_2.jpg,AOOLS8280CL0Z
674,2.0,right,left,0.0,2.3508,0.0,14.0,14.0,14.0,1.0,LOGGERHEAD_SHRIKE_4.jpg,ASIAN_DOLLARD_BIRD_2.jpg,AOOLS8280CL0Z
675,2.0,left,left,1.0,2.1014,0.0,15.0,15.0,15.0,1.0,PINK_ROBIN_4.jpg,ALBATROSS_4.jpg,AOOLS8280CL0Z
676,2.0,right,right,1.0,3.0428,0.0,16.0,16.0,16.0,1.0,APAPANE_4.jpg,RUBY_THROATED_HUMMINGBIRD_2.jpg,AOOLS8280CL0Z
677,3.0,right,left,0.0,2.2132,0.0,17.0,17.0,17.0,1.0,CHINESE_POND_HERON_2.jpg,DOUBLE_BRESTED_CORMARANT_5.jpg,AOOLS8280CL0Z
678,3.0,right,left,0.0,2.6239,0.0,18.0,18.0,18.0,1.0,WATTLED_LAPWING_3.jpg,HAWAIIAN_GOOSE_4.jpg,AOOLS8280CL0Z
679,3.0,left,left,1.0,3.0105,0.0,19.0,19.0,19.0,1.0,LESSER_ADJUTANT_5.jpg,RED_HEADED_WOODPECKER_1.jpg,AOOLS8280CL0Z
680,3.0,right,left,0.0,1.8013,0.0,20.0,20.0,20.0,1.0,VERMILION_FLYCATHER_5.jpg,GOLDEN_CHLOROPHONIA_5.jpg,AOOLS8280CL0Z
681,1.0,right,left,0.0,3.2764,0.0,21.0,21.0,21.0,1.0,SANDHILL_CRANE_2.jpg,EASTERN_TOWEE_2.jpg,AOOLS8280CL0Z
682,1.0,left,right,0.0,3.1876,0.0,22.0,22.0,22.0,1.0,ECUADORIAN_HILLSTAR_5.jpg,SCARLET_IBIS_2.jpg,AOOLS8280CL0Z
683,2.0,right,left,0.0,3.7191,0.0,23.0,23.0,23.0,1.0,CALIFORNIA_GULL_2.jpg,PARUS_MAJOR_1.jpg,AOOLS8280CL0Z
684,1.0,left,left,1.0,2.461,0.0,24.0,24.0,24.0,1.0,IVORY_GULL_3.jpg,INDIGO_FLYCATCHER_2.jpg,AOOLS8280CL0Z
685,3.0,right,left,0.0,3.9533,0.0,25.0,25.0,25.0,1.0,PURPLE_SWAMPHEN_4.jpg,OCELLATED_TURKEY_1.jpg,AOOLS8280CL0Z
686,3.0,left,left,1.0,2.9979,0.0,26.0,26.0,26.0,1.0,BALI_STARLING_1.jpg,IBERIAN_MAGPIE_1.jpg,AOOLS8280CL0Z
687,1.0,left,left,1.0,1.4594,0.0,27.0,27.0,27.0,1.0,BROWN_THRASHER_3.jpg,DOUBLE_EYED_FIG_PARROT_3.jpg,AOOLS8280CL0Z
688,3.0,left,left,1.0,1.9251,0.0,28.0,28.0,28.0,1.0,RED_HEADED_WOODPECKER_5.jpg,COLLARED_ARACARI_1.jpg,AOOLS8280CL0Z
689,2.0,right,left,0.0,2.5545,0.0,29.0,29.0,29.0,1.0,INDIAN_PITTA_2.jpg,CRESTED_CARACARA_4.jpg,AOOLS8280CL0Z
690,2.0,left,left,1.0,2.4496,0.0,30.0,30.0,30.0,1.0,TASMANIAN_HEN_5.jpg,AFRICAN_EMERALD_CUCKOO_5.jpg,AOOLS8280CL0Z
691,2.0,right,right,1.0,2.8256,0.0,31.0,31.0,31.0,1.0,SPANGLED_COTINGA_4.jpg,BROWN_NOODY_3.jpg,AOOLS8280CL0Z
692,3.0,right,left,0.0,3.6564,0.0,32.0,32.0,32.0,1.0,BLACK_THROATED_BUSHTIT_1.jpg,CHUKAR_PARTRIDGE_5.jpg,AOOLS8280CL0Z
693,2.0,right,right,1.0,2.3253,0.0,33.0,33.0,33.0,1.0,MAGPIE_GOOSE_4.jpg,STRIPPED_SWALLOW_1.jpg,AOOLS8280CL0Z
694,2.0,right,right,1.0,2.4944,0.0,34.0,34.0,34.0,1.0,AMERICAN_FLAMINGO_5.jpg,CERULEAN_WARBLER_1.jpg,AOOLS8280CL0Z
695,2.0,left,left,1.0,5.8757,0.0,35.0,35.0,35.0,1.0,WHITE_CHEEKED_TURACO_5.jpg,GREAT_POTOO_3.jpg,AOOLS8280CL0Z
696,2.0,left,left,1.0,2.1112,0.0,36.0,36.0,36.0,1.0,MALACHITE_KINGFISHER_2.jpg,INCA_TERN_2.jpg,AOOLS8280CL0Z
697,3.0,left,left,1.0,2.7653,0.0,37.0,37.0,37.0,1.0,NORTHERN_JACANA_3.jpg,SCARLET_IBIS_4.jpg,AOOLS8280CL0Z
698,1.0,right,right,1.0,2.6594,0.0,38.0,38.0,38.0,1.0,ROSY_FACED_LOVEBIRD_4.jpg,CASSOWARY_1.jpg,AOOLS8280CL0Z
699,1.0,left,left,1.0,2.2764,0.0,39.0,39.0,39.0,1.0,PYGMY_KINGFISHER_5.jpg,GRANDALA_2.jpg,AOOLS8280CL0Z
700,3.0,left,right,0.0,3.8066,0.0,40.0,40.0,40.0,1.0,SCARLET_TANAGER_2.jpg,BORNEAN_LEAFBIRD_1.jpg,AOOLS8280CL0Z
701,3.0,right,left,0.0,2.279,0.0,41.0,41.0,41.0,1.0,SHORT_BILLED_DOWITCHER_5.jpg,OVENBIRD_5.jpg,AOOLS8280CL0Z
702,1.0,left,left,1.0,1.6868,0.0,42.0,42.0,42.0,1.0,BREWERS_BLACKBIRD_3.jpg,GUINEA_TURACO_3.jpg,AOOLS8280CL0Z
703,1.0,left,left,1.0,1.5906,0.0,43.0,43.0,43.0,1.0,ARARIPE_MANAKIN_4.jpg,KIWI_3.jpg,AOOLS8280CL0Z
704,2.0,left,left,1.0,2.1416,0.0,44.0,44.0,44.0,1.0,LARK_BUNTING_2.jpg,KING_VULTURE_3.jpg,AOOLS8280CL0Z
705,1.0,left,right,0.0,1.9534,0.0,45.0,45.0,45.0,1.0,RUFOUS_KINGFISHER_1.jpg,SNOWY_OWL_5.jpg,AOOLS8280CL0Z
706,1.0,left,left,1.0,4.3403,0.0,46.0,46.0,46.0,1.0,MYNA_1.jpg,OSTRICH_3.jpg,AOOLS8280CL0Z
707,3.0,left,right,0.0,2.2266,0.0,47.0,47.0,47.0,1.0,VERMILION_FLYCATHER_3.jpg,RED_BEARDED_BEE_EATER_1.jpg,AOOLS8280CL0Z
708,2.0,left,left,1.0,2.0259,0.0,48.0,48.0,48.0,1.0,INDIGO_BUNTING_1.jpg,NORTHERN_GANNET_1.jpg,AOOLS8280CL0Z
709,1.0,right,right,1.0,1.1445,0.0,49.0,49.0,49.0,1.0,EMU_2.jpg,AMERICAN_PIPIT_5.jpg,AOOLS8280CL0Z
710,3.0,left,right,0.0,4.7227,0.0,50.0,50.0,50.0,1.0,GOLDEN_CHEEKED_WARBLER_2.jpg,WHITE_THROATED_BEE_EATER_1.jpg,AOOLS8280CL0Z
711,3.0,right,right,1.0,1.6593,0.0,51.0,51.0,51.0,1.0,CANARY_1.jpg,CRESTED_NUTHATCH_2.jpg,AOOLS8280CL0Z
712,3.0,right,right,1.0,1.6267,0.0,52.0,52.0,52.0,1.0,CRESTED_KINGFISHER_1.jpg,INLAND_DOTTEREL_4.jpg,AOOLS8280CL0Z
713,1.0,left,left,1.0,1.3735,0.0,53.0,53.0,53.0,1.0,IVORY_GULL_1.jpg,WILSONS_BIRD_OF_PARADISE_4.jpg,AOOLS8280CL0Z
714,2.0,left,left,1.0,1.4109,0.0,54.0,54.0,54.0,1.0,GRAY_KINGBIRD_5.jpg,COCK_OF_THE__ROCK_4.jpg,AOOLS8280CL0Z
715,3.0,right,right,1.0,2.8622,0.0,55.0,55.0,55.0,1.0,BOBOLINK_3.jpg,ALPINE_CHOUGH_4.jpg,AOOLS8280CL0Z
716,2.0,right,left,0.0,2.8051,0.0,56.0,56.0,56.0,1.0,STRAWBERRY_FINCH_4.jpg,PEACOCK_3.jpg,AOOLS8280CL0Z
717,1.0,right,left,0.0,3.9519,0.0,57.0,57.0,57.0,1.0,SANDHILL_CRANE_3.jpg,LITTLE_AUK_5.jpg,AOOLS8280CL0Z
718,3.0,right,left,0.0,2.0557,0.0,58.0,58.0,58.0,1.0,BORNEAN_BRISTLEHEAD_5.jpg,INCA_TERN_4.jpg,AOOLS8280CL0Z
719,1.0,right,left,0.0,4.5568,0.0,59.0,59.0,59.0,1.0,BANANAQUIT_2.jpg,RUBY_THROATED_HUMMINGBIRD_1.jpg,AOOLS8280CL0Z
720,2.0,left,right,0.0,3.4471,0.0,0.0,0.0,0.0,1.0,DOUBLE_BRESTED_CORMARANT_5.jpg,EURASIAN_MAGPIE_4.jpg,AW5O1RK3W60FC
721,3.0,left,left,1.0,4.6164,0.0,1.0,1.0,1.0,1.0,IVORY_GULL_1.jpg,FAIRY_TERN_4.jpg,AW5O1RK3W60FC
722,1.0,right,right,1.0,5.3932,0.0,2.0,2.0,2.0,1.0,MYNA_4.jpg,OVENBIRD_5.jpg,AW5O1RK3W60FC
723,2.0,right,right,1.0,3.5994,0.0,3.0,3.0,3.0,1.0,BOBOLINK_5.jpg,ECUADORIAN_HILLSTAR_5.jpg,AW5O1RK3W60FC
724,2.0,left,right,0.0,4.591,0.0,4.0,4.0,4.0,1.0,BREWERS_BLACKBIRD_3.jpg,GOLDEN_CHEEKED_WARBLER_3.jpg,AW5O1RK3W60FC
725,2.0,left,left,1.0,1.8061,0.0,5.0,5.0,5.0,1.0,CERULEAN_WARBLER_1.jpg,AMERICAN_FLAMINGO_5.jpg,AW5O1RK3W60FC
726,1.0,right,right,1.0,4.3552,0.0,6.0,6.0,6.0,1.0,ROSY_FACED_LOVEBIRD_4.jpg,CASSOWARY_1.jpg,AW5O1RK3W60FC
727,2.0,right,right,1.0,2.076,0.0,7.0,7.0,7.0,1.0,BROWN_THRASHER_4.jpg,FLAME_BOWERBIRD_3.jpg,AW5O1RK3W60FC
728,3.0,left,left,1.0,6.1206,0.0,8.0,8.0,8.0,1.0,LESSER_ADJUTANT_5.jpg,RED_HEADED_WOODPECKER_1.jpg,AW5O1RK3W60FC
729,3.0,right,left,0.0,3.2339,0.0,9.0,9.0,9.0,1.0,CAPUCHINBIRD_2.jpg,AFRICAN_PIED_HORNBILL_5.jpg,AW5O1RK3W60FC
730,2.0,right,right,1.0,6.2462,0.0,10.0,10.0,10.0,1.0,AFRICAN_FIREFINCH_1.jpg,CRESTED_NUTHATCH_2.jpg,AW5O1RK3W60FC
731,1.0,right,right,1.0,2.9266,0.0,11.0,11.0,11.0,1.0,CHIPPING_SPARROW_1.jpg,OCELLATED_TURKEY_1.jpg,AW5O1RK3W60FC
732,3.0,right,right,1.0,10.3848,0.0,12.0,12.0,12.0,1.0,ECUADORIAN_HILLSTAR_3.jpg,GREY_PLOVER_1.jpg,AW5O1RK3W60FC
733,1.0,right,right,1.0,4.3137,0.0,13.0,13.0,13.0,1.0,DOUBLE_EYED_FIG_PARROT_5.jpg,MAGPIE_GOOSE_5.jpg,AW5O1RK3W60FC
734,1.0,left,left,1.0,3.3381,0.0,14.0,14.0,14.0,1.0,VERMILION_FLYCATHER_3.jpg,INDIAN_BUSTARD_1.jpg,AW5O1RK3W60FC
735,3.0,right,right,1.0,4.5463,0.0,15.0,15.0,15.0,1.0,BEARDED_BELLBIRD_1.jpg,LITTLE_AUK_5.jpg,AW5O1RK3W60FC
736,1.0,right,right,1.0,6.3669,0.0,16.0,16.0,16.0,1.0,ROADRUNNER_2.jpg,GOLDEN_CHLOROPHONIA_5.jpg,AW5O1RK3W60FC
737,2.0,right,right,1.0,6.5325,0.0,17.0,17.0,17.0,1.0,GREEN_MAGPIE_1.jpg,AMERICAN_PIPIT_5.jpg,AW5O1RK3W60FC
738,3.0,left,left,1.0,3.6931,0.0,18.0,18.0,18.0,1.0,MYNA_1.jpg,PARADISE_TANAGER_3.jpg,AW5O1RK3W60FC
739,1.0,left,right,0.0,4.9298,0.0,19.0,19.0,19.0,1.0,RUBY_THROATED_HUMMINGBIRD_1.jpg,BANANAQUIT_2.jpg,AW5O1RK3W60FC
740,1.0,right,right,1.0,4.6755,0.0,20.0,20.0,20.0,1.0,CANARY_2.jpg,ASIAN_CRESTED_IBIS_4.jpg,AW5O1RK3W60FC
741,2.0,left,left,1.0,4.6861,0.0,21.0,21.0,21.0,1.0,ARARIPE_MANAKIN_4.jpg,BLACK_VULTURE_1.jpg,AW5O1RK3W60FC
742,2.0,right,left,0.0,5.3644,0.0,22.0,22.0,22.0,1.0,OYSTER_CATCHER_4.jpg,BROWN_THRASHER_3.jpg,AW5O1RK3W60FC
743,2.0,right,right,1.0,3.062,0.0,23.0,23.0,23.0,1.0,INCA_TERN_2.jpg,MALACHITE_KINGFISHER_2.jpg,AW5O1RK3W60FC
744,1.0,right,right,1.0,5.4912,0.0,24.0,24.0,24.0,1.0,ELLIOTS__PHEASANT_4.jpg,INCA_TERN_4.jpg,AW5O1RK3W60FC
745,3.0,right,right,1.0,6.3932,0.0,25.0,25.0,25.0,1.0,NORTHERN_BEARDLESS_TYRANNULET_5.jpg,EASTERN_TOWEE_2.jpg,AW5O1RK3W60FC
746,1.0,left,left,1.0,5.2103,0.0,26.0,26.0,26.0,1.0,PYGMY_KINGFISHER_5.jpg,GRANDALA_2.jpg,AW5O1RK3W60FC
747,1.0,right,left,0.0,5.6715,0.0,27.0,27.0,27.0,1.0,SPOONBILL_3.jpg,PINK_ROBIN_4.jpg,AW5O1RK3W60FC
748,2.0,right,left,0.0,3.683,0.0,28.0,28.0,28.0,1.0,GILDED_FLICKER_5.jpg,SHOEBILL_3.jpg,AW5O1RK3W60FC
749,3.0,right,right,1.0,6.5992,0.0,29.0,29.0,29.0,1.0,GO_AWAY_BIRD_5.jpg,STRIPPED_SWALLOW_1.jpg,AW5O1RK3W60FC
750,2.0,left,left,1.0,4.3887,0.0,30.0,30.0,30.0,1.0,NORTHERN_JACANA_3.jpg,CRAB_PLOVER_3.jpg,AW5O1RK3W60FC
751,2.0,right,right,1.0,4.882,0.0,31.0,31.0,31.0,1.0,CAATINGA_CACHOLOTE_4.jpg,KILLDEAR_2.jpg,AW5O1RK3W60FC
752,1.0,right,right,1.0,2.6737,0.0,32.0,32.0,32.0,1.0,ALTAMIRA_YELLOWTHROAT_5.jpg,LESSER_ADJUTANT_4.jpg,AW5O1RK3W60FC
753,2.0,right,right,1.0,3.748,0.0,33.0,33.0,33.0,1.0,MAGPIE_GOOSE_3.jpg,RUFOUS_KINGFISHER_1.jpg,AW5O1RK3W60FC
754,2.0,right,right,1.0,29.279,0.0,34.0,34.0,34.0,1.0,INDIAN_PITTA_2.jpg,CRESTED_CARACARA_4.jpg,AW5O1RK3W60FC
755,3.0,right,left,0.0,3.9715,0.0,35.0,35.0,35.0,1.0,PINK_ROBIN_3.jpg,PARUS_MAJOR_1.jpg,AW5O1RK3W60FC
756,3.0,left,left,1.0,3.3627,0.0,36.0,36.0,36.0,1.0,SCARLET_TANAGER_2.jpg,BORNEAN_LEAFBIRD_1.jpg,AW5O1RK3W60FC
757,3.0,right,right,1.0,2.6025,0.0,37.0,37.0,37.0,1.0,CRESTED_KINGFISHER_1.jpg,INLAND_DOTTEREL_4.jpg,AW5O1RK3W60FC
758,2.0,right,right,1.0,4.622,0.0,38.0,38.0,38.0,1.0,PURPLE_FINCH_2.jpg,BALI_STARLING_1.jpg,AW5O1RK3W60FC
759,3.0,left,left,1.0,9.0716,0.0,39.0,39.0,39.0,1.0,SPLENDID_WREN_1.jpg,CUBAN_TODY_4.jpg,AW5O1RK3W60FC
760,1.0,right,right,1.0,3.3548,0.0,40.0,40.0,40.0,1.0,ASHY_STORM_PETREL_2.jpg,RED_HEADED_WOODPECKER_5.jpg,AW5O1RK3W60FC
761,3.0,left,right,0.0,6.8622,0.0,41.0,41.0,41.0,1.0,RUBY_THROATED_HUMMINGBIRD_3.jpg,NORTHERN_SHOVELER_1.jpg,AW5O1RK3W60FC
762,3.0,right,left,0.0,5.2168,0.0,42.0,42.0,42.0,1.0,BLACK_THROATED_BUSHTIT_1.jpg,CHUKAR_PARTRIDGE_5.jpg,AW5O1RK3W60FC
763,3.0,left,left,1.0,4.1412,0.0,43.0,43.0,43.0,1.0,EUROPEAN_TURTLE_DOVE_3.jpg,MALABAR_HORNBILL_2.jpg,AW5O1RK3W60FC
764,1.0,left,left,1.0,4.4729,0.0,44.0,44.0,44.0,1.0,WHITE_CHEEKED_TURACO_5.jpg,NORTHERN_MOCKINGBIRD_4.jpg,AW5O1RK3W60FC
765,1.0,right,right,1.0,3.0893,0.0,45.0,45.0,45.0,1.0,PEACOCK_2.jpg,BROWN_NOODY_3.jpg,AW5O1RK3W60FC
766,1.0,left,right,0.0,5.3913,0.0,46.0,46.0,46.0,1.0,TASMANIAN_HEN_5.jpg,GREEN_BROADBILL_1.jpg,AW5O1RK3W60FC
767,2.0,right,left,0.0,3.9028,0.0,47.0,47.0,47.0,1.0,HOUSE_FINCH_2.jpg,GOLDEN_CHEEKED_WARBLER_2.jpg,AW5O1RK3W60FC
768,1.0,left,left,1.0,2.4503,0.0,48.0,48.0,48.0,1.0,GYRFALCON_1.jpg,OSTRICH_1.jpg,AW5O1RK3W60FC
769,1.0,right,left,0.0,10.8623,0.0,49.0,49.0,49.0,1.0,SNOWY_EGRET_2.jpg,ALPINE_CHOUGH_4.jpg,AW5O1RK3W60FC
770,3.0,left,left,1.0,6.9317,0.0,50.0,50.0,50.0,1.0,CASPIAN_TERN_1.jpg,COMMON_LOON_2.jpg,AW5O1RK3W60FC
771,3.0,right,left,0.0,5.6046,0.0,51.0,51.0,51.0,1.0,WATTLED_LAPWING_3.jpg,HAWAIIAN_GOOSE_4.jpg,AW5O1RK3W60FC
772,1.0,left,left,1.0,5.9924,0.0,52.0,52.0,52.0,1.0,PEACOCK_3.jpg,ANIANIAU_2.jpg,AW5O1RK3W60FC
773,1.0,left,right,0.0,2.5135,0.0,53.0,53.0,53.0,1.0,RUBY_THROATED_HUMMINGBIRD_2.jpg,GOLDEN_CHLOROPHONIA_2.jpg,AW5O1RK3W60FC
774,3.0,right,right,1.0,9.0899,0.0,54.0,54.0,54.0,1.0,VIOLET_GREEN_SWALLOW_4.jpg,ASIAN_DOLLARD_BIRD_2.jpg,AW5O1RK3W60FC
775,2.0,right,right,1.0,3.6061,0.0,55.0,55.0,55.0,1.0,NORTHERN_GANNET_1.jpg,INDIGO_BUNTING_1.jpg,AW5O1RK3W60FC
776,3.0,left,right,0.0,5.2276,0.0,56.0,56.0,56.0,1.0,LARK_BUNTING_2.jpg,CACTUS_WREN_3.jpg,AW5O1RK3W60FC
777,2.0,left,left,1.0,3.6455,0.0,57.0,57.0,57.0,1.0,IVORY_GULL_3.jpg,FLAME_TANAGER_3.jpg,AW5O1RK3W60FC
778,3.0,right,left,0.0,3.7055,0.0,58.0,58.0,58.0,1.0,AFRICAN_FIREFINCH_3.jpg,GRAY_KINGBIRD_5.jpg,AW5O1RK3W60FC
779,2.0,left,left,1.0,2.5478,0.0,59.0,59.0,59.0,1.0,KAGU_5.jpg,ASHY_STORM_PETREL_1.jpg,AW5O1RK3W60FC
780,1.0,left,left,1.0,3.6541,0.0,0.0,0.0,0.0,1.0,EUROPEAN_TURTLE_DOVE_3.jpg,TEAL_DUCK_2.jpg,AY3JOEWZT0APP
781,1.0,right,left,0.0,1.4137,0.0,1.0,1.0,1.0,1.0,ALTAMIRA_YELLOWTHROAT_5.jpg,LESSER_ADJUTANT_4.jpg,AY3JOEWZT0APP
782,1.0,left,left,1.0,0.9154,0.0,2.0,2.0,2.0,1.0,RUBY_THROATED_HUMMINGBIRD_2.jpg,GOLDEN_CHLOROPHONIA_2.jpg,AY3JOEWZT0APP
783,3.0,right,left,0.0,2.1356,0.0,3.0,3.0,3.0,1.0,BORNEAN_BRISTLEHEAD_5.jpg,INCA_TERN_4.jpg,AY3JOEWZT0APP
784,2.0,left,left,1.0,1.5793,0.0,4.0,4.0,4.0,1.0,BREWERS_BLACKBIRD_3.jpg,GOLDEN_CHEEKED_WARBLER_3.jpg,AY3JOEWZT0APP
785,1.0,left,left,1.0,1.1879,0.0,5.0,5.0,5.0,1.0,NORTHERN_JACANA_3.jpg,AMERICAN_GOLDFINCH_4.jpg,AY3JOEWZT0APP
786,2.0,right,left,0.0,0.898,0.0,6.0,6.0,6.0,1.0,ORANGE_BRESTED_BUNTING_3.jpg,LITTLE_AUK_5.jpg,AY3JOEWZT0APP
787,2.0,right,left,0.0,0.6559,0.0,7.0,7.0,7.0,1.0,OYSTER_CATCHER_2.jpg,ASIAN_CRESTED_IBIS_4.jpg,AY3JOEWZT0APP
788,1.0,left,right,0.0,2.015,0.0,8.0,8.0,8.0,1.0,AMERICAN_PIPIT_5.jpg,EMU_2.jpg,AY3JOEWZT0APP
789,3.0,right,left,0.0,0.0969,0.0,9.0,9.0,9.0,1.0,PURPLE_SWAMPHEN_4.jpg,OCELLATED_TURKEY_1.jpg,AY3JOEWZT0APP
790,2.0,right,left,0.0,0.2581,0.0,10.0,10.0,10.0,1.0,OYSTER_CATCHER_4.jpg,BROWN_THRASHER_3.jpg,AY3JOEWZT0APP
791,1.0,left,right,0.0,0.2529,0.0,11.0,11.0,11.0,1.0,LESSER_ADJUTANT_5.jpg,GREEN_BROADBILL_4.jpg,AY3JOEWZT0APP
792,3.0,left,right,0.0,0.1704,0.0,12.0,12.0,12.0,1.0,INDIGO_BUNTING_1.jpg,DARWINS_FLYCATCHER_2.jpg,AY3JOEWZT0APP
793,1.0,right,left,0.0,0.1694,0.0,13.0,13.0,13.0,1.0,SNOWY_OWL_5.jpg,RUFOUS_KINGFISHER_1.jpg,AY3JOEWZT0APP
794,2.0,left,right,0.0,0.1586,0.0,14.0,14.0,14.0,1.0,PARUS_MAJOR_1.jpg,CALIFORNIA_GULL_2.jpg,AY3JOEWZT0APP
795,3.0,left,right,0.0,0.0912,0.0,15.0,15.0,15.0,1.0,ECUADORIAN_HILLSTAR_5.jpg,CRIMSON_SUNBIRD_5.jpg,AY3JOEWZT0APP
796,3.0,left,left,1.0,0.1722,0.0,16.0,16.0,16.0,1.0,IVORY_GULL_1.jpg,FAIRY_TERN_4.jpg,AY3JOEWZT0APP
797,3.0,right,right,1.0,0.0854,0.0,17.0,17.0,17.0,1.0,FAIRY_TERN_1.jpg,GYRFALCON_1.jpg,AY3JOEWZT0APP
798,3.0,left,left,1.0,0.0986,0.0,18.0,18.0,18.0,1.0,ASIAN_DOLLARD_BIRD_2.jpg,VIOLET_GREEN_SWALLOW_4.jpg,AY3JOEWZT0APP
799,1.0,left,right,0.0,0.0075,0.0,19.0,19.0,19.0,1.0,GOLDEN_CHEEKED_WARBLER_2.jpg,SPOONBILL_1.jpg,AY3JOEWZT0APP
800,3.0,left,left,1.0,0.0851,0.0,20.0,20.0,20.0,1.0,WHITE_CHEEKED_TURACO_5.jpg,PYGMY_KINGFISHER_2.jpg,AY3JOEWZT0APP
801,3.0,right,right,1.0,0.0926,0.0,21.0,21.0,21.0,1.0,NORTHERN_BEARDLESS_TYRANNULET_5.jpg,EASTERN_TOWEE_2.jpg,AY3JOEWZT0APP
802,3.0,right,left,0.0,0.091,0.0,22.0,22.0,22.0,1.0,RED_BEARDED_BEE_EATER_1.jpg,VERMILION_FLYCATHER_3.jpg,AY3JOEWZT0APP
803,3.0,right,left,0.0,0.0977,0.0,23.0,23.0,23.0,1.0,BALD_EAGLE_5.jpg,SHOEBILL_3.jpg,AY3JOEWZT0APP
804,2.0,right,right,1.0,0.0075,0.0,24.0,24.0,24.0,1.0,INDIAN_PITTA_2.jpg,CRESTED_CARACARA_4.jpg,AY3JOEWZT0APP
805,3.0,right,right,1.0,0.0953,0.0,25.0,25.0,25.0,1.0,FRIGATE_1.jpg,RUBY_THROATED_HUMMINGBIRD_1.jpg,AY3JOEWZT0APP
806,3.0,right,right,1.0,0.0867,0.0,26.0,26.0,26.0,1.0,BOBOLINK_3.jpg,ALPINE_CHOUGH_4.jpg,AY3JOEWZT0APP
807,2.0,right,right,1.0,0.0908,0.0,27.0,27.0,27.0,1.0,CAATINGA_CACHOLOTE_4.jpg,KILLDEAR_2.jpg,AY3JOEWZT0APP
808,1.0,left,right,0.0,0.0942,0.0,28.0,28.0,28.0,1.0,GOLDEN_CHLOROPHONIA_5.jpg,ROADRUNNER_2.jpg,AY3JOEWZT0APP
809,2.0,right,right,1.0,0.088,0.0,29.0,29.0,29.0,1.0,INCA_TERN_2.jpg,MALACHITE_KINGFISHER_2.jpg,AY3JOEWZT0APP
810,2.0,right,left,0.0,0.0899,0.0,30.0,30.0,30.0,1.0,ASHY_STORM_PETREL_1.jpg,KAGU_5.jpg,AY3JOEWZT0APP
811,2.0,left,right,0.0,0.0077,0.0,31.0,31.0,31.0,1.0,SPLENDID_WREN_1.jpg,DOUBLE_BRESTED_CORMARANT_1.jpg,AY3JOEWZT0APP
812,1.0,left,left,1.0,0.0073,0.0,32.0,32.0,32.0,1.0,CRESTED_NUTHATCH_2.jpg,SCARLET_IBIS_3.jpg,AY3JOEWZT0APP
813,1.0,left,right,0.0,0.0074,0.0,33.0,33.0,33.0,1.0,CASSOWARY_1.jpg,ROSY_FACED_LOVEBIRD_4.jpg,AY3JOEWZT0APP
814,1.0,left,left,1.0,0.0094,0.0,34.0,34.0,34.0,1.0,SCARLET_TANAGER_2.jpg,BEARDED_BARBET_2.jpg,AY3JOEWZT0APP
815,2.0,right,right,1.0,0.0078,0.0,35.0,35.0,35.0,1.0,HIMALAYAN_MONAL_2.jpg,HAWAIIAN_GOOSE_4.jpg,AY3JOEWZT0APP
816,2.0,right,right,1.0,0.0075,0.0,36.0,36.0,36.0,1.0,MAGPIE_GOOSE_4.jpg,STRIPPED_SWALLOW_1.jpg,AY3JOEWZT0APP
817,2.0,right,right,1.0,0.0868,0.0,37.0,37.0,37.0,1.0,MASKED_BOOBY_5.jpg,PYGMY_KINGFISHER_5.jpg,AY3JOEWZT0APP
818,3.0,left,right,0.0,0.087,0.0,38.0,38.0,38.0,1.0,GRAY_KINGBIRD_5.jpg,AFRICAN_FIREFINCH_3.jpg,AY3JOEWZT0APP
819,2.0,left,left,1.0,0.1736,0.0,39.0,39.0,39.0,1.0,IVORY_GULL_3.jpg,FLAME_TANAGER_3.jpg,AY3JOEWZT0APP
820,2.0,right,left,0.0,0.0072,0.0,40.0,40.0,40.0,1.0,AFRICAN_EMERALD_CUCKOO_5.jpg,TASMANIAN_HEN_5.jpg,AY3JOEWZT0APP
821,1.0,left,right,0.0,0.0075,0.0,41.0,41.0,41.0,1.0,CERULEAN_WARBLER_1.jpg,AMERICAN_FLAMINGO_2.jpg,AY3JOEWZT0APP
822,1.0,right,left,0.0,0.0075,0.0,42.0,42.0,42.0,1.0,INDIAN_BUSTARD_2.jpg,FLAME_BOWERBIRD_3.jpg,AY3JOEWZT0APP
823,1.0,right,left,0.0,0.0883,0.0,43.0,43.0,43.0,1.0,SPOONBILL_3.jpg,PINK_ROBIN_4.jpg,AY3JOEWZT0APP
824,1.0,right,left,0.0,0.1822,0.0,44.0,44.0,44.0,1.0,CASSOWARY_2.jpg,INLAND_DOTTEREL_4.jpg,AY3JOEWZT0APP
825,3.0,left,left,1.0,0.0083,0.0,45.0,45.0,45.0,1.0,LARK_BUNTING_2.jpg,CACTUS_WREN_3.jpg,AY3JOEWZT0APP
826,2.0,left,right,0.0,0.0084,0.0,46.0,46.0,46.0,1.0,ARARIPE_MANAKIN_4.jpg,BLACK_VULTURE_1.jpg,AY3JOEWZT0APP
827,1.0,right,left,0.0,0.0073,0.0,47.0,47.0,47.0,1.0,GREAT_GRAY_OWL_4.jpg,CASPIAN_TERN_1.jpg,AY3JOEWZT0APP
828,1.0,left,right,0.0,0.0073,0.0,48.0,48.0,48.0,1.0,DOUBLE_BRESTED_CORMARANT_5.jpg,GILDED_FLICKER_2.jpg,AY3JOEWZT0APP
829,1.0,left,left,1.0,0.1032,0.0,49.0,49.0,49.0,1.0,BALI_STARLING_1.jpg,CAPE_LONGCLAW_5.jpg,AY3JOEWZT0APP
830,1.0,right,left,0.0,0.0074,0.0,50.0,50.0,50.0,1.0,ASHY_STORM_PETREL_2.jpg,RED_HEADED_WOODPECKER_5.jpg,AY3JOEWZT0APP
831,3.0,right,left,0.0,0.1783,0.0,51.0,51.0,51.0,1.0,GUINEA_TURACO_5.jpg,BROWN_NOODY_3.jpg,AY3JOEWZT0APP
832,2.0,left,left,1.0,0.0855,0.0,52.0,52.0,52.0,1.0,PEACOCK_3.jpg,STRAWBERRY_FINCH_4.jpg,AY3JOEWZT0APP
833,2.0,left,left,1.0,0.0901,0.0,53.0,53.0,53.0,1.0,RUBY_THROATED_HUMMINGBIRD_3.jpg,MYNA_5.jpg,AY3JOEWZT0APP
834,3.0,right,left,0.0,0.1815,0.0,54.0,54.0,54.0,1.0,SHORT_BILLED_DOWITCHER_5.jpg,OVENBIRD_5.jpg,AY3JOEWZT0APP
835,3.0,right,left,0.0,0.0868,0.0,55.0,55.0,55.0,1.0,BLACK_THROATED_BUSHTIT_1.jpg,CHUKAR_PARTRIDGE_5.jpg,AY3JOEWZT0APP
836,2.0,right,right,1.0,0.0899,0.0,56.0,56.0,56.0,1.0,HAMERKOP_1.jpg,MAGPIE_GOOSE_5.jpg,AY3JOEWZT0APP
837,3.0,left,left,1.0,0.0874,0.0,57.0,57.0,57.0,1.0,GREY_PLOVER_1.jpg,ECUADORIAN_HILLSTAR_3.jpg,AY3JOEWZT0APP
838,2.0,right,right,1.0,0.163,0.0,58.0,58.0,58.0,1.0,ALEXANDRINE_PARAKEET_1.jpg,AFRICAN_PIED_HORNBILL_5.jpg,AY3JOEWZT0APP
839,3.0,left,left,1.0,0.0836,0.0,59.0,59.0,59.0,1.0,MYNA_1.jpg,PARADISE_TANAGER_3.jpg,AY3JOEWZT0APP
