,index,test_encoding_response.keys,test_encoding_response.corr,trials.thisTrialN,target_image,pair,layer,correct,test_encoding_response.rt,key_resp_end.keys,subject
0,20,,1.0,0.0,GREY_PLOVER_1.jpg,GOULDIAN_FINCH_4.jpg,2.0,,,,A12O0RRD0YT6AD
1,21,,1.0,1.0,LARK_BUNTING_2.jpg,PEACOCK_1.jpg,1.0,,,,A12O0RRD0YT6AD
2,22,,1.0,2.0,BREWERS_BLACKBIRD_3.jpg,GUINEA_TURACO_3.jpg,1.0,,,,A12O0RRD0YT6AD
3,23,,1.0,3.0,ALPINE_CHOUGH_4.jpg,SNOWY_EGRET_2.jpg,1.0,,,,A12O0RRD0YT6AD
4,24,,1.0,4.0,RED_HEADED_WOODPECKER_5.jpg,ASHY_STORM_PETREL_2.jpg,1.0,,,,A12O0RRD0YT6AD
5,25,,1.0,5.0,TASMANIAN_HEN_5.jpg,COPPERY_TAILED_COUCAL_1.jpg,3.0,,,,A12O0RRD0YT6AD
6,26,,1.0,6.0,BROWN_NOODY_3.jpg,SPANGLED_COTINGA_4.jpg,2.0,,,,A12O0RRD0YT6AD
7,27,,1.0,7.0,PEACOCK_3.jpg,ANIANIAU_2.jpg,1.0,,,,A12O0RRD0YT6AD
8,28,,1.0,8.0,GRAY_KINGBIRD_5.jpg,AFRICAN_FIREFINCH_3.jpg,3.0,,,,A12O0RRD0YT6AD
9,29,,1.0,9.0,MAGPIE_GOOSE_5.jpg,HAMERKOP_1.jpg,2.0,,,,A12O0RRD0YT6AD
10,30,,1.0,10.0,PARUS_MAJOR_1.jpg,PINK_ROBIN_3.jpg,3.0,,,,A12O0RRD0YT6AD
11,31,,1.0,11.0,GOLDEN_CHEEKED_WARBLER_2.jpg,HOUSE_FINCH_2.jpg,2.0,,,,A12O0RRD0YT6AD
12,32,,1.0,12.0,SCARLET_TANAGER_2.jpg,BEARDED_BARBET_2.jpg,1.0,,,,A12O0RRD0YT6AD
13,33,,1.0,13.0,EASTERN_TOWEE_2.jpg,NORTHERN_BEARDLESS_TYRANNULET_5.jpg,3.0,,,,A12O0RRD0YT6AD
14,34,left,1.0,14.0,left.jpg,,,left,1.3436,,A12O0RRD0YT6AD
15,35,,1.0,15.0,SHOEBILL_3.jpg,BALD_EAGLE_5.jpg,3.0,,,,A12O0RRD0YT6AD
16,36,right,1.0,16.0,right.jpg,,,right,1.1964,,A12O0RRD0YT6AD
17,37,,1.0,17.0,KAGU_5.jpg,ASHY_STORM_PETREL_1.jpg,2.0,,,,A12O0RRD0YT6AD
18,38,,1.0,18.0,BROWN_THRASHER_3.jpg,OYSTER_CATCHER_4.jpg,2.0,,,,A12O0RRD0YT6AD
19,39,,1.0,19.0,CHUKAR_PARTRIDGE_5.jpg,BLACK_THROATED_BUSHTIT_1.jpg,3.0,,,,A12O0RRD0YT6AD
20,40,,1.0,20.0,ARARIPE_MANAKIN_4.jpg,BORNEAN_LEAFBIRD_3.jpg,3.0,,,,A12O0RRD0YT6AD
21,41,,1.0,21.0,INCA_TERN_4.jpg,SMITHS_LONGSPUR_5.jpg,2.0,,,,A12O0RRD0YT6AD
22,42,,1.0,22.0,HAWAIIAN_GOOSE_4.jpg,WATTLED_LAPWING_3.jpg,3.0,,,,A12O0RRD0YT6AD
23,43,,1.0,23.0,RUBY_THROATED_HUMMINGBIRD_2.jpg,GOLDEN_CHLOROPHONIA_2.jpg,1.0,,,,A12O0RRD0YT6AD
24,44,,1.0,24.0,RUBY_THROATED_HUMMINGBIRD_1.jpg,FRIGATE_1.jpg,3.0,,,,A12O0RRD0YT6AD
25,45,,1.0,25.0,AMERICAN_PIPIT_5.jpg,HEPATIC_TANAGER_5.jpg,3.0,,,,A12O0RRD0YT6AD
26,46,,1.0,26.0,CRESTED_NUTHATCH_2.jpg,SCARLET_IBIS_3.jpg,1.0,,,,A12O0RRD0YT6AD
27,47,,1.0,27.0,VERMILION_FLYCATHER_3.jpg,INDIAN_BUSTARD_1.jpg,1.0,,,,A12O0RRD0YT6AD
28,48,right,1.0,28.0,right.jpg,,,right,1.4158,,A12O0RRD0YT6AD
29,49,,1.0,29.0,CASPIAN_TERN_1.jpg,COMMON_LOON_2.jpg,3.0,,,,A12O0RRD0YT6AD
30,50,,1.0,30.0,SPLENDID_WREN_1.jpg,DOUBLE_BRESTED_CORMARANT_1.jpg,2.0,,,,A12O0RRD0YT6AD
31,51,,1.0,31.0,GYRFALCON_1.jpg,CINNAMON_ATTILA_2.jpg,2.0,,,,A12O0RRD0YT6AD
32,52,,1.0,32.0,FLAME_BOWERBIRD_3.jpg,QUETZAL_3.jpg,3.0,,,,A12O0RRD0YT6AD
33,53,,1.0,33.0,PYGMY_KINGFISHER_5.jpg,MASKED_BOOBY_5.jpg,2.0,,,,A12O0RRD0YT6AD
34,54,,1.0,34.0,EUROPEAN_TURTLE_DOVE_3.jpg,PAINTED_BUNTING_3.jpg,2.0,,,,A12O0RRD0YT6AD
35,55,,1.0,35.0,RUBY_THROATED_HUMMINGBIRD_3.jpg,NORTHERN_SHOVELER_1.jpg,3.0,,,,A12O0RRD0YT6AD
36,56,,1.0,36.0,AFRICAN_PIED_HORNBILL_5.jpg,KIWI_4.jpg,1.0,,,,A12O0RRD0YT6AD
37,57,right,1.0,37.0,right.jpg,,,right,1.116,,A12O0RRD0YT6AD
38,58,,1.0,38.0,STRIPPED_SWALLOW_1.jpg,MAGPIE_GOOSE_4.jpg,2.0,,,,A12O0RRD0YT6AD
39,59,,1.0,39.0,MALACHITE_KINGFISHER_2.jpg,AMERICAN_FLAMINGO_1.jpg,1.0,,,,A12O0RRD0YT6AD
40,60,,1.0,40.0,INLAND_DOTTEREL_4.jpg,CASSOWARY_2.jpg,1.0,,,,A12O0RRD0YT6AD
41,61,,1.0,41.0,LESSER_ADJUTANT_4.jpg,RAINBOW_LORIKEET_5.jpg,2.0,,,,A12O0RRD0YT6AD
42,62,,1.0,42.0,LITTLE_AUK_5.jpg,BEARDED_BELLBIRD_1.jpg,3.0,,,,A12O0RRD0YT6AD
43,63,,1.0,43.0,IVORY_GULL_1.jpg,WILSONS_BIRD_OF_PARADISE_4.jpg,1.0,,,,A12O0RRD0YT6AD
44,64,,1.0,44.0,INDIGO_BUNTING_1.jpg,FRIGATE_4.jpg,1.0,,,,A12O0RRD0YT6AD
45,65,,1.0,45.0,GOLDEN_CHLOROPHONIA_5.jpg,COMMON_HOUSE_MARTIN_4.jpg,2.0,,,,A12O0RRD0YT6AD
46,66,,1.0,46.0,CRESTED_CARACARA_4.jpg,INDIAN_PITTA_2.jpg,2.0,,,,A12O0RRD0YT6AD
47,67,,1.0,47.0,ECUADORIAN_HILLSTAR_5.jpg,SCARLET_IBIS_2.jpg,1.0,,,,A12O0RRD0YT6AD
48,68,right,1.0,48.0,right.jpg,,,right,1.0568,,A12O0RRD0YT6AD
49,69,,1.0,49.0,IVORY_GULL_3.jpg,INDIGO_FLYCATCHER_2.jpg,1.0,,,,A12O0RRD0YT6AD
50,70,,1.0,50.0,NORTHERN_JACANA_3.jpg,SCARLET_IBIS_4.jpg,3.0,,,,A12O0RRD0YT6AD
51,71,,1.0,51.0,BALI_STARLING_1.jpg,CAPE_LONGCLAW_5.jpg,1.0,,,,A12O0RRD0YT6AD
52,72,,1.0,52.0,CASSOWARY_1.jpg,SCARLET_MACAW_1.jpg,2.0,,,,A12O0RRD0YT6AD
53,73,,1.0,53.0,ASIAN_DOLLARD_BIRD_2.jpg,ALBATROSS_2.jpg,1.0,,,,A12O0RRD0YT6AD
54,74,,1.0,54.0,CERULEAN_WARBLER_1.jpg,AMERICAN_FLAMINGO_5.jpg,2.0,,,,A12O0RRD0YT6AD
55,75,,1.0,55.0,PINK_ROBIN_4.jpg,ALBATROSS_4.jpg,2.0,,,,A12O0RRD0YT6AD
56,76,,1.0,56.0,ASIAN_CRESTED_IBIS_4.jpg,OYSTER_CATCHER_2.jpg,2.0,,,,A12O0RRD0YT6AD
57,77,,1.0,57.0,LESSER_ADJUTANT_5.jpg,GREEN_BROADBILL_4.jpg,1.0,,,,A12O0RRD0YT6AD
58,78,,1.0,58.0,MYNA_1.jpg,OSTRICH_3.jpg,1.0,,,,A12O0RRD0YT6AD
59,79,,1.0,59.0,KILLDEAR_2.jpg,AZURE_TIT_5.jpg,3.0,,,,A12O0RRD0YT6AD
60,80,,1.0,60.0,DOUBLE_BRESTED_CORMARANT_5.jpg,CHINESE_POND_HERON_2.jpg,3.0,,,,A12O0RRD0YT6AD
61,81,,1.0,61.0,OCELLATED_TURKEY_1.jpg,PURPLE_SWAMPHEN_4.jpg,3.0,,,,A12O0RRD0YT6AD
62,82,,1.0,62.0,WHITE_CHEEKED_TURACO_5.jpg,PYGMY_KINGFISHER_2.jpg,3.0,,,,A12O0RRD0YT6AD
63,83,,1.0,63.0,RUFOUS_KINGFISHER_1.jpg,HORNED_SUNGEM_4.jpg,3.0,,,,A12O0RRD0YT6AD
64,84,,1.0,64.0,OVENBIRD_5.jpg,FAIRY_PENGUIN_1.jpg,2.0,,,,A12O0RRD0YT6AD
65,20,,1.0,0.0,STRIPPED_SWALLOW_1.jpg,MAGPIE_GOOSE_4.jpg,2.0,,,,A1S0QK9U7INTSX
66,21,,1.0,1.0,GOLDEN_CHLOROPHONIA_5.jpg,VERMILION_FLYCATHER_5.jpg,3.0,,,,A1S0QK9U7INTSX
67,22,,1.0,2.0,RUBY_THROATED_HUMMINGBIRD_3.jpg,MYNA_5.jpg,2.0,,,,A1S0QK9U7INTSX
68,23,,1.0,3.0,ARARIPE_MANAKIN_4.jpg,KIWI_3.jpg,1.0,,,,A1S0QK9U7INTSX
69,24,,1.0,4.0,FLAME_BOWERBIRD_3.jpg,BROWN_THRASHER_4.jpg,2.0,,,,A1S0QK9U7INTSX
70,25,,1.0,5.0,MALACHITE_KINGFISHER_2.jpg,INCA_TERN_2.jpg,2.0,,,,A1S0QK9U7INTSX
71,26,,1.0,6.0,RUBY_THROATED_HUMMINGBIRD_2.jpg,APAPANE_4.jpg,2.0,,,,A1S0QK9U7INTSX
72,27,,1.0,7.0,PINK_ROBIN_4.jpg,COMMON_IORA_4.jpg,3.0,,,,A1S0QK9U7INTSX
73,28,,1.0,8.0,INCA_TERN_4.jpg,SMITHS_LONGSPUR_5.jpg,2.0,,,,A1S0QK9U7INTSX
74,29,left,0.0,9.0,right.jpg,,,right,1.1278,,A1S0QK9U7INTSX
75,30,,1.0,10.0,NORTHERN_JACANA_3.jpg,CRAB_PLOVER_3.jpg,2.0,,,,A1S0QK9U7INTSX
76,31,,1.0,11.0,BREWERS_BLACKBIRD_3.jpg,CAPE_LONGCLAW_2.jpg,3.0,,,,A1S0QK9U7INTSX
77,32,,1.0,12.0,PEACOCK_3.jpg,CHATTERING_LORY_2.jpg,3.0,,,,A1S0QK9U7INTSX
78,33,,1.0,13.0,TASMANIAN_HEN_5.jpg,AFRICAN_EMERALD_CUCKOO_5.jpg,2.0,,,,A1S0QK9U7INTSX
79,34,,1.0,14.0,KILLDEAR_2.jpg,CAATINGA_CACHOLOTE_4.jpg,2.0,,,,A1S0QK9U7INTSX
80,35,,1.0,15.0,GYRFALCON_1.jpg,OSTRICH_1.jpg,1.0,,,,A1S0QK9U7INTSX
81,36,,1.0,16.0,BROWN_NOODY_3.jpg,PEACOCK_2.jpg,1.0,,,,A1S0QK9U7INTSX
82,37,,1.0,17.0,MYNA_1.jpg,GREY_PLOVER_4.jpg,2.0,,,,A1S0QK9U7INTSX
83,38,,1.0,18.0,SCARLET_TANAGER_2.jpg,NORTHERN_GANNET_2.jpg,2.0,,,,A1S0QK9U7INTSX
84,39,,1.0,19.0,CERULEAN_WARBLER_1.jpg,AMERICAN_FLAMINGO_2.jpg,1.0,,,,A1S0QK9U7INTSX
85,40,right,0.0,20.0,left.jpg,,,left,0.1529,,A1S0QK9U7INTSX
86,41,,1.0,21.0,OCELLATED_TURKEY_1.jpg,PURPLE_SWAMPHEN_4.jpg,3.0,,,,A1S0QK9U7INTSX
87,42,,1.0,22.0,ASIAN_CRESTED_IBIS_4.jpg,IVORY_GULL_2.jpg,3.0,,,,A1S0QK9U7INTSX
88,43,,1.0,23.0,ASIAN_DOLLARD_BIRD_2.jpg,ALBATROSS_2.jpg,1.0,,,,A1S0QK9U7INTSX
89,44,,1.0,24.0,VERMILION_FLYCATHER_3.jpg,RED_BEARDED_BEE_EATER_1.jpg,3.0,,,,A1S0QK9U7INTSX
90,45,,1.0,25.0,INLAND_DOTTEREL_4.jpg,CRESTED_KINGFISHER_1.jpg,3.0,,,,A1S0QK9U7INTSX
91,46,,1.0,26.0,PYGMY_KINGFISHER_5.jpg,MASKED_BOOBY_5.jpg,2.0,,,,A1S0QK9U7INTSX
92,47,,1.0,27.0,IVORY_GULL_3.jpg,FLAME_TANAGER_3.jpg,2.0,,,,A1S0QK9U7INTSX
93,48,,1.0,28.0,SHOEBILL_3.jpg,EASTERN_MEADOWLARK_1.jpg,1.0,,,,A1S0QK9U7INTSX
94,49,,1.0,29.0,CRESTED_CARACARA_4.jpg,TOUCHAN_4.jpg,3.0,,,,A1S0QK9U7INTSX
95,50,right,1.0,30.0,right.jpg,,,right,0.9191,,A1S0QK9U7INTSX
96,51,,1.0,31.0,SPLENDID_WREN_1.jpg,DOUBLE_BRESTED_CORMARANT_1.jpg,2.0,,,,A1S0QK9U7INTSX
97,52,,1.0,32.0,CASSOWARY_1.jpg,ROSY_FACED_LOVEBIRD_4.jpg,1.0,,,,A1S0QK9U7INTSX
98,53,,1.0,33.0,KAGU_5.jpg,RED_BEARDED_BEE_EATER_3.jpg,1.0,,,,A1S0QK9U7INTSX
99,54,,1.0,34.0,EASTERN_TOWEE_2.jpg,NORTHERN_BEARDLESS_TYRANNULET_5.jpg,3.0,,,,A1S0QK9U7INTSX
100,55,,1.0,35.0,BROWN_THRASHER_3.jpg,BLACK_BAZA_4.jpg,3.0,,,,A1S0QK9U7INTSX
101,56,,1.0,36.0,EUROPEAN_TURTLE_DOVE_3.jpg,TEAL_DUCK_2.jpg,1.0,,,,A1S0QK9U7INTSX
102,57,,1.0,37.0,CASPIAN_TERN_1.jpg,COMMON_LOON_2.jpg,3.0,,,,A1S0QK9U7INTSX
103,58,,1.0,38.0,LESSER_ADJUTANT_5.jpg,GREEN_BROADBILL_4.jpg,1.0,,,,A1S0QK9U7INTSX
104,59,,1.0,39.0,HAWAIIAN_GOOSE_4.jpg,CUBAN_TODY_3.jpg,1.0,,,,A1S0QK9U7INTSX
105,60,,1.0,40.0,OVENBIRD_5.jpg,MYNA_4.jpg,1.0,,,,A1S0QK9U7INTSX
106,61,,1.0,41.0,CHUKAR_PARTRIDGE_5.jpg,RAZORBILL_1.jpg,2.0,,,,A1S0QK9U7INTSX
107,62,left,1.0,42.0,left.jpg,,,left,1.1163,,A1S0QK9U7INTSX
108,63,,1.0,43.0,LITTLE_AUK_5.jpg,ORANGE_BRESTED_BUNTING_3.jpg,2.0,,,,A1S0QK9U7INTSX
109,64,,1.0,44.0,LARK_BUNTING_2.jpg,CACTUS_WREN_3.jpg,3.0,,,,A1S0QK9U7INTSX
110,65,,1.0,45.0,INDIGO_BUNTING_1.jpg,DARWINS_FLYCATCHER_2.jpg,3.0,,,,A1S0QK9U7INTSX
111,66,,1.0,46.0,GOLDEN_CHEEKED_WARBLER_2.jpg,SPOONBILL_1.jpg,1.0,,,,A1S0QK9U7INTSX
112,67,,1.0,47.0,ECUADORIAN_HILLSTAR_5.jpg,CRIMSON_SUNBIRD_5.jpg,3.0,,,,A1S0QK9U7INTSX
113,68,,1.0,48.0,LESSER_ADJUTANT_4.jpg,RAINBOW_LORIKEET_5.jpg,2.0,,,,A1S0QK9U7INTSX
114,69,,1.0,49.0,IVORY_GULL_1.jpg,EASTERN_GOLDEN_WEAVER_5.jpg,2.0,,,,A1S0QK9U7INTSX
115,70,,1.0,50.0,AMERICAN_PIPIT_5.jpg,HEPATIC_TANAGER_5.jpg,3.0,,,,A1S0QK9U7INTSX
116,71,,1.0,51.0,CRESTED_NUTHATCH_2.jpg,SCARLET_IBIS_3.jpg,1.0,,,,A1S0QK9U7INTSX
117,72,,1.0,52.0,MAGPIE_GOOSE_5.jpg,OYSTER_CATCHER_3.jpg,3.0,,,,A1S0QK9U7INTSX
118,73,,1.0,53.0,DOUBLE_BRESTED_CORMARANT_5.jpg,GILDED_FLICKER_2.jpg,1.0,,,,A1S0QK9U7INTSX
119,74,left,1.0,54.0,left.jpg,,,left,1.1963,,A1S0QK9U7INTSX
120,75,,1.0,55.0,RUFOUS_KINGFISHER_1.jpg,HORNED_SUNGEM_4.jpg,3.0,,,,A1S0QK9U7INTSX
121,76,,1.0,56.0,RUBY_THROATED_HUMMINGBIRD_1.jpg,BANANAQUIT_2.jpg,1.0,,,,A1S0QK9U7INTSX
122,77,,1.0,57.0,AFRICAN_PIED_HORNBILL_5.jpg,CAPUCHINBIRD_2.jpg,3.0,,,,A1S0QK9U7INTSX
123,78,,1.0,58.0,BALI_STARLING_1.jpg,PURPLE_FINCH_2.jpg,2.0,,,,A1S0QK9U7INTSX
124,79,,1.0,59.0,GREY_PLOVER_1.jpg,HYACINTH_MACAW_3.jpg,1.0,,,,A1S0QK9U7INTSX
125,80,,1.0,60.0,WHITE_CHEEKED_TURACO_5.jpg,PYGMY_KINGFISHER_2.jpg,3.0,,,,A1S0QK9U7INTSX
126,81,,1.0,61.0,ALPINE_CHOUGH_4.jpg,EUROPEAN_GOLDFINCH_3.jpg,2.0,,,,A1S0QK9U7INTSX
127,82,,1.0,62.0,RED_HEADED_WOODPECKER_5.jpg,ASHY_STORM_PETREL_2.jpg,1.0,,,,A1S0QK9U7INTSX
128,83,,1.0,63.0,GRAY_KINGBIRD_5.jpg,BALD_EAGLE_2.jpg,1.0,,,,A1S0QK9U7INTSX
129,84,,1.0,64.0,PARUS_MAJOR_1.jpg,SANDHILL_CRANE_4.jpg,1.0,,,,A1S0QK9U7INTSX
130,20,,1.0,0.0,NORTHERN_JACANA_3.jpg,AMERICAN_GOLDFINCH_4.jpg,1.0,,,,A21UA6O7ZFAIQJ
131,21,,1.0,1.0,INCA_TERN_4.jpg,SMITHS_LONGSPUR_5.jpg,2.0,,,,A21UA6O7ZFAIQJ
132,22,,1.0,2.0,GOLDEN_CHEEKED_WARBLER_2.jpg,SPOONBILL_1.jpg,1.0,,,,A21UA6O7ZFAIQJ
133,23,,1.0,3.0,MAGPIE_GOOSE_5.jpg,OYSTER_CATCHER_3.jpg,3.0,,,,A21UA6O7ZFAIQJ
134,24,,1.0,4.0,MYNA_1.jpg,PARADISE_TANAGER_3.jpg,3.0,,,,A21UA6O7ZFAIQJ
135,25,,1.0,5.0,PYGMY_KINGFISHER_5.jpg,GRANDALA_2.jpg,1.0,,,,A21UA6O7ZFAIQJ
136,26,,1.0,6.0,HAWAIIAN_GOOSE_4.jpg,HIMALAYAN_MONAL_2.jpg,2.0,,,,A21UA6O7ZFAIQJ
137,27,right,1.0,7.0,right.jpg,,,right,0.528,,A21UA6O7ZFAIQJ
138,28,,1.0,8.0,RUBY_THROATED_HUMMINGBIRD_2.jpg,DUSKY_ROBIN_5.jpg,3.0,,,,A21UA6O7ZFAIQJ
139,29,,1.0,9.0,CASPIAN_TERN_1.jpg,GREAT_GRAY_OWL_4.jpg,1.0,,,,A21UA6O7ZFAIQJ
140,30,,1.0,10.0,WHITE_CHEEKED_TURACO_5.jpg,GREAT_POTOO_3.jpg,2.0,,,,A21UA6O7ZFAIQJ
141,31,,1.0,11.0,ARARIPE_MANAKIN_4.jpg,KIWI_3.jpg,1.0,,,,A21UA6O7ZFAIQJ
142,32,,1.0,12.0,BREWERS_BLACKBIRD_3.jpg,GUINEA_TURACO_3.jpg,1.0,,,,A21UA6O7ZFAIQJ
143,33,,1.0,13.0,SCARLET_TANAGER_2.jpg,BORNEAN_LEAFBIRD_1.jpg,3.0,,,,A21UA6O7ZFAIQJ
144,34,,1.0,14.0,GOLDEN_CHLOROPHONIA_5.jpg,ROADRUNNER_2.jpg,1.0,,,,A21UA6O7ZFAIQJ
145,35,,1.0,15.0,GRAY_KINGBIRD_5.jpg,COCK_OF_THE__ROCK_4.jpg,2.0,,,,A21UA6O7ZFAIQJ
146,36,,1.0,16.0,FLAME_BOWERBIRD_3.jpg,QUETZAL_3.jpg,3.0,,,,A21UA6O7ZFAIQJ
147,37,,1.0,17.0,IVORY_GULL_1.jpg,EASTERN_GOLDEN_WEAVER_5.jpg,2.0,,,,A21UA6O7ZFAIQJ
148,38,,1.0,18.0,BALI_STARLING_1.jpg,CAPE_LONGCLAW_5.jpg,1.0,,,,A21UA6O7ZFAIQJ
149,39,,1.0,19.0,GREY_PLOVER_1.jpg,ECUADORIAN_HILLSTAR_3.jpg,3.0,,,,A21UA6O7ZFAIQJ
150,40,,1.0,20.0,LESSER_ADJUTANT_5.jpg,GAMBELS_QUAIL_1.jpg,2.0,,,,A21UA6O7ZFAIQJ
151,41,,1.0,21.0,LARK_BUNTING_2.jpg,CACTUS_WREN_3.jpg,3.0,,,,A21UA6O7ZFAIQJ
152,42,,1.0,22.0,ALPINE_CHOUGH_4.jpg,EUROPEAN_GOLDFINCH_3.jpg,2.0,,,,A21UA6O7ZFAIQJ
153,43,,1.0,23.0,PARUS_MAJOR_1.jpg,SANDHILL_CRANE_4.jpg,1.0,,,,A21UA6O7ZFAIQJ
154,44,right,1.0,24.0,right.jpg,,,right,0.731,,A21UA6O7ZFAIQJ
155,45,,1.0,25.0,GYRFALCON_1.jpg,CINNAMON_ATTILA_2.jpg,2.0,,,,A21UA6O7ZFAIQJ
156,46,,1.0,26.0,RUBY_THROATED_HUMMINGBIRD_3.jpg,MYNA_5.jpg,2.0,,,,A21UA6O7ZFAIQJ
157,47,,1.0,27.0,AMERICAN_PIPIT_5.jpg,EMU_2.jpg,1.0,,,,A21UA6O7ZFAIQJ
158,48,,1.0,28.0,EASTERN_TOWEE_2.jpg,NORTHERN_BEARDLESS_TYRANNULET_5.jpg,3.0,,,,A21UA6O7ZFAIQJ
159,49,,1.0,29.0,OVENBIRD_5.jpg,SHORT_BILLED_DOWITCHER_5.jpg,3.0,,,,A21UA6O7ZFAIQJ
160,50,,1.0,30.0,KILLDEAR_2.jpg,CAATINGA_CACHOLOTE_4.jpg,2.0,,,,A21UA6O7ZFAIQJ
161,51,right,1.0,31.0,right.jpg,,,right,0.517,,A21UA6O7ZFAIQJ
162,52,,1.0,32.0,ASIAN_CRESTED_IBIS_4.jpg,OYSTER_CATCHER_2.jpg,2.0,,,,A21UA6O7ZFAIQJ
163,53,,1.0,33.0,VERMILION_FLYCATHER_3.jpg,RED_BEARDED_BEE_EATER_1.jpg,3.0,,,,A21UA6O7ZFAIQJ
164,54,,1.0,34.0,CRESTED_CARACARA_4.jpg,TOUCHAN_4.jpg,3.0,,,,A21UA6O7ZFAIQJ
165,55,,1.0,35.0,AFRICAN_PIED_HORNBILL_5.jpg,CAPUCHINBIRD_2.jpg,3.0,,,,A21UA6O7ZFAIQJ
166,56,,1.0,36.0,CHUKAR_PARTRIDGE_5.jpg,RAZORBILL_1.jpg,2.0,,,,A21UA6O7ZFAIQJ
167,57,,1.0,37.0,CRESTED_NUTHATCH_2.jpg,AFRICAN_FIREFINCH_1.jpg,2.0,,,,A21UA6O7ZFAIQJ
168,58,,1.0,38.0,DOUBLE_BRESTED_CORMARANT_5.jpg,GILDED_FLICKER_2.jpg,1.0,,,,A21UA6O7ZFAIQJ
169,59,,1.0,39.0,MALACHITE_KINGFISHER_2.jpg,INCA_TERN_2.jpg,2.0,,,,A21UA6O7ZFAIQJ
170,60,,1.0,40.0,KAGU_5.jpg,DEMOISELLE_CRANE_1.jpg,3.0,,,,A21UA6O7ZFAIQJ
171,61,,1.0,41.0,ECUADORIAN_HILLSTAR_5.jpg,BOBOLINK_5.jpg,2.0,,,,A21UA6O7ZFAIQJ
172,62,,1.0,42.0,LESSER_ADJUTANT_4.jpg,ALTAMIRA_YELLOWTHROAT_5.jpg,1.0,,,,A21UA6O7ZFAIQJ
173,63,,1.0,43.0,PEACOCK_3.jpg,STRAWBERRY_FINCH_4.jpg,2.0,,,,A21UA6O7ZFAIQJ
174,64,right,1.0,44.0,right.jpg,,,right,0.607,,A21UA6O7ZFAIQJ
175,65,,1.0,45.0,TASMANIAN_HEN_5.jpg,GREEN_BROADBILL_1.jpg,1.0,,,,A21UA6O7ZFAIQJ
176,66,,1.0,46.0,INLAND_DOTTEREL_4.jpg,CRESTED_KINGFISHER_1.jpg,3.0,,,,A21UA6O7ZFAIQJ
177,67,,1.0,47.0,OCELLATED_TURKEY_1.jpg,CHIPPING_SPARROW_1.jpg,1.0,,,,A21UA6O7ZFAIQJ
178,68,,1.0,48.0,PINK_ROBIN_4.jpg,SPOONBILL_3.jpg,1.0,,,,A21UA6O7ZFAIQJ
179,69,,1.0,49.0,SHOEBILL_3.jpg,BALD_EAGLE_5.jpg,3.0,,,,A21UA6O7ZFAIQJ
180,70,,1.0,50.0,LITTLE_AUK_5.jpg,ORANGE_BRESTED_BUNTING_3.jpg,2.0,,,,A21UA6O7ZFAIQJ
181,71,right,1.0,51.0,right.jpg,,,right,0.927,,A21UA6O7ZFAIQJ
182,72,,1.0,52.0,RED_HEADED_WOODPECKER_5.jpg,ASHY_STORM_PETREL_2.jpg,1.0,,,,A21UA6O7ZFAIQJ
183,73,,1.0,53.0,RUFOUS_KINGFISHER_1.jpg,MAGPIE_GOOSE_3.jpg,2.0,,,,A21UA6O7ZFAIQJ
184,74,,1.0,54.0,SPLENDID_WREN_1.jpg,CUBAN_TODY_4.jpg,3.0,,,,A21UA6O7ZFAIQJ
185,75,,1.0,55.0,ASIAN_DOLLARD_BIRD_2.jpg,ALBATROSS_2.jpg,1.0,,,,A21UA6O7ZFAIQJ
186,76,,1.0,56.0,INDIGO_BUNTING_1.jpg,FRIGATE_4.jpg,1.0,,,,A21UA6O7ZFAIQJ
187,77,,1.0,57.0,STRIPPED_SWALLOW_1.jpg,DOUBLE_BRESTED_CORMARANT_4.jpg,1.0,,,,A21UA6O7ZFAIQJ
188,78,,1.0,58.0,RUBY_THROATED_HUMMINGBIRD_1.jpg,FRIGATE_1.jpg,3.0,,,,A21UA6O7ZFAIQJ
189,79,,1.0,59.0,IVORY_GULL_3.jpg,SNOWY_EGRET_4.jpg,3.0,,,,A21UA6O7ZFAIQJ
190,80,,1.0,60.0,EUROPEAN_TURTLE_DOVE_3.jpg,PAINTED_BUNTING_3.jpg,2.0,,,,A21UA6O7ZFAIQJ
191,81,,1.0,61.0,CASSOWARY_1.jpg,AFRICAN_OYSTER_CATCHER_2.jpg,3.0,,,,A21UA6O7ZFAIQJ
192,82,,1.0,62.0,BROWN_NOODY_3.jpg,SPANGLED_COTINGA_4.jpg,2.0,,,,A21UA6O7ZFAIQJ
193,83,,1.0,63.0,BROWN_THRASHER_3.jpg,BLACK_BAZA_4.jpg,3.0,,,,A21UA6O7ZFAIQJ
194,84,,1.0,64.0,CERULEAN_WARBLER_1.jpg,AMERICAN_FLAMINGO_2.jpg,1.0,,,,A21UA6O7ZFAIQJ
195,20,,1.0,0.0,GREY_PLOVER_1.jpg,GOULDIAN_FINCH_4.jpg,2.0,,,,A2HGETLDQKWF1O
196,21,,1.0,1.0,GRAY_KINGBIRD_5.jpg,COCK_OF_THE__ROCK_4.jpg,2.0,,,,A2HGETLDQKWF1O
197,22,,1.0,2.0,RUFOUS_KINGFISHER_1.jpg,HORNED_SUNGEM_4.jpg,3.0,,,,A2HGETLDQKWF1O
198,23,,1.0,3.0,KILLDEAR_2.jpg,AZURE_TIT_5.jpg,3.0,,,,A2HGETLDQKWF1O
199,24,,1.0,4.0,BROWN_NOODY_3.jpg,PEACOCK_2.jpg,1.0,,,,A2HGETLDQKWF1O
200,25,,1.0,5.0,RUBY_THROATED_HUMMINGBIRD_2.jpg,GOLDEN_CHLOROPHONIA_2.jpg,1.0,,,,A2HGETLDQKWF1O
201,26,,1.0,6.0,AFRICAN_PIED_HORNBILL_5.jpg,ALEXANDRINE_PARAKEET_1.jpg,2.0,,,,A2HGETLDQKWF1O
202,27,,1.0,7.0,ASIAN_CRESTED_IBIS_4.jpg,OYSTER_CATCHER_2.jpg,2.0,,,,A2HGETLDQKWF1O
203,28,,1.0,8.0,INLAND_DOTTEREL_4.jpg,CRESTED_KINGFISHER_1.jpg,3.0,,,,A2HGETLDQKWF1O
204,29,,1.0,9.0,DOUBLE_BRESTED_CORMARANT_5.jpg,EURASIAN_MAGPIE_4.jpg,2.0,,,,A2HGETLDQKWF1O
205,30,,1.0,10.0,CASSOWARY_1.jpg,ROSY_FACED_LOVEBIRD_4.jpg,1.0,,,,A2HGETLDQKWF1O
206,31,,1.0,11.0,PEACOCK_3.jpg,CHATTERING_LORY_2.jpg,3.0,,,,A2HGETLDQKWF1O
207,32,,1.0,12.0,ARARIPE_MANAKIN_4.jpg,BORNEAN_LEAFBIRD_3.jpg,3.0,,,,A2HGETLDQKWF1O
208,33,,1.0,13.0,SHOEBILL_3.jpg,EASTERN_MEADOWLARK_1.jpg,1.0,,,,A2HGETLDQKWF1O
209,34,,0.0,14.0,left.jpg,,,left,,,A2HGETLDQKWF1O
210,35,,1.0,15.0,PINK_ROBIN_4.jpg,ALBATROSS_4.jpg,2.0,,,,A2HGETLDQKWF1O
211,36,,1.0,16.0,MYNA_1.jpg,PARADISE_TANAGER_3.jpg,3.0,,,,A2HGETLDQKWF1O
212,37,,1.0,17.0,ASIAN_DOLLARD_BIRD_2.jpg,VIOLET_GREEN_SWALLOW_4.jpg,3.0,,,,A2HGETLDQKWF1O
213,38,,1.0,18.0,OVENBIRD_5.jpg,SHORT_BILLED_DOWITCHER_5.jpg,3.0,,,,A2HGETLDQKWF1O
214,39,,1.0,19.0,IVORY_GULL_3.jpg,SNOWY_EGRET_4.jpg,3.0,,,,A2HGETLDQKWF1O
215,40,left,1.0,20.0,left.jpg,,,left,1.4056,,A2HGETLDQKWF1O
216,41,,1.0,21.0,KAGU_5.jpg,ASHY_STORM_PETREL_1.jpg,2.0,,,,A2HGETLDQKWF1O
217,42,,1.0,22.0,BALI_STARLING_1.jpg,IBERIAN_MAGPIE_1.jpg,3.0,,,,A2HGETLDQKWF1O
218,43,,1.0,23.0,LARK_BUNTING_2.jpg,PEACOCK_1.jpg,1.0,,,,A2HGETLDQKWF1O
219,44,,1.0,24.0,MAGPIE_GOOSE_5.jpg,HAMERKOP_1.jpg,2.0,,,,A2HGETLDQKWF1O
220,45,,1.0,25.0,NORTHERN_JACANA_3.jpg,CRAB_PLOVER_3.jpg,2.0,,,,A2HGETLDQKWF1O
221,46,,1.0,26.0,BREWERS_BLACKBIRD_3.jpg,GOLDEN_CHEEKED_WARBLER_3.jpg,2.0,,,,A2HGETLDQKWF1O
222,47,,1.0,27.0,RUBY_THROATED_HUMMINGBIRD_3.jpg,NORTHERN_SHOVELER_1.jpg,3.0,,,,A2HGETLDQKWF1O
223,48,,1.0,28.0,CRESTED_CARACARA_4.jpg,TOUCHAN_4.jpg,3.0,,,,A2HGETLDQKWF1O
224,49,,1.0,29.0,CHUKAR_PARTRIDGE_5.jpg,OSTRICH_5.jpg,1.0,,,,A2HGETLDQKWF1O
225,50,,1.0,30.0,EUROPEAN_TURTLE_DOVE_3.jpg,MALABAR_HORNBILL_2.jpg,3.0,,,,A2HGETLDQKWF1O
226,51,,1.0,31.0,LITTLE_AUK_5.jpg,ORANGE_BRESTED_BUNTING_3.jpg,2.0,,,,A2HGETLDQKWF1O
227,52,left,1.0,32.0,left.jpg,,,left,1.3909,,A2HGETLDQKWF1O
228,53,,1.0,33.0,VERMILION_FLYCATHER_3.jpg,INDIAN_BUSTARD_1.jpg,1.0,,,,A2HGETLDQKWF1O
229,54,,1.0,34.0,FLAME_BOWERBIRD_3.jpg,INDIAN_BUSTARD_2.jpg,1.0,,,,A2HGETLDQKWF1O
230,55,,1.0,35.0,STRIPPED_SWALLOW_1.jpg,DOUBLE_BRESTED_CORMARANT_4.jpg,1.0,,,,A2HGETLDQKWF1O
231,56,,0.0,36.0,left.jpg,,,left,,,A2HGETLDQKWF1O
232,57,,1.0,37.0,SCARLET_TANAGER_2.jpg,BORNEAN_LEAFBIRD_1.jpg,3.0,,,,A2HGETLDQKWF1O
233,58,,1.0,38.0,INCA_TERN_4.jpg,ELLIOTS__PHEASANT_4.jpg,1.0,,,,A2HGETLDQKWF1O
234,59,,1.0,39.0,CASPIAN_TERN_1.jpg,COMMON_LOON_2.jpg,3.0,,,,A2HGETLDQKWF1O
235,60,,1.0,40.0,HAWAIIAN_GOOSE_4.jpg,HIMALAYAN_MONAL_2.jpg,2.0,,,,A2HGETLDQKWF1O
236,61,,1.0,41.0,SPLENDID_WREN_1.jpg,DOUBLE_BRESTED_CORMARANT_1.jpg,2.0,,,,A2HGETLDQKWF1O
237,62,,1.0,42.0,BROWN_THRASHER_3.jpg,DOUBLE_EYED_FIG_PARROT_3.jpg,1.0,,,,A2HGETLDQKWF1O
238,63,,1.0,43.0,RED_HEADED_WOODPECKER_5.jpg,ASHY_STORM_PETREL_2.jpg,1.0,,,,A2HGETLDQKWF1O
239,64,,1.0,44.0,OCELLATED_TURKEY_1.jpg,CHIPPING_SPARROW_1.jpg,1.0,,,,A2HGETLDQKWF1O
240,65,,1.0,45.0,PARUS_MAJOR_1.jpg,SANDHILL_CRANE_4.jpg,1.0,,,,A2HGETLDQKWF1O
241,66,,1.0,46.0,CRESTED_NUTHATCH_2.jpg,CANARY_1.jpg,3.0,,,,A2HGETLDQKWF1O
242,67,,1.0,47.0,INDIGO_BUNTING_1.jpg,FRIGATE_4.jpg,1.0,,,,A2HGETLDQKWF1O
243,68,,1.0,48.0,AMERICAN_PIPIT_5.jpg,GREEN_MAGPIE_1.jpg,2.0,,,,A2HGETLDQKWF1O
244,69,,1.0,49.0,LESSER_ADJUTANT_5.jpg,GREEN_BROADBILL_4.jpg,1.0,,,,A2HGETLDQKWF1O
245,70,,1.0,50.0,PYGMY_KINGFISHER_5.jpg,GRANDALA_2.jpg,1.0,,,,A2HGETLDQKWF1O
246,71,,1.0,51.0,ECUADORIAN_HILLSTAR_5.jpg,BOBOLINK_5.jpg,2.0,,,,A2HGETLDQKWF1O
247,72,,1.0,52.0,LESSER_ADJUTANT_4.jpg,ALTAMIRA_YELLOWTHROAT_5.jpg,1.0,,,,A2HGETLDQKWF1O
248,73,,1.0,53.0,WHITE_CHEEKED_TURACO_5.jpg,GREAT_POTOO_3.jpg,2.0,,,,A2HGETLDQKWF1O
249,74,right,1.0,54.0,right.jpg,,,right,1.935900001,,A2HGETLDQKWF1O
250,75,,1.0,55.0,IVORY_GULL_1.jpg,EASTERN_GOLDEN_WEAVER_5.jpg,2.0,,,,A2HGETLDQKWF1O
251,76,,1.0,56.0,ALPINE_CHOUGH_4.jpg,EUROPEAN_GOLDFINCH_3.jpg,2.0,,,,A2HGETLDQKWF1O
252,77,,1.0,57.0,TASMANIAN_HEN_5.jpg,COPPERY_TAILED_COUCAL_1.jpg,3.0,,,,A2HGETLDQKWF1O
253,78,,1.0,58.0,GYRFALCON_1.jpg,OSTRICH_1.jpg,1.0,,,,A2HGETLDQKWF1O
254,79,,1.0,59.0,RUBY_THROATED_HUMMINGBIRD_1.jpg,BANANAQUIT_2.jpg,1.0,,,,A2HGETLDQKWF1O
255,80,,1.0,60.0,CERULEAN_WARBLER_1.jpg,BANANAQUIT_1.jpg,3.0,,,,A2HGETLDQKWF1O
256,81,,1.0,61.0,MALACHITE_KINGFISHER_2.jpg,GREEN_BROADBILL_5.jpg,3.0,,,,A2HGETLDQKWF1O
257,82,,1.0,62.0,GOLDEN_CHLOROPHONIA_5.jpg,VERMILION_FLYCATHER_5.jpg,3.0,,,,A2HGETLDQKWF1O
258,83,,1.0,63.0,GOLDEN_CHEEKED_WARBLER_2.jpg,HOUSE_FINCH_2.jpg,2.0,,,,A2HGETLDQKWF1O
259,84,,1.0,64.0,EASTERN_TOWEE_2.jpg,GOLDEN_CHLOROPHONIA_1.jpg,2.0,,,,A2HGETLDQKWF1O
260,20,,1.0,0.0,TASMANIAN_HEN_5.jpg,GREEN_BROADBILL_1.jpg,1.0,,,,A38L8T6E70LVYE
261,21,,1.0,1.0,RUFOUS_KINGFISHER_1.jpg,HORNED_SUNGEM_4.jpg,3.0,,,,A38L8T6E70LVYE
262,22,,1.0,2.0,GOLDEN_CHEEKED_WARBLER_2.jpg,WHITE_THROATED_BEE_EATER_1.jpg,3.0,,,,A38L8T6E70LVYE
263,23,,1.0,3.0,FLAME_BOWERBIRD_3.jpg,INDIAN_BUSTARD_2.jpg,1.0,,,,A38L8T6E70LVYE
264,24,,1.0,4.0,CASSOWARY_1.jpg,AFRICAN_OYSTER_CATCHER_2.jpg,3.0,,,,A38L8T6E70LVYE
265,25,,1.0,5.0,SHOEBILL_3.jpg,EASTERN_MEADOWLARK_1.jpg,1.0,,,,A38L8T6E70LVYE
266,26,,1.0,6.0,KILLDEAR_2.jpg,CAATINGA_CACHOLOTE_4.jpg,2.0,,,,A38L8T6E70LVYE
267,27,,1.0,7.0,ALPINE_CHOUGH_4.jpg,EUROPEAN_GOLDFINCH_3.jpg,2.0,,,,A38L8T6E70LVYE
268,28,,1.0,8.0,INDIGO_BUNTING_1.jpg,DARWINS_FLYCATCHER_2.jpg,3.0,,,,A38L8T6E70LVYE
269,29,,1.0,9.0,SCARLET_TANAGER_2.jpg,BORNEAN_LEAFBIRD_1.jpg,3.0,,,,A38L8T6E70LVYE
270,30,,1.0,10.0,OCELLATED_TURKEY_1.jpg,AMERICAN_PIPIT_1.jpg,2.0,,,,A38L8T6E70LVYE
271,31,,1.0,11.0,GRAY_KINGBIRD_5.jpg,AFRICAN_FIREFINCH_3.jpg,3.0,,,,A38L8T6E70LVYE
272,32,,1.0,12.0,OVENBIRD_5.jpg,SHORT_BILLED_DOWITCHER_5.jpg,3.0,,,,A38L8T6E70LVYE
273,33,right,1.0,13.0,right.jpg,,,right,1.6701,,A38L8T6E70LVYE
274,34,,1.0,14.0,IVORY_GULL_3.jpg,FLAME_TANAGER_3.jpg,2.0,,,,A38L8T6E70LVYE
275,35,,1.0,15.0,NORTHERN_JACANA_3.jpg,AMERICAN_GOLDFINCH_4.jpg,1.0,,,,A38L8T6E70LVYE
276,36,left,1.0,16.0,left.jpg,,,left,1.300799999,,A38L8T6E70LVYE
277,37,,1.0,17.0,PINK_ROBIN_4.jpg,SPOONBILL_3.jpg,1.0,,,,A38L8T6E70LVYE
278,38,,1.0,18.0,LITTLE_AUK_5.jpg,ORANGE_BRESTED_BUNTING_3.jpg,2.0,,,,A38L8T6E70LVYE
279,39,,1.0,19.0,ASIAN_CRESTED_IBIS_4.jpg,IVORY_GULL_2.jpg,3.0,,,,A38L8T6E70LVYE
280,40,,1.0,20.0,IVORY_GULL_1.jpg,WILSONS_BIRD_OF_PARADISE_4.jpg,1.0,,,,A38L8T6E70LVYE
281,41,,1.0,21.0,BALI_STARLING_1.jpg,IBERIAN_MAGPIE_1.jpg,3.0,,,,A38L8T6E70LVYE
282,42,,1.0,22.0,ECUADORIAN_HILLSTAR_5.jpg,CRIMSON_SUNBIRD_5.jpg,3.0,,,,A38L8T6E70LVYE
283,43,,1.0,23.0,BROWN_THRASHER_3.jpg,OYSTER_CATCHER_4.jpg,2.0,,,,A38L8T6E70LVYE
284,44,,1.0,24.0,RED_HEADED_WOODPECKER_5.jpg,CRIMSON_CHAT_3.jpg,2.0,,,,A38L8T6E70LVYE
285,45,,1.0,25.0,KAGU_5.jpg,DEMOISELLE_CRANE_1.jpg,3.0,,,,A38L8T6E70LVYE
286,46,right,1.0,26.0,right.jpg,,,right,1.151,,A38L8T6E70LVYE
287,47,,1.0,27.0,BREWERS_BLACKBIRD_3.jpg,GUINEA_TURACO_3.jpg,1.0,,,,A38L8T6E70LVYE
288,48,,1.0,28.0,RUBY_THROATED_HUMMINGBIRD_1.jpg,BANANAQUIT_2.jpg,1.0,,,,A38L8T6E70LVYE
289,49,,1.0,29.0,ASIAN_DOLLARD_BIRD_2.jpg,LOGGERHEAD_SHRIKE_4.jpg,2.0,,,,A38L8T6E70LVYE
290,50,,1.0,30.0,RUBY_THROATED_HUMMINGBIRD_2.jpg,GOLDEN_CHLOROPHONIA_2.jpg,1.0,,,,A38L8T6E70LVYE
291,51,,1.0,31.0,PEACOCK_3.jpg,ANIANIAU_2.jpg,1.0,,,,A38L8T6E70LVYE
292,52,,1.0,32.0,BROWN_NOODY_3.jpg,SPANGLED_COTINGA_4.jpg,2.0,,,,A38L8T6E70LVYE
293,53,,1.0,33.0,MAGPIE_GOOSE_5.jpg,OYSTER_CATCHER_3.jpg,3.0,,,,A38L8T6E70LVYE
294,54,,1.0,34.0,EUROPEAN_TURTLE_DOVE_3.jpg,PAINTED_BUNTING_3.jpg,2.0,,,,A38L8T6E70LVYE
295,55,,1.0,35.0,LESSER_ADJUTANT_4.jpg,ALTAMIRA_YELLOWTHROAT_5.jpg,1.0,,,,A38L8T6E70LVYE
296,56,,1.0,36.0,AMERICAN_PIPIT_5.jpg,GREEN_MAGPIE_1.jpg,2.0,,,,A38L8T6E70LVYE
297,57,,1.0,37.0,STRIPPED_SWALLOW_1.jpg,DOUBLE_BRESTED_CORMARANT_4.jpg,1.0,,,,A38L8T6E70LVYE
298,58,,1.0,38.0,LARK_BUNTING_2.jpg,KING_VULTURE_3.jpg,2.0,,,,A38L8T6E70LVYE
299,59,,1.0,39.0,ARARIPE_MANAKIN_4.jpg,BLACK_VULTURE_1.jpg,2.0,,,,A38L8T6E70LVYE
300,60,,1.0,40.0,CASPIAN_TERN_1.jpg,COMMON_LOON_2.jpg,3.0,,,,A38L8T6E70LVYE
301,61,,1.0,41.0,LESSER_ADJUTANT_5.jpg,RED_HEADED_WOODPECKER_1.jpg,3.0,,,,A38L8T6E70LVYE
302,62,,1.0,42.0,CHUKAR_PARTRIDGE_5.jpg,RAZORBILL_1.jpg,2.0,,,,A38L8T6E70LVYE
303,63,,1.0,43.0,MALACHITE_KINGFISHER_2.jpg,GREEN_BROADBILL_5.jpg,3.0,,,,A38L8T6E70LVYE
304,64,right,1.0,44.0,right.jpg,,,right,2.7222,,A38L8T6E70LVYE
305,65,,1.0,45.0,WHITE_CHEEKED_TURACO_5.jpg,PYGMY_KINGFISHER_2.jpg,3.0,,,,A38L8T6E70LVYE
306,66,,1.0,46.0,INCA_TERN_4.jpg,SMITHS_LONGSPUR_5.jpg,2.0,,,,A38L8T6E70LVYE
307,67,,1.0,47.0,GYRFALCON_1.jpg,OSTRICH_1.jpg,1.0,,,,A38L8T6E70LVYE
308,68,,1.0,48.0,DOUBLE_BRESTED_CORMARANT_5.jpg,GILDED_FLICKER_2.jpg,1.0,,,,A38L8T6E70LVYE
309,69,,1.0,49.0,CRESTED_NUTHATCH_2.jpg,AFRICAN_FIREFINCH_1.jpg,2.0,,,,A38L8T6E70LVYE
310,70,,1.0,50.0,GOLDEN_CHLOROPHONIA_5.jpg,ROADRUNNER_2.jpg,1.0,,,,A38L8T6E70LVYE
311,71,,1.0,51.0,VERMILION_FLYCATHER_3.jpg,RED_BEARDED_BEE_EATER_1.jpg,3.0,,,,A38L8T6E70LVYE
312,72,,1.0,52.0,MYNA_1.jpg,PARADISE_TANAGER_3.jpg,3.0,,,,A38L8T6E70LVYE
313,73,,1.0,53.0,CRESTED_CARACARA_4.jpg,INDIAN_PITTA_2.jpg,2.0,,,,A38L8T6E70LVYE
314,74,,0.0,54.0,left.jpg,,,left,,,A38L8T6E70LVYE
315,75,,1.0,55.0,INLAND_DOTTEREL_4.jpg,CRESTED_KINGFISHER_1.jpg,3.0,,,,A38L8T6E70LVYE
316,76,,1.0,56.0,GREY_PLOVER_1.jpg,GOULDIAN_FINCH_4.jpg,2.0,,,,A38L8T6E70LVYE
317,77,,1.0,57.0,CERULEAN_WARBLER_1.jpg,AMERICAN_FLAMINGO_5.jpg,2.0,,,,A38L8T6E70LVYE
318,78,,1.0,58.0,HAWAIIAN_GOOSE_4.jpg,CUBAN_TODY_3.jpg,1.0,,,,A38L8T6E70LVYE
319,79,,1.0,59.0,RUBY_THROATED_HUMMINGBIRD_3.jpg,MALAGASY_WHITE_EYE_2.jpg,1.0,,,,A38L8T6E70LVYE
320,80,,1.0,60.0,PYGMY_KINGFISHER_5.jpg,GRANDALA_2.jpg,1.0,,,,A38L8T6E70LVYE
321,81,,1.0,61.0,SPLENDID_WREN_1.jpg,POMARINE_JAEGER_5.jpg,1.0,,,,A38L8T6E70LVYE
322,82,,1.0,62.0,PARUS_MAJOR_1.jpg,SANDHILL_CRANE_4.jpg,1.0,,,,A38L8T6E70LVYE
323,83,,1.0,63.0,AFRICAN_PIED_HORNBILL_5.jpg,ALEXANDRINE_PARAKEET_1.jpg,2.0,,,,A38L8T6E70LVYE
324,84,,1.0,64.0,EASTERN_TOWEE_2.jpg,NORTHERN_BEARDLESS_TYRANNULET_5.jpg,3.0,,,,A38L8T6E70LVYE
325,20,,1.0,0.0,RUBY_THROATED_HUMMINGBIRD_1.jpg,BANANAQUIT_2.jpg,1.0,,,,A3HMRQ4Y0NZKOT
326,21,,1.0,1.0,GREY_PLOVER_1.jpg,GOULDIAN_FINCH_4.jpg,2.0,,,,A3HMRQ4Y0NZKOT
327,22,,1.0,2.0,INLAND_DOTTEREL_4.jpg,CRESTED_KINGFISHER_1.jpg,3.0,,,,A3HMRQ4Y0NZKOT
328,23,,1.0,3.0,RUBY_THROATED_HUMMINGBIRD_3.jpg,NORTHERN_SHOVELER_1.jpg,3.0,,,,A3HMRQ4Y0NZKOT
329,24,,1.0,4.0,BALI_STARLING_1.jpg,IBERIAN_MAGPIE_1.jpg,3.0,,,,A3HMRQ4Y0NZKOT
330,25,,1.0,5.0,OVENBIRD_5.jpg,MYNA_4.jpg,1.0,,,,A3HMRQ4Y0NZKOT
331,26,,1.0,6.0,OCELLATED_TURKEY_1.jpg,CHIPPING_SPARROW_1.jpg,1.0,,,,A3HMRQ4Y0NZKOT
332,27,right,1.0,7.0,right.jpg,,,right,1.1856,,A3HMRQ4Y0NZKOT
333,28,,1.0,8.0,INCA_TERN_4.jpg,ELLIOTS__PHEASANT_4.jpg,1.0,,,,A3HMRQ4Y0NZKOT
334,29,,1.0,9.0,SPLENDID_WREN_1.jpg,DOUBLE_BRESTED_CORMARANT_1.jpg,2.0,,,,A3HMRQ4Y0NZKOT
335,30,,1.0,10.0,AFRICAN_PIED_HORNBILL_5.jpg,ALEXANDRINE_PARAKEET_1.jpg,2.0,,,,A3HMRQ4Y0NZKOT
336,31,,1.0,11.0,CASPIAN_TERN_1.jpg,COMMON_LOON_2.jpg,3.0,,,,A3HMRQ4Y0NZKOT
337,32,,1.0,12.0,RUBY_THROATED_HUMMINGBIRD_2.jpg,DUSKY_ROBIN_5.jpg,3.0,,,,A3HMRQ4Y0NZKOT
338,33,,1.0,13.0,PINK_ROBIN_4.jpg,ALBATROSS_4.jpg,2.0,,,,A3HMRQ4Y0NZKOT
339,34,,1.0,14.0,ECUADORIAN_HILLSTAR_5.jpg,CRIMSON_SUNBIRD_5.jpg,3.0,,,,A3HMRQ4Y0NZKOT
340,35,,1.0,15.0,EUROPEAN_TURTLE_DOVE_3.jpg,PAINTED_BUNTING_3.jpg,2.0,,,,A3HMRQ4Y0NZKOT
341,36,,1.0,16.0,CHUKAR_PARTRIDGE_5.jpg,OSTRICH_5.jpg,1.0,,,,A3HMRQ4Y0NZKOT
342,37,,1.0,17.0,TASMANIAN_HEN_5.jpg,AFRICAN_EMERALD_CUCKOO_5.jpg,2.0,,,,A3HMRQ4Y0NZKOT
343,38,,1.0,18.0,VERMILION_FLYCATHER_3.jpg,RED_BEARDED_BEE_EATER_1.jpg,3.0,,,,A3HMRQ4Y0NZKOT
344,39,,1.0,19.0,HAWAIIAN_GOOSE_4.jpg,CUBAN_TODY_3.jpg,1.0,,,,A3HMRQ4Y0NZKOT
345,40,,1.0,20.0,NORTHERN_JACANA_3.jpg,AMERICAN_GOLDFINCH_4.jpg,1.0,,,,A3HMRQ4Y0NZKOT
346,41,,1.0,21.0,LESSER_ADJUTANT_5.jpg,RED_HEADED_WOODPECKER_1.jpg,3.0,,,,A3HMRQ4Y0NZKOT
347,42,,1.0,22.0,SHOEBILL_3.jpg,GILDED_FLICKER_5.jpg,2.0,,,,A3HMRQ4Y0NZKOT
348,43,,1.0,23.0,ARARIPE_MANAKIN_4.jpg,BORNEAN_LEAFBIRD_3.jpg,3.0,,,,A3HMRQ4Y0NZKOT
349,44,right,1.0,24.0,right.jpg,,,right,1.1739,,A3HMRQ4Y0NZKOT
350,45,,1.0,25.0,BROWN_THRASHER_3.jpg,BLACK_BAZA_4.jpg,3.0,,,,A3HMRQ4Y0NZKOT
351,46,,1.0,26.0,KILLDEAR_2.jpg,CAATINGA_CACHOLOTE_4.jpg,2.0,,,,A3HMRQ4Y0NZKOT
352,47,,1.0,27.0,PARUS_MAJOR_1.jpg,CALIFORNIA_GULL_2.jpg,2.0,,,,A3HMRQ4Y0NZKOT
353,48,,1.0,28.0,PEACOCK_3.jpg,ANIANIAU_2.jpg,1.0,,,,A3HMRQ4Y0NZKOT
354,49,,1.0,29.0,SCARLET_TANAGER_2.jpg,BEARDED_BARBET_2.jpg,1.0,,,,A3HMRQ4Y0NZKOT
355,50,,1.0,30.0,LITTLE_AUK_5.jpg,ORANGE_BRESTED_BUNTING_3.jpg,2.0,,,,A3HMRQ4Y0NZKOT
356,51,,1.0,31.0,STRIPPED_SWALLOW_1.jpg,GO_AWAY_BIRD_5.jpg,3.0,,,,A3HMRQ4Y0NZKOT
357,52,,1.0,32.0,MAGPIE_GOOSE_5.jpg,DOUBLE_EYED_FIG_PARROT_5.jpg,1.0,,,,A3HMRQ4Y0NZKOT
358,53,left,1.0,33.0,left.jpg,,,left,1.3071,,A3HMRQ4Y0NZKOT
359,54,,1.0,34.0,GOLDEN_CHEEKED_WARBLER_2.jpg,SPOONBILL_1.jpg,1.0,,,,A3HMRQ4Y0NZKOT
360,55,,1.0,35.0,RUFOUS_KINGFISHER_1.jpg,SNOWY_OWL_5.jpg,1.0,,,,A3HMRQ4Y0NZKOT
361,56,,1.0,36.0,LESSER_ADJUTANT_4.jpg,FAIRY_TERN_3.jpg,3.0,,,,A3HMRQ4Y0NZKOT
362,57,,1.0,37.0,RED_HEADED_WOODPECKER_5.jpg,COLLARED_ARACARI_1.jpg,3.0,,,,A3HMRQ4Y0NZKOT
363,58,,1.0,38.0,EASTERN_TOWEE_2.jpg,SANDHILL_CRANE_2.jpg,1.0,,,,A3HMRQ4Y0NZKOT
364,59,left,1.0,39.0,left.jpg,,,left,1.29,,A3HMRQ4Y0NZKOT
365,60,,1.0,40.0,BREWERS_BLACKBIRD_3.jpg,GOLDEN_CHEEKED_WARBLER_3.jpg,2.0,,,,A3HMRQ4Y0NZKOT
366,61,,1.0,41.0,FLAME_BOWERBIRD_3.jpg,BROWN_THRASHER_4.jpg,2.0,,,,A3HMRQ4Y0NZKOT
367,62,,1.0,42.0,CRESTED_CARACARA_4.jpg,TOUCHAN_4.jpg,3.0,,,,A3HMRQ4Y0NZKOT
368,63,,1.0,43.0,CERULEAN_WARBLER_1.jpg,AMERICAN_FLAMINGO_2.jpg,1.0,,,,A3HMRQ4Y0NZKOT
369,64,,1.0,44.0,PYGMY_KINGFISHER_5.jpg,MASKED_BOOBY_5.jpg,2.0,,,,A3HMRQ4Y0NZKOT
370,65,,1.0,45.0,ALPINE_CHOUGH_4.jpg,EUROPEAN_GOLDFINCH_3.jpg,2.0,,,,A3HMRQ4Y0NZKOT
371,66,,1.0,46.0,GRAY_KINGBIRD_5.jpg,BALD_EAGLE_2.jpg,1.0,,,,A3HMRQ4Y0NZKOT
372,67,,1.0,47.0,LARK_BUNTING_2.jpg,CACTUS_WREN_3.jpg,3.0,,,,A3HMRQ4Y0NZKOT
373,68,,1.0,48.0,WHITE_CHEEKED_TURACO_5.jpg,GREAT_POTOO_3.jpg,2.0,,,,A3HMRQ4Y0NZKOT
374,69,right,1.0,49.0,right.jpg,,,right,1.2054,,A3HMRQ4Y0NZKOT
375,70,,1.0,50.0,INDIGO_BUNTING_1.jpg,DARWINS_FLYCATCHER_2.jpg,3.0,,,,A3HMRQ4Y0NZKOT
376,71,,1.0,51.0,MYNA_1.jpg,GREY_PLOVER_4.jpg,2.0,,,,A3HMRQ4Y0NZKOT
377,72,,1.0,52.0,ASIAN_DOLLARD_BIRD_2.jpg,LOGGERHEAD_SHRIKE_4.jpg,2.0,,,,A3HMRQ4Y0NZKOT
378,73,,1.0,53.0,GYRFALCON_1.jpg,OSTRICH_1.jpg,1.0,,,,A3HMRQ4Y0NZKOT
379,74,,1.0,54.0,IVORY_GULL_3.jpg,SNOWY_EGRET_4.jpg,3.0,,,,A3HMRQ4Y0NZKOT
380,75,,1.0,55.0,CRESTED_NUTHATCH_2.jpg,AFRICAN_FIREFINCH_1.jpg,2.0,,,,A3HMRQ4Y0NZKOT
381,76,,1.0,56.0,DOUBLE_BRESTED_CORMARANT_5.jpg,EURASIAN_MAGPIE_4.jpg,2.0,,,,A3HMRQ4Y0NZKOT
382,77,,1.0,57.0,BROWN_NOODY_3.jpg,SPANGLED_COTINGA_4.jpg,2.0,,,,A3HMRQ4Y0NZKOT
383,78,,1.0,58.0,CASSOWARY_1.jpg,ROSY_FACED_LOVEBIRD_4.jpg,1.0,,,,A3HMRQ4Y0NZKOT
384,79,,1.0,59.0,IVORY_GULL_1.jpg,FAIRY_TERN_4.jpg,3.0,,,,A3HMRQ4Y0NZKOT
385,80,,1.0,60.0,KAGU_5.jpg,RED_BEARDED_BEE_EATER_3.jpg,1.0,,,,A3HMRQ4Y0NZKOT
386,81,,1.0,61.0,GOLDEN_CHLOROPHONIA_5.jpg,ROADRUNNER_2.jpg,1.0,,,,A3HMRQ4Y0NZKOT
387,82,,1.0,62.0,MALACHITE_KINGFISHER_2.jpg,AMERICAN_FLAMINGO_1.jpg,1.0,,,,A3HMRQ4Y0NZKOT
388,83,,1.0,63.0,AMERICAN_PIPIT_5.jpg,HEPATIC_TANAGER_5.jpg,3.0,,,,A3HMRQ4Y0NZKOT
389,84,,1.0,64.0,ASIAN_CRESTED_IBIS_4.jpg,IVORY_GULL_2.jpg,3.0,,,,A3HMRQ4Y0NZKOT
390,20,,1.0,0.0,LESSER_ADJUTANT_5.jpg,RED_HEADED_WOODPECKER_1.jpg,3.0,,,,A3MXI2O3JZ0TZH
391,21,,1.0,1.0,SPLENDID_WREN_1.jpg,POMARINE_JAEGER_5.jpg,1.0,,,,A3MXI2O3JZ0TZH
392,22,,1.0,2.0,BALI_STARLING_1.jpg,IBERIAN_MAGPIE_1.jpg,3.0,,,,A3MXI2O3JZ0TZH
393,23,,1.0,3.0,AFRICAN_PIED_HORNBILL_5.jpg,ALEXANDRINE_PARAKEET_1.jpg,2.0,,,,A3MXI2O3JZ0TZH
394,24,,1.0,4.0,PEACOCK_3.jpg,ANIANIAU_2.jpg,1.0,,,,A3MXI2O3JZ0TZH
395,25,,1.0,5.0,KILLDEAR_2.jpg,AZURE_TIT_5.jpg,3.0,,,,A3MXI2O3JZ0TZH
396,26,,1.0,6.0,CASSOWARY_1.jpg,AFRICAN_OYSTER_CATCHER_2.jpg,3.0,,,,A3MXI2O3JZ0TZH
397,27,,1.0,7.0,TASMANIAN_HEN_5.jpg,GREEN_BROADBILL_1.jpg,1.0,,,,A3MXI2O3JZ0TZH
398,28,,1.0,8.0,LESSER_ADJUTANT_4.jpg,RAINBOW_LORIKEET_5.jpg,2.0,,,,A3MXI2O3JZ0TZH
399,29,,1.0,9.0,CASPIAN_TERN_1.jpg,EUROPEAN_GOLDFINCH_4.jpg,2.0,,,,A3MXI2O3JZ0TZH
400,30,,1.0,10.0,HAWAIIAN_GOOSE_4.jpg,WATTLED_LAPWING_3.jpg,3.0,,,,A3MXI2O3JZ0TZH
401,31,left,1.0,11.0,left.jpg,,,left,1.3191,,A3MXI2O3JZ0TZH
402,32,,1.0,12.0,CHUKAR_PARTRIDGE_5.jpg,BLACK_THROATED_BUSHTIT_1.jpg,3.0,,,,A3MXI2O3JZ0TZH
403,33,,1.0,13.0,FLAME_BOWERBIRD_3.jpg,QUETZAL_3.jpg,3.0,,,,A3MXI2O3JZ0TZH
404,34,,1.0,14.0,SHOEBILL_3.jpg,GILDED_FLICKER_5.jpg,2.0,,,,A3MXI2O3JZ0TZH
405,35,,1.0,15.0,PYGMY_KINGFISHER_5.jpg,GRANDALA_2.jpg,1.0,,,,A3MXI2O3JZ0TZH
406,36,,1.0,16.0,RUBY_THROATED_HUMMINGBIRD_3.jpg,MALAGASY_WHITE_EYE_2.jpg,1.0,,,,A3MXI2O3JZ0TZH
407,37,,1.0,17.0,RED_HEADED_WOODPECKER_5.jpg,COLLARED_ARACARI_1.jpg,3.0,,,,A3MXI2O3JZ0TZH
408,38,,1.0,18.0,DOUBLE_BRESTED_CORMARANT_5.jpg,GILDED_FLICKER_2.jpg,1.0,,,,A3MXI2O3JZ0TZH
409,39,,1.0,19.0,STRIPPED_SWALLOW_1.jpg,DOUBLE_BRESTED_CORMARANT_4.jpg,1.0,,,,A3MXI2O3JZ0TZH
410,40,,1.0,20.0,AMERICAN_PIPIT_5.jpg,GREEN_MAGPIE_1.jpg,2.0,,,,A3MXI2O3JZ0TZH
411,41,,1.0,21.0,INCA_TERN_4.jpg,BORNEAN_BRISTLEHEAD_5.jpg,3.0,,,,A3MXI2O3JZ0TZH
412,42,,1.0,22.0,LITTLE_AUK_5.jpg,BEARDED_BELLBIRD_1.jpg,3.0,,,,A3MXI2O3JZ0TZH
413,43,right,1.0,23.0,right.jpg,,,right,0.4957,,A3MXI2O3JZ0TZH
414,44,,1.0,24.0,BROWN_THRASHER_3.jpg,BLACK_BAZA_4.jpg,3.0,,,,A3MXI2O3JZ0TZH
415,45,,1.0,25.0,VERMILION_FLYCATHER_3.jpg,CALIFORNIA_GULL_1.jpg,2.0,,,,A3MXI2O3JZ0TZH
416,46,,1.0,26.0,LARK_BUNTING_2.jpg,PEACOCK_1.jpg,1.0,,,,A3MXI2O3JZ0TZH
417,47,,1.0,27.0,NORTHERN_JACANA_3.jpg,CRAB_PLOVER_3.jpg,2.0,,,,A3MXI2O3JZ0TZH
418,48,,1.0,28.0,RUBY_THROATED_HUMMINGBIRD_2.jpg,APAPANE_4.jpg,2.0,,,,A3MXI2O3JZ0TZH
419,49,,1.0,29.0,RUFOUS_KINGFISHER_1.jpg,SNOWY_OWL_5.jpg,1.0,,,,A3MXI2O3JZ0TZH
420,50,,1.0,30.0,WHITE_CHEEKED_TURACO_5.jpg,NORTHERN_MOCKINGBIRD_4.jpg,1.0,,,,A3MXI2O3JZ0TZH
421,51,,1.0,31.0,GYRFALCON_1.jpg,OSTRICH_1.jpg,1.0,,,,A3MXI2O3JZ0TZH
422,52,right,1.0,32.0,right.jpg,,,right,0.4865,,A3MXI2O3JZ0TZH
423,53,,1.0,33.0,KAGU_5.jpg,RED_BEARDED_BEE_EATER_3.jpg,1.0,,,,A3MXI2O3JZ0TZH
424,54,,1.0,34.0,BROWN_NOODY_3.jpg,SPANGLED_COTINGA_4.jpg,2.0,,,,A3MXI2O3JZ0TZH
425,55,,1.0,35.0,GOLDEN_CHEEKED_WARBLER_2.jpg,SPOONBILL_1.jpg,1.0,,,,A3MXI2O3JZ0TZH
426,56,,1.0,36.0,IVORY_GULL_3.jpg,SNOWY_EGRET_4.jpg,3.0,,,,A3MXI2O3JZ0TZH
427,57,,1.0,37.0,ASIAN_DOLLARD_BIRD_2.jpg,VIOLET_GREEN_SWALLOW_4.jpg,3.0,,,,A3MXI2O3JZ0TZH
428,58,,1.0,38.0,ARARIPE_MANAKIN_4.jpg,BLACK_VULTURE_1.jpg,2.0,,,,A3MXI2O3JZ0TZH
429,59,left,1.0,39.0,left.jpg,,,left,0.6103,,A3MXI2O3JZ0TZH
430,60,,1.0,40.0,BREWERS_BLACKBIRD_3.jpg,GOLDEN_CHEEKED_WARBLER_3.jpg,2.0,,,,A3MXI2O3JZ0TZH
431,61,,1.0,41.0,GREY_PLOVER_1.jpg,ECUADORIAN_HILLSTAR_3.jpg,3.0,,,,A3MXI2O3JZ0TZH
432,62,,1.0,42.0,PARUS_MAJOR_1.jpg,PINK_ROBIN_3.jpg,3.0,,,,A3MXI2O3JZ0TZH
433,63,,1.0,43.0,MAGPIE_GOOSE_5.jpg,HAMERKOP_1.jpg,2.0,,,,A3MXI2O3JZ0TZH
434,64,,1.0,44.0,EUROPEAN_TURTLE_DOVE_3.jpg,TEAL_DUCK_2.jpg,1.0,,,,A3MXI2O3JZ0TZH
435,65,,1.0,45.0,GOLDEN_CHLOROPHONIA_5.jpg,ROADRUNNER_2.jpg,1.0,,,,A3MXI2O3JZ0TZH
436,66,,1.0,46.0,CERULEAN_WARBLER_1.jpg,AMERICAN_FLAMINGO_5.jpg,2.0,,,,A3MXI2O3JZ0TZH
437,67,left,1.0,47.0,left.jpg,,,left,0.4517,,A3MXI2O3JZ0TZH
438,68,,1.0,48.0,GRAY_KINGBIRD_5.jpg,BALD_EAGLE_2.jpg,1.0,,,,A3MXI2O3JZ0TZH
439,69,,1.0,49.0,ALPINE_CHOUGH_4.jpg,BOBOLINK_3.jpg,3.0,,,,A3MXI2O3JZ0TZH
440,70,,1.0,50.0,OVENBIRD_5.jpg,FAIRY_PENGUIN_1.jpg,2.0,,,,A3MXI2O3JZ0TZH
441,71,,1.0,51.0,ECUADORIAN_HILLSTAR_5.jpg,BOBOLINK_5.jpg,2.0,,,,A3MXI2O3JZ0TZH
442,72,,1.0,52.0,CRESTED_CARACARA_4.jpg,INDIAN_PITTA_2.jpg,2.0,,,,A3MXI2O3JZ0TZH
443,73,,1.0,53.0,INLAND_DOTTEREL_4.jpg,CASSOWARY_2.jpg,1.0,,,,A3MXI2O3JZ0TZH
444,74,,1.0,54.0,CRESTED_NUTHATCH_2.jpg,SCARLET_IBIS_3.jpg,1.0,,,,A3MXI2O3JZ0TZH
445,75,,1.0,55.0,MYNA_1.jpg,OSTRICH_3.jpg,1.0,,,,A3MXI2O3JZ0TZH
446,76,,1.0,56.0,IVORY_GULL_1.jpg,EASTERN_GOLDEN_WEAVER_5.jpg,2.0,,,,A3MXI2O3JZ0TZH
447,77,,1.0,57.0,MALACHITE_KINGFISHER_2.jpg,INCA_TERN_2.jpg,2.0,,,,A3MXI2O3JZ0TZH
448,78,,1.0,58.0,RUBY_THROATED_HUMMINGBIRD_1.jpg,FRIGATE_1.jpg,3.0,,,,A3MXI2O3JZ0TZH
449,79,,1.0,59.0,OCELLATED_TURKEY_1.jpg,AMERICAN_PIPIT_1.jpg,2.0,,,,A3MXI2O3JZ0TZH
450,80,,1.0,60.0,ASIAN_CRESTED_IBIS_4.jpg,OYSTER_CATCHER_2.jpg,2.0,,,,A3MXI2O3JZ0TZH
451,81,,1.0,61.0,INDIGO_BUNTING_1.jpg,FRIGATE_4.jpg,1.0,,,,A3MXI2O3JZ0TZH
452,82,,1.0,62.0,PINK_ROBIN_4.jpg,COMMON_IORA_4.jpg,3.0,,,,A3MXI2O3JZ0TZH
453,83,,1.0,63.0,EASTERN_TOWEE_2.jpg,NORTHERN_BEARDLESS_TYRANNULET_5.jpg,3.0,,,,A3MXI2O3JZ0TZH
454,84,,1.0,64.0,SCARLET_TANAGER_2.jpg,BORNEAN_LEAFBIRD_1.jpg,3.0,,,,A3MXI2O3JZ0TZH
455,20,,1.0,0.0,INDIGO_BUNTING_1.jpg,DARWINS_FLYCATCHER_2.jpg,3.0,,,,A3SSZZTJIJLD3Y
456,21,,1.0,1.0,WHITE_CHEEKED_TURACO_5.jpg,PYGMY_KINGFISHER_2.jpg,3.0,,,,A3SSZZTJIJLD3Y
457,22,,1.0,2.0,BALI_STARLING_1.jpg,PURPLE_FINCH_2.jpg,2.0,,,,A3SSZZTJIJLD3Y
458,23,,1.0,3.0,AFRICAN_PIED_HORNBILL_5.jpg,KIWI_4.jpg,1.0,,,,A3SSZZTJIJLD3Y
459,24,,1.0,4.0,PYGMY_KINGFISHER_5.jpg,DOUBLE_EYED_FIG_PARROT_4.jpg,3.0,,,,A3SSZZTJIJLD3Y
460,25,,1.0,5.0,MALACHITE_KINGFISHER_2.jpg,AMERICAN_FLAMINGO_1.jpg,1.0,,,,A3SSZZTJIJLD3Y
461,26,,1.0,6.0,VERMILION_FLYCATHER_3.jpg,INDIAN_BUSTARD_1.jpg,1.0,,,,A3SSZZTJIJLD3Y
462,27,,1.0,7.0,ALPINE_CHOUGH_4.jpg,BOBOLINK_3.jpg,3.0,,,,A3SSZZTJIJLD3Y
463,28,,1.0,8.0,MAGPIE_GOOSE_5.jpg,DOUBLE_EYED_FIG_PARROT_5.jpg,1.0,,,,A3SSZZTJIJLD3Y
464,29,,1.0,9.0,ARARIPE_MANAKIN_4.jpg,KIWI_3.jpg,1.0,,,,A3SSZZTJIJLD3Y
465,30,,1.0,10.0,OCELLATED_TURKEY_1.jpg,PURPLE_SWAMPHEN_4.jpg,3.0,,,,A3SSZZTJIJLD3Y
466,31,,1.0,11.0,NORTHERN_JACANA_3.jpg,CRAB_PLOVER_3.jpg,2.0,,,,A3SSZZTJIJLD3Y
467,32,,1.0,12.0,HAWAIIAN_GOOSE_4.jpg,CUBAN_TODY_3.jpg,1.0,,,,A3SSZZTJIJLD3Y
468,33,,1.0,13.0,RUBY_THROATED_HUMMINGBIRD_3.jpg,MYNA_5.jpg,2.0,,,,A3SSZZTJIJLD3Y
469,34,,0.0,14.0,right.jpg,,,right,,,A3SSZZTJIJLD3Y
470,35,,1.0,15.0,EUROPEAN_TURTLE_DOVE_3.jpg,PAINTED_BUNTING_3.jpg,2.0,,,,A3SSZZTJIJLD3Y
471,36,,1.0,16.0,RED_HEADED_WOODPECKER_5.jpg,ASHY_STORM_PETREL_2.jpg,1.0,,,,A3SSZZTJIJLD3Y
472,37,,1.0,17.0,GRAY_KINGBIRD_5.jpg,AFRICAN_FIREFINCH_3.jpg,3.0,,,,A3SSZZTJIJLD3Y
473,38,,1.0,18.0,CRESTED_CARACARA_4.jpg,FAIRY_PENGUIN_5.jpg,1.0,,,,A3SSZZTJIJLD3Y
474,39,,1.0,19.0,KAGU_5.jpg,RED_BEARDED_BEE_EATER_3.jpg,1.0,,,,A3SSZZTJIJLD3Y
475,40,,1.0,20.0,DOUBLE_BRESTED_CORMARANT_5.jpg,EURASIAN_MAGPIE_4.jpg,2.0,,,,A3SSZZTJIJLD3Y
476,41,,1.0,21.0,STRIPPED_SWALLOW_1.jpg,MAGPIE_GOOSE_4.jpg,2.0,,,,A3SSZZTJIJLD3Y
477,42,,1.0,22.0,PINK_ROBIN_4.jpg,SPOONBILL_3.jpg,1.0,,,,A3SSZZTJIJLD3Y
478,43,,1.0,23.0,PARUS_MAJOR_1.jpg,CALIFORNIA_GULL_2.jpg,2.0,,,,A3SSZZTJIJLD3Y
479,44,right,1.0,24.0,right.jpg,,,right,1.8233,,A3SSZZTJIJLD3Y
480,45,,1.0,25.0,CASPIAN_TERN_1.jpg,COMMON_LOON_2.jpg,3.0,,,,A3SSZZTJIJLD3Y
481,46,,1.0,26.0,FLAME_BOWERBIRD_3.jpg,BROWN_THRASHER_4.jpg,2.0,,,,A3SSZZTJIJLD3Y
482,47,,1.0,27.0,CRESTED_NUTHATCH_2.jpg,CANARY_1.jpg,3.0,,,,A3SSZZTJIJLD3Y
483,48,,1.0,28.0,INCA_TERN_4.jpg,BORNEAN_BRISTLEHEAD_5.jpg,3.0,,,,A3SSZZTJIJLD3Y
484,49,,1.0,29.0,RUBY_THROATED_HUMMINGBIRD_1.jpg,BANANAQUIT_2.jpg,1.0,,,,A3SSZZTJIJLD3Y
485,50,,1.0,30.0,PEACOCK_3.jpg,CHATTERING_LORY_2.jpg,3.0,,,,A3SSZZTJIJLD3Y
486,51,,1.0,31.0,LITTLE_AUK_5.jpg,ORANGE_BRESTED_BUNTING_3.jpg,2.0,,,,A3SSZZTJIJLD3Y
487,52,,1.0,32.0,ASIAN_DOLLARD_BIRD_2.jpg,VIOLET_GREEN_SWALLOW_4.jpg,3.0,,,,A3SSZZTJIJLD3Y
488,53,,1.0,33.0,INLAND_DOTTEREL_4.jpg,CRESTED_KINGFISHER_1.jpg,3.0,,,,A3SSZZTJIJLD3Y
489,54,right,1.0,34.0,right.jpg,,,right,1.7375,,A3SSZZTJIJLD3Y
490,55,,1.0,35.0,SHOEBILL_3.jpg,BALD_EAGLE_5.jpg,3.0,,,,A3SSZZTJIJLD3Y
491,56,,1.0,36.0,RUBY_THROATED_HUMMINGBIRD_2.jpg,GOLDEN_CHLOROPHONIA_2.jpg,1.0,,,,A3SSZZTJIJLD3Y
492,57,,1.0,37.0,OVENBIRD_5.jpg,FAIRY_PENGUIN_1.jpg,2.0,,,,A3SSZZTJIJLD3Y
493,58,left,1.0,38.0,left.jpg,,,left,1.3368,,A3SSZZTJIJLD3Y
494,59,,1.0,39.0,MYNA_1.jpg,OSTRICH_3.jpg,1.0,,,,A3SSZZTJIJLD3Y
495,60,,1.0,40.0,CHUKAR_PARTRIDGE_5.jpg,RAZORBILL_1.jpg,2.0,,,,A3SSZZTJIJLD3Y
496,61,,1.0,41.0,CASSOWARY_1.jpg,AFRICAN_OYSTER_CATCHER_2.jpg,3.0,,,,A3SSZZTJIJLD3Y
497,62,,1.0,42.0,BREWERS_BLACKBIRD_3.jpg,GUINEA_TURACO_3.jpg,1.0,,,,A3SSZZTJIJLD3Y
498,63,,1.0,43.0,GOLDEN_CHLOROPHONIA_5.jpg,VERMILION_FLYCATHER_5.jpg,3.0,,,,A3SSZZTJIJLD3Y
499,64,,1.0,44.0,GREY_PLOVER_1.jpg,GOULDIAN_FINCH_4.jpg,2.0,,,,A3SSZZTJIJLD3Y
500,65,,1.0,45.0,GOLDEN_CHEEKED_WARBLER_2.jpg,HOUSE_FINCH_2.jpg,2.0,,,,A3SSZZTJIJLD3Y
501,66,,1.0,46.0,EASTERN_TOWEE_2.jpg,GOLDEN_CHLOROPHONIA_1.jpg,2.0,,,,A3SSZZTJIJLD3Y
502,67,,1.0,47.0,BROWN_NOODY_3.jpg,PEACOCK_2.jpg,1.0,,,,A3SSZZTJIJLD3Y
503,68,,1.0,48.0,LESSER_ADJUTANT_4.jpg,FAIRY_TERN_3.jpg,3.0,,,,A3SSZZTJIJLD3Y
504,69,,1.0,49.0,LESSER_ADJUTANT_5.jpg,GREEN_BROADBILL_4.jpg,1.0,,,,A3SSZZTJIJLD3Y
505,70,,1.0,50.0,RUFOUS_KINGFISHER_1.jpg,MAGPIE_GOOSE_3.jpg,2.0,,,,A3SSZZTJIJLD3Y
506,71,,1.0,51.0,CERULEAN_WARBLER_1.jpg,AMERICAN_FLAMINGO_5.jpg,2.0,,,,A3SSZZTJIJLD3Y
507,72,,1.0,52.0,GYRFALCON_1.jpg,OSTRICH_1.jpg,1.0,,,,A3SSZZTJIJLD3Y
508,73,,1.0,53.0,IVORY_GULL_3.jpg,SNOWY_EGRET_4.jpg,3.0,,,,A3SSZZTJIJLD3Y
509,74,,0.0,54.0,left.jpg,,,left,,,A3SSZZTJIJLD3Y
510,75,,1.0,55.0,LARK_BUNTING_2.jpg,KING_VULTURE_3.jpg,2.0,,,,A3SSZZTJIJLD3Y
511,76,,1.0,56.0,IVORY_GULL_1.jpg,FAIRY_TERN_4.jpg,3.0,,,,A3SSZZTJIJLD3Y
512,77,,1.0,57.0,TASMANIAN_HEN_5.jpg,GREEN_BROADBILL_1.jpg,1.0,,,,A3SSZZTJIJLD3Y
513,78,,1.0,58.0,SPLENDID_WREN_1.jpg,CUBAN_TODY_4.jpg,3.0,,,,A3SSZZTJIJLD3Y
514,79,,1.0,59.0,KILLDEAR_2.jpg,CAATINGA_CACHOLOTE_4.jpg,2.0,,,,A3SSZZTJIJLD3Y
515,80,,1.0,60.0,BROWN_THRASHER_3.jpg,DOUBLE_EYED_FIG_PARROT_3.jpg,1.0,,,,A3SSZZTJIJLD3Y
516,81,,1.0,61.0,SCARLET_TANAGER_2.jpg,BORNEAN_LEAFBIRD_1.jpg,3.0,,,,A3SSZZTJIJLD3Y
517,82,,1.0,62.0,AMERICAN_PIPIT_5.jpg,EMU_2.jpg,1.0,,,,A3SSZZTJIJLD3Y
518,83,,1.0,63.0,ASIAN_CRESTED_IBIS_4.jpg,OYSTER_CATCHER_2.jpg,2.0,,,,A3SSZZTJIJLD3Y
519,84,,1.0,64.0,ECUADORIAN_HILLSTAR_5.jpg,BOBOLINK_5.jpg,2.0,,,,A3SSZZTJIJLD3Y
520,20,,1.0,0.0,ECUADORIAN_HILLSTAR_5.jpg,BOBOLINK_5.jpg,2.0,,,,ABVBYS63BZWZ6
521,21,,1.0,1.0,OCELLATED_TURKEY_1.jpg,PURPLE_SWAMPHEN_4.jpg,3.0,,,,ABVBYS63BZWZ6
522,22,,1.0,2.0,CASSOWARY_1.jpg,ROSY_FACED_LOVEBIRD_4.jpg,1.0,,,,ABVBYS63BZWZ6
523,23,,1.0,3.0,GRAY_KINGBIRD_5.jpg,AFRICAN_FIREFINCH_3.jpg,3.0,,,,ABVBYS63BZWZ6
524,24,,1.0,4.0,SHOEBILL_3.jpg,BALD_EAGLE_5.jpg,3.0,,,,ABVBYS63BZWZ6
525,25,,1.0,5.0,CERULEAN_WARBLER_1.jpg,AMERICAN_FLAMINGO_2.jpg,1.0,,,,ABVBYS63BZWZ6
526,26,,1.0,6.0,LITTLE_AUK_5.jpg,BEARDED_BELLBIRD_1.jpg,3.0,,,,ABVBYS63BZWZ6
527,27,,1.0,7.0,GYRFALCON_1.jpg,OSTRICH_1.jpg,1.0,,,,ABVBYS63BZWZ6
528,28,,1.0,8.0,ASIAN_DOLLARD_BIRD_2.jpg,LOGGERHEAD_SHRIKE_4.jpg,2.0,,,,ABVBYS63BZWZ6
529,29,,1.0,9.0,RUFOUS_KINGFISHER_1.jpg,MAGPIE_GOOSE_3.jpg,2.0,,,,ABVBYS63BZWZ6
530,30,,1.0,10.0,SPLENDID_WREN_1.jpg,DOUBLE_BRESTED_CORMARANT_1.jpg,2.0,,,,ABVBYS63BZWZ6
531,31,,1.0,11.0,LARK_BUNTING_2.jpg,KING_VULTURE_3.jpg,2.0,,,,ABVBYS63BZWZ6
532,32,,1.0,12.0,NORTHERN_JACANA_3.jpg,SCARLET_IBIS_4.jpg,3.0,,,,ABVBYS63BZWZ6
533,33,right,1.0,13.0,right.jpg,,,right,1.8015,,ABVBYS63BZWZ6
534,34,,1.0,14.0,CASPIAN_TERN_1.jpg,GREAT_GRAY_OWL_4.jpg,1.0,,,,ABVBYS63BZWZ6
535,35,,1.0,15.0,AFRICAN_PIED_HORNBILL_5.jpg,CAPUCHINBIRD_2.jpg,3.0,,,,ABVBYS63BZWZ6
536,36,,1.0,16.0,TASMANIAN_HEN_5.jpg,AFRICAN_EMERALD_CUCKOO_5.jpg,2.0,,,,ABVBYS63BZWZ6
537,37,,1.0,17.0,CRESTED_CARACARA_4.jpg,FAIRY_PENGUIN_5.jpg,1.0,,,,ABVBYS63BZWZ6
538,38,,1.0,18.0,PYGMY_KINGFISHER_5.jpg,GRANDALA_2.jpg,1.0,,,,ABVBYS63BZWZ6
539,39,,1.0,19.0,EUROPEAN_TURTLE_DOVE_3.jpg,TEAL_DUCK_2.jpg,1.0,,,,ABVBYS63BZWZ6
540,40,,1.0,20.0,BALI_STARLING_1.jpg,PURPLE_FINCH_2.jpg,2.0,,,,ABVBYS63BZWZ6
541,41,left,1.0,21.0,left.jpg,,,left,2.415,,ABVBYS63BZWZ6
542,42,,1.0,22.0,VERMILION_FLYCATHER_3.jpg,CALIFORNIA_GULL_1.jpg,2.0,,,,ABVBYS63BZWZ6
543,43,,1.0,23.0,PEACOCK_3.jpg,CHATTERING_LORY_2.jpg,3.0,,,,ABVBYS63BZWZ6
544,44,,1.0,24.0,ASIAN_CRESTED_IBIS_4.jpg,OYSTER_CATCHER_2.jpg,2.0,,,,ABVBYS63BZWZ6
545,45,,1.0,25.0,AMERICAN_PIPIT_5.jpg,GREEN_MAGPIE_1.jpg,2.0,,,,ABVBYS63BZWZ6
546,46,,1.0,26.0,GOLDEN_CHEEKED_WARBLER_2.jpg,SPOONBILL_1.jpg,1.0,,,,ABVBYS63BZWZ6
547,47,,1.0,27.0,LESSER_ADJUTANT_4.jpg,RAINBOW_LORIKEET_5.jpg,2.0,,,,ABVBYS63BZWZ6
548,48,,1.0,28.0,RUBY_THROATED_HUMMINGBIRD_1.jpg,FRIGATE_1.jpg,3.0,,,,ABVBYS63BZWZ6
549,49,,1.0,29.0,HAWAIIAN_GOOSE_4.jpg,CUBAN_TODY_3.jpg,1.0,,,,ABVBYS63BZWZ6
550,50,right,1.0,30.0,right.jpg,,,right,1.9864,,ABVBYS63BZWZ6
551,51,,1.0,31.0,INCA_TERN_4.jpg,BORNEAN_BRISTLEHEAD_5.jpg,3.0,,,,ABVBYS63BZWZ6
552,52,,1.0,32.0,GOLDEN_CHLOROPHONIA_5.jpg,COMMON_HOUSE_MARTIN_4.jpg,2.0,,,,ABVBYS63BZWZ6
553,53,,1.0,33.0,ALPINE_CHOUGH_4.jpg,BOBOLINK_3.jpg,3.0,,,,ABVBYS63BZWZ6
554,54,,1.0,34.0,RUBY_THROATED_HUMMINGBIRD_2.jpg,DUSKY_ROBIN_5.jpg,3.0,,,,ABVBYS63BZWZ6
555,55,,1.0,35.0,MYNA_1.jpg,PARADISE_TANAGER_3.jpg,3.0,,,,ABVBYS63BZWZ6
556,56,left,1.0,36.0,left.jpg,,,left,2.3146,,ABVBYS63BZWZ6
557,57,,1.0,37.0,EASTERN_TOWEE_2.jpg,SANDHILL_CRANE_2.jpg,1.0,,,,ABVBYS63BZWZ6
558,58,,1.0,38.0,PINK_ROBIN_4.jpg,COMMON_IORA_4.jpg,3.0,,,,ABVBYS63BZWZ6
559,59,,1.0,39.0,INLAND_DOTTEREL_4.jpg,CRESTED_KINGFISHER_1.jpg,3.0,,,,ABVBYS63BZWZ6
560,60,,1.0,40.0,KILLDEAR_2.jpg,AZURE_TIT_5.jpg,3.0,,,,ABVBYS63BZWZ6
561,61,,1.0,41.0,BROWN_NOODY_3.jpg,PEACOCK_2.jpg,1.0,,,,ABVBYS63BZWZ6
562,62,,1.0,42.0,KAGU_5.jpg,RED_BEARDED_BEE_EATER_3.jpg,1.0,,,,ABVBYS63BZWZ6
563,63,,1.0,43.0,INDIGO_BUNTING_1.jpg,DARWINS_FLYCATCHER_2.jpg,3.0,,,,ABVBYS63BZWZ6
564,64,,1.0,44.0,DOUBLE_BRESTED_CORMARANT_5.jpg,GILDED_FLICKER_2.jpg,1.0,,,,ABVBYS63BZWZ6
565,65,,1.0,45.0,FLAME_BOWERBIRD_3.jpg,QUETZAL_3.jpg,3.0,,,,ABVBYS63BZWZ6
566,66,,1.0,46.0,CRESTED_NUTHATCH_2.jpg,CANARY_1.jpg,3.0,,,,ABVBYS63BZWZ6
567,67,,1.0,47.0,LESSER_ADJUTANT_5.jpg,GAMBELS_QUAIL_1.jpg,2.0,,,,ABVBYS63BZWZ6
568,68,,1.0,48.0,ARARIPE_MANAKIN_4.jpg,BLACK_VULTURE_1.jpg,2.0,,,,ABVBYS63BZWZ6
569,69,,1.0,49.0,IVORY_GULL_3.jpg,SNOWY_EGRET_4.jpg,3.0,,,,ABVBYS63BZWZ6
570,70,right,1.0,50.0,right.jpg,,,right,2.6756,,ABVBYS63BZWZ6
571,71,,1.0,51.0,IVORY_GULL_1.jpg,EASTERN_GOLDEN_WEAVER_5.jpg,2.0,,,,ABVBYS63BZWZ6
572,72,,1.0,52.0,STRIPPED_SWALLOW_1.jpg,MAGPIE_GOOSE_4.jpg,2.0,,,,ABVBYS63BZWZ6
573,73,,1.0,53.0,RED_HEADED_WOODPECKER_5.jpg,ASHY_STORM_PETREL_2.jpg,1.0,,,,ABVBYS63BZWZ6
574,74,,1.0,54.0,GREY_PLOVER_1.jpg,HYACINTH_MACAW_3.jpg,1.0,,,,ABVBYS63BZWZ6
575,75,,1.0,55.0,BREWERS_BLACKBIRD_3.jpg,GUINEA_TURACO_3.jpg,1.0,,,,ABVBYS63BZWZ6
576,76,,1.0,56.0,PARUS_MAJOR_1.jpg,CALIFORNIA_GULL_2.jpg,2.0,,,,ABVBYS63BZWZ6
577,77,,1.0,57.0,SCARLET_TANAGER_2.jpg,BEARDED_BARBET_2.jpg,1.0,,,,ABVBYS63BZWZ6
578,78,,1.0,58.0,RUBY_THROATED_HUMMINGBIRD_3.jpg,NORTHERN_SHOVELER_1.jpg,3.0,,,,ABVBYS63BZWZ6
579,79,,1.0,59.0,MALACHITE_KINGFISHER_2.jpg,INCA_TERN_2.jpg,2.0,,,,ABVBYS63BZWZ6
580,80,,1.0,60.0,MAGPIE_GOOSE_5.jpg,DOUBLE_EYED_FIG_PARROT_5.jpg,1.0,,,,ABVBYS63BZWZ6
581,81,,1.0,61.0,WHITE_CHEEKED_TURACO_5.jpg,GREAT_POTOO_3.jpg,2.0,,,,ABVBYS63BZWZ6
582,82,,1.0,62.0,OVENBIRD_5.jpg,MYNA_4.jpg,1.0,,,,ABVBYS63BZWZ6
583,83,,1.0,63.0,CHUKAR_PARTRIDGE_5.jpg,OSTRICH_5.jpg,1.0,,,,ABVBYS63BZWZ6
584,84,,1.0,64.0,BROWN_THRASHER_3.jpg,OYSTER_CATCHER_4.jpg,2.0,,,,ABVBYS63BZWZ6
585,20,,1.0,0.0,DOUBLE_BRESTED_CORMARANT_5.jpg,CHINESE_POND_HERON_2.jpg,3.0,,,,AL84FSIS4UM1Q
586,21,,1.0,1.0,OCELLATED_TURKEY_1.jpg,AMERICAN_PIPIT_1.jpg,2.0,,,,AL84FSIS4UM1Q
587,22,,1.0,2.0,CHUKAR_PARTRIDGE_5.jpg,OSTRICH_5.jpg,1.0,,,,AL84FSIS4UM1Q
588,23,,1.0,3.0,IVORY_GULL_1.jpg,FAIRY_TERN_4.jpg,3.0,,,,AL84FSIS4UM1Q
589,24,,1.0,4.0,BREWERS_BLACKBIRD_3.jpg,CAPE_LONGCLAW_2.jpg,3.0,,,,AL84FSIS4UM1Q
590,25,,1.0,5.0,RED_HEADED_WOODPECKER_5.jpg,CRIMSON_CHAT_3.jpg,2.0,,,,AL84FSIS4UM1Q
591,26,,1.0,6.0,OVENBIRD_5.jpg,FAIRY_PENGUIN_1.jpg,2.0,,,,AL84FSIS4UM1Q
592,27,right,1.0,7.0,right.jpg,,,right,1.000299999,,AL84FSIS4UM1Q
593,28,,1.0,8.0,NORTHERN_JACANA_3.jpg,SCARLET_IBIS_4.jpg,3.0,,,,AL84FSIS4UM1Q
594,29,,1.0,9.0,CASPIAN_TERN_1.jpg,EUROPEAN_GOLDFINCH_4.jpg,2.0,,,,AL84FSIS4UM1Q
595,30,,1.0,10.0,MYNA_1.jpg,PARADISE_TANAGER_3.jpg,3.0,,,,AL84FSIS4UM1Q
596,31,,1.0,11.0,CERULEAN_WARBLER_1.jpg,AMERICAN_FLAMINGO_2.jpg,1.0,,,,AL84FSIS4UM1Q
597,32,,1.0,12.0,PEACOCK_3.jpg,CHATTERING_LORY_2.jpg,3.0,,,,AL84FSIS4UM1Q
598,33,,1.0,13.0,GOLDEN_CHEEKED_WARBLER_2.jpg,HOUSE_FINCH_2.jpg,2.0,,,,AL84FSIS4UM1Q
599,34,,1.0,14.0,BALI_STARLING_1.jpg,IBERIAN_MAGPIE_1.jpg,3.0,,,,AL84FSIS4UM1Q
600,35,,1.0,15.0,PARUS_MAJOR_1.jpg,PINK_ROBIN_3.jpg,3.0,,,,AL84FSIS4UM1Q
601,36,,1.0,16.0,WHITE_CHEEKED_TURACO_5.jpg,PYGMY_KINGFISHER_2.jpg,3.0,,,,AL84FSIS4UM1Q
602,37,,1.0,17.0,CRESTED_CARACARA_4.jpg,FAIRY_PENGUIN_5.jpg,1.0,,,,AL84FSIS4UM1Q
603,38,,1.0,18.0,INDIGO_BUNTING_1.jpg,NORTHERN_GANNET_1.jpg,2.0,,,,AL84FSIS4UM1Q
604,39,,1.0,19.0,PYGMY_KINGFISHER_5.jpg,MASKED_BOOBY_5.jpg,2.0,,,,AL84FSIS4UM1Q
605,40,,1.0,20.0,SCARLET_TANAGER_2.jpg,NORTHERN_GANNET_2.jpg,2.0,,,,AL84FSIS4UM1Q
606,41,,1.0,21.0,MAGPIE_GOOSE_5.jpg,OYSTER_CATCHER_3.jpg,3.0,,,,AL84FSIS4UM1Q
607,42,left,1.0,22.0,left.jpg,,,left,0.933599999,,AL84FSIS4UM1Q
608,43,,1.0,23.0,VERMILION_FLYCATHER_3.jpg,CALIFORNIA_GULL_1.jpg,2.0,,,,AL84FSIS4UM1Q
609,44,,1.0,24.0,ASIAN_CRESTED_IBIS_4.jpg,IVORY_GULL_2.jpg,3.0,,,,AL84FSIS4UM1Q
610,45,,1.0,25.0,GYRFALCON_1.jpg,CINNAMON_ATTILA_2.jpg,2.0,,,,AL84FSIS4UM1Q
611,46,,1.0,26.0,AFRICAN_PIED_HORNBILL_5.jpg,CAPUCHINBIRD_2.jpg,3.0,,,,AL84FSIS4UM1Q
612,47,,1.0,27.0,RUBY_THROATED_HUMMINGBIRD_1.jpg,BANANAQUIT_2.jpg,1.0,,,,AL84FSIS4UM1Q
613,48,,1.0,28.0,STRIPPED_SWALLOW_1.jpg,DOUBLE_BRESTED_CORMARANT_4.jpg,1.0,,,,AL84FSIS4UM1Q
614,49,,1.0,29.0,ECUADORIAN_HILLSTAR_5.jpg,BOBOLINK_5.jpg,2.0,,,,AL84FSIS4UM1Q
615,50,,1.0,30.0,HAWAIIAN_GOOSE_4.jpg,WATTLED_LAPWING_3.jpg,3.0,,,,AL84FSIS4UM1Q
616,51,,1.0,31.0,CRESTED_NUTHATCH_2.jpg,AFRICAN_FIREFINCH_1.jpg,2.0,,,,AL84FSIS4UM1Q
617,52,,1.0,32.0,SHOEBILL_3.jpg,EASTERN_MEADOWLARK_1.jpg,1.0,,,,AL84FSIS4UM1Q
618,53,right,1.0,33.0,right.jpg,,,right,0.9168,,AL84FSIS4UM1Q
619,54,,1.0,34.0,MALACHITE_KINGFISHER_2.jpg,AMERICAN_FLAMINGO_1.jpg,1.0,,,,AL84FSIS4UM1Q
620,55,,1.0,35.0,IVORY_GULL_3.jpg,INDIGO_FLYCATCHER_2.jpg,1.0,,,,AL84FSIS4UM1Q
621,56,,1.0,36.0,RUFOUS_KINGFISHER_1.jpg,SNOWY_OWL_5.jpg,1.0,,,,AL84FSIS4UM1Q
622,57,,1.0,37.0,ASIAN_DOLLARD_BIRD_2.jpg,ALBATROSS_2.jpg,1.0,,,,AL84FSIS4UM1Q
623,58,,1.0,38.0,EUROPEAN_TURTLE_DOVE_3.jpg,TEAL_DUCK_2.jpg,1.0,,,,AL84FSIS4UM1Q
624,59,,1.0,39.0,LITTLE_AUK_5.jpg,SANDHILL_CRANE_3.jpg,1.0,,,,AL84FSIS4UM1Q
625,60,right,1.0,40.0,right.jpg,,,right,0.9959,,AL84FSIS4UM1Q
626,61,,1.0,41.0,LESSER_ADJUTANT_4.jpg,ALTAMIRA_YELLOWTHROAT_5.jpg,1.0,,,,AL84FSIS4UM1Q
627,62,,1.0,42.0,FLAME_BOWERBIRD_3.jpg,QUETZAL_3.jpg,3.0,,,,AL84FSIS4UM1Q
628,63,,1.0,43.0,INLAND_DOTTEREL_4.jpg,NICOBAR_PIGEON_4.jpg,2.0,,,,AL84FSIS4UM1Q
629,64,,1.0,44.0,AMERICAN_PIPIT_5.jpg,EMU_2.jpg,1.0,,,,AL84FSIS4UM1Q
630,65,,1.0,45.0,BROWN_NOODY_3.jpg,SPANGLED_COTINGA_4.jpg,2.0,,,,AL84FSIS4UM1Q
631,66,,1.0,46.0,ALPINE_CHOUGH_4.jpg,EUROPEAN_GOLDFINCH_3.jpg,2.0,,,,AL84FSIS4UM1Q
632,67,,1.0,47.0,LESSER_ADJUTANT_5.jpg,RED_HEADED_WOODPECKER_1.jpg,3.0,,,,AL84FSIS4UM1Q
633,68,,1.0,48.0,RUBY_THROATED_HUMMINGBIRD_2.jpg,DUSKY_ROBIN_5.jpg,3.0,,,,AL84FSIS4UM1Q
634,69,,1.0,49.0,EASTERN_TOWEE_2.jpg,SANDHILL_CRANE_2.jpg,1.0,,,,AL84FSIS4UM1Q
635,70,right,1.0,50.0,right.jpg,,,right,0.9179,,AL84FSIS4UM1Q
636,71,,1.0,51.0,GOLDEN_CHLOROPHONIA_5.jpg,ROADRUNNER_2.jpg,1.0,,,,AL84FSIS4UM1Q
637,72,,1.0,52.0,GREY_PLOVER_1.jpg,GOULDIAN_FINCH_4.jpg,2.0,,,,AL84FSIS4UM1Q
638,73,,1.0,53.0,PINK_ROBIN_4.jpg,SPOONBILL_3.jpg,1.0,,,,AL84FSIS4UM1Q
639,74,,1.0,54.0,SPLENDID_WREN_1.jpg,CUBAN_TODY_4.jpg,3.0,,,,AL84FSIS4UM1Q
640,75,,1.0,55.0,KILLDEAR_2.jpg,PEACOCK_5.jpg,1.0,,,,AL84FSIS4UM1Q
641,76,,1.0,56.0,GRAY_KINGBIRD_5.jpg,AFRICAN_FIREFINCH_3.jpg,3.0,,,,AL84FSIS4UM1Q
642,77,,1.0,57.0,BROWN_THRASHER_3.jpg,BLACK_BAZA_4.jpg,3.0,,,,AL84FSIS4UM1Q
643,78,,1.0,58.0,INCA_TERN_4.jpg,SMITHS_LONGSPUR_5.jpg,2.0,,,,AL84FSIS4UM1Q
644,79,,1.0,59.0,KAGU_5.jpg,ASHY_STORM_PETREL_1.jpg,2.0,,,,AL84FSIS4UM1Q
645,80,,1.0,60.0,LARK_BUNTING_2.jpg,PEACOCK_1.jpg,1.0,,,,AL84FSIS4UM1Q
646,81,,1.0,61.0,RUBY_THROATED_HUMMINGBIRD_3.jpg,MALAGASY_WHITE_EYE_2.jpg,1.0,,,,AL84FSIS4UM1Q
647,82,,1.0,62.0,TASMANIAN_HEN_5.jpg,COPPERY_TAILED_COUCAL_1.jpg,3.0,,,,AL84FSIS4UM1Q
648,83,,1.0,63.0,CASSOWARY_1.jpg,SCARLET_MACAW_1.jpg,2.0,,,,AL84FSIS4UM1Q
649,84,,1.0,64.0,ARARIPE_MANAKIN_4.jpg,BLACK_VULTURE_1.jpg,2.0,,,,AL84FSIS4UM1Q
650,20,,1.0,0.0,OCELLATED_TURKEY_1.jpg,AMERICAN_PIPIT_1.jpg,2.0,,,,AN4P0SU1YSPF2
651,21,,1.0,1.0,MYNA_1.jpg,PARADISE_TANAGER_3.jpg,3.0,,,,AN4P0SU1YSPF2
652,22,,1.0,2.0,OVENBIRD_5.jpg,FAIRY_PENGUIN_1.jpg,2.0,,,,AN4P0SU1YSPF2
653,23,,1.0,3.0,ASIAN_DOLLARD_BIRD_2.jpg,LOGGERHEAD_SHRIKE_4.jpg,2.0,,,,AN4P0SU1YSPF2
654,24,,1.0,4.0,GYRFALCON_1.jpg,CINNAMON_ATTILA_2.jpg,2.0,,,,AN4P0SU1YSPF2
655,25,,1.0,5.0,INDIGO_BUNTING_1.jpg,DARWINS_FLYCATCHER_2.jpg,3.0,,,,AN4P0SU1YSPF2
656,26,,1.0,6.0,CERULEAN_WARBLER_1.jpg,BANANAQUIT_1.jpg,3.0,,,,AN4P0SU1YSPF2
657,27,,1.0,7.0,DOUBLE_BRESTED_CORMARANT_5.jpg,CHINESE_POND_HERON_2.jpg,3.0,,,,AN4P0SU1YSPF2
658,28,,1.0,8.0,PYGMY_KINGFISHER_5.jpg,MASKED_BOOBY_5.jpg,2.0,,,,AN4P0SU1YSPF2
659,29,,1.0,9.0,LITTLE_AUK_5.jpg,BEARDED_BELLBIRD_1.jpg,3.0,,,,AN4P0SU1YSPF2
660,30,,1.0,10.0,FLAME_BOWERBIRD_3.jpg,QUETZAL_3.jpg,3.0,,,,AN4P0SU1YSPF2
661,31,,1.0,11.0,RUBY_THROATED_HUMMINGBIRD_3.jpg,MYNA_5.jpg,2.0,,,,AN4P0SU1YSPF2
662,32,,1.0,12.0,IVORY_GULL_1.jpg,EASTERN_GOLDEN_WEAVER_5.jpg,2.0,,,,AN4P0SU1YSPF2
663,33,,1.0,13.0,PINK_ROBIN_4.jpg,COMMON_IORA_4.jpg,3.0,,,,AN4P0SU1YSPF2
664,34,right,1.0,14.0,right.jpg,,,right,0.6547,,AN4P0SU1YSPF2
665,35,,1.0,15.0,RUFOUS_KINGFISHER_1.jpg,SNOWY_OWL_5.jpg,1.0,,,,AN4P0SU1YSPF2
666,36,,1.0,16.0,ASIAN_CRESTED_IBIS_4.jpg,OYSTER_CATCHER_2.jpg,2.0,,,,AN4P0SU1YSPF2
667,37,,1.0,17.0,SHOEBILL_3.jpg,EASTERN_MEADOWLARK_1.jpg,1.0,,,,AN4P0SU1YSPF2
668,38,,1.0,18.0,PARUS_MAJOR_1.jpg,PINK_ROBIN_3.jpg,3.0,,,,AN4P0SU1YSPF2
669,39,,1.0,19.0,ALPINE_CHOUGH_4.jpg,SNOWY_EGRET_2.jpg,1.0,,,,AN4P0SU1YSPF2
670,40,,1.0,20.0,BROWN_THRASHER_3.jpg,DOUBLE_EYED_FIG_PARROT_3.jpg,1.0,,,,AN4P0SU1YSPF2
671,41,,1.0,21.0,PEACOCK_3.jpg,CHATTERING_LORY_2.jpg,3.0,,,,AN4P0SU1YSPF2
672,42,,1.0,22.0,RUBY_THROATED_HUMMINGBIRD_2.jpg,GOLDEN_CHLOROPHONIA_2.jpg,1.0,,,,AN4P0SU1YSPF2
673,43,left,1.0,23.0,left.jpg,,,left,0.5774,,AN4P0SU1YSPF2
674,44,,1.0,24.0,TASMANIAN_HEN_5.jpg,AFRICAN_EMERALD_CUCKOO_5.jpg,2.0,,,,AN4P0SU1YSPF2
675,45,,1.0,25.0,RED_HEADED_WOODPECKER_5.jpg,CRIMSON_CHAT_3.jpg,2.0,,,,AN4P0SU1YSPF2
676,46,,1.0,26.0,CRESTED_NUTHATCH_2.jpg,SCARLET_IBIS_3.jpg,1.0,,,,AN4P0SU1YSPF2
677,47,,1.0,27.0,GOLDEN_CHLOROPHONIA_5.jpg,ROADRUNNER_2.jpg,1.0,,,,AN4P0SU1YSPF2
678,48,,1.0,28.0,INLAND_DOTTEREL_4.jpg,CRESTED_KINGFISHER_1.jpg,3.0,,,,AN4P0SU1YSPF2
679,49,,1.0,29.0,LESSER_ADJUTANT_5.jpg,GREEN_BROADBILL_4.jpg,1.0,,,,AN4P0SU1YSPF2
680,50,,1.0,30.0,BALI_STARLING_1.jpg,PURPLE_FINCH_2.jpg,2.0,,,,AN4P0SU1YSPF2
681,51,,1.0,31.0,LARK_BUNTING_2.jpg,PEACOCK_1.jpg,1.0,,,,AN4P0SU1YSPF2
682,52,right,1.0,32.0,right.jpg,,,right,0.6525,,AN4P0SU1YSPF2
683,53,,1.0,33.0,SCARLET_TANAGER_2.jpg,BORNEAN_LEAFBIRD_1.jpg,3.0,,,,AN4P0SU1YSPF2
684,54,,1.0,34.0,AFRICAN_PIED_HORNBILL_5.jpg,KIWI_4.jpg,1.0,,,,AN4P0SU1YSPF2
685,55,,1.0,35.0,MAGPIE_GOOSE_5.jpg,OYSTER_CATCHER_3.jpg,3.0,,,,AN4P0SU1YSPF2
686,56,,1.0,36.0,ARARIPE_MANAKIN_4.jpg,BORNEAN_LEAFBIRD_3.jpg,3.0,,,,AN4P0SU1YSPF2
687,57,,1.0,37.0,HAWAIIAN_GOOSE_4.jpg,CUBAN_TODY_3.jpg,1.0,,,,AN4P0SU1YSPF2
688,58,right,1.0,38.0,right.jpg,,,right,0.5681,,AN4P0SU1YSPF2
689,59,,1.0,39.0,AMERICAN_PIPIT_5.jpg,GREEN_MAGPIE_1.jpg,2.0,,,,AN4P0SU1YSPF2
690,60,,1.0,40.0,BREWERS_BLACKBIRD_3.jpg,CAPE_LONGCLAW_2.jpg,3.0,,,,AN4P0SU1YSPF2
691,61,,1.0,41.0,STRIPPED_SWALLOW_1.jpg,DOUBLE_BRESTED_CORMARANT_4.jpg,1.0,,,,AN4P0SU1YSPF2
692,62,,1.0,42.0,CHUKAR_PARTRIDGE_5.jpg,OSTRICH_5.jpg,1.0,,,,AN4P0SU1YSPF2
693,63,,1.0,43.0,ECUADORIAN_HILLSTAR_5.jpg,SCARLET_IBIS_2.jpg,1.0,,,,AN4P0SU1YSPF2
694,64,,1.0,44.0,KILLDEAR_2.jpg,CAATINGA_CACHOLOTE_4.jpg,2.0,,,,AN4P0SU1YSPF2
695,65,,1.0,45.0,CRESTED_CARACARA_4.jpg,INDIAN_PITTA_2.jpg,2.0,,,,AN4P0SU1YSPF2
696,66,,1.0,46.0,EASTERN_TOWEE_2.jpg,SANDHILL_CRANE_2.jpg,1.0,,,,AN4P0SU1YSPF2
697,67,,1.0,47.0,RUBY_THROATED_HUMMINGBIRD_1.jpg,VULTURINE_GUINEAFOWL_4.jpg,2.0,,,,AN4P0SU1YSPF2
698,68,left,1.0,48.0,left.jpg,,,left,0.5394,,AN4P0SU1YSPF2
699,69,,1.0,49.0,INCA_TERN_4.jpg,BORNEAN_BRISTLEHEAD_5.jpg,3.0,,,,AN4P0SU1YSPF2
700,70,,1.0,50.0,BROWN_NOODY_3.jpg,SPANGLED_COTINGA_4.jpg,2.0,,,,AN4P0SU1YSPF2
701,71,,1.0,51.0,MALACHITE_KINGFISHER_2.jpg,AMERICAN_FLAMINGO_1.jpg,1.0,,,,AN4P0SU1YSPF2
702,72,,1.0,52.0,SPLENDID_WREN_1.jpg,POMARINE_JAEGER_5.jpg,1.0,,,,AN4P0SU1YSPF2
703,73,,1.0,53.0,WHITE_CHEEKED_TURACO_5.jpg,PYGMY_KINGFISHER_2.jpg,3.0,,,,AN4P0SU1YSPF2
704,74,,1.0,54.0,IVORY_GULL_3.jpg,FLAME_TANAGER_3.jpg,2.0,,,,AN4P0SU1YSPF2
705,75,,1.0,55.0,KAGU_5.jpg,ASHY_STORM_PETREL_1.jpg,2.0,,,,AN4P0SU1YSPF2
706,76,,1.0,56.0,CASPIAN_TERN_1.jpg,GREAT_GRAY_OWL_4.jpg,1.0,,,,AN4P0SU1YSPF2
707,77,,1.0,57.0,GREY_PLOVER_1.jpg,ECUADORIAN_HILLSTAR_3.jpg,3.0,,,,AN4P0SU1YSPF2
708,78,,1.0,58.0,VERMILION_FLYCATHER_3.jpg,INDIAN_BUSTARD_1.jpg,1.0,,,,AN4P0SU1YSPF2
709,79,,1.0,59.0,NORTHERN_JACANA_3.jpg,CRAB_PLOVER_3.jpg,2.0,,,,AN4P0SU1YSPF2
710,80,,1.0,60.0,CASSOWARY_1.jpg,AFRICAN_OYSTER_CATCHER_2.jpg,3.0,,,,AN4P0SU1YSPF2
711,81,,1.0,61.0,GRAY_KINGBIRD_5.jpg,COCK_OF_THE__ROCK_4.jpg,2.0,,,,AN4P0SU1YSPF2
712,82,,1.0,62.0,GOLDEN_CHEEKED_WARBLER_2.jpg,WHITE_THROATED_BEE_EATER_1.jpg,3.0,,,,AN4P0SU1YSPF2
713,83,,1.0,63.0,LESSER_ADJUTANT_4.jpg,ALTAMIRA_YELLOWTHROAT_5.jpg,1.0,,,,AN4P0SU1YSPF2
714,84,,1.0,64.0,EUROPEAN_TURTLE_DOVE_3.jpg,MALABAR_HORNBILL_2.jpg,3.0,,,,AN4P0SU1YSPF2
715,20,,1.0,0.0,PINK_ROBIN_4.jpg,ALBATROSS_4.jpg,2.0,,,,AOOLS8280CL0Z
716,21,,1.0,1.0,CRESTED_CARACARA_4.jpg,INDIAN_PITTA_2.jpg,2.0,,,,AOOLS8280CL0Z
717,22,,1.0,2.0,MAGPIE_GOOSE_5.jpg,DOUBLE_EYED_FIG_PARROT_5.jpg,1.0,,,,AOOLS8280CL0Z
718,23,,1.0,3.0,RUBY_THROATED_HUMMINGBIRD_2.jpg,APAPANE_4.jpg,2.0,,,,AOOLS8280CL0Z
719,24,,1.0,4.0,BREWERS_BLACKBIRD_3.jpg,GUINEA_TURACO_3.jpg,1.0,,,,AOOLS8280CL0Z
720,25,,1.0,5.0,AFRICAN_PIED_HORNBILL_5.jpg,CAPUCHINBIRD_2.jpg,3.0,,,,AOOLS8280CL0Z
721,26,,1.0,6.0,INLAND_DOTTEREL_4.jpg,CRESTED_KINGFISHER_1.jpg,3.0,,,,AOOLS8280CL0Z
722,27,,1.0,7.0,GYRFALCON_1.jpg,CINNAMON_ATTILA_2.jpg,2.0,,,,AOOLS8280CL0Z
723,28,,1.0,8.0,IVORY_GULL_1.jpg,WILSONS_BIRD_OF_PARADISE_4.jpg,1.0,,,,AOOLS8280CL0Z
724,29,left,1.0,9.0,left.jpg,,,left,0.6537,,AOOLS8280CL0Z
725,30,,1.0,10.0,BALI_STARLING_1.jpg,IBERIAN_MAGPIE_1.jpg,3.0,,,,AOOLS8280CL0Z
726,31,,1.0,11.0,GOLDEN_CHEEKED_WARBLER_2.jpg,WHITE_THROATED_BEE_EATER_1.jpg,3.0,,,,AOOLS8280CL0Z
727,32,,1.0,12.0,ECUADORIAN_HILLSTAR_5.jpg,SCARLET_IBIS_2.jpg,1.0,,,,AOOLS8280CL0Z
728,33,,1.0,13.0,MYNA_1.jpg,OSTRICH_3.jpg,1.0,,,,AOOLS8280CL0Z
729,34,,1.0,14.0,IVORY_GULL_3.jpg,INDIGO_FLYCATCHER_2.jpg,1.0,,,,AOOLS8280CL0Z
730,35,,1.0,15.0,STRIPPED_SWALLOW_1.jpg,MAGPIE_GOOSE_4.jpg,2.0,,,,AOOLS8280CL0Z
731,36,,1.0,16.0,KILLDEAR_2.jpg,CAATINGA_CACHOLOTE_4.jpg,2.0,,,,AOOLS8280CL0Z
732,37,,1.0,17.0,LITTLE_AUK_5.jpg,SANDHILL_CRANE_3.jpg,1.0,,,,AOOLS8280CL0Z
733,38,,1.0,18.0,SCARLET_TANAGER_2.jpg,BORNEAN_LEAFBIRD_1.jpg,3.0,,,,AOOLS8280CL0Z
734,39,,1.0,19.0,CERULEAN_WARBLER_1.jpg,AMERICAN_FLAMINGO_5.jpg,2.0,,,,AOOLS8280CL0Z
735,40,,1.0,20.0,ASIAN_DOLLARD_BIRD_2.jpg,LOGGERHEAD_SHRIKE_4.jpg,2.0,,,,AOOLS8280CL0Z
736,41,,1.0,21.0,RED_HEADED_WOODPECKER_5.jpg,COLLARED_ARACARI_1.jpg,3.0,,,,AOOLS8280CL0Z
737,42,left,1.0,22.0,left.jpg,,,left,0.5888,,AOOLS8280CL0Z
738,43,,1.0,23.0,ALPINE_CHOUGH_4.jpg,BOBOLINK_3.jpg,3.0,,,,AOOLS8280CL0Z
739,44,,1.0,24.0,AMERICAN_PIPIT_5.jpg,EMU_2.jpg,1.0,,,,AOOLS8280CL0Z
740,45,,1.0,25.0,RUFOUS_KINGFISHER_1.jpg,SNOWY_OWL_5.jpg,1.0,,,,AOOLS8280CL0Z
741,46,,1.0,26.0,GRAY_KINGBIRD_5.jpg,COCK_OF_THE__ROCK_4.jpg,2.0,,,,AOOLS8280CL0Z
742,47,,1.0,27.0,DOUBLE_BRESTED_CORMARANT_5.jpg,CHINESE_POND_HERON_2.jpg,3.0,,,,AOOLS8280CL0Z
743,48,,1.0,28.0,RUBY_THROATED_HUMMINGBIRD_3.jpg,MYNA_5.jpg,2.0,,,,AOOLS8280CL0Z
744,49,,1.0,29.0,LESSER_ADJUTANT_5.jpg,RED_HEADED_WOODPECKER_1.jpg,3.0,,,,AOOLS8280CL0Z
745,50,,1.0,30.0,NORTHERN_JACANA_3.jpg,SCARLET_IBIS_4.jpg,3.0,,,,AOOLS8280CL0Z
746,51,left,1.0,31.0,left.jpg,,,left,0.5466,,AOOLS8280CL0Z
747,52,,1.0,32.0,PARUS_MAJOR_1.jpg,CALIFORNIA_GULL_2.jpg,2.0,,,,AOOLS8280CL0Z
748,53,,1.0,33.0,OVENBIRD_5.jpg,SHORT_BILLED_DOWITCHER_5.jpg,3.0,,,,AOOLS8280CL0Z
749,54,,1.0,34.0,RUBY_THROATED_HUMMINGBIRD_1.jpg,BANANAQUIT_2.jpg,1.0,,,,AOOLS8280CL0Z
750,55,,1.0,35.0,LARK_BUNTING_2.jpg,KING_VULTURE_3.jpg,2.0,,,,AOOLS8280CL0Z
751,56,,1.0,36.0,LESSER_ADJUTANT_4.jpg,ALTAMIRA_YELLOWTHROAT_5.jpg,1.0,,,,AOOLS8280CL0Z
752,57,,1.0,37.0,GOLDEN_CHLOROPHONIA_5.jpg,VERMILION_FLYCATHER_5.jpg,3.0,,,,AOOLS8280CL0Z
753,58,left,1.0,38.0,left.jpg,,,left,0.4866,,AOOLS8280CL0Z
754,59,,1.0,39.0,SHOEBILL_3.jpg,GILDED_FLICKER_5.jpg,2.0,,,,AOOLS8280CL0Z
755,60,,1.0,40.0,INCA_TERN_4.jpg,BORNEAN_BRISTLEHEAD_5.jpg,3.0,,,,AOOLS8280CL0Z
756,61,,1.0,41.0,CASSOWARY_1.jpg,ROSY_FACED_LOVEBIRD_4.jpg,1.0,,,,AOOLS8280CL0Z
757,62,,1.0,42.0,GREY_PLOVER_1.jpg,HYACINTH_MACAW_3.jpg,1.0,,,,AOOLS8280CL0Z
758,63,,1.0,43.0,PEACOCK_3.jpg,STRAWBERRY_FINCH_4.jpg,2.0,,,,AOOLS8280CL0Z
759,64,,1.0,44.0,ASIAN_CRESTED_IBIS_4.jpg,IVORY_GULL_2.jpg,3.0,,,,AOOLS8280CL0Z
760,65,,1.0,45.0,EUROPEAN_TURTLE_DOVE_3.jpg,TEAL_DUCK_2.jpg,1.0,,,,AOOLS8280CL0Z
761,66,,1.0,46.0,INDIGO_BUNTING_1.jpg,NORTHERN_GANNET_1.jpg,2.0,,,,AOOLS8280CL0Z
762,67,right,1.0,47.0,right.jpg,,,right,0.5719,,AOOLS8280CL0Z
763,68,,1.0,48.0,FLAME_BOWERBIRD_3.jpg,INDIAN_BUSTARD_2.jpg,1.0,,,,AOOLS8280CL0Z
764,69,,1.0,49.0,CHUKAR_PARTRIDGE_5.jpg,BLACK_THROATED_BUSHTIT_1.jpg,3.0,,,,AOOLS8280CL0Z
765,70,,1.0,50.0,CRESTED_NUTHATCH_2.jpg,CANARY_1.jpg,3.0,,,,AOOLS8280CL0Z
766,71,,1.0,51.0,BROWN_THRASHER_3.jpg,DOUBLE_EYED_FIG_PARROT_3.jpg,1.0,,,,AOOLS8280CL0Z
767,72,,1.0,52.0,BROWN_NOODY_3.jpg,SPANGLED_COTINGA_4.jpg,2.0,,,,AOOLS8280CL0Z
768,73,,1.0,53.0,KAGU_5.jpg,ASHY_STORM_PETREL_1.jpg,2.0,,,,AOOLS8280CL0Z
769,74,,1.0,54.0,SPLENDID_WREN_1.jpg,POMARINE_JAEGER_5.jpg,1.0,,,,AOOLS8280CL0Z
770,75,,1.0,55.0,WHITE_CHEEKED_TURACO_5.jpg,GREAT_POTOO_3.jpg,2.0,,,,AOOLS8280CL0Z
771,76,,1.0,56.0,OCELLATED_TURKEY_1.jpg,PURPLE_SWAMPHEN_4.jpg,3.0,,,,AOOLS8280CL0Z
772,77,,1.0,57.0,VERMILION_FLYCATHER_3.jpg,RED_BEARDED_BEE_EATER_1.jpg,3.0,,,,AOOLS8280CL0Z
773,78,,1.0,58.0,HAWAIIAN_GOOSE_4.jpg,WATTLED_LAPWING_3.jpg,3.0,,,,AOOLS8280CL0Z
774,79,,1.0,59.0,TASMANIAN_HEN_5.jpg,AFRICAN_EMERALD_CUCKOO_5.jpg,2.0,,,,AOOLS8280CL0Z
775,80,,1.0,60.0,CASPIAN_TERN_1.jpg,COMMON_LOON_2.jpg,3.0,,,,AOOLS8280CL0Z
776,81,,1.0,61.0,MALACHITE_KINGFISHER_2.jpg,INCA_TERN_2.jpg,2.0,,,,AOOLS8280CL0Z
777,82,,1.0,62.0,EASTERN_TOWEE_2.jpg,SANDHILL_CRANE_2.jpg,1.0,,,,AOOLS8280CL0Z
778,83,,1.0,63.0,ARARIPE_MANAKIN_4.jpg,KIWI_3.jpg,1.0,,,,AOOLS8280CL0Z
779,84,,1.0,64.0,PYGMY_KINGFISHER_5.jpg,GRANDALA_2.jpg,1.0,,,,AOOLS8280CL0Z
780,20,,1.0,0.0,AMERICAN_PIPIT_5.jpg,GREEN_MAGPIE_1.jpg,2.0,,,,AW5O1RK3W60FC
781,21,,1.0,1.0,CASPIAN_TERN_1.jpg,COMMON_LOON_2.jpg,3.0,,,,AW5O1RK3W60FC
782,22,,1.0,2.0,ARARIPE_MANAKIN_4.jpg,BLACK_VULTURE_1.jpg,2.0,,,,AW5O1RK3W60FC
783,23,,1.0,3.0,ASIAN_DOLLARD_BIRD_2.jpg,VIOLET_GREEN_SWALLOW_4.jpg,3.0,,,,AW5O1RK3W60FC
784,24,,1.0,4.0,OVENBIRD_5.jpg,MYNA_4.jpg,1.0,,,,AW5O1RK3W60FC
785,25,,1.0,5.0,LITTLE_AUK_5.jpg,BEARDED_BELLBIRD_1.jpg,3.0,,,,AW5O1RK3W60FC
786,26,,1.0,6.0,GOLDEN_CHLOROPHONIA_5.jpg,ROADRUNNER_2.jpg,1.0,,,,AW5O1RK3W60FC
787,27,,1.0,7.0,CASSOWARY_1.jpg,ROSY_FACED_LOVEBIRD_4.jpg,1.0,,,,AW5O1RK3W60FC
788,28,,1.0,8.0,LESSER_ADJUTANT_4.jpg,ALTAMIRA_YELLOWTHROAT_5.jpg,1.0,,,,AW5O1RK3W60FC
789,29,,1.0,9.0,EASTERN_TOWEE_2.jpg,NORTHERN_BEARDLESS_TYRANNULET_5.jpg,3.0,,,,AW5O1RK3W60FC
790,30,left,1.0,10.0,left.jpg,,,left,0.7194,,AW5O1RK3W60FC
791,31,,1.0,11.0,WHITE_CHEEKED_TURACO_5.jpg,NORTHERN_MOCKINGBIRD_4.jpg,1.0,,,,AW5O1RK3W60FC
792,32,,1.0,12.0,SCARLET_TANAGER_2.jpg,BORNEAN_LEAFBIRD_1.jpg,3.0,,,,AW5O1RK3W60FC
793,33,,1.0,13.0,PEACOCK_3.jpg,ANIANIAU_2.jpg,1.0,,,,AW5O1RK3W60FC
794,34,,1.0,14.0,TASMANIAN_HEN_5.jpg,GREEN_BROADBILL_1.jpg,1.0,,,,AW5O1RK3W60FC
795,35,,1.0,15.0,CRESTED_CARACARA_4.jpg,INDIAN_PITTA_2.jpg,2.0,,,,AW5O1RK3W60FC
796,36,,1.0,16.0,EUROPEAN_TURTLE_DOVE_3.jpg,MALABAR_HORNBILL_2.jpg,3.0,,,,AW5O1RK3W60FC
797,37,,1.0,17.0,IVORY_GULL_3.jpg,FLAME_TANAGER_3.jpg,2.0,,,,AW5O1RK3W60FC
798,38,,1.0,18.0,OCELLATED_TURKEY_1.jpg,CHIPPING_SPARROW_1.jpg,1.0,,,,AW5O1RK3W60FC
799,39,,1.0,19.0,IVORY_GULL_1.jpg,FAIRY_TERN_4.jpg,3.0,,,,AW5O1RK3W60FC
800,40,,1.0,20.0,PARUS_MAJOR_1.jpg,PINK_ROBIN_3.jpg,3.0,,,,AW5O1RK3W60FC
801,41,,1.0,21.0,BALI_STARLING_1.jpg,PURPLE_FINCH_2.jpg,2.0,,,,AW5O1RK3W60FC
802,42,right,1.0,22.0,right.jpg,,,right,0.6002,,AW5O1RK3W60FC
803,43,,1.0,23.0,VERMILION_FLYCATHER_3.jpg,INDIAN_BUSTARD_1.jpg,1.0,,,,AW5O1RK3W60FC
804,44,,1.0,24.0,STRIPPED_SWALLOW_1.jpg,GO_AWAY_BIRD_5.jpg,3.0,,,,AW5O1RK3W60FC
805,45,,1.0,25.0,MYNA_1.jpg,PARADISE_TANAGER_3.jpg,3.0,,,,AW5O1RK3W60FC
806,46,,1.0,26.0,KILLDEAR_2.jpg,CAATINGA_CACHOLOTE_4.jpg,2.0,,,,AW5O1RK3W60FC
807,47,,1.0,27.0,LARK_BUNTING_2.jpg,CACTUS_WREN_3.jpg,3.0,,,,AW5O1RK3W60FC
808,48,,1.0,28.0,KAGU_5.jpg,ASHY_STORM_PETREL_1.jpg,2.0,,,,AW5O1RK3W60FC
809,49,left,1.0,29.0,left.jpg,,,left,0.5832,,AW5O1RK3W60FC
810,50,,1.0,30.0,GYRFALCON_1.jpg,OSTRICH_1.jpg,1.0,,,,AW5O1RK3W60FC
811,51,,1.0,31.0,INDIGO_BUNTING_1.jpg,NORTHERN_GANNET_1.jpg,2.0,,,,AW5O1RK3W60FC
812,52,,1.0,32.0,CERULEAN_WARBLER_1.jpg,AMERICAN_FLAMINGO_5.jpg,2.0,,,,AW5O1RK3W60FC
813,53,,1.0,33.0,BROWN_NOODY_3.jpg,PEACOCK_2.jpg,1.0,,,,AW5O1RK3W60FC
814,54,,1.0,34.0,MALACHITE_KINGFISHER_2.jpg,INCA_TERN_2.jpg,2.0,,,,AW5O1RK3W60FC
815,55,,1.0,35.0,RUBY_THROATED_HUMMINGBIRD_3.jpg,NORTHERN_SHOVELER_1.jpg,3.0,,,,AW5O1RK3W60FC
816,56,,1.0,36.0,NORTHERN_JACANA_3.jpg,CRAB_PLOVER_3.jpg,2.0,,,,AW5O1RK3W60FC
817,57,,1.0,37.0,ASIAN_CRESTED_IBIS_4.jpg,CANARY_2.jpg,1.0,,,,AW5O1RK3W60FC
818,58,,1.0,38.0,FLAME_BOWERBIRD_3.jpg,BROWN_THRASHER_4.jpg,2.0,,,,AW5O1RK3W60FC
819,59,,1.0,39.0,CHUKAR_PARTRIDGE_5.jpg,BLACK_THROATED_BUSHTIT_1.jpg,3.0,,,,AW5O1RK3W60FC
820,60,,1.0,40.0,PINK_ROBIN_4.jpg,SPOONBILL_3.jpg,1.0,,,,AW5O1RK3W60FC
821,61,,1.0,41.0,GRAY_KINGBIRD_5.jpg,AFRICAN_FIREFINCH_3.jpg,3.0,,,,AW5O1RK3W60FC
822,62,,1.0,42.0,ALPINE_CHOUGH_4.jpg,SNOWY_EGRET_2.jpg,1.0,,,,AW5O1RK3W60FC
823,63,,1.0,43.0,RED_HEADED_WOODPECKER_5.jpg,ASHY_STORM_PETREL_2.jpg,1.0,,,,AW5O1RK3W60FC
824,64,right,1.0,44.0,right.jpg,,,right,0.6427,,AW5O1RK3W60FC
825,65,,1.0,45.0,RUBY_THROATED_HUMMINGBIRD_1.jpg,BANANAQUIT_2.jpg,1.0,,,,AW5O1RK3W60FC
826,66,right,1.0,46.0,right.jpg,,,right,0.5275,,AW5O1RK3W60FC
827,67,,1.0,47.0,RUFOUS_KINGFISHER_1.jpg,MAGPIE_GOOSE_3.jpg,2.0,,,,AW5O1RK3W60FC
828,68,,1.0,48.0,ECUADORIAN_HILLSTAR_5.jpg,BOBOLINK_5.jpg,2.0,,,,AW5O1RK3W60FC
829,69,,1.0,49.0,CRESTED_NUTHATCH_2.jpg,AFRICAN_FIREFINCH_1.jpg,2.0,,,,AW5O1RK3W60FC
830,70,,1.0,50.0,INCA_TERN_4.jpg,ELLIOTS__PHEASANT_4.jpg,1.0,,,,AW5O1RK3W60FC
831,71,,1.0,51.0,SPLENDID_WREN_1.jpg,CUBAN_TODY_4.jpg,3.0,,,,AW5O1RK3W60FC
832,72,,1.0,52.0,RUBY_THROATED_HUMMINGBIRD_2.jpg,GOLDEN_CHLOROPHONIA_2.jpg,1.0,,,,AW5O1RK3W60FC
833,73,,1.0,53.0,INLAND_DOTTEREL_4.jpg,CRESTED_KINGFISHER_1.jpg,3.0,,,,AW5O1RK3W60FC
834,74,,1.0,54.0,PYGMY_KINGFISHER_5.jpg,GRANDALA_2.jpg,1.0,,,,AW5O1RK3W60FC
835,75,,1.0,55.0,BREWERS_BLACKBIRD_3.jpg,GOLDEN_CHEEKED_WARBLER_3.jpg,2.0,,,,AW5O1RK3W60FC
836,76,,1.0,56.0,BROWN_THRASHER_3.jpg,OYSTER_CATCHER_4.jpg,2.0,,,,AW5O1RK3W60FC
837,77,,1.0,57.0,LESSER_ADJUTANT_5.jpg,RED_HEADED_WOODPECKER_1.jpg,3.0,,,,AW5O1RK3W60FC
838,78,,1.0,58.0,DOUBLE_BRESTED_CORMARANT_5.jpg,EURASIAN_MAGPIE_4.jpg,2.0,,,,AW5O1RK3W60FC
839,79,,1.0,59.0,MAGPIE_GOOSE_5.jpg,DOUBLE_EYED_FIG_PARROT_5.jpg,1.0,,,,AW5O1RK3W60FC
840,80,,1.0,60.0,GREY_PLOVER_1.jpg,ECUADORIAN_HILLSTAR_3.jpg,3.0,,,,AW5O1RK3W60FC
841,81,,1.0,61.0,AFRICAN_PIED_HORNBILL_5.jpg,CAPUCHINBIRD_2.jpg,3.0,,,,AW5O1RK3W60FC
842,82,,1.0,62.0,SHOEBILL_3.jpg,GILDED_FLICKER_5.jpg,2.0,,,,AW5O1RK3W60FC
843,83,,1.0,63.0,GOLDEN_CHEEKED_WARBLER_2.jpg,HOUSE_FINCH_2.jpg,2.0,,,,AW5O1RK3W60FC
844,84,,1.0,64.0,HAWAIIAN_GOOSE_4.jpg,WATTLED_LAPWING_3.jpg,3.0,,,,AW5O1RK3W60FC
845,20,,1.0,0.0,BALI_STARLING_1.jpg,CAPE_LONGCLAW_5.jpg,1.0,,,,AY3JOEWZT0APP
846,21,,1.0,1.0,LESSER_ADJUTANT_4.jpg,ALTAMIRA_YELLOWTHROAT_5.jpg,1.0,,,,AY3JOEWZT0APP
847,22,,1.0,2.0,EASTERN_TOWEE_2.jpg,NORTHERN_BEARDLESS_TYRANNULET_5.jpg,3.0,,,,AY3JOEWZT0APP
848,23,,1.0,3.0,EUROPEAN_TURTLE_DOVE_3.jpg,TEAL_DUCK_2.jpg,1.0,,,,AY3JOEWZT0APP
849,24,,1.0,4.0,LITTLE_AUK_5.jpg,ORANGE_BRESTED_BUNTING_3.jpg,2.0,,,,AY3JOEWZT0APP
850,25,,1.0,5.0,GYRFALCON_1.jpg,FAIRY_TERN_1.jpg,3.0,,,,AY3JOEWZT0APP
851,26,,1.0,6.0,ALPINE_CHOUGH_4.jpg,BOBOLINK_3.jpg,3.0,,,,AY3JOEWZT0APP
852,27,,1.0,7.0,GREY_PLOVER_1.jpg,ECUADORIAN_HILLSTAR_3.jpg,3.0,,,,AY3JOEWZT0APP
853,28,,1.0,8.0,ASIAN_CRESTED_IBIS_4.jpg,OYSTER_CATCHER_2.jpg,2.0,,,,AY3JOEWZT0APP
854,29,,1.0,9.0,WHITE_CHEEKED_TURACO_5.jpg,PYGMY_KINGFISHER_2.jpg,3.0,,,,AY3JOEWZT0APP
855,30,left,1.0,10.0,left.jpg,,,left,1.1736,,AY3JOEWZT0APP
856,31,,1.0,11.0,NORTHERN_JACANA_3.jpg,AMERICAN_GOLDFINCH_4.jpg,1.0,,,,AY3JOEWZT0APP
857,32,,1.0,12.0,STRIPPED_SWALLOW_1.jpg,MAGPIE_GOOSE_4.jpg,2.0,,,,AY3JOEWZT0APP
858,33,,1.0,13.0,OVENBIRD_5.jpg,SHORT_BILLED_DOWITCHER_5.jpg,3.0,,,,AY3JOEWZT0APP
859,34,,1.0,14.0,PARUS_MAJOR_1.jpg,CALIFORNIA_GULL_2.jpg,2.0,,,,AY3JOEWZT0APP
860,35,,1.0,15.0,INLAND_DOTTEREL_4.jpg,CASSOWARY_2.jpg,1.0,,,,AY3JOEWZT0APP
861,36,right,1.0,16.0,right.jpg,,,right,1.2322,,AY3JOEWZT0APP
862,37,,1.0,17.0,BREWERS_BLACKBIRD_3.jpg,GOLDEN_CHEEKED_WARBLER_3.jpg,2.0,,,,AY3JOEWZT0APP
863,38,,1.0,18.0,INDIGO_BUNTING_1.jpg,DARWINS_FLYCATCHER_2.jpg,3.0,,,,AY3JOEWZT0APP
864,39,,1.0,19.0,IVORY_GULL_3.jpg,FLAME_TANAGER_3.jpg,2.0,,,,AY3JOEWZT0APP
865,40,,1.0,20.0,HAWAIIAN_GOOSE_4.jpg,HIMALAYAN_MONAL_2.jpg,2.0,,,,AY3JOEWZT0APP
866,41,,1.0,21.0,CHUKAR_PARTRIDGE_5.jpg,BLACK_THROATED_BUSHTIT_1.jpg,3.0,,,,AY3JOEWZT0APP
867,42,,1.0,22.0,TASMANIAN_HEN_5.jpg,AFRICAN_EMERALD_CUCKOO_5.jpg,2.0,,,,AY3JOEWZT0APP
868,43,,1.0,23.0,KILLDEAR_2.jpg,CAATINGA_CACHOLOTE_4.jpg,2.0,,,,AY3JOEWZT0APP
869,44,,1.0,24.0,PINK_ROBIN_4.jpg,SPOONBILL_3.jpg,1.0,,,,AY3JOEWZT0APP
870,45,,1.0,25.0,RUBY_THROATED_HUMMINGBIRD_1.jpg,FRIGATE_1.jpg,3.0,,,,AY3JOEWZT0APP
871,46,,1.0,26.0,RUBY_THROATED_HUMMINGBIRD_2.jpg,GOLDEN_CHLOROPHONIA_2.jpg,1.0,,,,AY3JOEWZT0APP
872,47,,1.0,27.0,MYNA_1.jpg,PARADISE_TANAGER_3.jpg,3.0,,,,AY3JOEWZT0APP
873,48,,1.0,28.0,CRESTED_CARACARA_4.jpg,INDIAN_PITTA_2.jpg,2.0,,,,AY3JOEWZT0APP
874,49,,1.0,29.0,BROWN_THRASHER_3.jpg,OYSTER_CATCHER_4.jpg,2.0,,,,AY3JOEWZT0APP
875,50,,1.0,30.0,AFRICAN_PIED_HORNBILL_5.jpg,ALEXANDRINE_PARAKEET_1.jpg,2.0,,,,AY3JOEWZT0APP
876,51,,1.0,31.0,SPLENDID_WREN_1.jpg,DOUBLE_BRESTED_CORMARANT_1.jpg,2.0,,,,AY3JOEWZT0APP
877,52,,1.0,32.0,PEACOCK_3.jpg,STRAWBERRY_FINCH_4.jpg,2.0,,,,AY3JOEWZT0APP
878,53,,1.0,33.0,MAGPIE_GOOSE_5.jpg,HAMERKOP_1.jpg,2.0,,,,AY3JOEWZT0APP
879,54,right,1.0,34.0,right.jpg,,,right,1.1723,,AY3JOEWZT0APP
880,55,,1.0,35.0,DOUBLE_BRESTED_CORMARANT_5.jpg,GILDED_FLICKER_2.jpg,1.0,,,,AY3JOEWZT0APP
881,56,,1.0,36.0,CERULEAN_WARBLER_1.jpg,AMERICAN_FLAMINGO_2.jpg,1.0,,,,AY3JOEWZT0APP
882,57,,1.0,37.0,VERMILION_FLYCATHER_3.jpg,RED_BEARDED_BEE_EATER_1.jpg,3.0,,,,AY3JOEWZT0APP
883,58,left,1.0,38.0,left.jpg,,,left,1.044,,AY3JOEWZT0APP
884,59,,1.0,39.0,LARK_BUNTING_2.jpg,CACTUS_WREN_3.jpg,3.0,,,,AY3JOEWZT0APP
885,60,,1.0,40.0,ECUADORIAN_HILLSTAR_5.jpg,CRIMSON_SUNBIRD_5.jpg,3.0,,,,AY3JOEWZT0APP
886,61,,1.0,41.0,MALACHITE_KINGFISHER_2.jpg,INCA_TERN_2.jpg,2.0,,,,AY3JOEWZT0APP
887,62,,1.0,42.0,SCARLET_TANAGER_2.jpg,BEARDED_BARBET_2.jpg,1.0,,,,AY3JOEWZT0APP
888,63,,1.0,43.0,INCA_TERN_4.jpg,BORNEAN_BRISTLEHEAD_5.jpg,3.0,,,,AY3JOEWZT0APP
889,64,,1.0,44.0,CASSOWARY_1.jpg,ROSY_FACED_LOVEBIRD_4.jpg,1.0,,,,AY3JOEWZT0APP
890,65,,1.0,45.0,IVORY_GULL_1.jpg,FAIRY_TERN_4.jpg,3.0,,,,AY3JOEWZT0APP
891,66,,1.0,46.0,RUBY_THROATED_HUMMINGBIRD_3.jpg,MYNA_5.jpg,2.0,,,,AY3JOEWZT0APP
892,67,,1.0,47.0,GOLDEN_CHLOROPHONIA_5.jpg,ROADRUNNER_2.jpg,1.0,,,,AY3JOEWZT0APP
893,68,,1.0,48.0,CASPIAN_TERN_1.jpg,GREAT_GRAY_OWL_4.jpg,1.0,,,,AY3JOEWZT0APP
894,69,,1.0,49.0,OCELLATED_TURKEY_1.jpg,PURPLE_SWAMPHEN_4.jpg,3.0,,,,AY3JOEWZT0APP
895,70,,1.0,50.0,RED_HEADED_WOODPECKER_5.jpg,ASHY_STORM_PETREL_2.jpg,1.0,,,,AY3JOEWZT0APP
896,71,,1.0,51.0,ASIAN_DOLLARD_BIRD_2.jpg,VIOLET_GREEN_SWALLOW_4.jpg,3.0,,,,AY3JOEWZT0APP
897,72,,1.0,52.0,KAGU_5.jpg,ASHY_STORM_PETREL_1.jpg,2.0,,,,AY3JOEWZT0APP
898,73,,1.0,53.0,PYGMY_KINGFISHER_5.jpg,MASKED_BOOBY_5.jpg,2.0,,,,AY3JOEWZT0APP
899,74,left,1.0,54.0,left.jpg,,,left,1.1235,,AY3JOEWZT0APP
900,75,,1.0,55.0,RUFOUS_KINGFISHER_1.jpg,SNOWY_OWL_5.jpg,1.0,,,,AY3JOEWZT0APP
901,76,,1.0,56.0,SHOEBILL_3.jpg,BALD_EAGLE_5.jpg,3.0,,,,AY3JOEWZT0APP
902,77,,1.0,57.0,ARARIPE_MANAKIN_4.jpg,BLACK_VULTURE_1.jpg,2.0,,,,AY3JOEWZT0APP
903,78,,1.0,58.0,CRESTED_NUTHATCH_2.jpg,SCARLET_IBIS_3.jpg,1.0,,,,AY3JOEWZT0APP
904,79,,1.0,59.0,AMERICAN_PIPIT_5.jpg,EMU_2.jpg,1.0,,,,AY3JOEWZT0APP
905,80,,1.0,60.0,GOLDEN_CHEEKED_WARBLER_2.jpg,SPOONBILL_1.jpg,1.0,,,,AY3JOEWZT0APP
906,81,,1.0,61.0,FLAME_BOWERBIRD_3.jpg,INDIAN_BUSTARD_2.jpg,1.0,,,,AY3JOEWZT0APP
907,82,,1.0,62.0,LESSER_ADJUTANT_5.jpg,GREEN_BROADBILL_4.jpg,1.0,,,,AY3JOEWZT0APP
908,83,,1.0,63.0,GRAY_KINGBIRD_5.jpg,AFRICAN_FIREFINCH_3.jpg,3.0,,,,AY3JOEWZT0APP
909,84,,1.0,64.0,BROWN_NOODY_3.jpg,GUINEA_TURACO_5.jpg,3.0,,,,AY3JOEWZT0APP
