,index,demo_encoding_loop.thisTrialN,DemoImage,DemoCorrect,demo_encoding_response.rt,demo_encoding_response.keys,index,demo_test_response.keys,demo_test_response.corr,demo_test_response.rt,demo_test_loop.thisTrialN,DemoImage1,DemoImage2,DemoCorrectTest,subject
0,4,0.0,flower1.jpg,,,,12.0,left,1.0,4.3243,0.0,flower1.jpg,flower1_pair.jpg,left,A12O0RRD0YT6AD
1,5,1.0,flower2.jpg,,,,13.0,left,0.0,1.6145,1.0,flower2_pair.jpg,flower2.jpg,right,A12O0RRD0YT6AD
2,6,2.0,left.jpg,left,0.9783,left,14.0,left,1.0,1.2,2.0,flower3.jpg,flower3_pair.jpg,left,A12O0RRD0YT6AD
3,7,3.0,flower3.jpg,,,,15.0,right,0.0,1.4454,3.0,flower4.jpg,flower4_pair.jpg,left,A12O0RRD0YT6AD
4,8,4.0,flower4.jpg,,,,16.0,left,0.0,1.2864,4.0,flower5_pair.jpg,flower5.jpg,right,A12O0RRD0YT6AD
5,9,5.0,flower5.jpg,,,,17.0,right,0.0,1.5927,5.0,flower6.jpg,flower6_pair.jpg,left,A12O0RRD0YT6AD
6,10,6.0,flower6.jpg,,,,,,,,,,,,A12O0RRD0YT6AD
7,4,0.0,flower1.jpg,,,,12.0,left,1.0,5.6826,0.0,flower1.jpg,flower1_pair.jpg,left,A1S0QK9U7INTSX
8,5,1.0,flower2.jpg,,,,13.0,right,1.0,2.9998,1.0,flower2_pair.jpg,flower2.jpg,right,A1S0QK9U7INTSX
9,6,2.0,left.jpg,left,1.4776,left,14.0,left,1.0,1.4339,2.0,flower3.jpg,flower3_pair.jpg,left,A1S0QK9U7INTSX
10,7,3.0,flower3.jpg,,,,15.0,left,1.0,1.6481,3.0,flower4.jpg,flower4_pair.jpg,left,A1S0QK9U7INTSX
11,8,4.0,flower4.jpg,,,,16.0,right,1.0,1.2342,4.0,flower5_pair.jpg,flower5.jpg,right,A1S0QK9U7INTSX
12,9,5.0,flower5.jpg,,,,17.0,right,0.0,1.8681,5.0,flower6.jpg,flower6_pair.jpg,left,A1S0QK9U7INTSX
13,10,6.0,flower6.jpg,,,,,,,,,,,,A1S0QK9U7INTSX
14,4,0.0,flower1.jpg,,,,12.0,left,1.0,1.477,0.0,flower1.jpg,flower1_pair.jpg,left,A21UA6O7ZFAIQJ
15,5,1.0,flower2.jpg,,,,13.0,right,1.0,2.254,1.0,flower2_pair.jpg,flower2.jpg,right,A21UA6O7ZFAIQJ
16,6,2.0,left.jpg,left,0.513,left,14.0,left,1.0,1.372,2.0,flower3.jpg,flower3_pair.jpg,left,A21UA6O7ZFAIQJ
17,7,3.0,flower3.jpg,,,,15.0,left,1.0,1.356,3.0,flower4.jpg,flower4_pair.jpg,left,A21UA6O7ZFAIQJ
18,8,4.0,flower4.jpg,,,,16.0,right,1.0,1.62,4.0,flower5_pair.jpg,flower5.jpg,right,A21UA6O7ZFAIQJ
19,9,5.0,flower5.jpg,,,,17.0,left,1.0,1.679,5.0,flower6.jpg,flower6_pair.jpg,left,A21UA6O7ZFAIQJ
20,10,6.0,flower6.jpg,,,,,,,,,,,,A21UA6O7ZFAIQJ
21,4,0.0,flower1.jpg,,,,12.0,left,1.0,2.513,0.0,flower1.jpg,flower1_pair.jpg,left,A2HGETLDQKWF1O
22,5,1.0,flower2.jpg,,,,13.0,right,1.0,1.7445,1.0,flower2_pair.jpg,flower2.jpg,right,A2HGETLDQKWF1O
23,6,2.0,left.jpg,left,1.7752,left,14.0,left,1.0,1.3545,2.0,flower3.jpg,flower3_pair.jpg,left,A2HGETLDQKWF1O
24,7,3.0,flower3.jpg,,,,15.0,right,0.0,2.803700001,3.0,flower4.jpg,flower4_pair.jpg,left,A2HGETLDQKWF1O
25,8,4.0,flower4.jpg,,,,16.0,right,1.0,2.0017,4.0,flower5_pair.jpg,flower5.jpg,right,A2HGETLDQKWF1O
26,9,5.0,flower5.jpg,,,,17.0,left,1.0,1.2698,5.0,flower6.jpg,flower6_pair.jpg,left,A2HGETLDQKWF1O
27,10,6.0,flower6.jpg,,,,,,,,,,,,A2HGETLDQKWF1O
28,4,0.0,flower1.jpg,,,,12.0,left,1.0,2.5758,0.0,flower1.jpg,flower1_pair.jpg,left,A38L8T6E70LVYE
29,5,1.0,flower2.jpg,,,,13.0,left,0.0,1.3969,1.0,flower2_pair.jpg,flower2.jpg,right,A38L8T6E70LVYE
30,6,2.0,left.jpg,left,2.6889,left,14.0,left,1.0,1.1842,2.0,flower3.jpg,flower3_pair.jpg,left,A38L8T6E70LVYE
31,7,3.0,flower3.jpg,,,,15.0,right,0.0,1.304,3.0,flower4.jpg,flower4_pair.jpg,left,A38L8T6E70LVYE
32,8,4.0,flower4.jpg,,,,16.0,right,1.0,3.6905,4.0,flower5_pair.jpg,flower5.jpg,right,A38L8T6E70LVYE
33,9,5.0,flower5.jpg,,,,17.0,left,1.0,1.8085,5.0,flower6.jpg,flower6_pair.jpg,left,A38L8T6E70LVYE
34,10,6.0,flower6.jpg,,,,,,,,,,,,A38L8T6E70LVYE
35,4,0.0,flower1.jpg,,,,12.0,right,0.0,5.9707,0.0,flower1.jpg,flower1_pair.jpg,left,A3HMRQ4Y0NZKOT
36,5,1.0,flower2.jpg,,,,13.0,right,1.0,1.6587,1.0,flower2_pair.jpg,flower2.jpg,right,A3HMRQ4Y0NZKOT
37,6,2.0,left.jpg,left,1.7799,left,14.0,right,0.0,1.3717,2.0,flower3.jpg,flower3_pair.jpg,left,A3HMRQ4Y0NZKOT
38,7,3.0,flower3.jpg,,,,15.0,right,0.0,1.427,3.0,flower4.jpg,flower4_pair.jpg,left,A3HMRQ4Y0NZKOT
39,8,4.0,flower4.jpg,,,,16.0,right,1.0,2.4328,4.0,flower5_pair.jpg,flower5.jpg,right,A3HMRQ4Y0NZKOT
40,9,5.0,flower5.jpg,,,,17.0,right,0.0,1.2404,5.0,flower6.jpg,flower6_pair.jpg,left,A3HMRQ4Y0NZKOT
41,10,6.0,flower6.jpg,,,,,,,,,,,,A3HMRQ4Y0NZKOT
42,4,0.0,flower1.jpg,,,,12.0,left,1.0,3.2637,0.0,flower1.jpg,flower1_pair.jpg,left,A3MXI2O3JZ0TZH
43,5,1.0,flower2.jpg,,,,13.0,left,0.0,1.8048,1.0,flower2_pair.jpg,flower2.jpg,right,A3MXI2O3JZ0TZH
44,6,2.0,left.jpg,left,0.6368,left,14.0,right,0.0,1.2349,2.0,flower3.jpg,flower3_pair.jpg,left,A3MXI2O3JZ0TZH
45,7,3.0,flower3.jpg,,,,15.0,right,0.0,1.0569,3.0,flower4.jpg,flower4_pair.jpg,left,A3MXI2O3JZ0TZH
46,8,4.0,flower4.jpg,,,,16.0,left,0.0,1.0966,4.0,flower5_pair.jpg,flower5.jpg,right,A3MXI2O3JZ0TZH
47,9,5.0,flower5.jpg,,,,17.0,right,0.0,1.5336,5.0,flower6.jpg,flower6_pair.jpg,left,A3MXI2O3JZ0TZH
48,10,6.0,flower6.jpg,,,,,,,,,,,,A3MXI2O3JZ0TZH
49,4,0.0,flower1.jpg,,,,12.0,left,1.0,4.4718,0.0,flower1.jpg,flower1_pair.jpg,left,A3SSZZTJIJLD3Y
50,5,1.0,flower2.jpg,,,,13.0,right,1.0,1.3187,1.0,flower2_pair.jpg,flower2.jpg,right,A3SSZZTJIJLD3Y
51,6,2.0,left.jpg,left,1.1752,left,14.0,left,1.0,1.7539,2.0,flower3.jpg,flower3_pair.jpg,left,A3SSZZTJIJLD3Y
52,7,3.0,flower3.jpg,,,,15.0,right,0.0,1.476,3.0,flower4.jpg,flower4_pair.jpg,left,A3SSZZTJIJLD3Y
53,8,4.0,flower4.jpg,,,,16.0,left,0.0,1.3864,4.0,flower5_pair.jpg,flower5.jpg,right,A3SSZZTJIJLD3Y
54,9,5.0,flower5.jpg,,,,17.0,left,1.0,1.4009,5.0,flower6.jpg,flower6_pair.jpg,left,A3SSZZTJIJLD3Y
55,10,6.0,flower6.jpg,,,,,,,,,,,,A3SSZZTJIJLD3Y
56,4,0.0,flower1.jpg,,,,12.0,right,0.0,26.8142,0.0,flower1.jpg,flower1_pair.jpg,left,ABVBYS63BZWZ6
57,5,1.0,flower2.jpg,,,,13.0,right,1.0,10.3491,1.0,flower2_pair.jpg,flower2.jpg,right,ABVBYS63BZWZ6
58,6,2.0,left.jpg,left,2.1794,left,14.0,left,1.0,14.0031,2.0,flower3.jpg,flower3_pair.jpg,left,ABVBYS63BZWZ6
59,7,3.0,flower3.jpg,,,,15.0,left,1.0,5.4102,3.0,flower4.jpg,flower4_pair.jpg,left,ABVBYS63BZWZ6
60,8,4.0,flower4.jpg,,,,16.0,right,1.0,11.044,4.0,flower5_pair.jpg,flower5.jpg,right,ABVBYS63BZWZ6
61,9,5.0,flower5.jpg,,,,17.0,left,1.0,2.083,5.0,flower6.jpg,flower6_pair.jpg,left,ABVBYS63BZWZ6
62,10,6.0,flower6.jpg,,,,,,,,,,,,ABVBYS63BZWZ6
63,4,0.0,flower1.jpg,,,,12.0,right,0.0,2.6944,0.0,flower1.jpg,flower1_pair.jpg,left,AL84FSIS4UM1Q
64,5,1.0,flower2.jpg,,,,13.0,left,0.0,1.3966,1.0,flower2_pair.jpg,flower2.jpg,right,AL84FSIS4UM1Q
65,6,2.0,left.jpg,left,1.098099999,left,14.0,left,1.0,1.8013,2.0,flower3.jpg,flower3_pair.jpg,left,AL84FSIS4UM1Q
66,7,3.0,flower3.jpg,,,,15.0,left,1.0,1.5823,3.0,flower4.jpg,flower4_pair.jpg,left,AL84FSIS4UM1Q
67,8,4.0,flower4.jpg,,,,16.0,right,1.0,1.493200001,4.0,flower5_pair.jpg,flower5.jpg,right,AL84FSIS4UM1Q
68,9,5.0,flower5.jpg,,,,17.0,left,1.0,1.9735,5.0,flower6.jpg,flower6_pair.jpg,left,AL84FSIS4UM1Q
69,10,6.0,flower6.jpg,,,,,,,,,,,,AL84FSIS4UM1Q
70,4,0.0,flower1.jpg,,,,12.0,left,1.0,1.4431,0.0,flower1.jpg,flower1_pair.jpg,left,AN4P0SU1YSPF2
71,5,1.0,flower2.jpg,,,,13.0,right,1.0,1.438,1.0,flower2_pair.jpg,flower2.jpg,right,AN4P0SU1YSPF2
72,6,2.0,left.jpg,left,0.6202,left,14.0,left,1.0,1.0865,2.0,flower3.jpg,flower3_pair.jpg,left,AN4P0SU1YSPF2
73,7,3.0,flower3.jpg,,,,15.0,right,0.0,1.9564,3.0,flower4.jpg,flower4_pair.jpg,left,AN4P0SU1YSPF2
74,8,4.0,flower4.jpg,,,,16.0,right,1.0,1.3698,4.0,flower5_pair.jpg,flower5.jpg,right,AN4P0SU1YSPF2
75,9,5.0,flower5.jpg,,,,17.0,left,1.0,1.4238,5.0,flower6.jpg,flower6_pair.jpg,left,AN4P0SU1YSPF2
76,10,6.0,flower6.jpg,,,,,,,,,,,,AN4P0SU1YSPF2
77,4,0.0,flower1.jpg,,,,12.0,left,1.0,1.847,0.0,flower1.jpg,flower1_pair.jpg,left,AOOLS8280CL0Z
78,5,1.0,flower2.jpg,,,,13.0,right,1.0,2.8948,1.0,flower2_pair.jpg,flower2.jpg,right,AOOLS8280CL0Z
79,6,2.0,left.jpg,left,0.6296,left,14.0,left,1.0,2.2086,2.0,flower3.jpg,flower3_pair.jpg,left,AOOLS8280CL0Z
80,7,3.0,flower3.jpg,,,,15.0,left,1.0,1.8036,3.0,flower4.jpg,flower4_pair.jpg,left,AOOLS8280CL0Z
81,8,4.0,flower4.jpg,,,,16.0,right,1.0,2.9972,4.0,flower5_pair.jpg,flower5.jpg,right,AOOLS8280CL0Z
82,9,5.0,flower5.jpg,,,,17.0,left,1.0,1.5934,5.0,flower6.jpg,flower6_pair.jpg,left,AOOLS8280CL0Z
83,10,6.0,flower6.jpg,,,,,,,,,,,,AOOLS8280CL0Z
84,4,0.0,flower1.jpg,,,,12.0,left,1.0,4.341,0.0,flower1.jpg,flower1_pair.jpg,left,AW5O1RK3W60FC
85,5,1.0,flower2.jpg,,,,13.0,right,1.0,2.3901,1.0,flower2_pair.jpg,flower2.jpg,right,AW5O1RK3W60FC
86,6,2.0,left.jpg,left,0.9778,left,14.0,left,1.0,2.2824,2.0,flower3.jpg,flower3_pair.jpg,left,AW5O1RK3W60FC
87,7,3.0,flower3.jpg,,,,15.0,left,1.0,2.8791,3.0,flower4.jpg,flower4_pair.jpg,left,AW5O1RK3W60FC
88,8,4.0,flower4.jpg,,,,16.0,right,1.0,3.7715,4.0,flower5_pair.jpg,flower5.jpg,right,AW5O1RK3W60FC
89,9,5.0,flower5.jpg,,,,17.0,left,1.0,2.0344,5.0,flower6.jpg,flower6_pair.jpg,left,AW5O1RK3W60FC
90,10,6.0,flower6.jpg,,,,,,,,,,,,AW5O1RK3W60FC
91,4,0.0,flower1.jpg,,,,12.0,left,1.0,1.9031,0.0,flower1.jpg,flower1_pair.jpg,left,AY3JOEWZT0APP
92,5,1.0,flower2.jpg,,,,13.0,left,0.0,1.5581,1.0,flower2_pair.jpg,flower2.jpg,right,AY3JOEWZT0APP
93,6,2.0,left.jpg,left,1.2588,left,14.0,left,1.0,1.6496,2.0,flower3.jpg,flower3_pair.jpg,left,AY3JOEWZT0APP
94,7,3.0,flower3.jpg,,,,15.0,right,0.0,1.2873,3.0,flower4.jpg,flower4_pair.jpg,left,AY3JOEWZT0APP
95,8,4.0,flower4.jpg,,,,16.0,right,1.0,1.2849,4.0,flower5_pair.jpg,flower5.jpg,right,AY3JOEWZT0APP
96,9,5.0,flower5.jpg,,,,17.0,left,1.0,1.1882,5.0,flower6.jpg,flower6_pair.jpg,left,AY3JOEWZT0APP
97,10,6.0,flower6.jpg,,,,,,,,,,,,AY3JOEWZT0APP
