,index,test_encoding_response.keys,test_encoding_response.corr,trials.thisTrialN,target_image,pair,layer,correct,test_encoding_response.rt,key_resp_end.keys,subject
0,20,,1.0,0.0,STRIPPED_SWALLOW_1.jpg,MAGPIE_GOOSE_4.jpg,2.0,,,,A11F3MA5FWH6SJ
1,21,,1.0,1.0,BALI_STARLING_1.jpg,IBERIAN_MAGPIE_1.jpg,3.0,,,,A11F3MA5FWH6SJ
2,22,,1.0,2.0,RUBY_THROATED_HUMMINGBIRD_3.jpg,MYNA_5.jpg,2.0,,,,A11F3MA5FWH6SJ
3,23,,1.0,3.0,LARK_BUNTING_2.jpg,PEACOCK_1.jpg,1.0,,,,A11F3MA5FWH6SJ
4,24,,1.0,4.0,HAWAIIAN_GOOSE_4.jpg,HIMALAYAN_MONAL_2.jpg,2.0,,,,A11F3MA5FWH6SJ
5,25,,1.0,5.0,GOLDEN_CHLOROPHONIA_5.jpg,COMMON_HOUSE_MARTIN_4.jpg,2.0,,,,A11F3MA5FWH6SJ
6,26,,1.0,6.0,LESSER_ADJUTANT_5.jpg,GREEN_BROADBILL_4.jpg,1.0,,,,A11F3MA5FWH6SJ
7,27,,1.0,7.0,PEACOCK_3.jpg,CHATTERING_LORY_2.jpg,3.0,,,,A11F3MA5FWH6SJ
8,28,,1.0,8.0,OCELLATED_TURKEY_1.jpg,CHIPPING_SPARROW_1.jpg,1.0,,,,A11F3MA5FWH6SJ
9,29,,1.0,9.0,CERULEAN_WARBLER_1.jpg,AMERICAN_FLAMINGO_2.jpg,1.0,,,,A11F3MA5FWH6SJ
10,30,,1.0,10.0,SCARLET_TANAGER_2.jpg,BORNEAN_LEAFBIRD_1.jpg,3.0,,,,A11F3MA5FWH6SJ
11,31,right,1.0,11.0,right.jpg,,,right,1.2724,,A11F3MA5FWH6SJ
12,32,,1.0,12.0,BREWERS_BLACKBIRD_3.jpg,GOLDEN_CHEEKED_WARBLER_3.jpg,2.0,,,,A11F3MA5FWH6SJ
13,33,,1.0,13.0,GOLDEN_CHEEKED_WARBLER_2.jpg,WHITE_THROATED_BEE_EATER_1.jpg,3.0,,,,A11F3MA5FWH6SJ
14,34,,1.0,14.0,MALACHITE_KINGFISHER_2.jpg,INCA_TERN_2.jpg,2.0,,,,A11F3MA5FWH6SJ
15,35,,1.0,15.0,GREY_PLOVER_1.jpg,HYACINTH_MACAW_3.jpg,1.0,,,,A11F3MA5FWH6SJ
16,36,,1.0,16.0,CASPIAN_TERN_1.jpg,EUROPEAN_GOLDFINCH_4.jpg,2.0,,,,A11F3MA5FWH6SJ
17,37,,1.0,17.0,MYNA_1.jpg,GREY_PLOVER_4.jpg,2.0,,,,A11F3MA5FWH6SJ
18,38,,1.0,18.0,OVENBIRD_5.jpg,FAIRY_PENGUIN_1.jpg,2.0,,,,A11F3MA5FWH6SJ
19,39,,1.0,19.0,INCA_TERN_4.jpg,SMITHS_LONGSPUR_5.jpg,2.0,,,,A11F3MA5FWH6SJ
20,40,,1.0,20.0,PYGMY_KINGFISHER_5.jpg,MASKED_BOOBY_5.jpg,2.0,,,,A11F3MA5FWH6SJ
21,41,,1.0,21.0,BROWN_NOODY_3.jpg,PEACOCK_2.jpg,1.0,,,,A11F3MA5FWH6SJ
22,42,,1.0,22.0,ASIAN_CRESTED_IBIS_4.jpg,CANARY_2.jpg,1.0,,,,A11F3MA5FWH6SJ
23,43,,1.0,23.0,ASIAN_DOLLARD_BIRD_2.jpg,VIOLET_GREEN_SWALLOW_4.jpg,3.0,,,,A11F3MA5FWH6SJ
24,44,left,1.0,24.0,left.jpg,,,left,1.2944,,A11F3MA5FWH6SJ
25,45,,1.0,25.0,RUFOUS_KINGFISHER_1.jpg,SNOWY_OWL_5.jpg,1.0,,,,A11F3MA5FWH6SJ
26,46,,1.0,26.0,AMERICAN_PIPIT_5.jpg,EMU_2.jpg,1.0,,,,A11F3MA5FWH6SJ
27,47,,1.0,27.0,RUBY_THROATED_HUMMINGBIRD_2.jpg,DUSKY_ROBIN_5.jpg,3.0,,,,A11F3MA5FWH6SJ
28,48,,1.0,28.0,GYRFALCON_1.jpg,OSTRICH_1.jpg,1.0,,,,A11F3MA5FWH6SJ
29,49,,1.0,29.0,INLAND_DOTTEREL_4.jpg,CASSOWARY_2.jpg,1.0,,,,A11F3MA5FWH6SJ
30,50,,1.0,30.0,BROWN_THRASHER_3.jpg,BLACK_BAZA_4.jpg,3.0,,,,A11F3MA5FWH6SJ
31,51,,1.0,31.0,MAGPIE_GOOSE_5.jpg,OYSTER_CATCHER_3.jpg,3.0,,,,A11F3MA5FWH6SJ
32,52,,1.0,32.0,VERMILION_FLYCATHER_3.jpg,RED_BEARDED_BEE_EATER_1.jpg,3.0,,,,A11F3MA5FWH6SJ
33,53,right,1.0,33.0,right.jpg,,,right,1.0343,,A11F3MA5FWH6SJ
34,54,,1.0,34.0,ARARIPE_MANAKIN_4.jpg,KIWI_3.jpg,1.0,,,,A11F3MA5FWH6SJ
35,55,,1.0,35.0,PINK_ROBIN_4.jpg,SPOONBILL_3.jpg,1.0,,,,A11F3MA5FWH6SJ
36,56,,1.0,36.0,ALPINE_CHOUGH_4.jpg,BOBOLINK_3.jpg,3.0,,,,A11F3MA5FWH6SJ
37,57,,1.0,37.0,NORTHERN_JACANA_3.jpg,CRAB_PLOVER_3.jpg,2.0,,,,A11F3MA5FWH6SJ
38,58,,1.0,38.0,KAGU_5.jpg,RED_BEARDED_BEE_EATER_3.jpg,1.0,,,,A11F3MA5FWH6SJ
39,59,,1.0,39.0,IVORY_GULL_3.jpg,INDIGO_FLYCATCHER_2.jpg,1.0,,,,A11F3MA5FWH6SJ
40,60,,1.0,40.0,IVORY_GULL_1.jpg,EASTERN_GOLDEN_WEAVER_5.jpg,2.0,,,,A11F3MA5FWH6SJ
41,61,,1.0,41.0,RUBY_THROATED_HUMMINGBIRD_1.jpg,FRIGATE_1.jpg,3.0,,,,A11F3MA5FWH6SJ
42,62,,1.0,42.0,INDIGO_BUNTING_1.jpg,NORTHERN_GANNET_1.jpg,2.0,,,,A11F3MA5FWH6SJ
43,63,left,1.0,43.0,left.jpg,,,left,1.2004,,A11F3MA5FWH6SJ
44,64,,1.0,44.0,SPLENDID_WREN_1.jpg,CUBAN_TODY_4.jpg,3.0,,,,A11F3MA5FWH6SJ
45,65,,1.0,45.0,AFRICAN_PIED_HORNBILL_5.jpg,ALEXANDRINE_PARAKEET_1.jpg,2.0,,,,A11F3MA5FWH6SJ
46,66,,1.0,46.0,KILLDEAR_2.jpg,AZURE_TIT_5.jpg,3.0,,,,A11F3MA5FWH6SJ
47,67,,1.0,47.0,LITTLE_AUK_5.jpg,BEARDED_BELLBIRD_1.jpg,3.0,,,,A11F3MA5FWH6SJ
48,68,,1.0,48.0,CHUKAR_PARTRIDGE_5.jpg,RAZORBILL_1.jpg,2.0,,,,A11F3MA5FWH6SJ
49,69,,1.0,49.0,ECUADORIAN_HILLSTAR_5.jpg,SCARLET_IBIS_2.jpg,1.0,,,,A11F3MA5FWH6SJ
50,70,,1.0,50.0,CRESTED_NUTHATCH_2.jpg,SCARLET_IBIS_3.jpg,1.0,,,,A11F3MA5FWH6SJ
51,71,,1.0,51.0,DOUBLE_BRESTED_CORMARANT_5.jpg,GILDED_FLICKER_2.jpg,1.0,,,,A11F3MA5FWH6SJ
52,72,,1.0,52.0,TASMANIAN_HEN_5.jpg,COPPERY_TAILED_COUCAL_1.jpg,3.0,,,,A11F3MA5FWH6SJ
53,73,,1.0,53.0,RED_HEADED_WOODPECKER_5.jpg,ASHY_STORM_PETREL_2.jpg,1.0,,,,A11F3MA5FWH6SJ
54,74,right,1.0,54.0,right.jpg,,,right,1.2021,,A11F3MA5FWH6SJ
55,75,,1.0,55.0,LESSER_ADJUTANT_4.jpg,FAIRY_TERN_3.jpg,3.0,,,,A11F3MA5FWH6SJ
56,76,,1.0,56.0,EUROPEAN_TURTLE_DOVE_3.jpg,MALABAR_HORNBILL_2.jpg,3.0,,,,A11F3MA5FWH6SJ
57,77,,1.0,57.0,PARUS_MAJOR_1.jpg,PINK_ROBIN_3.jpg,3.0,,,,A11F3MA5FWH6SJ
58,78,,1.0,58.0,CRESTED_CARACARA_4.jpg,FAIRY_PENGUIN_5.jpg,1.0,,,,A11F3MA5FWH6SJ
59,79,,1.0,59.0,FLAME_BOWERBIRD_3.jpg,QUETZAL_3.jpg,3.0,,,,A11F3MA5FWH6SJ
60,80,,1.0,60.0,CASSOWARY_1.jpg,SCARLET_MACAW_1.jpg,2.0,,,,A11F3MA5FWH6SJ
61,81,,1.0,61.0,SHOEBILL_3.jpg,BALD_EAGLE_5.jpg,3.0,,,,A11F3MA5FWH6SJ
62,82,,1.0,62.0,WHITE_CHEEKED_TURACO_5.jpg,GREAT_POTOO_3.jpg,2.0,,,,A11F3MA5FWH6SJ
63,83,,1.0,63.0,EASTERN_TOWEE_2.jpg,GOLDEN_CHLOROPHONIA_1.jpg,2.0,,,,A11F3MA5FWH6SJ
64,84,,1.0,64.0,GRAY_KINGBIRD_5.jpg,COCK_OF_THE__ROCK_4.jpg,2.0,,,,A11F3MA5FWH6SJ
65,20,,1.0,0.0,PYGMY_KINGFISHER_5.jpg,MASKED_BOOBY_5.jpg,2.0,,,,A1DZMZTXWOM9MR
66,21,,1.0,1.0,VERMILION_FLYCATHER_3.jpg,CALIFORNIA_GULL_1.jpg,2.0,,,,A1DZMZTXWOM9MR
67,22,,1.0,2.0,BREWERS_BLACKBIRD_3.jpg,CAPE_LONGCLAW_2.jpg,3.0,,,,A1DZMZTXWOM9MR
68,23,,1.0,3.0,IVORY_GULL_1.jpg,EASTERN_GOLDEN_WEAVER_5.jpg,2.0,,,,A1DZMZTXWOM9MR
69,24,,1.0,4.0,AMERICAN_PIPIT_5.jpg,HEPATIC_TANAGER_5.jpg,3.0,,,,A1DZMZTXWOM9MR
70,25,,1.0,5.0,CRESTED_NUTHATCH_2.jpg,SCARLET_IBIS_3.jpg,1.0,,,,A1DZMZTXWOM9MR
71,26,,1.0,6.0,EASTERN_TOWEE_2.jpg,NORTHERN_BEARDLESS_TYRANNULET_5.jpg,3.0,,,,A1DZMZTXWOM9MR
72,27,,1.0,7.0,MALACHITE_KINGFISHER_2.jpg,INCA_TERN_2.jpg,2.0,,,,A1DZMZTXWOM9MR
73,28,right,1.0,8.0,right.jpg,,,right,0.5606,,A1DZMZTXWOM9MR
74,29,,1.0,9.0,RUFOUS_KINGFISHER_1.jpg,HORNED_SUNGEM_4.jpg,3.0,,,,A1DZMZTXWOM9MR
75,30,,1.0,10.0,GYRFALCON_1.jpg,CINNAMON_ATTILA_2.jpg,2.0,,,,A1DZMZTXWOM9MR
76,31,,1.0,11.0,BROWN_NOODY_3.jpg,SPANGLED_COTINGA_4.jpg,2.0,,,,A1DZMZTXWOM9MR
77,32,,1.0,12.0,CRESTED_CARACARA_4.jpg,TOUCHAN_4.jpg,3.0,,,,A1DZMZTXWOM9MR
78,33,,1.0,13.0,NORTHERN_JACANA_3.jpg,SCARLET_IBIS_4.jpg,3.0,,,,A1DZMZTXWOM9MR
79,34,,1.0,14.0,ECUADORIAN_HILLSTAR_5.jpg,CRIMSON_SUNBIRD_5.jpg,3.0,,,,A1DZMZTXWOM9MR
80,35,,1.0,15.0,CASPIAN_TERN_1.jpg,GREAT_GRAY_OWL_4.jpg,1.0,,,,A1DZMZTXWOM9MR
81,36,,1.0,16.0,INCA_TERN_4.jpg,SMITHS_LONGSPUR_5.jpg,2.0,,,,A1DZMZTXWOM9MR
82,37,,1.0,17.0,CHUKAR_PARTRIDGE_5.jpg,RAZORBILL_1.jpg,2.0,,,,A1DZMZTXWOM9MR
83,38,,1.0,18.0,STRIPPED_SWALLOW_1.jpg,MAGPIE_GOOSE_4.jpg,2.0,,,,A1DZMZTXWOM9MR
84,39,,1.0,19.0,EUROPEAN_TURTLE_DOVE_3.jpg,PAINTED_BUNTING_3.jpg,2.0,,,,A1DZMZTXWOM9MR
85,40,,1.0,20.0,RUBY_THROATED_HUMMINGBIRD_3.jpg,MYNA_5.jpg,2.0,,,,A1DZMZTXWOM9MR
86,41,,1.0,21.0,FLAME_BOWERBIRD_3.jpg,INDIAN_BUSTARD_2.jpg,1.0,,,,A1DZMZTXWOM9MR
87,42,,1.0,22.0,ASIAN_CRESTED_IBIS_4.jpg,IVORY_GULL_2.jpg,3.0,,,,A1DZMZTXWOM9MR
88,43,left,1.0,23.0,left.jpg,,,left,0.4732,,A1DZMZTXWOM9MR
89,44,,1.0,24.0,GOLDEN_CHEEKED_WARBLER_2.jpg,HOUSE_FINCH_2.jpg,2.0,,,,A1DZMZTXWOM9MR
90,45,,1.0,25.0,GOLDEN_CHLOROPHONIA_5.jpg,ROADRUNNER_2.jpg,1.0,,,,A1DZMZTXWOM9MR
91,46,,1.0,26.0,TASMANIAN_HEN_5.jpg,GREEN_BROADBILL_1.jpg,1.0,,,,A1DZMZTXWOM9MR
92,47,,1.0,27.0,LESSER_ADJUTANT_5.jpg,GAMBELS_QUAIL_1.jpg,2.0,,,,A1DZMZTXWOM9MR
93,48,,1.0,28.0,INLAND_DOTTEREL_4.jpg,NICOBAR_PIGEON_4.jpg,2.0,,,,A1DZMZTXWOM9MR
94,49,,1.0,29.0,PEACOCK_3.jpg,ANIANIAU_2.jpg,1.0,,,,A1DZMZTXWOM9MR
95,50,right,1.0,30.0,right.jpg,,,right,0.5827,,A1DZMZTXWOM9MR
96,51,,1.0,31.0,ASIAN_DOLLARD_BIRD_2.jpg,LOGGERHEAD_SHRIKE_4.jpg,2.0,,,,A1DZMZTXWOM9MR
97,52,,1.0,32.0,SHOEBILL_3.jpg,EASTERN_MEADOWLARK_1.jpg,1.0,,,,A1DZMZTXWOM9MR
98,53,,1.0,33.0,RUBY_THROATED_HUMMINGBIRD_1.jpg,FRIGATE_1.jpg,3.0,,,,A1DZMZTXWOM9MR
99,54,,1.0,34.0,WHITE_CHEEKED_TURACO_5.jpg,GREAT_POTOO_3.jpg,2.0,,,,A1DZMZTXWOM9MR
100,55,,1.0,35.0,PINK_ROBIN_4.jpg,SPOONBILL_3.jpg,1.0,,,,A1DZMZTXWOM9MR
101,56,,1.0,36.0,BALI_STARLING_1.jpg,CAPE_LONGCLAW_5.jpg,1.0,,,,A1DZMZTXWOM9MR
102,57,,1.0,37.0,OVENBIRD_5.jpg,FAIRY_PENGUIN_1.jpg,2.0,,,,A1DZMZTXWOM9MR
103,58,,1.0,38.0,CERULEAN_WARBLER_1.jpg,BANANAQUIT_1.jpg,3.0,,,,A1DZMZTXWOM9MR
104,59,,1.0,39.0,AFRICAN_PIED_HORNBILL_5.jpg,KIWI_4.jpg,1.0,,,,A1DZMZTXWOM9MR
105,60,,1.0,40.0,BROWN_THRASHER_3.jpg,DOUBLE_EYED_FIG_PARROT_3.jpg,1.0,,,,A1DZMZTXWOM9MR
106,61,,1.0,41.0,RUBY_THROATED_HUMMINGBIRD_2.jpg,DUSKY_ROBIN_5.jpg,3.0,,,,A1DZMZTXWOM9MR
107,62,,1.0,42.0,MYNA_1.jpg,PARADISE_TANAGER_3.jpg,3.0,,,,A1DZMZTXWOM9MR
108,63,left,1.0,43.0,left.jpg,,,left,0.5497,,A1DZMZTXWOM9MR
109,64,,1.0,44.0,MAGPIE_GOOSE_5.jpg,HAMERKOP_1.jpg,2.0,,,,A1DZMZTXWOM9MR
110,65,,1.0,45.0,SCARLET_TANAGER_2.jpg,BORNEAN_LEAFBIRD_1.jpg,3.0,,,,A1DZMZTXWOM9MR
111,66,,1.0,46.0,PARUS_MAJOR_1.jpg,SANDHILL_CRANE_4.jpg,1.0,,,,A1DZMZTXWOM9MR
112,67,,1.0,47.0,CASSOWARY_1.jpg,AFRICAN_OYSTER_CATCHER_2.jpg,3.0,,,,A1DZMZTXWOM9MR
113,68,,1.0,48.0,RED_HEADED_WOODPECKER_5.jpg,COLLARED_ARACARI_1.jpg,3.0,,,,A1DZMZTXWOM9MR
114,69,,1.0,49.0,HAWAIIAN_GOOSE_4.jpg,WATTLED_LAPWING_3.jpg,3.0,,,,A1DZMZTXWOM9MR
115,70,,1.0,50.0,LESSER_ADJUTANT_4.jpg,ALTAMIRA_YELLOWTHROAT_5.jpg,1.0,,,,A1DZMZTXWOM9MR
116,71,,1.0,51.0,OCELLATED_TURKEY_1.jpg,PURPLE_SWAMPHEN_4.jpg,3.0,,,,A1DZMZTXWOM9MR
117,72,,1.0,52.0,SPLENDID_WREN_1.jpg,POMARINE_JAEGER_5.jpg,1.0,,,,A1DZMZTXWOM9MR
118,73,,1.0,53.0,ALPINE_CHOUGH_4.jpg,EUROPEAN_GOLDFINCH_3.jpg,2.0,,,,A1DZMZTXWOM9MR
119,74,right,1.0,54.0,right.jpg,,,right,0.6015,,A1DZMZTXWOM9MR
120,75,,1.0,55.0,KILLDEAR_2.jpg,AZURE_TIT_5.jpg,3.0,,,,A1DZMZTXWOM9MR
121,76,,1.0,56.0,KAGU_5.jpg,RED_BEARDED_BEE_EATER_3.jpg,1.0,,,,A1DZMZTXWOM9MR
122,77,,1.0,57.0,IVORY_GULL_3.jpg,INDIGO_FLYCATCHER_2.jpg,1.0,,,,A1DZMZTXWOM9MR
123,78,,1.0,58.0,ARARIPE_MANAKIN_4.jpg,KIWI_3.jpg,1.0,,,,A1DZMZTXWOM9MR
124,79,,1.0,59.0,GRAY_KINGBIRD_5.jpg,BALD_EAGLE_2.jpg,1.0,,,,A1DZMZTXWOM9MR
125,80,,1.0,60.0,LARK_BUNTING_2.jpg,KING_VULTURE_3.jpg,2.0,,,,A1DZMZTXWOM9MR
126,81,,1.0,61.0,DOUBLE_BRESTED_CORMARANT_5.jpg,GILDED_FLICKER_2.jpg,1.0,,,,A1DZMZTXWOM9MR
127,82,,1.0,62.0,INDIGO_BUNTING_1.jpg,DARWINS_FLYCATCHER_2.jpg,3.0,,,,A1DZMZTXWOM9MR
128,83,,1.0,63.0,LITTLE_AUK_5.jpg,BEARDED_BELLBIRD_1.jpg,3.0,,,,A1DZMZTXWOM9MR
129,84,,1.0,64.0,GREY_PLOVER_1.jpg,HYACINTH_MACAW_3.jpg,1.0,,,,A1DZMZTXWOM9MR
130,20,,1.0,0.0,PINK_ROBIN_4.jpg,ALBATROSS_4.jpg,2.0,,,,A1FJGB5JLZ81XB
131,21,,1.0,1.0,CRESTED_CARACARA_4.jpg,INDIAN_PITTA_2.jpg,2.0,,,,A1FJGB5JLZ81XB
132,22,,1.0,2.0,MAGPIE_GOOSE_5.jpg,DOUBLE_EYED_FIG_PARROT_5.jpg,1.0,,,,A1FJGB5JLZ81XB
133,23,,1.0,3.0,RUBY_THROATED_HUMMINGBIRD_2.jpg,APAPANE_4.jpg,2.0,,,,A1FJGB5JLZ81XB
134,24,,1.0,4.0,BREWERS_BLACKBIRD_3.jpg,GUINEA_TURACO_3.jpg,1.0,,,,A1FJGB5JLZ81XB
135,25,,1.0,5.0,AFRICAN_PIED_HORNBILL_5.jpg,CAPUCHINBIRD_2.jpg,3.0,,,,A1FJGB5JLZ81XB
136,26,,1.0,6.0,INLAND_DOTTEREL_4.jpg,CRESTED_KINGFISHER_1.jpg,3.0,,,,A1FJGB5JLZ81XB
137,27,,1.0,7.0,GYRFALCON_1.jpg,CINNAMON_ATTILA_2.jpg,2.0,,,,A1FJGB5JLZ81XB
138,28,,1.0,8.0,IVORY_GULL_1.jpg,WILSONS_BIRD_OF_PARADISE_4.jpg,1.0,,,,A1FJGB5JLZ81XB
139,29,left,1.0,9.0,left.jpg,,,left,1.1403,,A1FJGB5JLZ81XB
140,30,,1.0,10.0,BALI_STARLING_1.jpg,IBERIAN_MAGPIE_1.jpg,3.0,,,,A1FJGB5JLZ81XB
141,31,,1.0,11.0,GOLDEN_CHEEKED_WARBLER_2.jpg,WHITE_THROATED_BEE_EATER_1.jpg,3.0,,,,A1FJGB5JLZ81XB
142,32,,1.0,12.0,ECUADORIAN_HILLSTAR_5.jpg,SCARLET_IBIS_2.jpg,1.0,,,,A1FJGB5JLZ81XB
143,33,,1.0,13.0,MYNA_1.jpg,OSTRICH_3.jpg,1.0,,,,A1FJGB5JLZ81XB
144,34,,1.0,14.0,IVORY_GULL_3.jpg,INDIGO_FLYCATCHER_2.jpg,1.0,,,,A1FJGB5JLZ81XB
145,35,,1.0,15.0,STRIPPED_SWALLOW_1.jpg,MAGPIE_GOOSE_4.jpg,2.0,,,,A1FJGB5JLZ81XB
146,36,,1.0,16.0,KILLDEAR_2.jpg,CAATINGA_CACHOLOTE_4.jpg,2.0,,,,A1FJGB5JLZ81XB
147,37,,1.0,17.0,LITTLE_AUK_5.jpg,SANDHILL_CRANE_3.jpg,1.0,,,,A1FJGB5JLZ81XB
148,38,,1.0,18.0,SCARLET_TANAGER_2.jpg,BORNEAN_LEAFBIRD_1.jpg,3.0,,,,A1FJGB5JLZ81XB
149,39,,1.0,19.0,CERULEAN_WARBLER_1.jpg,AMERICAN_FLAMINGO_5.jpg,2.0,,,,A1FJGB5JLZ81XB
150,40,,1.0,20.0,ASIAN_DOLLARD_BIRD_2.jpg,LOGGERHEAD_SHRIKE_4.jpg,2.0,,,,A1FJGB5JLZ81XB
151,41,,1.0,21.0,RED_HEADED_WOODPECKER_5.jpg,COLLARED_ARACARI_1.jpg,3.0,,,,A1FJGB5JLZ81XB
152,42,left,1.0,22.0,left.jpg,,,left,1.0505,,A1FJGB5JLZ81XB
153,43,,1.0,23.0,ALPINE_CHOUGH_4.jpg,BOBOLINK_3.jpg,3.0,,,,A1FJGB5JLZ81XB
154,44,,1.0,24.0,AMERICAN_PIPIT_5.jpg,EMU_2.jpg,1.0,,,,A1FJGB5JLZ81XB
155,45,,1.0,25.0,RUFOUS_KINGFISHER_1.jpg,SNOWY_OWL_5.jpg,1.0,,,,A1FJGB5JLZ81XB
156,46,,1.0,26.0,GRAY_KINGBIRD_5.jpg,COCK_OF_THE__ROCK_4.jpg,2.0,,,,A1FJGB5JLZ81XB
157,47,,1.0,27.0,DOUBLE_BRESTED_CORMARANT_5.jpg,CHINESE_POND_HERON_2.jpg,3.0,,,,A1FJGB5JLZ81XB
158,48,,1.0,28.0,RUBY_THROATED_HUMMINGBIRD_3.jpg,MYNA_5.jpg,2.0,,,,A1FJGB5JLZ81XB
159,49,,1.0,29.0,LESSER_ADJUTANT_5.jpg,RED_HEADED_WOODPECKER_1.jpg,3.0,,,,A1FJGB5JLZ81XB
160,50,,1.0,30.0,NORTHERN_JACANA_3.jpg,SCARLET_IBIS_4.jpg,3.0,,,,A1FJGB5JLZ81XB
161,51,left,1.0,31.0,left.jpg,,,left,1.7946,,A1FJGB5JLZ81XB
162,52,,1.0,32.0,PARUS_MAJOR_1.jpg,CALIFORNIA_GULL_2.jpg,2.0,,,,A1FJGB5JLZ81XB
163,53,,1.0,33.0,OVENBIRD_5.jpg,SHORT_BILLED_DOWITCHER_5.jpg,3.0,,,,A1FJGB5JLZ81XB
164,54,,1.0,34.0,RUBY_THROATED_HUMMINGBIRD_1.jpg,BANANAQUIT_2.jpg,1.0,,,,A1FJGB5JLZ81XB
165,55,,1.0,35.0,LARK_BUNTING_2.jpg,KING_VULTURE_3.jpg,2.0,,,,A1FJGB5JLZ81XB
166,56,,1.0,36.0,LESSER_ADJUTANT_4.jpg,ALTAMIRA_YELLOWTHROAT_5.jpg,1.0,,,,A1FJGB5JLZ81XB
167,57,,1.0,37.0,GOLDEN_CHLOROPHONIA_5.jpg,VERMILION_FLYCATHER_5.jpg,3.0,,,,A1FJGB5JLZ81XB
168,58,left,1.0,38.0,left.jpg,,,left,1.7963,,A1FJGB5JLZ81XB
169,59,,1.0,39.0,SHOEBILL_3.jpg,GILDED_FLICKER_5.jpg,2.0,,,,A1FJGB5JLZ81XB
170,60,,1.0,40.0,INCA_TERN_4.jpg,BORNEAN_BRISTLEHEAD_5.jpg,3.0,,,,A1FJGB5JLZ81XB
171,61,,1.0,41.0,CASSOWARY_1.jpg,ROSY_FACED_LOVEBIRD_4.jpg,1.0,,,,A1FJGB5JLZ81XB
172,62,,1.0,42.0,GREY_PLOVER_1.jpg,HYACINTH_MACAW_3.jpg,1.0,,,,A1FJGB5JLZ81XB
173,63,,1.0,43.0,PEACOCK_3.jpg,STRAWBERRY_FINCH_4.jpg,2.0,,,,A1FJGB5JLZ81XB
174,64,,1.0,44.0,ASIAN_CRESTED_IBIS_4.jpg,IVORY_GULL_2.jpg,3.0,,,,A1FJGB5JLZ81XB
175,65,,1.0,45.0,EUROPEAN_TURTLE_DOVE_3.jpg,TEAL_DUCK_2.jpg,1.0,,,,A1FJGB5JLZ81XB
176,66,,1.0,46.0,INDIGO_BUNTING_1.jpg,NORTHERN_GANNET_1.jpg,2.0,,,,A1FJGB5JLZ81XB
177,67,right,1.0,47.0,right.jpg,,,right,1.8686,,A1FJGB5JLZ81XB
178,68,,1.0,48.0,FLAME_BOWERBIRD_3.jpg,INDIAN_BUSTARD_2.jpg,1.0,,,,A1FJGB5JLZ81XB
179,69,,1.0,49.0,CHUKAR_PARTRIDGE_5.jpg,BLACK_THROATED_BUSHTIT_1.jpg,3.0,,,,A1FJGB5JLZ81XB
180,70,,1.0,50.0,CRESTED_NUTHATCH_2.jpg,CANARY_1.jpg,3.0,,,,A1FJGB5JLZ81XB
181,71,,1.0,51.0,BROWN_THRASHER_3.jpg,DOUBLE_EYED_FIG_PARROT_3.jpg,1.0,,,,A1FJGB5JLZ81XB
182,72,,1.0,52.0,BROWN_NOODY_3.jpg,SPANGLED_COTINGA_4.jpg,2.0,,,,A1FJGB5JLZ81XB
183,73,,1.0,53.0,KAGU_5.jpg,ASHY_STORM_PETREL_1.jpg,2.0,,,,A1FJGB5JLZ81XB
184,74,,1.0,54.0,SPLENDID_WREN_1.jpg,POMARINE_JAEGER_5.jpg,1.0,,,,A1FJGB5JLZ81XB
185,75,,1.0,55.0,WHITE_CHEEKED_TURACO_5.jpg,GREAT_POTOO_3.jpg,2.0,,,,A1FJGB5JLZ81XB
186,76,,1.0,56.0,OCELLATED_TURKEY_1.jpg,PURPLE_SWAMPHEN_4.jpg,3.0,,,,A1FJGB5JLZ81XB
187,77,,1.0,57.0,VERMILION_FLYCATHER_3.jpg,RED_BEARDED_BEE_EATER_1.jpg,3.0,,,,A1FJGB5JLZ81XB
188,78,,1.0,58.0,HAWAIIAN_GOOSE_4.jpg,WATTLED_LAPWING_3.jpg,3.0,,,,A1FJGB5JLZ81XB
189,79,,1.0,59.0,TASMANIAN_HEN_5.jpg,AFRICAN_EMERALD_CUCKOO_5.jpg,2.0,,,,A1FJGB5JLZ81XB
190,80,,1.0,60.0,CASPIAN_TERN_1.jpg,COMMON_LOON_2.jpg,3.0,,,,A1FJGB5JLZ81XB
191,81,,1.0,61.0,MALACHITE_KINGFISHER_2.jpg,INCA_TERN_2.jpg,2.0,,,,A1FJGB5JLZ81XB
192,82,,1.0,62.0,EASTERN_TOWEE_2.jpg,SANDHILL_CRANE_2.jpg,1.0,,,,A1FJGB5JLZ81XB
193,83,,1.0,63.0,ARARIPE_MANAKIN_4.jpg,KIWI_3.jpg,1.0,,,,A1FJGB5JLZ81XB
194,84,,1.0,64.0,PYGMY_KINGFISHER_5.jpg,GRANDALA_2.jpg,1.0,,,,A1FJGB5JLZ81XB
195,20,,1.0,0.0,MALACHITE_KINGFISHER_2.jpg,INCA_TERN_2.jpg,2.0,,,,A1OM5NWYYYJKQW
196,21,,1.0,1.0,CRESTED_NUTHATCH_2.jpg,SCARLET_IBIS_3.jpg,1.0,,,,A1OM5NWYYYJKQW
197,22,,1.0,2.0,VERMILION_FLYCATHER_3.jpg,INDIAN_BUSTARD_1.jpg,1.0,,,,A1OM5NWYYYJKQW
198,23,,1.0,3.0,ASIAN_CRESTED_IBIS_4.jpg,CANARY_2.jpg,1.0,,,,A1OM5NWYYYJKQW
199,24,,1.0,4.0,RUBY_THROATED_HUMMINGBIRD_2.jpg,DUSKY_ROBIN_5.jpg,3.0,,,,A1OM5NWYYYJKQW
200,25,,1.0,5.0,SCARLET_TANAGER_2.jpg,BEARDED_BARBET_2.jpg,1.0,,,,A1OM5NWYYYJKQW
201,26,right,1.0,6.0,right.jpg,,,right,0.7013,,A1OM5NWYYYJKQW
202,27,,1.0,7.0,DOUBLE_BRESTED_CORMARANT_5.jpg,EURASIAN_MAGPIE_4.jpg,2.0,,,,A1OM5NWYYYJKQW
203,28,,1.0,8.0,KILLDEAR_2.jpg,PEACOCK_5.jpg,1.0,,,,A1OM5NWYYYJKQW
204,29,,1.0,9.0,GYRFALCON_1.jpg,CINNAMON_ATTILA_2.jpg,2.0,,,,A1OM5NWYYYJKQW
205,30,,1.0,10.0,BROWN_THRASHER_3.jpg,BLACK_BAZA_4.jpg,3.0,,,,A1OM5NWYYYJKQW
206,31,,1.0,11.0,CASSOWARY_1.jpg,SCARLET_MACAW_1.jpg,2.0,,,,A1OM5NWYYYJKQW
207,32,,1.0,12.0,EASTERN_TOWEE_2.jpg,GOLDEN_CHLOROPHONIA_1.jpg,2.0,,,,A1OM5NWYYYJKQW
208,33,,1.0,13.0,PARUS_MAJOR_1.jpg,SANDHILL_CRANE_4.jpg,1.0,,,,A1OM5NWYYYJKQW
209,34,,1.0,14.0,GOLDEN_CHEEKED_WARBLER_2.jpg,HOUSE_FINCH_2.jpg,2.0,,,,A1OM5NWYYYJKQW
210,35,,1.0,15.0,LARK_BUNTING_2.jpg,KING_VULTURE_3.jpg,2.0,,,,A1OM5NWYYYJKQW
211,36,,1.0,16.0,NORTHERN_JACANA_3.jpg,AMERICAN_GOLDFINCH_4.jpg,1.0,,,,A1OM5NWYYYJKQW
212,37,,1.0,17.0,OVENBIRD_5.jpg,MYNA_4.jpg,1.0,,,,A1OM5NWYYYJKQW
213,38,,1.0,18.0,BROWN_NOODY_3.jpg,SPANGLED_COTINGA_4.jpg,2.0,,,,A1OM5NWYYYJKQW
214,39,,1.0,19.0,MAGPIE_GOOSE_5.jpg,HAMERKOP_1.jpg,2.0,,,,A1OM5NWYYYJKQW
215,40,,1.0,20.0,INLAND_DOTTEREL_4.jpg,NICOBAR_PIGEON_4.jpg,2.0,,,,A1OM5NWYYYJKQW
216,41,,1.0,21.0,ASIAN_DOLLARD_BIRD_2.jpg,VIOLET_GREEN_SWALLOW_4.jpg,3.0,,,,A1OM5NWYYYJKQW
217,42,,1.0,22.0,INCA_TERN_4.jpg,BORNEAN_BRISTLEHEAD_5.jpg,3.0,,,,A1OM5NWYYYJKQW
218,43,right,1.0,23.0,right.jpg,,,right,0.6834,,A1OM5NWYYYJKQW
219,44,,1.0,24.0,AFRICAN_PIED_HORNBILL_5.jpg,ALEXANDRINE_PARAKEET_1.jpg,2.0,,,,A1OM5NWYYYJKQW
220,45,,1.0,25.0,ALPINE_CHOUGH_4.jpg,BOBOLINK_3.jpg,3.0,,,,A1OM5NWYYYJKQW
221,46,,1.0,26.0,KAGU_5.jpg,DEMOISELLE_CRANE_1.jpg,3.0,,,,A1OM5NWYYYJKQW
222,47,,1.0,27.0,SHOEBILL_3.jpg,BALD_EAGLE_5.jpg,3.0,,,,A1OM5NWYYYJKQW
223,48,,1.0,28.0,SPLENDID_WREN_1.jpg,POMARINE_JAEGER_5.jpg,1.0,,,,A1OM5NWYYYJKQW
224,49,,1.0,29.0,ECUADORIAN_HILLSTAR_5.jpg,BOBOLINK_5.jpg,2.0,,,,A1OM5NWYYYJKQW
225,50,,1.0,30.0,BREWERS_BLACKBIRD_3.jpg,GOLDEN_CHEEKED_WARBLER_3.jpg,2.0,,,,A1OM5NWYYYJKQW
226,51,,1.0,31.0,TASMANIAN_HEN_5.jpg,AFRICAN_EMERALD_CUCKOO_5.jpg,2.0,,,,A1OM5NWYYYJKQW
227,52,,1.0,32.0,IVORY_GULL_1.jpg,FAIRY_TERN_4.jpg,3.0,,,,A1OM5NWYYYJKQW
228,53,right,1.0,33.0,right.jpg,,,right,0.5834,,A1OM5NWYYYJKQW
229,54,,1.0,34.0,RUBY_THROATED_HUMMINGBIRD_1.jpg,FRIGATE_1.jpg,3.0,,,,A1OM5NWYYYJKQW
230,55,,1.0,35.0,BALI_STARLING_1.jpg,CAPE_LONGCLAW_5.jpg,1.0,,,,A1OM5NWYYYJKQW
231,56,left,1.0,36.0,left.jpg,,,left,0.5321,,A1OM5NWYYYJKQW
232,57,,1.0,37.0,LESSER_ADJUTANT_4.jpg,RAINBOW_LORIKEET_5.jpg,2.0,,,,A1OM5NWYYYJKQW
233,58,,1.0,38.0,AMERICAN_PIPIT_5.jpg,GREEN_MAGPIE_1.jpg,2.0,,,,A1OM5NWYYYJKQW
234,59,,1.0,39.0,CERULEAN_WARBLER_1.jpg,BANANAQUIT_1.jpg,3.0,,,,A1OM5NWYYYJKQW
235,60,,1.0,40.0,INDIGO_BUNTING_1.jpg,DARWINS_FLYCATCHER_2.jpg,3.0,,,,A1OM5NWYYYJKQW
236,61,,1.0,41.0,RED_HEADED_WOODPECKER_5.jpg,CRIMSON_CHAT_3.jpg,2.0,,,,A1OM5NWYYYJKQW
237,62,,1.0,42.0,GOLDEN_CHLOROPHONIA_5.jpg,ROADRUNNER_2.jpg,1.0,,,,A1OM5NWYYYJKQW
238,63,,1.0,43.0,MYNA_1.jpg,PARADISE_TANAGER_3.jpg,3.0,,,,A1OM5NWYYYJKQW
239,64,,1.0,44.0,PYGMY_KINGFISHER_5.jpg,DOUBLE_EYED_FIG_PARROT_4.jpg,3.0,,,,A1OM5NWYYYJKQW
240,65,,1.0,45.0,HAWAIIAN_GOOSE_4.jpg,CUBAN_TODY_3.jpg,1.0,,,,A1OM5NWYYYJKQW
241,66,,1.0,46.0,EUROPEAN_TURTLE_DOVE_3.jpg,TEAL_DUCK_2.jpg,1.0,,,,A1OM5NWYYYJKQW
242,67,left,1.0,47.0,left.jpg,,,left,0.5496,,A1OM5NWYYYJKQW
243,68,,1.0,48.0,WHITE_CHEEKED_TURACO_5.jpg,PYGMY_KINGFISHER_2.jpg,3.0,,,,A1OM5NWYYYJKQW
244,69,,1.0,49.0,LESSER_ADJUTANT_5.jpg,GREEN_BROADBILL_4.jpg,1.0,,,,A1OM5NWYYYJKQW
245,70,,1.0,50.0,RUBY_THROATED_HUMMINGBIRD_3.jpg,NORTHERN_SHOVELER_1.jpg,3.0,,,,A1OM5NWYYYJKQW
246,71,,1.0,51.0,LITTLE_AUK_5.jpg,BEARDED_BELLBIRD_1.jpg,3.0,,,,A1OM5NWYYYJKQW
247,72,,1.0,52.0,CRESTED_CARACARA_4.jpg,INDIAN_PITTA_2.jpg,2.0,,,,A1OM5NWYYYJKQW
248,73,,1.0,53.0,PEACOCK_3.jpg,ANIANIAU_2.jpg,1.0,,,,A1OM5NWYYYJKQW
249,74,,1.0,54.0,CHUKAR_PARTRIDGE_5.jpg,OSTRICH_5.jpg,1.0,,,,A1OM5NWYYYJKQW
250,75,,1.0,55.0,RUFOUS_KINGFISHER_1.jpg,SNOWY_OWL_5.jpg,1.0,,,,A1OM5NWYYYJKQW
251,76,,1.0,56.0,GREY_PLOVER_1.jpg,GOULDIAN_FINCH_4.jpg,2.0,,,,A1OM5NWYYYJKQW
252,77,,1.0,57.0,ARARIPE_MANAKIN_4.jpg,KIWI_3.jpg,1.0,,,,A1OM5NWYYYJKQW
253,78,,1.0,58.0,OCELLATED_TURKEY_1.jpg,CHIPPING_SPARROW_1.jpg,1.0,,,,A1OM5NWYYYJKQW
254,79,,1.0,59.0,FLAME_BOWERBIRD_3.jpg,QUETZAL_3.jpg,3.0,,,,A1OM5NWYYYJKQW
255,80,,1.0,60.0,PINK_ROBIN_4.jpg,ALBATROSS_4.jpg,2.0,,,,A1OM5NWYYYJKQW
256,81,,1.0,61.0,GRAY_KINGBIRD_5.jpg,AFRICAN_FIREFINCH_3.jpg,3.0,,,,A1OM5NWYYYJKQW
257,82,,1.0,62.0,STRIPPED_SWALLOW_1.jpg,DOUBLE_BRESTED_CORMARANT_4.jpg,1.0,,,,A1OM5NWYYYJKQW
258,83,,1.0,63.0,IVORY_GULL_3.jpg,SNOWY_EGRET_4.jpg,3.0,,,,A1OM5NWYYYJKQW
259,84,,1.0,64.0,CASPIAN_TERN_1.jpg,COMMON_LOON_2.jpg,3.0,,,,A1OM5NWYYYJKQW
260,20,,1.0,0.0,STRIPPED_SWALLOW_1.jpg,GO_AWAY_BIRD_5.jpg,3.0,,,,A1PHDT66U6IK4Q
261,21,,1.0,1.0,LESSER_ADJUTANT_4.jpg,ALTAMIRA_YELLOWTHROAT_5.jpg,1.0,,,,A1PHDT66U6IK4Q
262,22,,1.0,2.0,MYNA_1.jpg,GREY_PLOVER_4.jpg,2.0,,,,A1PHDT66U6IK4Q
263,23,,1.0,3.0,EUROPEAN_TURTLE_DOVE_3.jpg,MALABAR_HORNBILL_2.jpg,3.0,,,,A1PHDT66U6IK4Q
264,24,,1.0,4.0,DOUBLE_BRESTED_CORMARANT_5.jpg,GILDED_FLICKER_2.jpg,1.0,,,,A1PHDT66U6IK4Q
265,25,,1.0,5.0,PYGMY_KINGFISHER_5.jpg,GRANDALA_2.jpg,1.0,,,,A1PHDT66U6IK4Q
266,26,,1.0,6.0,GREY_PLOVER_1.jpg,HYACINTH_MACAW_3.jpg,1.0,,,,A1PHDT66U6IK4Q
267,27,,1.0,7.0,NORTHERN_JACANA_3.jpg,SCARLET_IBIS_4.jpg,3.0,,,,A1PHDT66U6IK4Q
268,28,,1.0,8.0,ASIAN_DOLLARD_BIRD_2.jpg,VIOLET_GREEN_SWALLOW_4.jpg,3.0,,,,A1PHDT66U6IK4Q
269,29,,1.0,9.0,LITTLE_AUK_5.jpg,ORANGE_BRESTED_BUNTING_3.jpg,2.0,,,,A1PHDT66U6IK4Q
270,30,,1.0,10.0,HAWAIIAN_GOOSE_4.jpg,CUBAN_TODY_3.jpg,1.0,,,,A1PHDT66U6IK4Q
271,31,right,1.0,11.0,right.jpg,,,right,0.6869,,A1PHDT66U6IK4Q
272,32,,1.0,12.0,PARUS_MAJOR_1.jpg,CALIFORNIA_GULL_2.jpg,2.0,,,,A1PHDT66U6IK4Q
273,33,,1.0,13.0,EASTERN_TOWEE_2.jpg,NORTHERN_BEARDLESS_TYRANNULET_5.jpg,3.0,,,,A1PHDT66U6IK4Q
274,34,,1.0,14.0,GYRFALCON_1.jpg,FAIRY_TERN_1.jpg,3.0,,,,A1PHDT66U6IK4Q
275,35,,1.0,15.0,RUBY_THROATED_HUMMINGBIRD_1.jpg,FRIGATE_1.jpg,3.0,,,,A1PHDT66U6IK4Q
276,36,,1.0,16.0,KAGU_5.jpg,DEMOISELLE_CRANE_1.jpg,3.0,,,,A1PHDT66U6IK4Q
277,37,,1.0,17.0,RUBY_THROATED_HUMMINGBIRD_2.jpg,APAPANE_4.jpg,2.0,,,,A1PHDT66U6IK4Q
278,38,,1.0,18.0,IVORY_GULL_3.jpg,SNOWY_EGRET_4.jpg,3.0,,,,A1PHDT66U6IK4Q
279,39,,1.0,19.0,OCELLATED_TURKEY_1.jpg,AMERICAN_PIPIT_1.jpg,2.0,,,,A1PHDT66U6IK4Q
280,40,,1.0,20.0,ARARIPE_MANAKIN_4.jpg,BLACK_VULTURE_1.jpg,2.0,,,,A1PHDT66U6IK4Q
281,41,,1.0,21.0,FLAME_BOWERBIRD_3.jpg,INDIAN_BUSTARD_2.jpg,1.0,,,,A1PHDT66U6IK4Q
282,42,,1.0,22.0,VERMILION_FLYCATHER_3.jpg,CALIFORNIA_GULL_1.jpg,2.0,,,,A1PHDT66U6IK4Q
283,43,right,1.0,23.0,right.jpg,,,right,0.6376,,A1PHDT66U6IK4Q
284,44,,1.0,24.0,CRESTED_CARACARA_4.jpg,TOUCHAN_4.jpg,3.0,,,,A1PHDT66U6IK4Q
285,45,,1.0,25.0,CHUKAR_PARTRIDGE_5.jpg,OSTRICH_5.jpg,1.0,,,,A1PHDT66U6IK4Q
286,46,,1.0,26.0,INLAND_DOTTEREL_4.jpg,CASSOWARY_2.jpg,1.0,,,,A1PHDT66U6IK4Q
287,47,,1.0,27.0,RUFOUS_KINGFISHER_1.jpg,SNOWY_OWL_5.jpg,1.0,,,,A1PHDT66U6IK4Q
288,48,,1.0,28.0,CASPIAN_TERN_1.jpg,EUROPEAN_GOLDFINCH_4.jpg,2.0,,,,A1PHDT66U6IK4Q
289,49,,1.0,29.0,LARK_BUNTING_2.jpg,KING_VULTURE_3.jpg,2.0,,,,A1PHDT66U6IK4Q
290,50,left,1.0,30.0,left.jpg,,,left,0.6497,,A1PHDT66U6IK4Q
291,51,,1.0,31.0,IVORY_GULL_1.jpg,WILSONS_BIRD_OF_PARADISE_4.jpg,1.0,,,,A1PHDT66U6IK4Q
292,52,,1.0,32.0,BALI_STARLING_1.jpg,CAPE_LONGCLAW_5.jpg,1.0,,,,A1PHDT66U6IK4Q
293,53,,1.0,33.0,BROWN_NOODY_3.jpg,SPANGLED_COTINGA_4.jpg,2.0,,,,A1PHDT66U6IK4Q
294,54,,1.0,34.0,GOLDEN_CHEEKED_WARBLER_2.jpg,WHITE_THROATED_BEE_EATER_1.jpg,3.0,,,,A1PHDT66U6IK4Q
295,55,,1.0,35.0,PEACOCK_3.jpg,CHATTERING_LORY_2.jpg,3.0,,,,A1PHDT66U6IK4Q
296,56,,1.0,36.0,KILLDEAR_2.jpg,AZURE_TIT_5.jpg,3.0,,,,A1PHDT66U6IK4Q
297,57,,1.0,37.0,GRAY_KINGBIRD_5.jpg,BALD_EAGLE_2.jpg,1.0,,,,A1PHDT66U6IK4Q
298,58,,1.0,38.0,CASSOWARY_1.jpg,AFRICAN_OYSTER_CATCHER_2.jpg,3.0,,,,A1PHDT66U6IK4Q
299,59,,1.0,39.0,SHOEBILL_3.jpg,BALD_EAGLE_5.jpg,3.0,,,,A1PHDT66U6IK4Q
300,60,,1.0,40.0,MALACHITE_KINGFISHER_2.jpg,INCA_TERN_2.jpg,2.0,,,,A1PHDT66U6IK4Q
301,61,,1.0,41.0,SCARLET_TANAGER_2.jpg,BEARDED_BARBET_2.jpg,1.0,,,,A1PHDT66U6IK4Q
302,62,,1.0,42.0,MAGPIE_GOOSE_5.jpg,OYSTER_CATCHER_3.jpg,3.0,,,,A1PHDT66U6IK4Q
303,63,,1.0,43.0,WHITE_CHEEKED_TURACO_5.jpg,NORTHERN_MOCKINGBIRD_4.jpg,1.0,,,,A1PHDT66U6IK4Q
304,64,left,1.0,44.0,left.jpg,,,left,0.602,,A1PHDT66U6IK4Q
305,65,,1.0,45.0,ASIAN_CRESTED_IBIS_4.jpg,CANARY_2.jpg,1.0,,,,A1PHDT66U6IK4Q
306,66,,1.0,46.0,INDIGO_BUNTING_1.jpg,DARWINS_FLYCATCHER_2.jpg,3.0,,,,A1PHDT66U6IK4Q
307,67,,1.0,47.0,SPLENDID_WREN_1.jpg,DOUBLE_BRESTED_CORMARANT_1.jpg,2.0,,,,A1PHDT66U6IK4Q
308,68,,1.0,48.0,GOLDEN_CHLOROPHONIA_5.jpg,VERMILION_FLYCATHER_5.jpg,3.0,,,,A1PHDT66U6IK4Q
309,69,,1.0,49.0,RED_HEADED_WOODPECKER_5.jpg,ASHY_STORM_PETREL_2.jpg,1.0,,,,A1PHDT66U6IK4Q
310,70,,1.0,50.0,AFRICAN_PIED_HORNBILL_5.jpg,ALEXANDRINE_PARAKEET_1.jpg,2.0,,,,A1PHDT66U6IK4Q
311,71,,1.0,51.0,BREWERS_BLACKBIRD_3.jpg,GUINEA_TURACO_3.jpg,1.0,,,,A1PHDT66U6IK4Q
312,72,left,1.0,52.0,left.jpg,,,left,0.6834,,A1PHDT66U6IK4Q
313,73,,1.0,53.0,PINK_ROBIN_4.jpg,SPOONBILL_3.jpg,1.0,,,,A1PHDT66U6IK4Q
314,74,,1.0,54.0,TASMANIAN_HEN_5.jpg,AFRICAN_EMERALD_CUCKOO_5.jpg,2.0,,,,A1PHDT66U6IK4Q
315,75,,1.0,55.0,BROWN_THRASHER_3.jpg,OYSTER_CATCHER_4.jpg,2.0,,,,A1PHDT66U6IK4Q
316,76,,1.0,56.0,ALPINE_CHOUGH_4.jpg,EUROPEAN_GOLDFINCH_3.jpg,2.0,,,,A1PHDT66U6IK4Q
317,77,,1.0,57.0,CRESTED_NUTHATCH_2.jpg,AFRICAN_FIREFINCH_1.jpg,2.0,,,,A1PHDT66U6IK4Q
318,78,,1.0,58.0,OVENBIRD_5.jpg,MYNA_4.jpg,1.0,,,,A1PHDT66U6IK4Q
319,79,,1.0,59.0,RUBY_THROATED_HUMMINGBIRD_3.jpg,NORTHERN_SHOVELER_1.jpg,3.0,,,,A1PHDT66U6IK4Q
320,80,,1.0,60.0,ECUADORIAN_HILLSTAR_5.jpg,BOBOLINK_5.jpg,2.0,,,,A1PHDT66U6IK4Q
321,81,,1.0,61.0,LESSER_ADJUTANT_5.jpg,RED_HEADED_WOODPECKER_1.jpg,3.0,,,,A1PHDT66U6IK4Q
322,82,,1.0,62.0,AMERICAN_PIPIT_5.jpg,EMU_2.jpg,1.0,,,,A1PHDT66U6IK4Q
323,83,,1.0,63.0,INCA_TERN_4.jpg,SMITHS_LONGSPUR_5.jpg,2.0,,,,A1PHDT66U6IK4Q
324,84,,1.0,64.0,CERULEAN_WARBLER_1.jpg,AMERICAN_FLAMINGO_5.jpg,2.0,,,,A1PHDT66U6IK4Q
325,20,,1.0,0.0,BROWN_THRASHER_3.jpg,DOUBLE_EYED_FIG_PARROT_3.jpg,1.0,,,,A1QT3YA7G8MO63
326,21,,1.0,1.0,LESSER_ADJUTANT_4.jpg,FAIRY_TERN_3.jpg,3.0,,,,A1QT3YA7G8MO63
327,22,,1.0,2.0,KAGU_5.jpg,ASHY_STORM_PETREL_1.jpg,2.0,,,,A1QT3YA7G8MO63
328,23,,1.0,3.0,MALACHITE_KINGFISHER_2.jpg,AMERICAN_FLAMINGO_1.jpg,1.0,,,,A1QT3YA7G8MO63
329,24,,1.0,4.0,RUBY_THROATED_HUMMINGBIRD_3.jpg,MALAGASY_WHITE_EYE_2.jpg,1.0,,,,A1QT3YA7G8MO63
330,25,,1.0,5.0,TASMANIAN_HEN_5.jpg,GREEN_BROADBILL_1.jpg,1.0,,,,A1QT3YA7G8MO63
331,26,,1.0,6.0,INDIGO_BUNTING_1.jpg,NORTHERN_GANNET_1.jpg,2.0,,,,A1QT3YA7G8MO63
332,27,,1.0,7.0,ALPINE_CHOUGH_4.jpg,SNOWY_EGRET_2.jpg,1.0,,,,A1QT3YA7G8MO63
333,28,,1.0,8.0,MYNA_1.jpg,PARADISE_TANAGER_3.jpg,3.0,,,,A1QT3YA7G8MO63
334,29,,1.0,9.0,BREWERS_BLACKBIRD_3.jpg,GOLDEN_CHEEKED_WARBLER_3.jpg,2.0,,,,A1QT3YA7G8MO63
335,30,,1.0,10.0,AMERICAN_PIPIT_5.jpg,HEPATIC_TANAGER_5.jpg,3.0,,,,A1QT3YA7G8MO63
336,31,,1.0,11.0,EUROPEAN_TURTLE_DOVE_3.jpg,PAINTED_BUNTING_3.jpg,2.0,,,,A1QT3YA7G8MO63
337,32,,1.0,12.0,AFRICAN_PIED_HORNBILL_5.jpg,KIWI_4.jpg,1.0,,,,A1QT3YA7G8MO63
338,33,left,1.0,13.0,left.jpg,,,left,1.4033,,A1QT3YA7G8MO63
339,34,,1.0,14.0,ECUADORIAN_HILLSTAR_5.jpg,BOBOLINK_5.jpg,2.0,,,,A1QT3YA7G8MO63
340,35,,1.0,15.0,BROWN_NOODY_3.jpg,GUINEA_TURACO_5.jpg,3.0,,,,A1QT3YA7G8MO63
341,36,,1.0,16.0,NORTHERN_JACANA_3.jpg,CRAB_PLOVER_3.jpg,2.0,,,,A1QT3YA7G8MO63
342,37,,1.0,17.0,GOLDEN_CHLOROPHONIA_5.jpg,COMMON_HOUSE_MARTIN_4.jpg,2.0,,,,A1QT3YA7G8MO63
343,38,,1.0,18.0,SCARLET_TANAGER_2.jpg,BEARDED_BARBET_2.jpg,1.0,,,,A1QT3YA7G8MO63
344,39,,1.0,19.0,BALI_STARLING_1.jpg,PURPLE_FINCH_2.jpg,2.0,,,,A1QT3YA7G8MO63
345,40,right,1.0,20.0,right.jpg,,,right,0.7588,,A1QT3YA7G8MO63
346,41,,1.0,21.0,KILLDEAR_2.jpg,PEACOCK_5.jpg,1.0,,,,A1QT3YA7G8MO63
347,42,,1.0,22.0,PYGMY_KINGFISHER_5.jpg,GRANDALA_2.jpg,1.0,,,,A1QT3YA7G8MO63
348,43,,1.0,23.0,RED_HEADED_WOODPECKER_5.jpg,CRIMSON_CHAT_3.jpg,2.0,,,,A1QT3YA7G8MO63
349,44,,1.0,24.0,SPLENDID_WREN_1.jpg,POMARINE_JAEGER_5.jpg,1.0,,,,A1QT3YA7G8MO63
350,45,,1.0,25.0,RUFOUS_KINGFISHER_1.jpg,HORNED_SUNGEM_4.jpg,3.0,,,,A1QT3YA7G8MO63
351,46,,1.0,26.0,IVORY_GULL_3.jpg,INDIGO_FLYCATCHER_2.jpg,1.0,,,,A1QT3YA7G8MO63
352,47,,1.0,27.0,STRIPPED_SWALLOW_1.jpg,MAGPIE_GOOSE_4.jpg,2.0,,,,A1QT3YA7G8MO63
353,48,right,1.0,28.0,right.jpg,,,right,0.7363,,A1QT3YA7G8MO63
354,49,,1.0,29.0,EASTERN_TOWEE_2.jpg,NORTHERN_BEARDLESS_TYRANNULET_5.jpg,3.0,,,,A1QT3YA7G8MO63
355,50,,1.0,30.0,SHOEBILL_3.jpg,GILDED_FLICKER_5.jpg,2.0,,,,A1QT3YA7G8MO63
356,51,,1.0,31.0,GYRFALCON_1.jpg,FAIRY_TERN_1.jpg,3.0,,,,A1QT3YA7G8MO63
357,52,,1.0,32.0,LESSER_ADJUTANT_5.jpg,GAMBELS_QUAIL_1.jpg,2.0,,,,A1QT3YA7G8MO63
358,53,,1.0,33.0,VERMILION_FLYCATHER_3.jpg,INDIAN_BUSTARD_1.jpg,1.0,,,,A1QT3YA7G8MO63
359,54,,1.0,34.0,CRESTED_NUTHATCH_2.jpg,SCARLET_IBIS_3.jpg,1.0,,,,A1QT3YA7G8MO63
360,55,,1.0,35.0,ASIAN_DOLLARD_BIRD_2.jpg,VIOLET_GREEN_SWALLOW_4.jpg,3.0,,,,A1QT3YA7G8MO63
361,56,,1.0,36.0,LITTLE_AUK_5.jpg,BEARDED_BELLBIRD_1.jpg,3.0,,,,A1QT3YA7G8MO63
362,57,,1.0,37.0,CHUKAR_PARTRIDGE_5.jpg,OSTRICH_5.jpg,1.0,,,,A1QT3YA7G8MO63
363,58,,1.0,38.0,PARUS_MAJOR_1.jpg,PINK_ROBIN_3.jpg,3.0,,,,A1QT3YA7G8MO63
364,59,,1.0,39.0,OCELLATED_TURKEY_1.jpg,PURPLE_SWAMPHEN_4.jpg,3.0,,,,A1QT3YA7G8MO63
365,60,,0.0,40.0,right.jpg,,,right,,,A1QT3YA7G8MO63
366,61,,1.0,41.0,CRESTED_CARACARA_4.jpg,TOUCHAN_4.jpg,3.0,,,,A1QT3YA7G8MO63
367,62,,1.0,42.0,CERULEAN_WARBLER_1.jpg,AMERICAN_FLAMINGO_5.jpg,2.0,,,,A1QT3YA7G8MO63
368,63,,1.0,43.0,WHITE_CHEEKED_TURACO_5.jpg,PYGMY_KINGFISHER_2.jpg,3.0,,,,A1QT3YA7G8MO63
369,64,,1.0,44.0,RUBY_THROATED_HUMMINGBIRD_1.jpg,FRIGATE_1.jpg,3.0,,,,A1QT3YA7G8MO63
370,65,,1.0,45.0,CASSOWARY_1.jpg,SCARLET_MACAW_1.jpg,2.0,,,,A1QT3YA7G8MO63
371,66,,1.0,46.0,ASIAN_CRESTED_IBIS_4.jpg,IVORY_GULL_2.jpg,3.0,,,,A1QT3YA7G8MO63
372,67,,1.0,47.0,GRAY_KINGBIRD_5.jpg,BALD_EAGLE_2.jpg,1.0,,,,A1QT3YA7G8MO63
373,68,,1.0,48.0,GOLDEN_CHEEKED_WARBLER_2.jpg,SPOONBILL_1.jpg,1.0,,,,A1QT3YA7G8MO63
374,69,left,1.0,49.0,left.jpg,,,left,0.6199,,A1QT3YA7G8MO63
375,70,,1.0,50.0,RUBY_THROATED_HUMMINGBIRD_2.jpg,DUSKY_ROBIN_5.jpg,3.0,,,,A1QT3YA7G8MO63
376,71,,1.0,51.0,CASPIAN_TERN_1.jpg,COMMON_LOON_2.jpg,3.0,,,,A1QT3YA7G8MO63
377,72,,1.0,52.0,INCA_TERN_4.jpg,ELLIOTS__PHEASANT_4.jpg,1.0,,,,A1QT3YA7G8MO63
378,73,,1.0,53.0,GREY_PLOVER_1.jpg,HYACINTH_MACAW_3.jpg,1.0,,,,A1QT3YA7G8MO63
379,74,,1.0,54.0,PEACOCK_3.jpg,STRAWBERRY_FINCH_4.jpg,2.0,,,,A1QT3YA7G8MO63
380,75,,1.0,55.0,DOUBLE_BRESTED_CORMARANT_5.jpg,CHINESE_POND_HERON_2.jpg,3.0,,,,A1QT3YA7G8MO63
381,76,,1.0,56.0,ARARIPE_MANAKIN_4.jpg,BLACK_VULTURE_1.jpg,2.0,,,,A1QT3YA7G8MO63
382,77,,1.0,57.0,LARK_BUNTING_2.jpg,CACTUS_WREN_3.jpg,3.0,,,,A1QT3YA7G8MO63
383,78,,1.0,58.0,MAGPIE_GOOSE_5.jpg,OYSTER_CATCHER_3.jpg,3.0,,,,A1QT3YA7G8MO63
384,79,,1.0,59.0,INLAND_DOTTEREL_4.jpg,NICOBAR_PIGEON_4.jpg,2.0,,,,A1QT3YA7G8MO63
385,80,,1.0,60.0,PINK_ROBIN_4.jpg,ALBATROSS_4.jpg,2.0,,,,A1QT3YA7G8MO63
386,81,,1.0,61.0,OVENBIRD_5.jpg,FAIRY_PENGUIN_1.jpg,2.0,,,,A1QT3YA7G8MO63
387,82,,1.0,62.0,FLAME_BOWERBIRD_3.jpg,BROWN_THRASHER_4.jpg,2.0,,,,A1QT3YA7G8MO63
388,83,,1.0,63.0,HAWAIIAN_GOOSE_4.jpg,CUBAN_TODY_3.jpg,1.0,,,,A1QT3YA7G8MO63
389,84,,1.0,64.0,IVORY_GULL_1.jpg,WILSONS_BIRD_OF_PARADISE_4.jpg,1.0,,,,A1QT3YA7G8MO63
390,20,,1.0,0.0,RUFOUS_KINGFISHER_1.jpg,MAGPIE_GOOSE_3.jpg,2.0,,,,A1SNC8UL8YFRH5
391,21,,1.0,1.0,WHITE_CHEEKED_TURACO_5.jpg,GREAT_POTOO_3.jpg,2.0,,,,A1SNC8UL8YFRH5
392,22,,1.0,2.0,PARUS_MAJOR_1.jpg,PINK_ROBIN_3.jpg,3.0,,,,A1SNC8UL8YFRH5
393,23,,1.0,3.0,PINK_ROBIN_4.jpg,SPOONBILL_3.jpg,1.0,,,,A1SNC8UL8YFRH5
394,24,,1.0,4.0,CERULEAN_WARBLER_1.jpg,AMERICAN_FLAMINGO_2.jpg,1.0,,,,A1SNC8UL8YFRH5
395,25,,1.0,5.0,OVENBIRD_5.jpg,MYNA_4.jpg,1.0,,,,A1SNC8UL8YFRH5
396,26,,1.0,6.0,IVORY_GULL_3.jpg,INDIGO_FLYCATCHER_2.jpg,1.0,,,,A1SNC8UL8YFRH5
397,27,,1.0,7.0,OCELLATED_TURKEY_1.jpg,AMERICAN_PIPIT_1.jpg,2.0,,,,A1SNC8UL8YFRH5
398,28,,1.0,8.0,NORTHERN_JACANA_3.jpg,SCARLET_IBIS_4.jpg,3.0,,,,A1SNC8UL8YFRH5
399,29,,1.0,9.0,VERMILION_FLYCATHER_3.jpg,CALIFORNIA_GULL_1.jpg,2.0,,,,A1SNC8UL8YFRH5
400,30,,1.0,10.0,INCA_TERN_4.jpg,BORNEAN_BRISTLEHEAD_5.jpg,3.0,,,,A1SNC8UL8YFRH5
401,31,,1.0,11.0,RUBY_THROATED_HUMMINGBIRD_1.jpg,VULTURINE_GUINEAFOWL_4.jpg,2.0,,,,A1SNC8UL8YFRH5
402,32,,1.0,12.0,LITTLE_AUK_5.jpg,ORANGE_BRESTED_BUNTING_3.jpg,2.0,,,,A1SNC8UL8YFRH5
403,33,right,1.0,13.0,right.jpg,,,right,0.6452,,A1SNC8UL8YFRH5
404,34,,1.0,14.0,RUBY_THROATED_HUMMINGBIRD_3.jpg,MALAGASY_WHITE_EYE_2.jpg,1.0,,,,A1SNC8UL8YFRH5
405,35,,1.0,15.0,EUROPEAN_TURTLE_DOVE_3.jpg,TEAL_DUCK_2.jpg,1.0,,,,A1SNC8UL8YFRH5
406,36,,1.0,16.0,EASTERN_TOWEE_2.jpg,NORTHERN_BEARDLESS_TYRANNULET_5.jpg,3.0,,,,A1SNC8UL8YFRH5
407,37,,1.0,17.0,INDIGO_BUNTING_1.jpg,NORTHERN_GANNET_1.jpg,2.0,,,,A1SNC8UL8YFRH5
408,38,,1.0,18.0,IVORY_GULL_1.jpg,WILSONS_BIRD_OF_PARADISE_4.jpg,1.0,,,,A1SNC8UL8YFRH5
409,39,,1.0,19.0,RUBY_THROATED_HUMMINGBIRD_2.jpg,APAPANE_4.jpg,2.0,,,,A1SNC8UL8YFRH5
410,40,,1.0,20.0,HAWAIIAN_GOOSE_4.jpg,HIMALAYAN_MONAL_2.jpg,2.0,,,,A1SNC8UL8YFRH5
411,41,,1.0,21.0,BREWERS_BLACKBIRD_3.jpg,GOLDEN_CHEEKED_WARBLER_3.jpg,2.0,,,,A1SNC8UL8YFRH5
412,42,left,1.0,22.0,left.jpg,,,left,0.6337,,A1SNC8UL8YFRH5
413,43,,1.0,23.0,SCARLET_TANAGER_2.jpg,NORTHERN_GANNET_2.jpg,2.0,,,,A1SNC8UL8YFRH5
414,44,,1.0,24.0,PYGMY_KINGFISHER_5.jpg,DOUBLE_EYED_FIG_PARROT_4.jpg,3.0,,,,A1SNC8UL8YFRH5
415,45,,1.0,25.0,ALPINE_CHOUGH_4.jpg,SNOWY_EGRET_2.jpg,1.0,,,,A1SNC8UL8YFRH5
416,46,,1.0,26.0,LESSER_ADJUTANT_4.jpg,FAIRY_TERN_3.jpg,3.0,,,,A1SNC8UL8YFRH5
417,47,,1.0,27.0,GREY_PLOVER_1.jpg,ECUADORIAN_HILLSTAR_3.jpg,3.0,,,,A1SNC8UL8YFRH5
418,48,,1.0,28.0,MYNA_1.jpg,OSTRICH_3.jpg,1.0,,,,A1SNC8UL8YFRH5
419,49,,1.0,29.0,GRAY_KINGBIRD_5.jpg,AFRICAN_FIREFINCH_3.jpg,3.0,,,,A1SNC8UL8YFRH5
420,50,,1.0,30.0,ASIAN_CRESTED_IBIS_4.jpg,IVORY_GULL_2.jpg,3.0,,,,A1SNC8UL8YFRH5
421,51,,1.0,31.0,CRESTED_NUTHATCH_2.jpg,SCARLET_IBIS_3.jpg,1.0,,,,A1SNC8UL8YFRH5
422,52,,1.0,32.0,CASSOWARY_1.jpg,ROSY_FACED_LOVEBIRD_4.jpg,1.0,,,,A1SNC8UL8YFRH5
423,53,,1.0,33.0,INLAND_DOTTEREL_4.jpg,CRESTED_KINGFISHER_1.jpg,3.0,,,,A1SNC8UL8YFRH5
424,54,left,1.0,34.0,left.jpg,,,left,0.5449,,A1SNC8UL8YFRH5
425,55,,1.0,35.0,AMERICAN_PIPIT_5.jpg,GREEN_MAGPIE_1.jpg,2.0,,,,A1SNC8UL8YFRH5
426,56,right,1.0,36.0,right.jpg,,,right,0.6,,A1SNC8UL8YFRH5
427,57,,1.0,37.0,AFRICAN_PIED_HORNBILL_5.jpg,KIWI_4.jpg,1.0,,,,A1SNC8UL8YFRH5
428,58,,1.0,38.0,BROWN_NOODY_3.jpg,GUINEA_TURACO_5.jpg,3.0,,,,A1SNC8UL8YFRH5
429,59,,1.0,39.0,DOUBLE_BRESTED_CORMARANT_5.jpg,EURASIAN_MAGPIE_4.jpg,2.0,,,,A1SNC8UL8YFRH5
430,60,,1.0,40.0,ECUADORIAN_HILLSTAR_5.jpg,SCARLET_IBIS_2.jpg,1.0,,,,A1SNC8UL8YFRH5
431,61,,1.0,41.0,SHOEBILL_3.jpg,EASTERN_MEADOWLARK_1.jpg,1.0,,,,A1SNC8UL8YFRH5
432,62,,1.0,42.0,CASPIAN_TERN_1.jpg,COMMON_LOON_2.jpg,3.0,,,,A1SNC8UL8YFRH5
433,63,,1.0,43.0,CRESTED_CARACARA_4.jpg,TOUCHAN_4.jpg,3.0,,,,A1SNC8UL8YFRH5
434,64,,1.0,44.0,STRIPPED_SWALLOW_1.jpg,GO_AWAY_BIRD_5.jpg,3.0,,,,A1SNC8UL8YFRH5
435,65,,1.0,45.0,ARARIPE_MANAKIN_4.jpg,BORNEAN_LEAFBIRD_3.jpg,3.0,,,,A1SNC8UL8YFRH5
436,66,,1.0,46.0,BROWN_THRASHER_3.jpg,DOUBLE_EYED_FIG_PARROT_3.jpg,1.0,,,,A1SNC8UL8YFRH5
437,67,,1.0,47.0,MAGPIE_GOOSE_5.jpg,OYSTER_CATCHER_3.jpg,3.0,,,,A1SNC8UL8YFRH5
438,68,,1.0,48.0,GOLDEN_CHLOROPHONIA_5.jpg,COMMON_HOUSE_MARTIN_4.jpg,2.0,,,,A1SNC8UL8YFRH5
439,69,,1.0,49.0,GYRFALCON_1.jpg,CINNAMON_ATTILA_2.jpg,2.0,,,,A1SNC8UL8YFRH5
440,70,,1.0,50.0,SPLENDID_WREN_1.jpg,CUBAN_TODY_4.jpg,3.0,,,,A1SNC8UL8YFRH5
441,71,,1.0,51.0,BALI_STARLING_1.jpg,IBERIAN_MAGPIE_1.jpg,3.0,,,,A1SNC8UL8YFRH5
442,72,right,1.0,52.0,right.jpg,,,right,0.5546,,A1SNC8UL8YFRH5
443,73,,1.0,53.0,LARK_BUNTING_2.jpg,CACTUS_WREN_3.jpg,3.0,,,,A1SNC8UL8YFRH5
444,74,,1.0,54.0,CHUKAR_PARTRIDGE_5.jpg,RAZORBILL_1.jpg,2.0,,,,A1SNC8UL8YFRH5
445,75,,1.0,55.0,MALACHITE_KINGFISHER_2.jpg,AMERICAN_FLAMINGO_1.jpg,1.0,,,,A1SNC8UL8YFRH5
446,76,,1.0,56.0,ASIAN_DOLLARD_BIRD_2.jpg,ALBATROSS_2.jpg,1.0,,,,A1SNC8UL8YFRH5
447,77,,1.0,57.0,KAGU_5.jpg,RED_BEARDED_BEE_EATER_3.jpg,1.0,,,,A1SNC8UL8YFRH5
448,78,,1.0,58.0,LESSER_ADJUTANT_5.jpg,RED_HEADED_WOODPECKER_1.jpg,3.0,,,,A1SNC8UL8YFRH5
449,79,,1.0,59.0,KILLDEAR_2.jpg,CAATINGA_CACHOLOTE_4.jpg,2.0,,,,A1SNC8UL8YFRH5
450,80,,1.0,60.0,TASMANIAN_HEN_5.jpg,AFRICAN_EMERALD_CUCKOO_5.jpg,2.0,,,,A1SNC8UL8YFRH5
451,81,,1.0,61.0,RED_HEADED_WOODPECKER_5.jpg,CRIMSON_CHAT_3.jpg,2.0,,,,A1SNC8UL8YFRH5
452,82,,1.0,62.0,FLAME_BOWERBIRD_3.jpg,INDIAN_BUSTARD_2.jpg,1.0,,,,A1SNC8UL8YFRH5
453,83,,1.0,63.0,GOLDEN_CHEEKED_WARBLER_2.jpg,SPOONBILL_1.jpg,1.0,,,,A1SNC8UL8YFRH5
454,84,,1.0,64.0,PEACOCK_3.jpg,STRAWBERRY_FINCH_4.jpg,2.0,,,,A1SNC8UL8YFRH5
455,20,,1.0,0.0,RED_HEADED_WOODPECKER_5.jpg,CRIMSON_CHAT_3.jpg,2.0,,,,A1TKZIBGTP7FE8
456,21,,1.0,1.0,RUBY_THROATED_HUMMINGBIRD_3.jpg,MALAGASY_WHITE_EYE_2.jpg,1.0,,,,A1TKZIBGTP7FE8
457,22,,1.0,2.0,WHITE_CHEEKED_TURACO_5.jpg,NORTHERN_MOCKINGBIRD_4.jpg,1.0,,,,A1TKZIBGTP7FE8
458,23,,1.0,3.0,RUBY_THROATED_HUMMINGBIRD_1.jpg,BANANAQUIT_2.jpg,1.0,,,,A1TKZIBGTP7FE8
459,24,,1.0,4.0,INLAND_DOTTEREL_4.jpg,CRESTED_KINGFISHER_1.jpg,3.0,,,,A1TKZIBGTP7FE8
460,25,,1.0,5.0,EUROPEAN_TURTLE_DOVE_3.jpg,MALABAR_HORNBILL_2.jpg,3.0,,,,A1TKZIBGTP7FE8
461,26,,1.0,6.0,CHUKAR_PARTRIDGE_5.jpg,OSTRICH_5.jpg,1.0,,,,A1TKZIBGTP7FE8
462,27,,1.0,7.0,OCELLATED_TURKEY_1.jpg,CHIPPING_SPARROW_1.jpg,1.0,,,,A1TKZIBGTP7FE8
463,28,,1.0,8.0,PYGMY_KINGFISHER_5.jpg,GRANDALA_2.jpg,1.0,,,,A1TKZIBGTP7FE8
464,29,left,1.0,9.0,left.jpg,,,left,1.0592,,A1TKZIBGTP7FE8
465,30,,1.0,10.0,SPLENDID_WREN_1.jpg,CUBAN_TODY_4.jpg,3.0,,,,A1TKZIBGTP7FE8
466,31,,1.0,11.0,INCA_TERN_4.jpg,SMITHS_LONGSPUR_5.jpg,2.0,,,,A1TKZIBGTP7FE8
467,32,,1.0,12.0,GREY_PLOVER_1.jpg,ECUADORIAN_HILLSTAR_3.jpg,3.0,,,,A1TKZIBGTP7FE8
468,33,,1.0,13.0,RUFOUS_KINGFISHER_1.jpg,HORNED_SUNGEM_4.jpg,3.0,,,,A1TKZIBGTP7FE8
469,34,,1.0,14.0,CASPIAN_TERN_1.jpg,EUROPEAN_GOLDFINCH_4.jpg,2.0,,,,A1TKZIBGTP7FE8
470,35,,1.0,15.0,NORTHERN_JACANA_3.jpg,CRAB_PLOVER_3.jpg,2.0,,,,A1TKZIBGTP7FE8
471,36,,1.0,16.0,IVORY_GULL_1.jpg,EASTERN_GOLDEN_WEAVER_5.jpg,2.0,,,,A1TKZIBGTP7FE8
472,37,right,1.0,17.0,right.jpg,,,right,1.7924,,A1TKZIBGTP7FE8
473,38,,1.0,18.0,OVENBIRD_5.jpg,FAIRY_PENGUIN_1.jpg,2.0,,,,A1TKZIBGTP7FE8
474,39,,1.0,19.0,LESSER_ADJUTANT_5.jpg,GREEN_BROADBILL_4.jpg,1.0,,,,A1TKZIBGTP7FE8
475,40,,1.0,20.0,STRIPPED_SWALLOW_1.jpg,MAGPIE_GOOSE_4.jpg,2.0,,,,A1TKZIBGTP7FE8
476,41,,1.0,21.0,CRESTED_CARACARA_4.jpg,FAIRY_PENGUIN_5.jpg,1.0,,,,A1TKZIBGTP7FE8
477,42,,1.0,22.0,ASIAN_CRESTED_IBIS_4.jpg,CANARY_2.jpg,1.0,,,,A1TKZIBGTP7FE8
478,43,,1.0,23.0,MALACHITE_KINGFISHER_2.jpg,INCA_TERN_2.jpg,2.0,,,,A1TKZIBGTP7FE8
479,44,,1.0,24.0,ARARIPE_MANAKIN_4.jpg,BORNEAN_LEAFBIRD_3.jpg,3.0,,,,A1TKZIBGTP7FE8
480,45,,1.0,25.0,BALI_STARLING_1.jpg,CAPE_LONGCLAW_5.jpg,1.0,,,,A1TKZIBGTP7FE8
481,46,right,1.0,26.0,right.jpg,,,right,1.7644,,A1TKZIBGTP7FE8
482,47,,1.0,27.0,KAGU_5.jpg,ASHY_STORM_PETREL_1.jpg,2.0,,,,A1TKZIBGTP7FE8
483,48,,1.0,28.0,CRESTED_NUTHATCH_2.jpg,SCARLET_IBIS_3.jpg,1.0,,,,A1TKZIBGTP7FE8
484,49,,1.0,29.0,EASTERN_TOWEE_2.jpg,SANDHILL_CRANE_2.jpg,1.0,,,,A1TKZIBGTP7FE8
485,50,,1.0,30.0,PINK_ROBIN_4.jpg,COMMON_IORA_4.jpg,3.0,,,,A1TKZIBGTP7FE8
486,51,,1.0,31.0,IVORY_GULL_3.jpg,SNOWY_EGRET_4.jpg,3.0,,,,A1TKZIBGTP7FE8
487,52,,1.0,32.0,KILLDEAR_2.jpg,AZURE_TIT_5.jpg,3.0,,,,A1TKZIBGTP7FE8
488,53,,1.0,33.0,ECUADORIAN_HILLSTAR_5.jpg,CRIMSON_SUNBIRD_5.jpg,3.0,,,,A1TKZIBGTP7FE8
489,54,,1.0,34.0,MAGPIE_GOOSE_5.jpg,HAMERKOP_1.jpg,2.0,,,,A1TKZIBGTP7FE8
490,55,,1.0,35.0,LARK_BUNTING_2.jpg,KING_VULTURE_3.jpg,2.0,,,,A1TKZIBGTP7FE8
491,56,,1.0,36.0,SCARLET_TANAGER_2.jpg,BEARDED_BARBET_2.jpg,1.0,,,,A1TKZIBGTP7FE8
492,57,,1.0,37.0,CERULEAN_WARBLER_1.jpg,AMERICAN_FLAMINGO_5.jpg,2.0,,,,A1TKZIBGTP7FE8
493,58,right,1.0,38.0,right.jpg,,,right,1.9401,,A1TKZIBGTP7FE8
494,59,,1.0,39.0,ALPINE_CHOUGH_4.jpg,SNOWY_EGRET_2.jpg,1.0,,,,A1TKZIBGTP7FE8
495,60,,1.0,40.0,ASIAN_DOLLARD_BIRD_2.jpg,VIOLET_GREEN_SWALLOW_4.jpg,3.0,,,,A1TKZIBGTP7FE8
496,61,,1.0,41.0,GRAY_KINGBIRD_5.jpg,COCK_OF_THE__ROCK_4.jpg,2.0,,,,A1TKZIBGTP7FE8
497,62,,1.0,42.0,RUBY_THROATED_HUMMINGBIRD_2.jpg,APAPANE_4.jpg,2.0,,,,A1TKZIBGTP7FE8
498,63,,1.0,43.0,AFRICAN_PIED_HORNBILL_5.jpg,CAPUCHINBIRD_2.jpg,3.0,,,,A1TKZIBGTP7FE8
499,64,,1.0,44.0,LITTLE_AUK_5.jpg,BEARDED_BELLBIRD_1.jpg,3.0,,,,A1TKZIBGTP7FE8
500,65,,1.0,45.0,DOUBLE_BRESTED_CORMARANT_5.jpg,EURASIAN_MAGPIE_4.jpg,2.0,,,,A1TKZIBGTP7FE8
501,66,,1.0,46.0,BREWERS_BLACKBIRD_3.jpg,GUINEA_TURACO_3.jpg,1.0,,,,A1TKZIBGTP7FE8
502,67,,1.0,47.0,BROWN_NOODY_3.jpg,SPANGLED_COTINGA_4.jpg,2.0,,,,A1TKZIBGTP7FE8
503,68,,1.0,48.0,PARUS_MAJOR_1.jpg,SANDHILL_CRANE_4.jpg,1.0,,,,A1TKZIBGTP7FE8
504,69,,1.0,49.0,CASSOWARY_1.jpg,AFRICAN_OYSTER_CATCHER_2.jpg,3.0,,,,A1TKZIBGTP7FE8
505,70,,1.0,50.0,FLAME_BOWERBIRD_3.jpg,QUETZAL_3.jpg,3.0,,,,A1TKZIBGTP7FE8
506,71,,1.0,51.0,BROWN_THRASHER_3.jpg,DOUBLE_EYED_FIG_PARROT_3.jpg,1.0,,,,A1TKZIBGTP7FE8
507,72,,1.0,52.0,INDIGO_BUNTING_1.jpg,NORTHERN_GANNET_1.jpg,2.0,,,,A1TKZIBGTP7FE8
508,73,,1.0,53.0,GOLDEN_CHEEKED_WARBLER_2.jpg,WHITE_THROATED_BEE_EATER_1.jpg,3.0,,,,A1TKZIBGTP7FE8
509,74,left,1.0,54.0,left.jpg,,,left,2.0121,,A1TKZIBGTP7FE8
510,75,,1.0,55.0,HAWAIIAN_GOOSE_4.jpg,HIMALAYAN_MONAL_2.jpg,2.0,,,,A1TKZIBGTP7FE8
511,76,,1.0,56.0,SHOEBILL_3.jpg,GILDED_FLICKER_5.jpg,2.0,,,,A1TKZIBGTP7FE8
512,77,,1.0,57.0,MYNA_1.jpg,PARADISE_TANAGER_3.jpg,3.0,,,,A1TKZIBGTP7FE8
513,78,,1.0,58.0,TASMANIAN_HEN_5.jpg,GREEN_BROADBILL_1.jpg,1.0,,,,A1TKZIBGTP7FE8
514,79,,1.0,59.0,AMERICAN_PIPIT_5.jpg,HEPATIC_TANAGER_5.jpg,3.0,,,,A1TKZIBGTP7FE8
515,80,,1.0,60.0,LESSER_ADJUTANT_4.jpg,FAIRY_TERN_3.jpg,3.0,,,,A1TKZIBGTP7FE8
516,81,,1.0,61.0,GOLDEN_CHLOROPHONIA_5.jpg,VERMILION_FLYCATHER_5.jpg,3.0,,,,A1TKZIBGTP7FE8
517,82,,1.0,62.0,GYRFALCON_1.jpg,OSTRICH_1.jpg,1.0,,,,A1TKZIBGTP7FE8
518,83,,1.0,63.0,PEACOCK_3.jpg,STRAWBERRY_FINCH_4.jpg,2.0,,,,A1TKZIBGTP7FE8
519,84,,1.0,64.0,VERMILION_FLYCATHER_3.jpg,INDIAN_BUSTARD_1.jpg,1.0,,,,A1TKZIBGTP7FE8
520,20,,1.0,0.0,GOLDEN_CHEEKED_WARBLER_2.jpg,WHITE_THROATED_BEE_EATER_1.jpg,3.0,,,,A25PFSORDO3SWQ
521,21,,1.0,1.0,BROWN_THRASHER_3.jpg,OYSTER_CATCHER_4.jpg,2.0,,,,A25PFSORDO3SWQ
522,22,,1.0,2.0,RUBY_THROATED_HUMMINGBIRD_3.jpg,MALAGASY_WHITE_EYE_2.jpg,1.0,,,,A25PFSORDO3SWQ
523,23,,1.0,3.0,EASTERN_TOWEE_2.jpg,GOLDEN_CHLOROPHONIA_1.jpg,2.0,,,,A25PFSORDO3SWQ
524,24,,1.0,4.0,CRESTED_CARACARA_4.jpg,FAIRY_PENGUIN_5.jpg,1.0,,,,A25PFSORDO3SWQ
525,25,,1.0,5.0,LARK_BUNTING_2.jpg,CACTUS_WREN_3.jpg,3.0,,,,A25PFSORDO3SWQ
526,26,,1.0,6.0,ALPINE_CHOUGH_4.jpg,SNOWY_EGRET_2.jpg,1.0,,,,A25PFSORDO3SWQ
527,27,,1.0,7.0,INCA_TERN_4.jpg,SMITHS_LONGSPUR_5.jpg,2.0,,,,A25PFSORDO3SWQ
528,28,,1.0,8.0,SCARLET_TANAGER_2.jpg,NORTHERN_GANNET_2.jpg,2.0,,,,A25PFSORDO3SWQ
529,29,,1.0,9.0,WHITE_CHEEKED_TURACO_5.jpg,NORTHERN_MOCKINGBIRD_4.jpg,1.0,,,,A25PFSORDO3SWQ
530,30,,1.0,10.0,RUBY_THROATED_HUMMINGBIRD_2.jpg,APAPANE_4.jpg,2.0,,,,A25PFSORDO3SWQ
531,31,right,1.0,11.0,right.jpg,,,right,0.568,,A25PFSORDO3SWQ
532,32,,1.0,12.0,AMERICAN_PIPIT_5.jpg,EMU_2.jpg,1.0,,,,A25PFSORDO3SWQ
533,33,,1.0,13.0,PARUS_MAJOR_1.jpg,SANDHILL_CRANE_4.jpg,1.0,,,,A25PFSORDO3SWQ
534,34,,1.0,14.0,PINK_ROBIN_4.jpg,ALBATROSS_4.jpg,2.0,,,,A25PFSORDO3SWQ
535,35,,1.0,15.0,INLAND_DOTTEREL_4.jpg,NICOBAR_PIGEON_4.jpg,2.0,,,,A25PFSORDO3SWQ
536,36,,1.0,16.0,CERULEAN_WARBLER_1.jpg,AMERICAN_FLAMINGO_2.jpg,1.0,,,,A25PFSORDO3SWQ
537,37,,1.0,17.0,STRIPPED_SWALLOW_1.jpg,DOUBLE_BRESTED_CORMARANT_4.jpg,1.0,,,,A25PFSORDO3SWQ
538,38,,1.0,18.0,ASIAN_CRESTED_IBIS_4.jpg,IVORY_GULL_2.jpg,3.0,,,,A25PFSORDO3SWQ
539,39,,1.0,19.0,SHOEBILL_3.jpg,GILDED_FLICKER_5.jpg,2.0,,,,A25PFSORDO3SWQ
540,40,,1.0,20.0,ECUADORIAN_HILLSTAR_5.jpg,CRIMSON_SUNBIRD_5.jpg,3.0,,,,A25PFSORDO3SWQ
541,41,,1.0,21.0,PEACOCK_3.jpg,STRAWBERRY_FINCH_4.jpg,2.0,,,,A25PFSORDO3SWQ
542,42,,1.0,22.0,GREY_PLOVER_1.jpg,GOULDIAN_FINCH_4.jpg,2.0,,,,A25PFSORDO3SWQ
543,43,,1.0,23.0,CASPIAN_TERN_1.jpg,EUROPEAN_GOLDFINCH_4.jpg,2.0,,,,A25PFSORDO3SWQ
544,44,left,1.0,24.0,left.jpg,,,left,0.553,,A25PFSORDO3SWQ
545,45,,1.0,25.0,RED_HEADED_WOODPECKER_5.jpg,COLLARED_ARACARI_1.jpg,3.0,,,,A25PFSORDO3SWQ
546,46,,1.0,26.0,CHUKAR_PARTRIDGE_5.jpg,RAZORBILL_1.jpg,2.0,,,,A25PFSORDO3SWQ
547,47,,1.0,27.0,IVORY_GULL_3.jpg,FLAME_TANAGER_3.jpg,2.0,,,,A25PFSORDO3SWQ
548,48,,1.0,28.0,LESSER_ADJUTANT_5.jpg,GREEN_BROADBILL_4.jpg,1.0,,,,A25PFSORDO3SWQ
549,49,,1.0,29.0,ASIAN_DOLLARD_BIRD_2.jpg,ALBATROSS_2.jpg,1.0,,,,A25PFSORDO3SWQ
550,50,,1.0,30.0,LESSER_ADJUTANT_4.jpg,FAIRY_TERN_3.jpg,3.0,,,,A25PFSORDO3SWQ
551,51,,1.0,31.0,MYNA_1.jpg,GREY_PLOVER_4.jpg,2.0,,,,A25PFSORDO3SWQ
552,52,,1.0,32.0,RUBY_THROATED_HUMMINGBIRD_1.jpg,BANANAQUIT_2.jpg,1.0,,,,A25PFSORDO3SWQ
553,53,,1.0,33.0,MALACHITE_KINGFISHER_2.jpg,GREEN_BROADBILL_5.jpg,3.0,,,,A25PFSORDO3SWQ
554,54,left,1.0,34.0,left.jpg,,,left,0.6,,A25PFSORDO3SWQ
555,55,,1.0,35.0,GOLDEN_CHLOROPHONIA_5.jpg,VERMILION_FLYCATHER_5.jpg,3.0,,,,A25PFSORDO3SWQ
556,56,,1.0,36.0,AFRICAN_PIED_HORNBILL_5.jpg,CAPUCHINBIRD_2.jpg,3.0,,,,A25PFSORDO3SWQ
557,57,,1.0,37.0,INDIGO_BUNTING_1.jpg,FRIGATE_4.jpg,1.0,,,,A25PFSORDO3SWQ
558,58,,1.0,38.0,TASMANIAN_HEN_5.jpg,GREEN_BROADBILL_1.jpg,1.0,,,,A25PFSORDO3SWQ
559,59,,1.0,39.0,FLAME_BOWERBIRD_3.jpg,QUETZAL_3.jpg,3.0,,,,A25PFSORDO3SWQ
560,60,,1.0,40.0,OCELLATED_TURKEY_1.jpg,CHIPPING_SPARROW_1.jpg,1.0,,,,A25PFSORDO3SWQ
561,61,right,1.0,41.0,right.jpg,,,right,0.595,,A25PFSORDO3SWQ
562,62,,1.0,42.0,KILLDEAR_2.jpg,PEACOCK_5.jpg,1.0,,,,A25PFSORDO3SWQ
563,63,,1.0,43.0,EUROPEAN_TURTLE_DOVE_3.jpg,TEAL_DUCK_2.jpg,1.0,,,,A25PFSORDO3SWQ
564,64,,1.0,44.0,ARARIPE_MANAKIN_4.jpg,BLACK_VULTURE_1.jpg,2.0,,,,A25PFSORDO3SWQ
565,65,,1.0,45.0,MAGPIE_GOOSE_5.jpg,OYSTER_CATCHER_3.jpg,3.0,,,,A25PFSORDO3SWQ
566,66,,1.0,46.0,CASSOWARY_1.jpg,AFRICAN_OYSTER_CATCHER_2.jpg,3.0,,,,A25PFSORDO3SWQ
567,67,left,1.0,47.0,left.jpg,,,left,0.635,,A25PFSORDO3SWQ
568,68,,1.0,48.0,IVORY_GULL_1.jpg,FAIRY_TERN_4.jpg,3.0,,,,A25PFSORDO3SWQ
569,69,,1.0,49.0,CRESTED_NUTHATCH_2.jpg,AFRICAN_FIREFINCH_1.jpg,2.0,,,,A25PFSORDO3SWQ
570,70,,1.0,50.0,BALI_STARLING_1.jpg,PURPLE_FINCH_2.jpg,2.0,,,,A25PFSORDO3SWQ
571,71,,1.0,51.0,NORTHERN_JACANA_3.jpg,SCARLET_IBIS_4.jpg,3.0,,,,A25PFSORDO3SWQ
572,72,,1.0,52.0,BREWERS_BLACKBIRD_3.jpg,CAPE_LONGCLAW_2.jpg,3.0,,,,A25PFSORDO3SWQ
573,73,,1.0,53.0,HAWAIIAN_GOOSE_4.jpg,WATTLED_LAPWING_3.jpg,3.0,,,,A25PFSORDO3SWQ
574,74,,1.0,54.0,SPLENDID_WREN_1.jpg,DOUBLE_BRESTED_CORMARANT_1.jpg,2.0,,,,A25PFSORDO3SWQ
575,75,,1.0,55.0,DOUBLE_BRESTED_CORMARANT_5.jpg,CHINESE_POND_HERON_2.jpg,3.0,,,,A25PFSORDO3SWQ
576,76,,1.0,56.0,BROWN_NOODY_3.jpg,PEACOCK_2.jpg,1.0,,,,A25PFSORDO3SWQ
577,77,,1.0,57.0,PYGMY_KINGFISHER_5.jpg,DOUBLE_EYED_FIG_PARROT_4.jpg,3.0,,,,A25PFSORDO3SWQ
578,78,,1.0,58.0,RUFOUS_KINGFISHER_1.jpg,MAGPIE_GOOSE_3.jpg,2.0,,,,A25PFSORDO3SWQ
579,79,,1.0,59.0,KAGU_5.jpg,RED_BEARDED_BEE_EATER_3.jpg,1.0,,,,A25PFSORDO3SWQ
580,80,,1.0,60.0,GRAY_KINGBIRD_5.jpg,BALD_EAGLE_2.jpg,1.0,,,,A25PFSORDO3SWQ
581,81,,1.0,61.0,VERMILION_FLYCATHER_3.jpg,RED_BEARDED_BEE_EATER_1.jpg,3.0,,,,A25PFSORDO3SWQ
582,82,,1.0,62.0,GYRFALCON_1.jpg,OSTRICH_1.jpg,1.0,,,,A25PFSORDO3SWQ
583,83,,1.0,63.0,OVENBIRD_5.jpg,FAIRY_PENGUIN_1.jpg,2.0,,,,A25PFSORDO3SWQ
584,84,,1.0,64.0,LITTLE_AUK_5.jpg,BEARDED_BELLBIRD_1.jpg,3.0,,,,A25PFSORDO3SWQ
585,20,,1.0,0.0,STRIPPED_SWALLOW_1.jpg,MAGPIE_GOOSE_4.jpg,2.0,,,,A2IP3ZAFYGV8M9
586,21,,1.0,1.0,GOLDEN_CHLOROPHONIA_5.jpg,VERMILION_FLYCATHER_5.jpg,3.0,,,,A2IP3ZAFYGV8M9
587,22,,1.0,2.0,RUBY_THROATED_HUMMINGBIRD_3.jpg,MYNA_5.jpg,2.0,,,,A2IP3ZAFYGV8M9
588,23,,1.0,3.0,ARARIPE_MANAKIN_4.jpg,KIWI_3.jpg,1.0,,,,A2IP3ZAFYGV8M9
589,24,,1.0,4.0,FLAME_BOWERBIRD_3.jpg,BROWN_THRASHER_4.jpg,2.0,,,,A2IP3ZAFYGV8M9
590,25,,1.0,5.0,MALACHITE_KINGFISHER_2.jpg,INCA_TERN_2.jpg,2.0,,,,A2IP3ZAFYGV8M9
591,26,,1.0,6.0,RUBY_THROATED_HUMMINGBIRD_2.jpg,APAPANE_4.jpg,2.0,,,,A2IP3ZAFYGV8M9
592,27,,1.0,7.0,PINK_ROBIN_4.jpg,COMMON_IORA_4.jpg,3.0,,,,A2IP3ZAFYGV8M9
593,28,,1.0,8.0,INCA_TERN_4.jpg,SMITHS_LONGSPUR_5.jpg,2.0,,,,A2IP3ZAFYGV8M9
594,29,right,1.0,9.0,right.jpg,,,right,0.5302,,A2IP3ZAFYGV8M9
595,30,,1.0,10.0,NORTHERN_JACANA_3.jpg,CRAB_PLOVER_3.jpg,2.0,,,,A2IP3ZAFYGV8M9
596,31,,1.0,11.0,BREWERS_BLACKBIRD_3.jpg,CAPE_LONGCLAW_2.jpg,3.0,,,,A2IP3ZAFYGV8M9
597,32,,1.0,12.0,PEACOCK_3.jpg,CHATTERING_LORY_2.jpg,3.0,,,,A2IP3ZAFYGV8M9
598,33,,1.0,13.0,TASMANIAN_HEN_5.jpg,AFRICAN_EMERALD_CUCKOO_5.jpg,2.0,,,,A2IP3ZAFYGV8M9
599,34,,1.0,14.0,KILLDEAR_2.jpg,CAATINGA_CACHOLOTE_4.jpg,2.0,,,,A2IP3ZAFYGV8M9
600,35,,1.0,15.0,GYRFALCON_1.jpg,OSTRICH_1.jpg,1.0,,,,A2IP3ZAFYGV8M9
601,36,,1.0,16.0,BROWN_NOODY_3.jpg,PEACOCK_2.jpg,1.0,,,,A2IP3ZAFYGV8M9
602,37,,1.0,17.0,MYNA_1.jpg,GREY_PLOVER_4.jpg,2.0,,,,A2IP3ZAFYGV8M9
603,38,,1.0,18.0,SCARLET_TANAGER_2.jpg,NORTHERN_GANNET_2.jpg,2.0,,,,A2IP3ZAFYGV8M9
604,39,,1.0,19.0,CERULEAN_WARBLER_1.jpg,AMERICAN_FLAMINGO_2.jpg,1.0,,,,A2IP3ZAFYGV8M9
605,40,left,1.0,20.0,left.jpg,,,left,0.4639,,A2IP3ZAFYGV8M9
606,41,,1.0,21.0,OCELLATED_TURKEY_1.jpg,PURPLE_SWAMPHEN_4.jpg,3.0,,,,A2IP3ZAFYGV8M9
607,42,,1.0,22.0,ASIAN_CRESTED_IBIS_4.jpg,IVORY_GULL_2.jpg,3.0,,,,A2IP3ZAFYGV8M9
608,43,,1.0,23.0,ASIAN_DOLLARD_BIRD_2.jpg,ALBATROSS_2.jpg,1.0,,,,A2IP3ZAFYGV8M9
609,44,,1.0,24.0,VERMILION_FLYCATHER_3.jpg,RED_BEARDED_BEE_EATER_1.jpg,3.0,,,,A2IP3ZAFYGV8M9
610,45,,1.0,25.0,INLAND_DOTTEREL_4.jpg,CRESTED_KINGFISHER_1.jpg,3.0,,,,A2IP3ZAFYGV8M9
611,46,,1.0,26.0,PYGMY_KINGFISHER_5.jpg,MASKED_BOOBY_5.jpg,2.0,,,,A2IP3ZAFYGV8M9
612,47,,1.0,27.0,IVORY_GULL_3.jpg,FLAME_TANAGER_3.jpg,2.0,,,,A2IP3ZAFYGV8M9
613,48,,1.0,28.0,SHOEBILL_3.jpg,EASTERN_MEADOWLARK_1.jpg,1.0,,,,A2IP3ZAFYGV8M9
614,49,,1.0,29.0,CRESTED_CARACARA_4.jpg,TOUCHAN_4.jpg,3.0,,,,A2IP3ZAFYGV8M9
615,50,right,1.0,30.0,right.jpg,,,right,0.642,,A2IP3ZAFYGV8M9
616,51,,1.0,31.0,SPLENDID_WREN_1.jpg,DOUBLE_BRESTED_CORMARANT_1.jpg,2.0,,,,A2IP3ZAFYGV8M9
617,52,,1.0,32.0,CASSOWARY_1.jpg,ROSY_FACED_LOVEBIRD_4.jpg,1.0,,,,A2IP3ZAFYGV8M9
618,53,,1.0,33.0,KAGU_5.jpg,RED_BEARDED_BEE_EATER_3.jpg,1.0,,,,A2IP3ZAFYGV8M9
619,54,,1.0,34.0,EASTERN_TOWEE_2.jpg,NORTHERN_BEARDLESS_TYRANNULET_5.jpg,3.0,,,,A2IP3ZAFYGV8M9
620,55,,1.0,35.0,BROWN_THRASHER_3.jpg,BLACK_BAZA_4.jpg,3.0,,,,A2IP3ZAFYGV8M9
621,56,,1.0,36.0,EUROPEAN_TURTLE_DOVE_3.jpg,TEAL_DUCK_2.jpg,1.0,,,,A2IP3ZAFYGV8M9
622,57,,1.0,37.0,CASPIAN_TERN_1.jpg,COMMON_LOON_2.jpg,3.0,,,,A2IP3ZAFYGV8M9
623,58,,1.0,38.0,LESSER_ADJUTANT_5.jpg,GREEN_BROADBILL_4.jpg,1.0,,,,A2IP3ZAFYGV8M9
624,59,,1.0,39.0,HAWAIIAN_GOOSE_4.jpg,CUBAN_TODY_3.jpg,1.0,,,,A2IP3ZAFYGV8M9
625,60,,1.0,40.0,OVENBIRD_5.jpg,MYNA_4.jpg,1.0,,,,A2IP3ZAFYGV8M9
626,61,,1.0,41.0,CHUKAR_PARTRIDGE_5.jpg,RAZORBILL_1.jpg,2.0,,,,A2IP3ZAFYGV8M9
627,62,left,1.0,42.0,left.jpg,,,left,0.6122,,A2IP3ZAFYGV8M9
628,63,,1.0,43.0,LITTLE_AUK_5.jpg,ORANGE_BRESTED_BUNTING_3.jpg,2.0,,,,A2IP3ZAFYGV8M9
629,64,,1.0,44.0,LARK_BUNTING_2.jpg,CACTUS_WREN_3.jpg,3.0,,,,A2IP3ZAFYGV8M9
630,65,,1.0,45.0,INDIGO_BUNTING_1.jpg,DARWINS_FLYCATCHER_2.jpg,3.0,,,,A2IP3ZAFYGV8M9
631,66,,1.0,46.0,GOLDEN_CHEEKED_WARBLER_2.jpg,SPOONBILL_1.jpg,1.0,,,,A2IP3ZAFYGV8M9
632,67,,1.0,47.0,ECUADORIAN_HILLSTAR_5.jpg,CRIMSON_SUNBIRD_5.jpg,3.0,,,,A2IP3ZAFYGV8M9
633,68,,1.0,48.0,LESSER_ADJUTANT_4.jpg,RAINBOW_LORIKEET_5.jpg,2.0,,,,A2IP3ZAFYGV8M9
634,69,,1.0,49.0,IVORY_GULL_1.jpg,EASTERN_GOLDEN_WEAVER_5.jpg,2.0,,,,A2IP3ZAFYGV8M9
635,70,,1.0,50.0,AMERICAN_PIPIT_5.jpg,HEPATIC_TANAGER_5.jpg,3.0,,,,A2IP3ZAFYGV8M9
636,71,,1.0,51.0,CRESTED_NUTHATCH_2.jpg,SCARLET_IBIS_3.jpg,1.0,,,,A2IP3ZAFYGV8M9
637,72,,1.0,52.0,MAGPIE_GOOSE_5.jpg,OYSTER_CATCHER_3.jpg,3.0,,,,A2IP3ZAFYGV8M9
638,73,,1.0,53.0,DOUBLE_BRESTED_CORMARANT_5.jpg,GILDED_FLICKER_2.jpg,1.0,,,,A2IP3ZAFYGV8M9
639,74,left,1.0,54.0,left.jpg,,,left,0.9851,,A2IP3ZAFYGV8M9
640,75,,1.0,55.0,RUFOUS_KINGFISHER_1.jpg,HORNED_SUNGEM_4.jpg,3.0,,,,A2IP3ZAFYGV8M9
641,76,,1.0,56.0,RUBY_THROATED_HUMMINGBIRD_1.jpg,BANANAQUIT_2.jpg,1.0,,,,A2IP3ZAFYGV8M9
642,77,,1.0,57.0,AFRICAN_PIED_HORNBILL_5.jpg,CAPUCHINBIRD_2.jpg,3.0,,,,A2IP3ZAFYGV8M9
643,78,,1.0,58.0,BALI_STARLING_1.jpg,PURPLE_FINCH_2.jpg,2.0,,,,A2IP3ZAFYGV8M9
644,79,,1.0,59.0,GREY_PLOVER_1.jpg,HYACINTH_MACAW_3.jpg,1.0,,,,A2IP3ZAFYGV8M9
645,80,,1.0,60.0,WHITE_CHEEKED_TURACO_5.jpg,PYGMY_KINGFISHER_2.jpg,3.0,,,,A2IP3ZAFYGV8M9
646,81,,1.0,61.0,ALPINE_CHOUGH_4.jpg,EUROPEAN_GOLDFINCH_3.jpg,2.0,,,,A2IP3ZAFYGV8M9
647,82,,1.0,62.0,RED_HEADED_WOODPECKER_5.jpg,ASHY_STORM_PETREL_2.jpg,1.0,,,,A2IP3ZAFYGV8M9
648,83,,1.0,63.0,GRAY_KINGBIRD_5.jpg,BALD_EAGLE_2.jpg,1.0,,,,A2IP3ZAFYGV8M9
649,84,,1.0,64.0,PARUS_MAJOR_1.jpg,SANDHILL_CRANE_4.jpg,1.0,,,,A2IP3ZAFYGV8M9
650,20,,1.0,0.0,AMERICAN_PIPIT_5.jpg,EMU_2.jpg,1.0,,,,A2M183CETUMR96
651,21,,1.0,1.0,RUBY_THROATED_HUMMINGBIRD_3.jpg,MYNA_5.jpg,2.0,,,,A2M183CETUMR96
652,22,,1.0,2.0,RUFOUS_KINGFISHER_1.jpg,HORNED_SUNGEM_4.jpg,3.0,,,,A2M183CETUMR96
653,23,,1.0,3.0,OVENBIRD_5.jpg,FAIRY_PENGUIN_1.jpg,2.0,,,,A2M183CETUMR96
654,24,,1.0,4.0,PARUS_MAJOR_1.jpg,SANDHILL_CRANE_4.jpg,1.0,,,,A2M183CETUMR96
655,25,,1.0,5.0,BREWERS_BLACKBIRD_3.jpg,GUINEA_TURACO_3.jpg,1.0,,,,A2M183CETUMR96
656,26,,1.0,6.0,GYRFALCON_1.jpg,OSTRICH_1.jpg,1.0,,,,A2M183CETUMR96
657,27,right,1.0,7.0,right.jpg,,,right,0.3783,,A2M183CETUMR96
658,28,,1.0,8.0,IVORY_GULL_3.jpg,FLAME_TANAGER_3.jpg,2.0,,,,A2M183CETUMR96
659,29,,1.0,9.0,INDIGO_BUNTING_1.jpg,FRIGATE_4.jpg,1.0,,,,A2M183CETUMR96
660,30,,1.0,10.0,RUBY_THROATED_HUMMINGBIRD_1.jpg,FRIGATE_1.jpg,3.0,,,,A2M183CETUMR96
661,31,,1.0,11.0,GREY_PLOVER_1.jpg,ECUADORIAN_HILLSTAR_3.jpg,3.0,,,,A2M183CETUMR96
662,32,,1.0,12.0,SHOEBILL_3.jpg,BALD_EAGLE_5.jpg,3.0,,,,A2M183CETUMR96
663,33,,1.0,13.0,KILLDEAR_2.jpg,AZURE_TIT_5.jpg,3.0,,,,A2M183CETUMR96
664,34,,1.0,14.0,MAGPIE_GOOSE_5.jpg,OYSTER_CATCHER_3.jpg,3.0,,,,A2M183CETUMR96
665,35,,1.0,15.0,RED_HEADED_WOODPECKER_5.jpg,COLLARED_ARACARI_1.jpg,3.0,,,,A2M183CETUMR96
666,36,,1.0,16.0,NORTHERN_JACANA_3.jpg,CRAB_PLOVER_3.jpg,2.0,,,,A2M183CETUMR96
667,37,,1.0,17.0,INCA_TERN_4.jpg,SMITHS_LONGSPUR_5.jpg,2.0,,,,A2M183CETUMR96
668,38,right,1.0,18.0,right.jpg,,,right,0.4191,,A2M183CETUMR96
669,39,,1.0,19.0,LESSER_ADJUTANT_4.jpg,FAIRY_TERN_3.jpg,3.0,,,,A2M183CETUMR96
670,40,,1.0,20.0,OCELLATED_TURKEY_1.jpg,CHIPPING_SPARROW_1.jpg,1.0,,,,A2M183CETUMR96
671,41,,1.0,21.0,LARK_BUNTING_2.jpg,PEACOCK_1.jpg,1.0,,,,A2M183CETUMR96
672,42,,1.0,22.0,CRESTED_NUTHATCH_2.jpg,AFRICAN_FIREFINCH_1.jpg,2.0,,,,A2M183CETUMR96
673,43,,1.0,23.0,ASIAN_DOLLARD_BIRD_2.jpg,LOGGERHEAD_SHRIKE_4.jpg,2.0,,,,A2M183CETUMR96
674,44,,1.0,24.0,EUROPEAN_TURTLE_DOVE_3.jpg,MALABAR_HORNBILL_2.jpg,3.0,,,,A2M183CETUMR96
675,45,,1.0,25.0,GOLDEN_CHEEKED_WARBLER_2.jpg,SPOONBILL_1.jpg,1.0,,,,A2M183CETUMR96
676,46,,1.0,26.0,EASTERN_TOWEE_2.jpg,SANDHILL_CRANE_2.jpg,1.0,,,,A2M183CETUMR96
677,47,,1.0,27.0,AFRICAN_PIED_HORNBILL_5.jpg,ALEXANDRINE_PARAKEET_1.jpg,2.0,,,,A2M183CETUMR96
678,48,,1.0,28.0,CHUKAR_PARTRIDGE_5.jpg,OSTRICH_5.jpg,1.0,,,,A2M183CETUMR96
679,49,,1.0,29.0,BALI_STARLING_1.jpg,PURPLE_FINCH_2.jpg,2.0,,,,A2M183CETUMR96
680,50,,1.0,30.0,ALPINE_CHOUGH_4.jpg,BOBOLINK_3.jpg,3.0,,,,A2M183CETUMR96
681,51,,1.0,31.0,CASPIAN_TERN_1.jpg,EUROPEAN_GOLDFINCH_4.jpg,2.0,,,,A2M183CETUMR96
682,52,right,1.0,32.0,right.jpg,,,right,0.5476,,A2M183CETUMR96
683,53,,1.0,33.0,GRAY_KINGBIRD_5.jpg,BALD_EAGLE_2.jpg,1.0,,,,A2M183CETUMR96
684,54,,1.0,34.0,INLAND_DOTTEREL_4.jpg,NICOBAR_PIGEON_4.jpg,2.0,,,,A2M183CETUMR96
685,55,,1.0,35.0,ECUADORIAN_HILLSTAR_5.jpg,CRIMSON_SUNBIRD_5.jpg,3.0,,,,A2M183CETUMR96
686,56,,1.0,36.0,ASIAN_CRESTED_IBIS_4.jpg,OYSTER_CATCHER_2.jpg,2.0,,,,A2M183CETUMR96
687,57,,1.0,37.0,PYGMY_KINGFISHER_5.jpg,DOUBLE_EYED_FIG_PARROT_4.jpg,3.0,,,,A2M183CETUMR96
688,58,left,1.0,38.0,left.jpg,,,left,0.5516,,A2M183CETUMR96
689,59,,1.0,39.0,LITTLE_AUK_5.jpg,SANDHILL_CRANE_3.jpg,1.0,,,,A2M183CETUMR96
690,60,,1.0,40.0,PINK_ROBIN_4.jpg,COMMON_IORA_4.jpg,3.0,,,,A2M183CETUMR96
691,61,,1.0,41.0,SPLENDID_WREN_1.jpg,POMARINE_JAEGER_5.jpg,1.0,,,,A2M183CETUMR96
692,62,,1.0,42.0,STRIPPED_SWALLOW_1.jpg,DOUBLE_BRESTED_CORMARANT_4.jpg,1.0,,,,A2M183CETUMR96
693,63,,1.0,43.0,TASMANIAN_HEN_5.jpg,AFRICAN_EMERALD_CUCKOO_5.jpg,2.0,,,,A2M183CETUMR96
694,64,,1.0,44.0,CRESTED_CARACARA_4.jpg,INDIAN_PITTA_2.jpg,2.0,,,,A2M183CETUMR96
695,65,,1.0,45.0,FLAME_BOWERBIRD_3.jpg,BROWN_THRASHER_4.jpg,2.0,,,,A2M183CETUMR96
696,66,,1.0,46.0,MYNA_1.jpg,PARADISE_TANAGER_3.jpg,3.0,,,,A2M183CETUMR96
697,67,,1.0,47.0,CASSOWARY_1.jpg,SCARLET_MACAW_1.jpg,2.0,,,,A2M183CETUMR96
698,68,,1.0,48.0,MALACHITE_KINGFISHER_2.jpg,AMERICAN_FLAMINGO_1.jpg,1.0,,,,A2M183CETUMR96
699,69,,1.0,49.0,IVORY_GULL_1.jpg,FAIRY_TERN_4.jpg,3.0,,,,A2M183CETUMR96
700,70,,1.0,50.0,DOUBLE_BRESTED_CORMARANT_5.jpg,EURASIAN_MAGPIE_4.jpg,2.0,,,,A2M183CETUMR96
701,71,left,1.0,51.0,left.jpg,,,left,0.591,,A2M183CETUMR96
702,72,,1.0,52.0,SCARLET_TANAGER_2.jpg,NORTHERN_GANNET_2.jpg,2.0,,,,A2M183CETUMR96
703,73,,1.0,53.0,VERMILION_FLYCATHER_3.jpg,INDIAN_BUSTARD_1.jpg,1.0,,,,A2M183CETUMR96
704,74,,1.0,54.0,WHITE_CHEEKED_TURACO_5.jpg,NORTHERN_MOCKINGBIRD_4.jpg,1.0,,,,A2M183CETUMR96
705,75,,1.0,55.0,BROWN_THRASHER_3.jpg,BLACK_BAZA_4.jpg,3.0,,,,A2M183CETUMR96
706,76,,1.0,56.0,GOLDEN_CHLOROPHONIA_5.jpg,ROADRUNNER_2.jpg,1.0,,,,A2M183CETUMR96
707,77,,1.0,57.0,PEACOCK_3.jpg,ANIANIAU_2.jpg,1.0,,,,A2M183CETUMR96
708,78,,1.0,58.0,RUBY_THROATED_HUMMINGBIRD_2.jpg,GOLDEN_CHLOROPHONIA_2.jpg,1.0,,,,A2M183CETUMR96
709,79,,1.0,59.0,HAWAIIAN_GOOSE_4.jpg,WATTLED_LAPWING_3.jpg,3.0,,,,A2M183CETUMR96
710,80,,1.0,60.0,LESSER_ADJUTANT_5.jpg,RED_HEADED_WOODPECKER_1.jpg,3.0,,,,A2M183CETUMR96
711,81,,1.0,61.0,BROWN_NOODY_3.jpg,GUINEA_TURACO_5.jpg,3.0,,,,A2M183CETUMR96
712,82,,1.0,62.0,ARARIPE_MANAKIN_4.jpg,BLACK_VULTURE_1.jpg,2.0,,,,A2M183CETUMR96
713,83,,1.0,63.0,KAGU_5.jpg,ASHY_STORM_PETREL_1.jpg,2.0,,,,A2M183CETUMR96
714,84,,1.0,64.0,CERULEAN_WARBLER_1.jpg,BANANAQUIT_1.jpg,3.0,,,,A2M183CETUMR96
715,20,,1.0,0.0,KAGU_5.jpg,RED_BEARDED_BEE_EATER_3.jpg,1.0,,,,A2VLTSW6CXIUMR
716,21,,1.0,1.0,FLAME_BOWERBIRD_3.jpg,QUETZAL_3.jpg,3.0,,,,A2VLTSW6CXIUMR
717,22,,1.0,2.0,AMERICAN_PIPIT_5.jpg,HEPATIC_TANAGER_5.jpg,3.0,,,,A2VLTSW6CXIUMR
718,23,,1.0,3.0,OVENBIRD_5.jpg,FAIRY_PENGUIN_1.jpg,2.0,,,,A2VLTSW6CXIUMR
719,24,,1.0,4.0,RUFOUS_KINGFISHER_1.jpg,HORNED_SUNGEM_4.jpg,3.0,,,,A2VLTSW6CXIUMR
720,25,,1.0,5.0,NORTHERN_JACANA_3.jpg,AMERICAN_GOLDFINCH_4.jpg,1.0,,,,A2VLTSW6CXIUMR
721,26,,1.0,6.0,ASIAN_DOLLARD_BIRD_2.jpg,VIOLET_GREEN_SWALLOW_4.jpg,3.0,,,,A2VLTSW6CXIUMR
722,27,,1.0,7.0,KILLDEAR_2.jpg,AZURE_TIT_5.jpg,3.0,,,,A2VLTSW6CXIUMR
723,28,,1.0,8.0,PARUS_MAJOR_1.jpg,SANDHILL_CRANE_4.jpg,1.0,,,,A2VLTSW6CXIUMR
724,29,right,1.0,9.0,right.jpg,,,right,0.5057,,A2VLTSW6CXIUMR
725,30,,1.0,10.0,IVORY_GULL_1.jpg,WILSONS_BIRD_OF_PARADISE_4.jpg,1.0,,,,A2VLTSW6CXIUMR
726,31,,1.0,11.0,STRIPPED_SWALLOW_1.jpg,GO_AWAY_BIRD_5.jpg,3.0,,,,A2VLTSW6CXIUMR
727,32,,1.0,12.0,GRAY_KINGBIRD_5.jpg,COCK_OF_THE__ROCK_4.jpg,2.0,,,,A2VLTSW6CXIUMR
728,33,,1.0,13.0,INLAND_DOTTEREL_4.jpg,CASSOWARY_2.jpg,1.0,,,,A2VLTSW6CXIUMR
729,34,,1.0,14.0,MAGPIE_GOOSE_5.jpg,HAMERKOP_1.jpg,2.0,,,,A2VLTSW6CXIUMR
730,35,,1.0,15.0,INDIGO_BUNTING_1.jpg,NORTHERN_GANNET_1.jpg,2.0,,,,A2VLTSW6CXIUMR
731,36,,1.0,16.0,LESSER_ADJUTANT_5.jpg,RED_HEADED_WOODPECKER_1.jpg,3.0,,,,A2VLTSW6CXIUMR
732,37,,1.0,17.0,ECUADORIAN_HILLSTAR_5.jpg,BOBOLINK_5.jpg,2.0,,,,A2VLTSW6CXIUMR
733,38,left,1.0,18.0,left.jpg,,,left,0.4924,,A2VLTSW6CXIUMR
734,39,,1.0,19.0,ARARIPE_MANAKIN_4.jpg,KIWI_3.jpg,1.0,,,,A2VLTSW6CXIUMR
735,40,,1.0,20.0,WHITE_CHEEKED_TURACO_5.jpg,GREAT_POTOO_3.jpg,2.0,,,,A2VLTSW6CXIUMR
736,41,,1.0,21.0,SCARLET_TANAGER_2.jpg,NORTHERN_GANNET_2.jpg,2.0,,,,A2VLTSW6CXIUMR
737,42,,1.0,22.0,RUBY_THROATED_HUMMINGBIRD_1.jpg,BANANAQUIT_2.jpg,1.0,,,,A2VLTSW6CXIUMR
738,43,,1.0,23.0,MYNA_1.jpg,GREY_PLOVER_4.jpg,2.0,,,,A2VLTSW6CXIUMR
739,44,,1.0,24.0,GYRFALCON_1.jpg,OSTRICH_1.jpg,1.0,,,,A2VLTSW6CXIUMR
740,45,,1.0,25.0,PINK_ROBIN_4.jpg,COMMON_IORA_4.jpg,3.0,,,,A2VLTSW6CXIUMR
741,46,,1.0,26.0,GREY_PLOVER_1.jpg,HYACINTH_MACAW_3.jpg,1.0,,,,A2VLTSW6CXIUMR
742,47,right,1.0,27.0,right.jpg,,,right,0.5137,,A2VLTSW6CXIUMR
743,48,,1.0,28.0,GOLDEN_CHLOROPHONIA_5.jpg,VERMILION_FLYCATHER_5.jpg,3.0,,,,A2VLTSW6CXIUMR
744,49,,1.0,29.0,SPLENDID_WREN_1.jpg,CUBAN_TODY_4.jpg,3.0,,,,A2VLTSW6CXIUMR
745,50,,1.0,30.0,EUROPEAN_TURTLE_DOVE_3.jpg,TEAL_DUCK_2.jpg,1.0,,,,A2VLTSW6CXIUMR
746,51,,1.0,31.0,PEACOCK_3.jpg,STRAWBERRY_FINCH_4.jpg,2.0,,,,A2VLTSW6CXIUMR
747,52,,1.0,32.0,CERULEAN_WARBLER_1.jpg,BANANAQUIT_1.jpg,3.0,,,,A2VLTSW6CXIUMR
748,53,,1.0,33.0,BREWERS_BLACKBIRD_3.jpg,CAPE_LONGCLAW_2.jpg,3.0,,,,A2VLTSW6CXIUMR
749,54,,1.0,34.0,LITTLE_AUK_5.jpg,BEARDED_BELLBIRD_1.jpg,3.0,,,,A2VLTSW6CXIUMR
750,55,,1.0,35.0,GOLDEN_CHEEKED_WARBLER_2.jpg,HOUSE_FINCH_2.jpg,2.0,,,,A2VLTSW6CXIUMR
751,56,right,1.0,36.0,right.jpg,,,right,0.5447,,A2VLTSW6CXIUMR
752,57,,1.0,37.0,CRESTED_CARACARA_4.jpg,FAIRY_PENGUIN_5.jpg,1.0,,,,A2VLTSW6CXIUMR
753,58,,1.0,38.0,CASPIAN_TERN_1.jpg,EUROPEAN_GOLDFINCH_4.jpg,2.0,,,,A2VLTSW6CXIUMR
754,59,,1.0,39.0,PYGMY_KINGFISHER_5.jpg,DOUBLE_EYED_FIG_PARROT_4.jpg,3.0,,,,A2VLTSW6CXIUMR
755,60,,1.0,40.0,LARK_BUNTING_2.jpg,CACTUS_WREN_3.jpg,3.0,,,,A2VLTSW6CXIUMR
756,61,,1.0,41.0,RUBY_THROATED_HUMMINGBIRD_2.jpg,APAPANE_4.jpg,2.0,,,,A2VLTSW6CXIUMR
757,62,,1.0,42.0,BALI_STARLING_1.jpg,PURPLE_FINCH_2.jpg,2.0,,,,A2VLTSW6CXIUMR
758,63,,1.0,43.0,EASTERN_TOWEE_2.jpg,GOLDEN_CHLOROPHONIA_1.jpg,2.0,,,,A2VLTSW6CXIUMR
759,64,,1.0,44.0,CRESTED_NUTHATCH_2.jpg,CANARY_1.jpg,3.0,,,,A2VLTSW6CXIUMR
760,65,,1.0,45.0,VERMILION_FLYCATHER_3.jpg,INDIAN_BUSTARD_1.jpg,1.0,,,,A2VLTSW6CXIUMR
761,66,,1.0,46.0,HAWAIIAN_GOOSE_4.jpg,HIMALAYAN_MONAL_2.jpg,2.0,,,,A2VLTSW6CXIUMR
762,67,,1.0,47.0,BROWN_NOODY_3.jpg,SPANGLED_COTINGA_4.jpg,2.0,,,,A2VLTSW6CXIUMR
763,68,,1.0,48.0,ASIAN_CRESTED_IBIS_4.jpg,CANARY_2.jpg,1.0,,,,A2VLTSW6CXIUMR
764,69,,1.0,49.0,IVORY_GULL_3.jpg,FLAME_TANAGER_3.jpg,2.0,,,,A2VLTSW6CXIUMR
765,70,,1.0,50.0,RED_HEADED_WOODPECKER_5.jpg,ASHY_STORM_PETREL_2.jpg,1.0,,,,A2VLTSW6CXIUMR
766,71,right,0.0,51.0,left.jpg,,,left,0.524,,A2VLTSW6CXIUMR
767,72,,1.0,52.0,MALACHITE_KINGFISHER_2.jpg,GREEN_BROADBILL_5.jpg,3.0,,,,A2VLTSW6CXIUMR
768,73,,1.0,53.0,CASSOWARY_1.jpg,AFRICAN_OYSTER_CATCHER_2.jpg,3.0,,,,A2VLTSW6CXIUMR
769,74,,1.0,54.0,DOUBLE_BRESTED_CORMARANT_5.jpg,GILDED_FLICKER_2.jpg,1.0,,,,A2VLTSW6CXIUMR
770,75,,1.0,55.0,ALPINE_CHOUGH_4.jpg,SNOWY_EGRET_2.jpg,1.0,,,,A2VLTSW6CXIUMR
771,76,,1.0,56.0,TASMANIAN_HEN_5.jpg,AFRICAN_EMERALD_CUCKOO_5.jpg,2.0,,,,A2VLTSW6CXIUMR
772,77,,1.0,57.0,AFRICAN_PIED_HORNBILL_5.jpg,ALEXANDRINE_PARAKEET_1.jpg,2.0,,,,A2VLTSW6CXIUMR
773,78,,1.0,58.0,LESSER_ADJUTANT_4.jpg,FAIRY_TERN_3.jpg,3.0,,,,A2VLTSW6CXIUMR
774,79,,1.0,59.0,BROWN_THRASHER_3.jpg,OYSTER_CATCHER_4.jpg,2.0,,,,A2VLTSW6CXIUMR
775,80,,1.0,60.0,SHOEBILL_3.jpg,EASTERN_MEADOWLARK_1.jpg,1.0,,,,A2VLTSW6CXIUMR
776,81,,1.0,61.0,RUBY_THROATED_HUMMINGBIRD_3.jpg,MALAGASY_WHITE_EYE_2.jpg,1.0,,,,A2VLTSW6CXIUMR
777,82,,1.0,62.0,CHUKAR_PARTRIDGE_5.jpg,OSTRICH_5.jpg,1.0,,,,A2VLTSW6CXIUMR
778,83,,1.0,63.0,OCELLATED_TURKEY_1.jpg,CHIPPING_SPARROW_1.jpg,1.0,,,,A2VLTSW6CXIUMR
779,84,,1.0,64.0,INCA_TERN_4.jpg,BORNEAN_BRISTLEHEAD_5.jpg,3.0,,,,A2VLTSW6CXIUMR
780,20,,1.0,0.0,KILLDEAR_2.jpg,PEACOCK_5.jpg,1.0,,,,A2YVQKJX3FO6P
781,21,,1.0,1.0,HAWAIIAN_GOOSE_4.jpg,CUBAN_TODY_3.jpg,1.0,,,,A2YVQKJX3FO6P
782,22,,1.0,2.0,ASIAN_CRESTED_IBIS_4.jpg,IVORY_GULL_2.jpg,3.0,,,,A2YVQKJX3FO6P
783,23,,1.0,3.0,MYNA_1.jpg,GREY_PLOVER_4.jpg,2.0,,,,A2YVQKJX3FO6P
784,24,,1.0,4.0,CHUKAR_PARTRIDGE_5.jpg,OSTRICH_5.jpg,1.0,,,,A2YVQKJX3FO6P
785,25,,1.0,5.0,INLAND_DOTTEREL_4.jpg,CASSOWARY_2.jpg,1.0,,,,A2YVQKJX3FO6P
786,26,,1.0,6.0,PYGMY_KINGFISHER_5.jpg,MASKED_BOOBY_5.jpg,2.0,,,,A2YVQKJX3FO6P
787,27,left,1.0,7.0,left.jpg,,,left,0.7,,A2YVQKJX3FO6P
788,28,,1.0,8.0,CASSOWARY_1.jpg,SCARLET_MACAW_1.jpg,2.0,,,,A2YVQKJX3FO6P
789,29,,1.0,9.0,EUROPEAN_TURTLE_DOVE_3.jpg,TEAL_DUCK_2.jpg,1.0,,,,A2YVQKJX3FO6P
790,30,,1.0,10.0,ASIAN_DOLLARD_BIRD_2.jpg,LOGGERHEAD_SHRIKE_4.jpg,2.0,,,,A2YVQKJX3FO6P
791,31,,1.0,11.0,AFRICAN_PIED_HORNBILL_5.jpg,CAPUCHINBIRD_2.jpg,3.0,,,,A2YVQKJX3FO6P
792,32,,1.0,12.0,GOLDEN_CHEEKED_WARBLER_2.jpg,WHITE_THROATED_BEE_EATER_1.jpg,3.0,,,,A2YVQKJX3FO6P
793,33,,1.0,13.0,SHOEBILL_3.jpg,GILDED_FLICKER_5.jpg,2.0,,,,A2YVQKJX3FO6P
794,34,,1.0,14.0,FLAME_BOWERBIRD_3.jpg,INDIAN_BUSTARD_2.jpg,1.0,,,,A2YVQKJX3FO6P
795,35,,1.0,15.0,GRAY_KINGBIRD_5.jpg,AFRICAN_FIREFINCH_3.jpg,3.0,,,,A2YVQKJX3FO6P
796,36,,1.0,16.0,TASMANIAN_HEN_5.jpg,GREEN_BROADBILL_1.jpg,1.0,,,,A2YVQKJX3FO6P
797,37,,1.0,17.0,ARARIPE_MANAKIN_4.jpg,BLACK_VULTURE_1.jpg,2.0,,,,A2YVQKJX3FO6P
798,38,,1.0,18.0,OCELLATED_TURKEY_1.jpg,PURPLE_SWAMPHEN_4.jpg,3.0,,,,A2YVQKJX3FO6P
799,39,,1.0,19.0,BREWERS_BLACKBIRD_3.jpg,GUINEA_TURACO_3.jpg,1.0,,,,A2YVQKJX3FO6P
800,40,,1.0,20.0,INCA_TERN_4.jpg,ELLIOTS__PHEASANT_4.jpg,1.0,,,,A2YVQKJX3FO6P
801,41,,1.0,21.0,PINK_ROBIN_4.jpg,COMMON_IORA_4.jpg,3.0,,,,A2YVQKJX3FO6P
802,42,,1.0,22.0,MALACHITE_KINGFISHER_2.jpg,AMERICAN_FLAMINGO_1.jpg,1.0,,,,A2YVQKJX3FO6P
803,43,,1.0,23.0,IVORY_GULL_1.jpg,EASTERN_GOLDEN_WEAVER_5.jpg,2.0,,,,A2YVQKJX3FO6P
804,44,right,1.0,24.0,right.jpg,,,right,1.079,,A2YVQKJX3FO6P
805,45,,1.0,25.0,RUFOUS_KINGFISHER_1.jpg,MAGPIE_GOOSE_3.jpg,2.0,,,,A2YVQKJX3FO6P
806,46,,1.0,26.0,LESSER_ADJUTANT_5.jpg,GAMBELS_QUAIL_1.jpg,2.0,,,,A2YVQKJX3FO6P
807,47,,1.0,27.0,IVORY_GULL_3.jpg,SNOWY_EGRET_4.jpg,3.0,,,,A2YVQKJX3FO6P
808,48,,1.0,28.0,INDIGO_BUNTING_1.jpg,DARWINS_FLYCATCHER_2.jpg,3.0,,,,A2YVQKJX3FO6P
809,49,,1.0,29.0,EASTERN_TOWEE_2.jpg,NORTHERN_BEARDLESS_TYRANNULET_5.jpg,3.0,,,,A2YVQKJX3FO6P
810,50,,1.0,30.0,AMERICAN_PIPIT_5.jpg,EMU_2.jpg,1.0,,,,A2YVQKJX3FO6P
811,51,,1.0,31.0,VERMILION_FLYCATHER_3.jpg,RED_BEARDED_BEE_EATER_1.jpg,3.0,,,,A2YVQKJX3FO6P
812,52,right,1.0,32.0,right.jpg,,,right,0.843,,A2YVQKJX3FO6P
813,53,,1.0,33.0,SPLENDID_WREN_1.jpg,POMARINE_JAEGER_5.jpg,1.0,,,,A2YVQKJX3FO6P
814,54,,1.0,34.0,LESSER_ADJUTANT_4.jpg,FAIRY_TERN_3.jpg,3.0,,,,A2YVQKJX3FO6P
815,55,,1.0,35.0,NORTHERN_JACANA_3.jpg,SCARLET_IBIS_4.jpg,3.0,,,,A2YVQKJX3FO6P
816,56,,1.0,36.0,ECUADORIAN_HILLSTAR_5.jpg,SCARLET_IBIS_2.jpg,1.0,,,,A2YVQKJX3FO6P
817,57,left,1.0,37.0,left.jpg,,,left,0.859,,A2YVQKJX3FO6P
818,58,,1.0,38.0,BROWN_NOODY_3.jpg,GUINEA_TURACO_5.jpg,3.0,,,,A2YVQKJX3FO6P
819,59,,1.0,39.0,CRESTED_NUTHATCH_2.jpg,CANARY_1.jpg,3.0,,,,A2YVQKJX3FO6P
820,60,,1.0,40.0,ALPINE_CHOUGH_4.jpg,EUROPEAN_GOLDFINCH_3.jpg,2.0,,,,A2YVQKJX3FO6P
821,61,,1.0,41.0,BALI_STARLING_1.jpg,CAPE_LONGCLAW_5.jpg,1.0,,,,A2YVQKJX3FO6P
822,62,,1.0,42.0,RUBY_THROATED_HUMMINGBIRD_2.jpg,APAPANE_4.jpg,2.0,,,,A2YVQKJX3FO6P
823,63,,1.0,43.0,SCARLET_TANAGER_2.jpg,NORTHERN_GANNET_2.jpg,2.0,,,,A2YVQKJX3FO6P
824,64,,1.0,44.0,GOLDEN_CHLOROPHONIA_5.jpg,VERMILION_FLYCATHER_5.jpg,3.0,,,,A2YVQKJX3FO6P
825,65,,1.0,45.0,RUBY_THROATED_HUMMINGBIRD_1.jpg,BANANAQUIT_2.jpg,1.0,,,,A2YVQKJX3FO6P
826,66,,1.0,46.0,STRIPPED_SWALLOW_1.jpg,GO_AWAY_BIRD_5.jpg,3.0,,,,A2YVQKJX3FO6P
827,67,left,1.0,47.0,left.jpg,,,left,0.857,,A2YVQKJX3FO6P
828,68,,1.0,48.0,RUBY_THROATED_HUMMINGBIRD_3.jpg,MYNA_5.jpg,2.0,,,,A2YVQKJX3FO6P
829,69,,1.0,49.0,CRESTED_CARACARA_4.jpg,TOUCHAN_4.jpg,3.0,,,,A2YVQKJX3FO6P
830,70,,1.0,50.0,WHITE_CHEEKED_TURACO_5.jpg,NORTHERN_MOCKINGBIRD_4.jpg,1.0,,,,A2YVQKJX3FO6P
831,71,,1.0,51.0,DOUBLE_BRESTED_CORMARANT_5.jpg,CHINESE_POND_HERON_2.jpg,3.0,,,,A2YVQKJX3FO6P
832,72,,1.0,52.0,KAGU_5.jpg,ASHY_STORM_PETREL_1.jpg,2.0,,,,A2YVQKJX3FO6P
833,73,,1.0,53.0,RED_HEADED_WOODPECKER_5.jpg,CRIMSON_CHAT_3.jpg,2.0,,,,A2YVQKJX3FO6P
834,74,,1.0,54.0,GREY_PLOVER_1.jpg,HYACINTH_MACAW_3.jpg,1.0,,,,A2YVQKJX3FO6P
835,75,,1.0,55.0,CERULEAN_WARBLER_1.jpg,AMERICAN_FLAMINGO_2.jpg,1.0,,,,A2YVQKJX3FO6P
836,76,,1.0,56.0,LITTLE_AUK_5.jpg,SANDHILL_CRANE_3.jpg,1.0,,,,A2YVQKJX3FO6P
837,77,,1.0,57.0,LARK_BUNTING_2.jpg,CACTUS_WREN_3.jpg,3.0,,,,A2YVQKJX3FO6P
838,78,,1.0,58.0,OVENBIRD_5.jpg,FAIRY_PENGUIN_1.jpg,2.0,,,,A2YVQKJX3FO6P
839,79,,1.0,59.0,GYRFALCON_1.jpg,CINNAMON_ATTILA_2.jpg,2.0,,,,A2YVQKJX3FO6P
840,80,,1.0,60.0,PEACOCK_3.jpg,ANIANIAU_2.jpg,1.0,,,,A2YVQKJX3FO6P
841,81,,1.0,61.0,BROWN_THRASHER_3.jpg,OYSTER_CATCHER_4.jpg,2.0,,,,A2YVQKJX3FO6P
842,82,,1.0,62.0,PARUS_MAJOR_1.jpg,PINK_ROBIN_3.jpg,3.0,,,,A2YVQKJX3FO6P
843,83,,1.0,63.0,CASPIAN_TERN_1.jpg,EUROPEAN_GOLDFINCH_4.jpg,2.0,,,,A2YVQKJX3FO6P
844,84,,1.0,64.0,MAGPIE_GOOSE_5.jpg,HAMERKOP_1.jpg,2.0,,,,A2YVQKJX3FO6P
845,20,,1.0,0.0,KILLDEAR_2.jpg,AZURE_TIT_5.jpg,3.0,,,,A39VAFCIGP83ER
846,21,,1.0,1.0,LESSER_ADJUTANT_5.jpg,GAMBELS_QUAIL_1.jpg,2.0,,,,A39VAFCIGP83ER
847,22,,1.0,2.0,EUROPEAN_TURTLE_DOVE_3.jpg,PAINTED_BUNTING_3.jpg,2.0,,,,A39VAFCIGP83ER
848,23,,1.0,3.0,GREY_PLOVER_1.jpg,GOULDIAN_FINCH_4.jpg,2.0,,,,A39VAFCIGP83ER
849,24,,1.0,4.0,ARARIPE_MANAKIN_4.jpg,BLACK_VULTURE_1.jpg,2.0,,,,A39VAFCIGP83ER
850,25,,1.0,5.0,SHOEBILL_3.jpg,GILDED_FLICKER_5.jpg,2.0,,,,A39VAFCIGP83ER
851,26,,1.0,6.0,WHITE_CHEEKED_TURACO_5.jpg,NORTHERN_MOCKINGBIRD_4.jpg,1.0,,,,A39VAFCIGP83ER
852,27,,1.0,7.0,STRIPPED_SWALLOW_1.jpg,DOUBLE_BRESTED_CORMARANT_4.jpg,1.0,,,,A39VAFCIGP83ER
853,28,,1.0,8.0,ECUADORIAN_HILLSTAR_5.jpg,SCARLET_IBIS_2.jpg,1.0,,,,A39VAFCIGP83ER
854,29,,1.0,9.0,ALPINE_CHOUGH_4.jpg,BOBOLINK_3.jpg,3.0,,,,A39VAFCIGP83ER
855,30,,1.0,10.0,CHUKAR_PARTRIDGE_5.jpg,BLACK_THROATED_BUSHTIT_1.jpg,3.0,,,,A39VAFCIGP83ER
856,31,,1.0,11.0,AMERICAN_PIPIT_5.jpg,EMU_2.jpg,1.0,,,,A39VAFCIGP83ER
857,32,,1.0,12.0,INDIGO_BUNTING_1.jpg,FRIGATE_4.jpg,1.0,,,,A39VAFCIGP83ER
858,33,,1.0,13.0,CERULEAN_WARBLER_1.jpg,BANANAQUIT_1.jpg,3.0,,,,A39VAFCIGP83ER
859,34,left,1.0,14.0,left.jpg,,,left,0.0959,,A39VAFCIGP83ER
860,35,,1.0,15.0,EASTERN_TOWEE_2.jpg,SANDHILL_CRANE_2.jpg,1.0,,,,A39VAFCIGP83ER
861,36,left,1.0,16.0,left.jpg,,,left,1.112,,A39VAFCIGP83ER
862,37,,1.0,17.0,TASMANIAN_HEN_5.jpg,COPPERY_TAILED_COUCAL_1.jpg,3.0,,,,A39VAFCIGP83ER
863,38,,1.0,18.0,CASSOWARY_1.jpg,AFRICAN_OYSTER_CATCHER_2.jpg,3.0,,,,A39VAFCIGP83ER
864,39,,1.0,19.0,ASIAN_CRESTED_IBIS_4.jpg,CANARY_2.jpg,1.0,,,,A39VAFCIGP83ER
865,40,,1.0,20.0,CRESTED_NUTHATCH_2.jpg,AFRICAN_FIREFINCH_1.jpg,2.0,,,,A39VAFCIGP83ER
866,41,,1.0,21.0,BREWERS_BLACKBIRD_3.jpg,GOLDEN_CHEEKED_WARBLER_3.jpg,2.0,,,,A39VAFCIGP83ER
867,42,,1.0,22.0,MYNA_1.jpg,GREY_PLOVER_4.jpg,2.0,,,,A39VAFCIGP83ER
868,43,,1.0,23.0,LESSER_ADJUTANT_4.jpg,RAINBOW_LORIKEET_5.jpg,2.0,,,,A39VAFCIGP83ER
869,44,,1.0,24.0,MALACHITE_KINGFISHER_2.jpg,GREEN_BROADBILL_5.jpg,3.0,,,,A39VAFCIGP83ER
870,45,,1.0,25.0,BROWN_NOODY_3.jpg,PEACOCK_2.jpg,1.0,,,,A39VAFCIGP83ER
871,46,,1.0,26.0,IVORY_GULL_1.jpg,WILSONS_BIRD_OF_PARADISE_4.jpg,1.0,,,,A39VAFCIGP83ER
872,47,,1.0,27.0,INCA_TERN_4.jpg,ELLIOTS__PHEASANT_4.jpg,1.0,,,,A39VAFCIGP83ER
873,48,,1.0,28.0,ASIAN_DOLLARD_BIRD_2.jpg,ALBATROSS_2.jpg,1.0,,,,A39VAFCIGP83ER
874,49,,1.0,29.0,GOLDEN_CHLOROPHONIA_5.jpg,ROADRUNNER_2.jpg,1.0,,,,A39VAFCIGP83ER
875,50,left,1.0,30.0,left.jpg,,,left,1.640799999,,A39VAFCIGP83ER
876,51,,1.0,31.0,CASPIAN_TERN_1.jpg,GREAT_GRAY_OWL_4.jpg,1.0,,,,A39VAFCIGP83ER
877,52,,1.0,32.0,PYGMY_KINGFISHER_5.jpg,MASKED_BOOBY_5.jpg,2.0,,,,A39VAFCIGP83ER
878,53,,1.0,33.0,AFRICAN_PIED_HORNBILL_5.jpg,ALEXANDRINE_PARAKEET_1.jpg,2.0,,,,A39VAFCIGP83ER
879,54,,1.0,34.0,GRAY_KINGBIRD_5.jpg,BALD_EAGLE_2.jpg,1.0,,,,A39VAFCIGP83ER
880,55,,1.0,35.0,KAGU_5.jpg,DEMOISELLE_CRANE_1.jpg,3.0,,,,A39VAFCIGP83ER
881,56,,1.0,36.0,RUBY_THROATED_HUMMINGBIRD_2.jpg,DUSKY_ROBIN_5.jpg,3.0,,,,A39VAFCIGP83ER
882,57,,1.0,37.0,BROWN_THRASHER_3.jpg,BLACK_BAZA_4.jpg,3.0,,,,A39VAFCIGP83ER
883,58,,1.0,38.0,HAWAIIAN_GOOSE_4.jpg,WATTLED_LAPWING_3.jpg,3.0,,,,A39VAFCIGP83ER
884,59,,1.0,39.0,INLAND_DOTTEREL_4.jpg,CRESTED_KINGFISHER_1.jpg,3.0,,,,A39VAFCIGP83ER
885,60,,1.0,40.0,PARUS_MAJOR_1.jpg,CALIFORNIA_GULL_2.jpg,2.0,,,,A39VAFCIGP83ER
886,61,,1.0,41.0,CRESTED_CARACARA_4.jpg,FAIRY_PENGUIN_5.jpg,1.0,,,,A39VAFCIGP83ER
887,62,,1.0,42.0,SPLENDID_WREN_1.jpg,CUBAN_TODY_4.jpg,3.0,,,,A39VAFCIGP83ER
888,63,left,1.0,43.0,left.jpg,,,left,0.9471,,A39VAFCIGP83ER
889,64,,1.0,44.0,RUBY_THROATED_HUMMINGBIRD_3.jpg,NORTHERN_SHOVELER_1.jpg,3.0,,,,A39VAFCIGP83ER
890,65,,1.0,45.0,MAGPIE_GOOSE_5.jpg,HAMERKOP_1.jpg,2.0,,,,A39VAFCIGP83ER
891,66,,1.0,46.0,GOLDEN_CHEEKED_WARBLER_2.jpg,SPOONBILL_1.jpg,1.0,,,,A39VAFCIGP83ER
892,67,left,1.0,47.0,left.jpg,,,left,1.0294,,A39VAFCIGP83ER
893,68,,1.0,48.0,RUBY_THROATED_HUMMINGBIRD_1.jpg,VULTURINE_GUINEAFOWL_4.jpg,2.0,,,,A39VAFCIGP83ER
894,69,,1.0,49.0,SCARLET_TANAGER_2.jpg,NORTHERN_GANNET_2.jpg,2.0,,,,A39VAFCIGP83ER
895,70,,1.0,50.0,BALI_STARLING_1.jpg,CAPE_LONGCLAW_5.jpg,1.0,,,,A39VAFCIGP83ER
896,71,,1.0,51.0,FLAME_BOWERBIRD_3.jpg,QUETZAL_3.jpg,3.0,,,,A39VAFCIGP83ER
897,72,,1.0,52.0,PINK_ROBIN_4.jpg,SPOONBILL_3.jpg,1.0,,,,A39VAFCIGP83ER
898,73,,1.0,53.0,OVENBIRD_5.jpg,FAIRY_PENGUIN_1.jpg,2.0,,,,A39VAFCIGP83ER
899,74,,1.0,54.0,RED_HEADED_WOODPECKER_5.jpg,COLLARED_ARACARI_1.jpg,3.0,,,,A39VAFCIGP83ER
900,75,,1.0,55.0,PEACOCK_3.jpg,STRAWBERRY_FINCH_4.jpg,2.0,,,,A39VAFCIGP83ER
901,76,,1.0,56.0,NORTHERN_JACANA_3.jpg,SCARLET_IBIS_4.jpg,3.0,,,,A39VAFCIGP83ER
902,77,,1.0,57.0,RUFOUS_KINGFISHER_1.jpg,MAGPIE_GOOSE_3.jpg,2.0,,,,A39VAFCIGP83ER
903,78,,1.0,58.0,OCELLATED_TURKEY_1.jpg,PURPLE_SWAMPHEN_4.jpg,3.0,,,,A39VAFCIGP83ER
904,79,,1.0,59.0,DOUBLE_BRESTED_CORMARANT_5.jpg,CHINESE_POND_HERON_2.jpg,3.0,,,,A39VAFCIGP83ER
905,80,,1.0,60.0,VERMILION_FLYCATHER_3.jpg,CALIFORNIA_GULL_1.jpg,2.0,,,,A39VAFCIGP83ER
906,81,,1.0,61.0,GYRFALCON_1.jpg,FAIRY_TERN_1.jpg,3.0,,,,A39VAFCIGP83ER
907,82,,1.0,62.0,LARK_BUNTING_2.jpg,PEACOCK_1.jpg,1.0,,,,A39VAFCIGP83ER
908,83,,1.0,63.0,LITTLE_AUK_5.jpg,ORANGE_BRESTED_BUNTING_3.jpg,2.0,,,,A39VAFCIGP83ER
909,84,,1.0,64.0,IVORY_GULL_3.jpg,INDIGO_FLYCATCHER_2.jpg,1.0,,,,A39VAFCIGP83ER
910,20,,1.0,0.0,OCELLATED_TURKEY_1.jpg,PURPLE_SWAMPHEN_4.jpg,3.0,,,,A3ATB5GC4BQIH0
911,21,,1.0,1.0,SCARLET_TANAGER_2.jpg,NORTHERN_GANNET_2.jpg,2.0,,,,A3ATB5GC4BQIH0
912,22,,1.0,2.0,GRAY_KINGBIRD_5.jpg,COCK_OF_THE__ROCK_4.jpg,2.0,,,,A3ATB5GC4BQIH0
913,23,,1.0,3.0,VERMILION_FLYCATHER_3.jpg,RED_BEARDED_BEE_EATER_1.jpg,3.0,,,,A3ATB5GC4BQIH0
914,24,,1.0,4.0,MYNA_1.jpg,OSTRICH_3.jpg,1.0,,,,A3ATB5GC4BQIH0
915,25,,1.0,5.0,CRESTED_CARACARA_4.jpg,FAIRY_PENGUIN_5.jpg,1.0,,,,A3ATB5GC4BQIH0
916,26,,1.0,6.0,MALACHITE_KINGFISHER_2.jpg,GREEN_BROADBILL_5.jpg,3.0,,,,A3ATB5GC4BQIH0
917,27,,1.0,7.0,SPLENDID_WREN_1.jpg,CUBAN_TODY_4.jpg,3.0,,,,A3ATB5GC4BQIH0
918,28,,1.0,8.0,RUFOUS_KINGFISHER_1.jpg,MAGPIE_GOOSE_3.jpg,2.0,,,,A3ATB5GC4BQIH0
919,29,,1.0,9.0,PARUS_MAJOR_1.jpg,CALIFORNIA_GULL_2.jpg,2.0,,,,A3ATB5GC4BQIH0
920,30,,1.0,10.0,RUBY_THROATED_HUMMINGBIRD_1.jpg,VULTURINE_GUINEAFOWL_4.jpg,2.0,,,,A3ATB5GC4BQIH0
921,31,,1.0,11.0,ALPINE_CHOUGH_4.jpg,EUROPEAN_GOLDFINCH_3.jpg,2.0,,,,A3ATB5GC4BQIH0
922,32,left,1.0,12.0,left.jpg,,,left,0.845,,A3ATB5GC4BQIH0
923,33,,1.0,13.0,GOLDEN_CHLOROPHONIA_5.jpg,COMMON_HOUSE_MARTIN_4.jpg,2.0,,,,A3ATB5GC4BQIH0
924,34,,1.0,14.0,DOUBLE_BRESTED_CORMARANT_5.jpg,CHINESE_POND_HERON_2.jpg,3.0,,,,A3ATB5GC4BQIH0
925,35,,1.0,15.0,EASTERN_TOWEE_2.jpg,SANDHILL_CRANE_2.jpg,1.0,,,,A3ATB5GC4BQIH0
926,36,,1.0,16.0,GREY_PLOVER_1.jpg,ECUADORIAN_HILLSTAR_3.jpg,3.0,,,,A3ATB5GC4BQIH0
927,37,,1.0,17.0,MAGPIE_GOOSE_5.jpg,OYSTER_CATCHER_3.jpg,3.0,,,,A3ATB5GC4BQIH0
928,38,,1.0,18.0,ASIAN_CRESTED_IBIS_4.jpg,OYSTER_CATCHER_2.jpg,2.0,,,,A3ATB5GC4BQIH0
929,39,,1.0,19.0,RUBY_THROATED_HUMMINGBIRD_3.jpg,MYNA_5.jpg,2.0,,,,A3ATB5GC4BQIH0
930,40,,1.0,20.0,RED_HEADED_WOODPECKER_5.jpg,ASHY_STORM_PETREL_2.jpg,1.0,,,,A3ATB5GC4BQIH0
931,41,,1.0,21.0,LESSER_ADJUTANT_4.jpg,RAINBOW_LORIKEET_5.jpg,2.0,,,,A3ATB5GC4BQIH0
932,42,,1.0,22.0,GOLDEN_CHEEKED_WARBLER_2.jpg,SPOONBILL_1.jpg,1.0,,,,A3ATB5GC4BQIH0
933,43,left,1.0,23.0,left.jpg,,,left,0.86,,A3ATB5GC4BQIH0
934,44,,1.0,24.0,LITTLE_AUK_5.jpg,SANDHILL_CRANE_3.jpg,1.0,,,,A3ATB5GC4BQIH0
935,45,,1.0,25.0,INLAND_DOTTEREL_4.jpg,CRESTED_KINGFISHER_1.jpg,3.0,,,,A3ATB5GC4BQIH0
936,46,right,1.0,26.0,right.jpg,,,right,1.123,,A3ATB5GC4BQIH0
937,47,,1.0,27.0,KILLDEAR_2.jpg,PEACOCK_5.jpg,1.0,,,,A3ATB5GC4BQIH0
938,48,,1.0,28.0,IVORY_GULL_1.jpg,FAIRY_TERN_4.jpg,3.0,,,,A3ATB5GC4BQIH0
939,49,,1.0,29.0,NORTHERN_JACANA_3.jpg,AMERICAN_GOLDFINCH_4.jpg,1.0,,,,A3ATB5GC4BQIH0
940,50,,1.0,30.0,CERULEAN_WARBLER_1.jpg,AMERICAN_FLAMINGO_5.jpg,2.0,,,,A3ATB5GC4BQIH0
941,51,,1.0,31.0,AFRICAN_PIED_HORNBILL_5.jpg,KIWI_4.jpg,1.0,,,,A3ATB5GC4BQIH0
942,52,,1.0,32.0,PINK_ROBIN_4.jpg,ALBATROSS_4.jpg,2.0,,,,A3ATB5GC4BQIH0
943,53,,1.0,33.0,BALI_STARLING_1.jpg,CAPE_LONGCLAW_5.jpg,1.0,,,,A3ATB5GC4BQIH0
944,54,,1.0,34.0,WHITE_CHEEKED_TURACO_5.jpg,GREAT_POTOO_3.jpg,2.0,,,,A3ATB5GC4BQIH0
945,55,,1.0,35.0,CASSOWARY_1.jpg,ROSY_FACED_LOVEBIRD_4.jpg,1.0,,,,A3ATB5GC4BQIH0
946,56,,1.0,36.0,INDIGO_BUNTING_1.jpg,NORTHERN_GANNET_1.jpg,2.0,,,,A3ATB5GC4BQIH0
947,57,,1.0,37.0,HAWAIIAN_GOOSE_4.jpg,WATTLED_LAPWING_3.jpg,3.0,,,,A3ATB5GC4BQIH0
948,58,,1.0,38.0,CRESTED_NUTHATCH_2.jpg,AFRICAN_FIREFINCH_1.jpg,2.0,,,,A3ATB5GC4BQIH0
949,59,right,1.0,39.0,right.jpg,,,right,0.916,,A3ATB5GC4BQIH0
950,60,,1.0,40.0,EUROPEAN_TURTLE_DOVE_3.jpg,MALABAR_HORNBILL_2.jpg,3.0,,,,A3ATB5GC4BQIH0
951,61,,1.0,41.0,LARK_BUNTING_2.jpg,CACTUS_WREN_3.jpg,3.0,,,,A3ATB5GC4BQIH0
952,62,,1.0,42.0,AMERICAN_PIPIT_5.jpg,HEPATIC_TANAGER_5.jpg,3.0,,,,A3ATB5GC4BQIH0
953,63,,1.0,43.0,OVENBIRD_5.jpg,SHORT_BILLED_DOWITCHER_5.jpg,3.0,,,,A3ATB5GC4BQIH0
954,64,,1.0,44.0,PYGMY_KINGFISHER_5.jpg,GRANDALA_2.jpg,1.0,,,,A3ATB5GC4BQIH0
955,65,,1.0,45.0,KAGU_5.jpg,RED_BEARDED_BEE_EATER_3.jpg,1.0,,,,A3ATB5GC4BQIH0
956,66,,1.0,46.0,STRIPPED_SWALLOW_1.jpg,DOUBLE_BRESTED_CORMARANT_4.jpg,1.0,,,,A3ATB5GC4BQIH0
957,67,,1.0,47.0,PEACOCK_3.jpg,CHATTERING_LORY_2.jpg,3.0,,,,A3ATB5GC4BQIH0
958,68,,1.0,48.0,CHUKAR_PARTRIDGE_5.jpg,RAZORBILL_1.jpg,2.0,,,,A3ATB5GC4BQIH0
959,69,,1.0,49.0,ARARIPE_MANAKIN_4.jpg,BLACK_VULTURE_1.jpg,2.0,,,,A3ATB5GC4BQIH0
960,70,,1.0,50.0,SHOEBILL_3.jpg,BALD_EAGLE_5.jpg,3.0,,,,A3ATB5GC4BQIH0
961,71,,1.0,51.0,GYRFALCON_1.jpg,CINNAMON_ATTILA_2.jpg,2.0,,,,A3ATB5GC4BQIH0
962,72,,1.0,52.0,IVORY_GULL_3.jpg,INDIGO_FLYCATCHER_2.jpg,1.0,,,,A3ATB5GC4BQIH0
963,73,,1.0,53.0,CASPIAN_TERN_1.jpg,GREAT_GRAY_OWL_4.jpg,1.0,,,,A3ATB5GC4BQIH0
964,74,right,1.0,54.0,right.jpg,,,right,0.862,,A3ATB5GC4BQIH0
965,75,,1.0,55.0,INCA_TERN_4.jpg,BORNEAN_BRISTLEHEAD_5.jpg,3.0,,,,A3ATB5GC4BQIH0
966,76,,1.0,56.0,RUBY_THROATED_HUMMINGBIRD_2.jpg,GOLDEN_CHLOROPHONIA_2.jpg,1.0,,,,A3ATB5GC4BQIH0
967,77,,1.0,57.0,BROWN_THRASHER_3.jpg,OYSTER_CATCHER_4.jpg,2.0,,,,A3ATB5GC4BQIH0
968,78,,1.0,58.0,ASIAN_DOLLARD_BIRD_2.jpg,VIOLET_GREEN_SWALLOW_4.jpg,3.0,,,,A3ATB5GC4BQIH0
969,79,,1.0,59.0,BROWN_NOODY_3.jpg,PEACOCK_2.jpg,1.0,,,,A3ATB5GC4BQIH0
970,80,,1.0,60.0,BREWERS_BLACKBIRD_3.jpg,CAPE_LONGCLAW_2.jpg,3.0,,,,A3ATB5GC4BQIH0
971,81,,1.0,61.0,TASMANIAN_HEN_5.jpg,AFRICAN_EMERALD_CUCKOO_5.jpg,2.0,,,,A3ATB5GC4BQIH0
972,82,,1.0,62.0,FLAME_BOWERBIRD_3.jpg,INDIAN_BUSTARD_2.jpg,1.0,,,,A3ATB5GC4BQIH0
973,83,,1.0,63.0,ECUADORIAN_HILLSTAR_5.jpg,SCARLET_IBIS_2.jpg,1.0,,,,A3ATB5GC4BQIH0
974,84,,1.0,64.0,LESSER_ADJUTANT_5.jpg,RED_HEADED_WOODPECKER_1.jpg,3.0,,,,A3ATB5GC4BQIH0
975,20,,1.0,0.0,CRESTED_CARACARA_4.jpg,TOUCHAN_4.jpg,3.0,,,,A3BU8UL4W258UU
976,21,,1.0,1.0,GRAY_KINGBIRD_5.jpg,COCK_OF_THE__ROCK_4.jpg,2.0,,,,A3BU8UL4W258UU
977,22,,1.0,2.0,DOUBLE_BRESTED_CORMARANT_5.jpg,GILDED_FLICKER_2.jpg,1.0,,,,A3BU8UL4W258UU
978,23,,1.0,3.0,EASTERN_TOWEE_2.jpg,NORTHERN_BEARDLESS_TYRANNULET_5.jpg,3.0,,,,A3BU8UL4W258UU
979,24,,1.0,4.0,RUBY_THROATED_HUMMINGBIRD_2.jpg,DUSKY_ROBIN_5.jpg,3.0,,,,A3BU8UL4W258UU
980,25,,1.0,5.0,TASMANIAN_HEN_5.jpg,COPPERY_TAILED_COUCAL_1.jpg,3.0,,,,A3BU8UL4W258UU
981,26,,1.0,6.0,VERMILION_FLYCATHER_3.jpg,CALIFORNIA_GULL_1.jpg,2.0,,,,A3BU8UL4W258UU
982,27,left,1.0,7.0,left.jpg,,,left,0.497,,A3BU8UL4W258UU
983,28,,1.0,8.0,RUBY_THROATED_HUMMINGBIRD_3.jpg,NORTHERN_SHOVELER_1.jpg,3.0,,,,A3BU8UL4W258UU
984,29,,1.0,9.0,NORTHERN_JACANA_3.jpg,AMERICAN_GOLDFINCH_4.jpg,1.0,,,,A3BU8UL4W258UU
985,30,,1.0,10.0,PARUS_MAJOR_1.jpg,PINK_ROBIN_3.jpg,3.0,,,,A3BU8UL4W258UU
986,31,,1.0,11.0,INCA_TERN_4.jpg,ELLIOTS__PHEASANT_4.jpg,1.0,,,,A3BU8UL4W258UU
987,32,,1.0,12.0,FLAME_BOWERBIRD_3.jpg,BROWN_THRASHER_4.jpg,2.0,,,,A3BU8UL4W258UU
988,33,,1.0,13.0,LARK_BUNTING_2.jpg,KING_VULTURE_3.jpg,2.0,,,,A3BU8UL4W258UU
989,34,,1.0,14.0,KILLDEAR_2.jpg,AZURE_TIT_5.jpg,3.0,,,,A3BU8UL4W258UU
990,35,,1.0,15.0,IVORY_GULL_1.jpg,EASTERN_GOLDEN_WEAVER_5.jpg,2.0,,,,A3BU8UL4W258UU
991,36,,1.0,16.0,OVENBIRD_5.jpg,FAIRY_PENGUIN_1.jpg,2.0,,,,A3BU8UL4W258UU
992,37,,1.0,17.0,BALI_STARLING_1.jpg,CAPE_LONGCLAW_5.jpg,1.0,,,,A3BU8UL4W258UU
993,38,,1.0,18.0,RED_HEADED_WOODPECKER_5.jpg,ASHY_STORM_PETREL_2.jpg,1.0,,,,A3BU8UL4W258UU
994,39,,1.0,19.0,OCELLATED_TURKEY_1.jpg,CHIPPING_SPARROW_1.jpg,1.0,,,,A3BU8UL4W258UU
995,40,,1.0,20.0,CASPIAN_TERN_1.jpg,EUROPEAN_GOLDFINCH_4.jpg,2.0,,,,A3BU8UL4W258UU
996,41,right,1.0,21.0,right.jpg,,,right,0.486,,A3BU8UL4W258UU
997,42,,1.0,22.0,PINK_ROBIN_4.jpg,SPOONBILL_3.jpg,1.0,,,,A3BU8UL4W258UU
998,43,,1.0,23.0,SPLENDID_WREN_1.jpg,POMARINE_JAEGER_5.jpg,1.0,,,,A3BU8UL4W258UU
999,44,,1.0,24.0,SHOEBILL_3.jpg,BALD_EAGLE_5.jpg,3.0,,,,A3BU8UL4W258UU
1000,45,,1.0,25.0,ARARIPE_MANAKIN_4.jpg,KIWI_3.jpg,1.0,,,,A3BU8UL4W258UU
1001,46,,1.0,26.0,PYGMY_KINGFISHER_5.jpg,DOUBLE_EYED_FIG_PARROT_4.jpg,3.0,,,,A3BU8UL4W258UU
1002,47,,1.0,27.0,CRESTED_NUTHATCH_2.jpg,CANARY_1.jpg,3.0,,,,A3BU8UL4W258UU
1003,48,,1.0,28.0,BREWERS_BLACKBIRD_3.jpg,GOLDEN_CHEEKED_WARBLER_3.jpg,2.0,,,,A3BU8UL4W258UU
1004,49,,1.0,29.0,LITTLE_AUK_5.jpg,BEARDED_BELLBIRD_1.jpg,3.0,,,,A3BU8UL4W258UU
1005,50,,1.0,30.0,ECUADORIAN_HILLSTAR_5.jpg,SCARLET_IBIS_2.jpg,1.0,,,,A3BU8UL4W258UU
1006,51,,1.0,31.0,INLAND_DOTTEREL_4.jpg,NICOBAR_PIGEON_4.jpg,2.0,,,,A3BU8UL4W258UU
1007,52,right,1.0,32.0,right.jpg,,,right,0.525,,A3BU8UL4W258UU
1008,53,,1.0,33.0,PEACOCK_3.jpg,CHATTERING_LORY_2.jpg,3.0,,,,A3BU8UL4W258UU
1009,54,,1.0,34.0,ALPINE_CHOUGH_4.jpg,SNOWY_EGRET_2.jpg,1.0,,,,A3BU8UL4W258UU
1010,55,,1.0,35.0,SCARLET_TANAGER_2.jpg,BORNEAN_LEAFBIRD_1.jpg,3.0,,,,A3BU8UL4W258UU
1011,56,right,1.0,36.0,right.jpg,,,right,0.576,,A3BU8UL4W258UU
1012,57,,1.0,37.0,MYNA_1.jpg,OSTRICH_3.jpg,1.0,,,,A3BU8UL4W258UU
1013,58,,1.0,38.0,CERULEAN_WARBLER_1.jpg,BANANAQUIT_1.jpg,3.0,,,,A3BU8UL4W258UU
1014,59,,1.0,39.0,GREY_PLOVER_1.jpg,GOULDIAN_FINCH_4.jpg,2.0,,,,A3BU8UL4W258UU
1015,60,,1.0,40.0,INDIGO_BUNTING_1.jpg,DARWINS_FLYCATCHER_2.jpg,3.0,,,,A3BU8UL4W258UU
1016,61,,1.0,41.0,MAGPIE_GOOSE_5.jpg,OYSTER_CATCHER_3.jpg,3.0,,,,A3BU8UL4W258UU
1017,62,,1.0,42.0,WHITE_CHEEKED_TURACO_5.jpg,NORTHERN_MOCKINGBIRD_4.jpg,1.0,,,,A3BU8UL4W258UU
1018,63,,1.0,43.0,RUBY_THROATED_HUMMINGBIRD_1.jpg,VULTURINE_GUINEAFOWL_4.jpg,2.0,,,,A3BU8UL4W258UU
1019,64,,1.0,44.0,ASIAN_DOLLARD_BIRD_2.jpg,ALBATROSS_2.jpg,1.0,,,,A3BU8UL4W258UU
1020,65,,1.0,45.0,EUROPEAN_TURTLE_DOVE_3.jpg,TEAL_DUCK_2.jpg,1.0,,,,A3BU8UL4W258UU
1021,66,,1.0,46.0,AMERICAN_PIPIT_5.jpg,GREEN_MAGPIE_1.jpg,2.0,,,,A3BU8UL4W258UU
1022,67,,1.0,47.0,HAWAIIAN_GOOSE_4.jpg,HIMALAYAN_MONAL_2.jpg,2.0,,,,A3BU8UL4W258UU
1023,68,,1.0,48.0,IVORY_GULL_3.jpg,INDIGO_FLYCATCHER_2.jpg,1.0,,,,A3BU8UL4W258UU
1024,69,right,1.0,49.0,right.jpg,,,right,0.376,,A3BU8UL4W258UU
1025,70,,1.0,50.0,ASIAN_CRESTED_IBIS_4.jpg,IVORY_GULL_2.jpg,3.0,,,,A3BU8UL4W258UU
1026,71,,1.0,51.0,CASSOWARY_1.jpg,AFRICAN_OYSTER_CATCHER_2.jpg,3.0,,,,A3BU8UL4W258UU
1027,72,,1.0,52.0,BROWN_NOODY_3.jpg,GUINEA_TURACO_5.jpg,3.0,,,,A3BU8UL4W258UU
1028,73,,1.0,53.0,STRIPPED_SWALLOW_1.jpg,MAGPIE_GOOSE_4.jpg,2.0,,,,A3BU8UL4W258UU
1029,74,,1.0,54.0,MALACHITE_KINGFISHER_2.jpg,AMERICAN_FLAMINGO_1.jpg,1.0,,,,A3BU8UL4W258UU
1030,75,,1.0,55.0,BROWN_THRASHER_3.jpg,OYSTER_CATCHER_4.jpg,2.0,,,,A3BU8UL4W258UU
1031,76,,1.0,56.0,LESSER_ADJUTANT_4.jpg,RAINBOW_LORIKEET_5.jpg,2.0,,,,A3BU8UL4W258UU
1032,77,,1.0,57.0,GOLDEN_CHLOROPHONIA_5.jpg,COMMON_HOUSE_MARTIN_4.jpg,2.0,,,,A3BU8UL4W258UU
1033,78,,1.0,58.0,KAGU_5.jpg,ASHY_STORM_PETREL_1.jpg,2.0,,,,A3BU8UL4W258UU
1034,79,,1.0,59.0,RUFOUS_KINGFISHER_1.jpg,HORNED_SUNGEM_4.jpg,3.0,,,,A3BU8UL4W258UU
1035,80,,1.0,60.0,GOLDEN_CHEEKED_WARBLER_2.jpg,SPOONBILL_1.jpg,1.0,,,,A3BU8UL4W258UU
1036,81,,1.0,61.0,CHUKAR_PARTRIDGE_5.jpg,RAZORBILL_1.jpg,2.0,,,,A3BU8UL4W258UU
1037,82,,1.0,62.0,GYRFALCON_1.jpg,OSTRICH_1.jpg,1.0,,,,A3BU8UL4W258UU
1038,83,,1.0,63.0,AFRICAN_PIED_HORNBILL_5.jpg,ALEXANDRINE_PARAKEET_1.jpg,2.0,,,,A3BU8UL4W258UU
1039,84,,1.0,64.0,LESSER_ADJUTANT_5.jpg,GREEN_BROADBILL_4.jpg,1.0,,,,A3BU8UL4W258UU
1040,20,,1.0,0.0,FLAME_BOWERBIRD_3.jpg,INDIAN_BUSTARD_2.jpg,1.0,,,,A3CH1Z6J9R38G9
1041,21,,1.0,1.0,MAGPIE_GOOSE_5.jpg,HAMERKOP_1.jpg,2.0,,,,A3CH1Z6J9R38G9
1042,22,,1.0,2.0,CASPIAN_TERN_1.jpg,EUROPEAN_GOLDFINCH_4.jpg,2.0,,,,A3CH1Z6J9R38G9
1043,23,,1.0,3.0,WHITE_CHEEKED_TURACO_5.jpg,GREAT_POTOO_3.jpg,2.0,,,,A3CH1Z6J9R38G9
1044,24,,1.0,4.0,CERULEAN_WARBLER_1.jpg,BANANAQUIT_1.jpg,3.0,,,,A3CH1Z6J9R38G9
1045,25,,1.0,5.0,CHUKAR_PARTRIDGE_5.jpg,RAZORBILL_1.jpg,2.0,,,,A3CH1Z6J9R38G9
1046,26,,1.0,6.0,SPLENDID_WREN_1.jpg,POMARINE_JAEGER_5.jpg,1.0,,,,A3CH1Z6J9R38G9
1047,27,,1.0,7.0,BREWERS_BLACKBIRD_3.jpg,GUINEA_TURACO_3.jpg,1.0,,,,A3CH1Z6J9R38G9
1048,28,,1.0,8.0,ARARIPE_MANAKIN_4.jpg,BORNEAN_LEAFBIRD_3.jpg,3.0,,,,A3CH1Z6J9R38G9
1049,29,,1.0,9.0,OCELLATED_TURKEY_1.jpg,CHIPPING_SPARROW_1.jpg,1.0,,,,A3CH1Z6J9R38G9
1050,30,,1.0,10.0,HAWAIIAN_GOOSE_4.jpg,WATTLED_LAPWING_3.jpg,3.0,,,,A3CH1Z6J9R38G9
1051,31,,1.0,11.0,LARK_BUNTING_2.jpg,PEACOCK_1.jpg,1.0,,,,A3CH1Z6J9R38G9
1052,32,,1.0,12.0,NORTHERN_JACANA_3.jpg,CRAB_PLOVER_3.jpg,2.0,,,,A3CH1Z6J9R38G9
1053,33,,1.0,13.0,MALACHITE_KINGFISHER_2.jpg,GREEN_BROADBILL_5.jpg,3.0,,,,A3CH1Z6J9R38G9
1054,34,left,1.0,14.0,left.jpg,,,left,0.5751,,A3CH1Z6J9R38G9
1055,35,,1.0,15.0,SCARLET_TANAGER_2.jpg,BEARDED_BARBET_2.jpg,1.0,,,,A3CH1Z6J9R38G9
1056,36,right,0.0,16.0,left.jpg,,,left,0.4817,,A3CH1Z6J9R38G9
1057,37,,1.0,17.0,LITTLE_AUK_5.jpg,SANDHILL_CRANE_3.jpg,1.0,,,,A3CH1Z6J9R38G9
1058,38,,1.0,18.0,INCA_TERN_4.jpg,ELLIOTS__PHEASANT_4.jpg,1.0,,,,A3CH1Z6J9R38G9
1059,39,,1.0,19.0,BROWN_THRASHER_3.jpg,OYSTER_CATCHER_4.jpg,2.0,,,,A3CH1Z6J9R38G9
1060,40,,1.0,20.0,BALI_STARLING_1.jpg,PURPLE_FINCH_2.jpg,2.0,,,,A3CH1Z6J9R38G9
1061,41,,1.0,21.0,EASTERN_TOWEE_2.jpg,NORTHERN_BEARDLESS_TYRANNULET_5.jpg,3.0,,,,A3CH1Z6J9R38G9
1062,42,,1.0,22.0,IVORY_GULL_3.jpg,FLAME_TANAGER_3.jpg,2.0,,,,A3CH1Z6J9R38G9
1063,43,,1.0,23.0,OVENBIRD_5.jpg,MYNA_4.jpg,1.0,,,,A3CH1Z6J9R38G9
1064,44,,1.0,24.0,ASIAN_CRESTED_IBIS_4.jpg,IVORY_GULL_2.jpg,3.0,,,,A3CH1Z6J9R38G9
1065,45,,1.0,25.0,GOLDEN_CHLOROPHONIA_5.jpg,VERMILION_FLYCATHER_5.jpg,3.0,,,,A3CH1Z6J9R38G9
1066,46,,1.0,26.0,RUBY_THROATED_HUMMINGBIRD_2.jpg,APAPANE_4.jpg,2.0,,,,A3CH1Z6J9R38G9
1067,47,,1.0,27.0,MYNA_1.jpg,GREY_PLOVER_4.jpg,2.0,,,,A3CH1Z6J9R38G9
1068,48,,1.0,28.0,SHOEBILL_3.jpg,EASTERN_MEADOWLARK_1.jpg,1.0,,,,A3CH1Z6J9R38G9
1069,49,,1.0,29.0,IVORY_GULL_1.jpg,WILSONS_BIRD_OF_PARADISE_4.jpg,1.0,,,,A3CH1Z6J9R38G9
1070,50,,1.0,30.0,KILLDEAR_2.jpg,AZURE_TIT_5.jpg,3.0,,,,A3CH1Z6J9R38G9
1071,51,,1.0,31.0,GRAY_KINGBIRD_5.jpg,AFRICAN_FIREFINCH_3.jpg,3.0,,,,A3CH1Z6J9R38G9
1072,52,,1.0,32.0,LESSER_ADJUTANT_4.jpg,FAIRY_TERN_3.jpg,3.0,,,,A3CH1Z6J9R38G9
1073,53,,1.0,33.0,CRESTED_NUTHATCH_2.jpg,CANARY_1.jpg,3.0,,,,A3CH1Z6J9R38G9
1074,54,right,1.0,34.0,right.jpg,,,right,0.5579,,A3CH1Z6J9R38G9
1075,55,,1.0,35.0,RUFOUS_KINGFISHER_1.jpg,SNOWY_OWL_5.jpg,1.0,,,,A3CH1Z6J9R38G9
1076,56,left,1.0,36.0,left.jpg,,,left,0.499,,A3CH1Z6J9R38G9
1077,57,,1.0,37.0,RUBY_THROATED_HUMMINGBIRD_1.jpg,BANANAQUIT_2.jpg,1.0,,,,A3CH1Z6J9R38G9
1078,58,,1.0,38.0,LESSER_ADJUTANT_5.jpg,GREEN_BROADBILL_4.jpg,1.0,,,,A3CH1Z6J9R38G9
1079,59,,1.0,39.0,INDIGO_BUNTING_1.jpg,FRIGATE_4.jpg,1.0,,,,A3CH1Z6J9R38G9
1080,60,,1.0,40.0,ASIAN_DOLLARD_BIRD_2.jpg,ALBATROSS_2.jpg,1.0,,,,A3CH1Z6J9R38G9
1081,61,,1.0,41.0,INLAND_DOTTEREL_4.jpg,NICOBAR_PIGEON_4.jpg,2.0,,,,A3CH1Z6J9R38G9
1082,62,,1.0,42.0,PINK_ROBIN_4.jpg,SPOONBILL_3.jpg,1.0,,,,A3CH1Z6J9R38G9
1083,63,,1.0,43.0,EUROPEAN_TURTLE_DOVE_3.jpg,MALABAR_HORNBILL_2.jpg,3.0,,,,A3CH1Z6J9R38G9
1084,64,,1.0,44.0,AMERICAN_PIPIT_5.jpg,HEPATIC_TANAGER_5.jpg,3.0,,,,A3CH1Z6J9R38G9
1085,65,,1.0,45.0,GOLDEN_CHEEKED_WARBLER_2.jpg,HOUSE_FINCH_2.jpg,2.0,,,,A3CH1Z6J9R38G9
1086,66,right,1.0,46.0,right.jpg,,,right,0.5579,,A3CH1Z6J9R38G9
1087,67,,1.0,47.0,RUBY_THROATED_HUMMINGBIRD_3.jpg,NORTHERN_SHOVELER_1.jpg,3.0,,,,A3CH1Z6J9R38G9
1088,68,,1.0,48.0,PARUS_MAJOR_1.jpg,PINK_ROBIN_3.jpg,3.0,,,,A3CH1Z6J9R38G9
1089,69,,1.0,49.0,ECUADORIAN_HILLSTAR_5.jpg,BOBOLINK_5.jpg,2.0,,,,A3CH1Z6J9R38G9
1090,70,,1.0,50.0,TASMANIAN_HEN_5.jpg,COPPERY_TAILED_COUCAL_1.jpg,3.0,,,,A3CH1Z6J9R38G9
1091,71,,1.0,51.0,AFRICAN_PIED_HORNBILL_5.jpg,ALEXANDRINE_PARAKEET_1.jpg,2.0,,,,A3CH1Z6J9R38G9
1092,72,,1.0,52.0,DOUBLE_BRESTED_CORMARANT_5.jpg,EURASIAN_MAGPIE_4.jpg,2.0,,,,A3CH1Z6J9R38G9
1093,73,,1.0,53.0,ALPINE_CHOUGH_4.jpg,EUROPEAN_GOLDFINCH_3.jpg,2.0,,,,A3CH1Z6J9R38G9
1094,74,,1.0,54.0,PYGMY_KINGFISHER_5.jpg,DOUBLE_EYED_FIG_PARROT_4.jpg,3.0,,,,A3CH1Z6J9R38G9
1095,75,,1.0,55.0,VERMILION_FLYCATHER_3.jpg,CALIFORNIA_GULL_1.jpg,2.0,,,,A3CH1Z6J9R38G9
1096,76,,1.0,56.0,CRESTED_CARACARA_4.jpg,FAIRY_PENGUIN_5.jpg,1.0,,,,A3CH1Z6J9R38G9
1097,77,,1.0,57.0,GREY_PLOVER_1.jpg,ECUADORIAN_HILLSTAR_3.jpg,3.0,,,,A3CH1Z6J9R38G9
1098,78,,1.0,58.0,RED_HEADED_WOODPECKER_5.jpg,ASHY_STORM_PETREL_2.jpg,1.0,,,,A3CH1Z6J9R38G9
1099,79,,1.0,59.0,STRIPPED_SWALLOW_1.jpg,DOUBLE_BRESTED_CORMARANT_4.jpg,1.0,,,,A3CH1Z6J9R38G9
1100,80,,1.0,60.0,GYRFALCON_1.jpg,CINNAMON_ATTILA_2.jpg,2.0,,,,A3CH1Z6J9R38G9
1101,81,,1.0,61.0,BROWN_NOODY_3.jpg,GUINEA_TURACO_5.jpg,3.0,,,,A3CH1Z6J9R38G9
1102,82,,1.0,62.0,PEACOCK_3.jpg,STRAWBERRY_FINCH_4.jpg,2.0,,,,A3CH1Z6J9R38G9
1103,83,,1.0,63.0,CASSOWARY_1.jpg,AFRICAN_OYSTER_CATCHER_2.jpg,3.0,,,,A3CH1Z6J9R38G9
1104,84,,1.0,64.0,KAGU_5.jpg,ASHY_STORM_PETREL_1.jpg,2.0,,,,A3CH1Z6J9R38G9
1105,20,,1.0,0.0,AMERICAN_PIPIT_5.jpg,HEPATIC_TANAGER_5.jpg,3.0,,,,A3KP8KFGG6734Q
1106,21,,1.0,1.0,CRESTED_CARACARA_4.jpg,FAIRY_PENGUIN_5.jpg,1.0,,,,A3KP8KFGG6734Q
1107,22,,1.0,2.0,NORTHERN_JACANA_3.jpg,CRAB_PLOVER_3.jpg,2.0,,,,A3KP8KFGG6734Q
1108,23,,1.0,3.0,SHOEBILL_3.jpg,EASTERN_MEADOWLARK_1.jpg,1.0,,,,A3KP8KFGG6734Q
1109,24,,1.0,4.0,ASIAN_DOLLARD_BIRD_2.jpg,ALBATROSS_2.jpg,1.0,,,,A3KP8KFGG6734Q
1110,25,,1.0,5.0,CRESTED_NUTHATCH_2.jpg,CANARY_1.jpg,3.0,,,,A3KP8KFGG6734Q
1111,26,,1.0,6.0,RUBY_THROATED_HUMMINGBIRD_3.jpg,MALAGASY_WHITE_EYE_2.jpg,1.0,,,,A3KP8KFGG6734Q
1112,27,,1.0,7.0,RUBY_THROATED_HUMMINGBIRD_2.jpg,DUSKY_ROBIN_5.jpg,3.0,,,,A3KP8KFGG6734Q
1113,28,,1.0,8.0,RED_HEADED_WOODPECKER_5.jpg,CRIMSON_CHAT_3.jpg,2.0,,,,A3KP8KFGG6734Q
1114,29,,1.0,9.0,GOLDEN_CHEEKED_WARBLER_2.jpg,WHITE_THROATED_BEE_EATER_1.jpg,3.0,,,,A3KP8KFGG6734Q
1115,30,,1.0,10.0,BROWN_NOODY_3.jpg,SPANGLED_COTINGA_4.jpg,2.0,,,,A3KP8KFGG6734Q
1116,31,left,1.0,11.0,left.jpg,,,left,0.9569,,A3KP8KFGG6734Q
1117,32,,1.0,12.0,LESSER_ADJUTANT_5.jpg,GREEN_BROADBILL_4.jpg,1.0,,,,A3KP8KFGG6734Q
1118,33,,1.0,13.0,CERULEAN_WARBLER_1.jpg,AMERICAN_FLAMINGO_5.jpg,2.0,,,,A3KP8KFGG6734Q
1119,34,,1.0,14.0,MALACHITE_KINGFISHER_2.jpg,GREEN_BROADBILL_5.jpg,3.0,,,,A3KP8KFGG6734Q
1120,35,,1.0,15.0,PYGMY_KINGFISHER_5.jpg,GRANDALA_2.jpg,1.0,,,,A3KP8KFGG6734Q
1121,36,right,1.0,16.0,right.jpg,,,right,0.7444,,A3KP8KFGG6734Q
1122,37,,1.0,17.0,EUROPEAN_TURTLE_DOVE_3.jpg,PAINTED_BUNTING_3.jpg,2.0,,,,A3KP8KFGG6734Q
1123,38,,1.0,18.0,HAWAIIAN_GOOSE_4.jpg,HIMALAYAN_MONAL_2.jpg,2.0,,,,A3KP8KFGG6734Q
1124,39,,1.0,19.0,PEACOCK_3.jpg,CHATTERING_LORY_2.jpg,3.0,,,,A3KP8KFGG6734Q
1125,40,,1.0,20.0,IVORY_GULL_1.jpg,EASTERN_GOLDEN_WEAVER_5.jpg,2.0,,,,A3KP8KFGG6734Q
1126,41,,1.0,21.0,WHITE_CHEEKED_TURACO_5.jpg,PYGMY_KINGFISHER_2.jpg,3.0,,,,A3KP8KFGG6734Q
1127,42,,1.0,22.0,GYRFALCON_1.jpg,CINNAMON_ATTILA_2.jpg,2.0,,,,A3KP8KFGG6734Q
1128,43,,1.0,23.0,BALI_STARLING_1.jpg,IBERIAN_MAGPIE_1.jpg,3.0,,,,A3KP8KFGG6734Q
1129,44,,1.0,24.0,RUBY_THROATED_HUMMINGBIRD_1.jpg,VULTURINE_GUINEAFOWL_4.jpg,2.0,,,,A3KP8KFGG6734Q
1130,45,,1.0,25.0,LITTLE_AUK_5.jpg,ORANGE_BRESTED_BUNTING_3.jpg,2.0,,,,A3KP8KFGG6734Q
1131,46,,1.0,26.0,RUFOUS_KINGFISHER_1.jpg,MAGPIE_GOOSE_3.jpg,2.0,,,,A3KP8KFGG6734Q
1132,47,,1.0,27.0,IVORY_GULL_3.jpg,SNOWY_EGRET_4.jpg,3.0,,,,A3KP8KFGG6734Q
1133,48,,1.0,28.0,OCELLATED_TURKEY_1.jpg,CHIPPING_SPARROW_1.jpg,1.0,,,,A3KP8KFGG6734Q
1134,49,,1.0,29.0,KILLDEAR_2.jpg,AZURE_TIT_5.jpg,3.0,,,,A3KP8KFGG6734Q
1135,50,,1.0,30.0,INCA_TERN_4.jpg,ELLIOTS__PHEASANT_4.jpg,1.0,,,,A3KP8KFGG6734Q
1136,51,,1.0,31.0,SPLENDID_WREN_1.jpg,POMARINE_JAEGER_5.jpg,1.0,,,,A3KP8KFGG6734Q
1137,52,,1.0,32.0,SCARLET_TANAGER_2.jpg,BEARDED_BARBET_2.jpg,1.0,,,,A3KP8KFGG6734Q
1138,53,left,1.0,33.0,left.jpg,,,left,0.6647,,A3KP8KFGG6734Q
1139,54,,1.0,34.0,TASMANIAN_HEN_5.jpg,GREEN_BROADBILL_1.jpg,1.0,,,,A3KP8KFGG6734Q
1140,55,,1.0,35.0,LESSER_ADJUTANT_4.jpg,RAINBOW_LORIKEET_5.jpg,2.0,,,,A3KP8KFGG6734Q
1141,56,,1.0,36.0,ECUADORIAN_HILLSTAR_5.jpg,SCARLET_IBIS_2.jpg,1.0,,,,A3KP8KFGG6734Q
1142,57,left,1.0,37.0,left.jpg,,,left,0.8398,,A3KP8KFGG6734Q
1143,58,,1.0,38.0,INLAND_DOTTEREL_4.jpg,CRESTED_KINGFISHER_1.jpg,3.0,,,,A3KP8KFGG6734Q
1144,59,,1.0,39.0,BROWN_THRASHER_3.jpg,BLACK_BAZA_4.jpg,3.0,,,,A3KP8KFGG6734Q
1145,60,,1.0,40.0,BREWERS_BLACKBIRD_3.jpg,GOLDEN_CHEEKED_WARBLER_3.jpg,2.0,,,,A3KP8KFGG6734Q
1146,61,,1.0,41.0,PINK_ROBIN_4.jpg,COMMON_IORA_4.jpg,3.0,,,,A3KP8KFGG6734Q
1147,62,,1.0,42.0,MAGPIE_GOOSE_5.jpg,DOUBLE_EYED_FIG_PARROT_5.jpg,1.0,,,,A3KP8KFGG6734Q
1148,63,,1.0,43.0,KAGU_5.jpg,ASHY_STORM_PETREL_1.jpg,2.0,,,,A3KP8KFGG6734Q
1149,64,,1.0,44.0,GRAY_KINGBIRD_5.jpg,AFRICAN_FIREFINCH_3.jpg,3.0,,,,A3KP8KFGG6734Q
1150,65,,1.0,45.0,DOUBLE_BRESTED_CORMARANT_5.jpg,GILDED_FLICKER_2.jpg,1.0,,,,A3KP8KFGG6734Q
1151,66,,1.0,46.0,CASPIAN_TERN_1.jpg,COMMON_LOON_2.jpg,3.0,,,,A3KP8KFGG6734Q
1152,67,,1.0,47.0,STRIPPED_SWALLOW_1.jpg,MAGPIE_GOOSE_4.jpg,2.0,,,,A3KP8KFGG6734Q
1153,68,,1.0,48.0,GOLDEN_CHLOROPHONIA_5.jpg,COMMON_HOUSE_MARTIN_4.jpg,2.0,,,,A3KP8KFGG6734Q
1154,69,,1.0,49.0,AFRICAN_PIED_HORNBILL_5.jpg,ALEXANDRINE_PARAKEET_1.jpg,2.0,,,,A3KP8KFGG6734Q
1155,70,,1.0,50.0,ALPINE_CHOUGH_4.jpg,BOBOLINK_3.jpg,3.0,,,,A3KP8KFGG6734Q
1156,71,,1.0,51.0,ASIAN_CRESTED_IBIS_4.jpg,CANARY_2.jpg,1.0,,,,A3KP8KFGG6734Q
1157,72,left,1.0,52.0,left.jpg,,,left,0.7682,,A3KP8KFGG6734Q
1158,73,,1.0,53.0,LARK_BUNTING_2.jpg,PEACOCK_1.jpg,1.0,,,,A3KP8KFGG6734Q
1159,74,,1.0,54.0,CHUKAR_PARTRIDGE_5.jpg,BLACK_THROATED_BUSHTIT_1.jpg,3.0,,,,A3KP8KFGG6734Q
1160,75,,1.0,55.0,OVENBIRD_5.jpg,MYNA_4.jpg,1.0,,,,A3KP8KFGG6734Q
1161,76,,1.0,56.0,ARARIPE_MANAKIN_4.jpg,KIWI_3.jpg,1.0,,,,A3KP8KFGG6734Q
1162,77,,1.0,57.0,PARUS_MAJOR_1.jpg,SANDHILL_CRANE_4.jpg,1.0,,,,A3KP8KFGG6734Q
1163,78,,1.0,58.0,FLAME_BOWERBIRD_3.jpg,BROWN_THRASHER_4.jpg,2.0,,,,A3KP8KFGG6734Q
1164,79,,1.0,59.0,CASSOWARY_1.jpg,ROSY_FACED_LOVEBIRD_4.jpg,1.0,,,,A3KP8KFGG6734Q
1165,80,,1.0,60.0,INDIGO_BUNTING_1.jpg,DARWINS_FLYCATCHER_2.jpg,3.0,,,,A3KP8KFGG6734Q
1166,81,,1.0,61.0,MYNA_1.jpg,GREY_PLOVER_4.jpg,2.0,,,,A3KP8KFGG6734Q
1167,82,,1.0,62.0,EASTERN_TOWEE_2.jpg,GOLDEN_CHLOROPHONIA_1.jpg,2.0,,,,A3KP8KFGG6734Q
1168,83,,1.0,63.0,GREY_PLOVER_1.jpg,ECUADORIAN_HILLSTAR_3.jpg,3.0,,,,A3KP8KFGG6734Q
1169,84,,1.0,64.0,VERMILION_FLYCATHER_3.jpg,RED_BEARDED_BEE_EATER_1.jpg,3.0,,,,A3KP8KFGG6734Q
1170,20,,1.0,0.0,CASSOWARY_1.jpg,SCARLET_MACAW_1.jpg,2.0,,,,A3SKE5B27HLVO6
1171,21,,1.0,1.0,CRESTED_CARACARA_4.jpg,TOUCHAN_4.jpg,3.0,,,,A3SKE5B27HLVO6
1172,22,,1.0,2.0,LESSER_ADJUTANT_5.jpg,GREEN_BROADBILL_4.jpg,1.0,,,,A3SKE5B27HLVO6
1173,23,,1.0,3.0,CRESTED_NUTHATCH_2.jpg,SCARLET_IBIS_3.jpg,1.0,,,,A3SKE5B27HLVO6
1174,24,,1.0,4.0,BROWN_THRASHER_3.jpg,BLACK_BAZA_4.jpg,3.0,,,,A3SKE5B27HLVO6
1175,25,,1.0,5.0,INDIGO_BUNTING_1.jpg,FRIGATE_4.jpg,1.0,,,,A3SKE5B27HLVO6
1176,26,,1.0,6.0,ARARIPE_MANAKIN_4.jpg,BLACK_VULTURE_1.jpg,2.0,,,,A3SKE5B27HLVO6
1177,27,right,1.0,7.0,right.jpg,,,right,2.289,,A3SKE5B27HLVO6
1178,28,,1.0,8.0,RED_HEADED_WOODPECKER_5.jpg,COLLARED_ARACARI_1.jpg,3.0,,,,A3SKE5B27HLVO6
1179,29,,1.0,9.0,IVORY_GULL_3.jpg,INDIGO_FLYCATCHER_2.jpg,1.0,,,,A3SKE5B27HLVO6
1180,30,,1.0,10.0,EASTERN_TOWEE_2.jpg,GOLDEN_CHLOROPHONIA_1.jpg,2.0,,,,A3SKE5B27HLVO6
1181,31,,1.0,11.0,CHUKAR_PARTRIDGE_5.jpg,BLACK_THROATED_BUSHTIT_1.jpg,3.0,,,,A3SKE5B27HLVO6
1182,32,,1.0,12.0,MALACHITE_KINGFISHER_2.jpg,GREEN_BROADBILL_5.jpg,3.0,,,,A3SKE5B27HLVO6
1183,33,,1.0,13.0,GOLDEN_CHEEKED_WARBLER_2.jpg,HOUSE_FINCH_2.jpg,2.0,,,,A3SKE5B27HLVO6
1184,34,,1.0,14.0,KAGU_5.jpg,RED_BEARDED_BEE_EATER_3.jpg,1.0,,,,A3SKE5B27HLVO6
1185,35,,1.0,15.0,WHITE_CHEEKED_TURACO_5.jpg,PYGMY_KINGFISHER_2.jpg,3.0,,,,A3SKE5B27HLVO6
1186,36,,1.0,16.0,VERMILION_FLYCATHER_3.jpg,INDIAN_BUSTARD_1.jpg,1.0,,,,A3SKE5B27HLVO6
1187,37,right,1.0,17.0,right.jpg,,,right,1.062,,A3SKE5B27HLVO6
1188,38,,1.0,18.0,PARUS_MAJOR_1.jpg,PINK_ROBIN_3.jpg,3.0,,,,A3SKE5B27HLVO6
1189,39,,1.0,19.0,CERULEAN_WARBLER_1.jpg,AMERICAN_FLAMINGO_2.jpg,1.0,,,,A3SKE5B27HLVO6
1190,40,,1.0,20.0,RUBY_THROATED_HUMMINGBIRD_3.jpg,NORTHERN_SHOVELER_1.jpg,3.0,,,,A3SKE5B27HLVO6
1191,41,,1.0,21.0,SHOEBILL_3.jpg,EASTERN_MEADOWLARK_1.jpg,1.0,,,,A3SKE5B27HLVO6
1192,42,,1.0,22.0,LESSER_ADJUTANT_4.jpg,ALTAMIRA_YELLOWTHROAT_5.jpg,1.0,,,,A3SKE5B27HLVO6
1193,43,,1.0,23.0,TASMANIAN_HEN_5.jpg,AFRICAN_EMERALD_CUCKOO_5.jpg,2.0,,,,A3SKE5B27HLVO6
1194,44,,1.0,24.0,LITTLE_AUK_5.jpg,ORANGE_BRESTED_BUNTING_3.jpg,2.0,,,,A3SKE5B27HLVO6
1195,45,,1.0,25.0,ASIAN_CRESTED_IBIS_4.jpg,CANARY_2.jpg,1.0,,,,A3SKE5B27HLVO6
1196,46,,1.0,26.0,RUFOUS_KINGFISHER_1.jpg,SNOWY_OWL_5.jpg,1.0,,,,A3SKE5B27HLVO6
1197,47,,1.0,27.0,PEACOCK_3.jpg,STRAWBERRY_FINCH_4.jpg,2.0,,,,A3SKE5B27HLVO6
1198,48,,1.0,28.0,BREWERS_BLACKBIRD_3.jpg,GOLDEN_CHEEKED_WARBLER_3.jpg,2.0,,,,A3SKE5B27HLVO6
1199,49,,1.0,29.0,ECUADORIAN_HILLSTAR_5.jpg,CRIMSON_SUNBIRD_5.jpg,3.0,,,,A3SKE5B27HLVO6
1200,50,left,1.0,30.0,left.jpg,,,left,1.712,,A3SKE5B27HLVO6
1201,51,,1.0,31.0,SPLENDID_WREN_1.jpg,CUBAN_TODY_4.jpg,3.0,,,,A3SKE5B27HLVO6
1202,52,,1.0,32.0,INCA_TERN_4.jpg,SMITHS_LONGSPUR_5.jpg,2.0,,,,A3SKE5B27HLVO6
1203,53,,1.0,33.0,EUROPEAN_TURTLE_DOVE_3.jpg,MALABAR_HORNBILL_2.jpg,3.0,,,,A3SKE5B27HLVO6
1204,54,,1.0,34.0,BROWN_NOODY_3.jpg,PEACOCK_2.jpg,1.0,,,,A3SKE5B27HLVO6
1205,55,,1.0,35.0,NORTHERN_JACANA_3.jpg,CRAB_PLOVER_3.jpg,2.0,,,,A3SKE5B27HLVO6
1206,56,,1.0,36.0,AMERICAN_PIPIT_5.jpg,GREEN_MAGPIE_1.jpg,2.0,,,,A3SKE5B27HLVO6
1207,57,,1.0,37.0,HAWAIIAN_GOOSE_4.jpg,HIMALAYAN_MONAL_2.jpg,2.0,,,,A3SKE5B27HLVO6
1208,58,,1.0,38.0,RUBY_THROATED_HUMMINGBIRD_1.jpg,BANANAQUIT_2.jpg,1.0,,,,A3SKE5B27HLVO6
1209,59,,1.0,39.0,SCARLET_TANAGER_2.jpg,BORNEAN_LEAFBIRD_1.jpg,3.0,,,,A3SKE5B27HLVO6
1210,60,,1.0,40.0,OVENBIRD_5.jpg,SHORT_BILLED_DOWITCHER_5.jpg,3.0,,,,A3SKE5B27HLVO6
1211,61,,1.0,41.0,PINK_ROBIN_4.jpg,COMMON_IORA_4.jpg,3.0,,,,A3SKE5B27HLVO6
1212,62,,1.0,42.0,STRIPPED_SWALLOW_1.jpg,GO_AWAY_BIRD_5.jpg,3.0,,,,A3SKE5B27HLVO6
1213,63,left,1.0,43.0,left.jpg,,,left,1.226,,A3SKE5B27HLVO6
1214,64,,1.0,44.0,MAGPIE_GOOSE_5.jpg,HAMERKOP_1.jpg,2.0,,,,A3SKE5B27HLVO6
1215,65,,1.0,45.0,AFRICAN_PIED_HORNBILL_5.jpg,KIWI_4.jpg,1.0,,,,A3SKE5B27HLVO6
1216,66,,1.0,46.0,KILLDEAR_2.jpg,CAATINGA_CACHOLOTE_4.jpg,2.0,,,,A3SKE5B27HLVO6
1217,67,,1.0,47.0,BALI_STARLING_1.jpg,CAPE_LONGCLAW_5.jpg,1.0,,,,A3SKE5B27HLVO6
1218,68,,1.0,48.0,MYNA_1.jpg,GREY_PLOVER_4.jpg,2.0,,,,A3SKE5B27HLVO6
1219,69,,1.0,49.0,DOUBLE_BRESTED_CORMARANT_5.jpg,GILDED_FLICKER_2.jpg,1.0,,,,A3SKE5B27HLVO6
1220,70,,1.0,50.0,LARK_BUNTING_2.jpg,CACTUS_WREN_3.jpg,3.0,,,,A3SKE5B27HLVO6
1221,71,,1.0,51.0,GRAY_KINGBIRD_5.jpg,COCK_OF_THE__ROCK_4.jpg,2.0,,,,A3SKE5B27HLVO6
1222,72,,1.0,52.0,ASIAN_DOLLARD_BIRD_2.jpg,VIOLET_GREEN_SWALLOW_4.jpg,3.0,,,,A3SKE5B27HLVO6
1223,73,,1.0,53.0,ALPINE_CHOUGH_4.jpg,EUROPEAN_GOLDFINCH_3.jpg,2.0,,,,A3SKE5B27HLVO6
1224,74,right,1.0,54.0,right.jpg,,,right,1.398,,A3SKE5B27HLVO6
1225,75,,1.0,55.0,GYRFALCON_1.jpg,CINNAMON_ATTILA_2.jpg,2.0,,,,A3SKE5B27HLVO6
1226,76,,1.0,56.0,GREY_PLOVER_1.jpg,ECUADORIAN_HILLSTAR_3.jpg,3.0,,,,A3SKE5B27HLVO6
1227,77,,1.0,57.0,IVORY_GULL_1.jpg,WILSONS_BIRD_OF_PARADISE_4.jpg,1.0,,,,A3SKE5B27HLVO6
1228,78,,1.0,58.0,OCELLATED_TURKEY_1.jpg,CHIPPING_SPARROW_1.jpg,1.0,,,,A3SKE5B27HLVO6
1229,79,,1.0,59.0,INLAND_DOTTEREL_4.jpg,CRESTED_KINGFISHER_1.jpg,3.0,,,,A3SKE5B27HLVO6
1230,80,,1.0,60.0,RUBY_THROATED_HUMMINGBIRD_2.jpg,GOLDEN_CHLOROPHONIA_2.jpg,1.0,,,,A3SKE5B27HLVO6
1231,81,,1.0,61.0,PYGMY_KINGFISHER_5.jpg,GRANDALA_2.jpg,1.0,,,,A3SKE5B27HLVO6
1232,82,,1.0,62.0,CASPIAN_TERN_1.jpg,EUROPEAN_GOLDFINCH_4.jpg,2.0,,,,A3SKE5B27HLVO6
1233,83,,1.0,63.0,FLAME_BOWERBIRD_3.jpg,BROWN_THRASHER_4.jpg,2.0,,,,A3SKE5B27HLVO6
1234,84,,1.0,64.0,GOLDEN_CHLOROPHONIA_5.jpg,VERMILION_FLYCATHER_5.jpg,3.0,,,,A3SKE5B27HLVO6
1235,20,,1.0,0.0,INLAND_DOTTEREL_4.jpg,CRESTED_KINGFISHER_1.jpg,3.0,,,,A7VA2Y4H6U31O
1236,21,,1.0,1.0,BROWN_NOODY_3.jpg,PEACOCK_2.jpg,1.0,,,,A7VA2Y4H6U31O
1237,22,,1.0,2.0,GREY_PLOVER_1.jpg,ECUADORIAN_HILLSTAR_3.jpg,3.0,,,,A7VA2Y4H6U31O
1238,23,,1.0,3.0,TASMANIAN_HEN_5.jpg,AFRICAN_EMERALD_CUCKOO_5.jpg,2.0,,,,A7VA2Y4H6U31O
1239,24,,1.0,4.0,KAGU_5.jpg,DEMOISELLE_CRANE_1.jpg,3.0,,,,A7VA2Y4H6U31O
1240,25,,1.0,5.0,CHUKAR_PARTRIDGE_5.jpg,OSTRICH_5.jpg,1.0,,,,A7VA2Y4H6U31O
1241,26,,1.0,6.0,OVENBIRD_5.jpg,FAIRY_PENGUIN_1.jpg,2.0,,,,A7VA2Y4H6U31O
1242,27,right,1.0,7.0,right.jpg,,,right,0.5436,,A7VA2Y4H6U31O
1243,28,,1.0,8.0,BROWN_THRASHER_3.jpg,BLACK_BAZA_4.jpg,3.0,,,,A7VA2Y4H6U31O
1244,29,,1.0,9.0,GYRFALCON_1.jpg,FAIRY_TERN_1.jpg,3.0,,,,A7VA2Y4H6U31O
1245,30,,1.0,10.0,CERULEAN_WARBLER_1.jpg,BANANAQUIT_1.jpg,3.0,,,,A7VA2Y4H6U31O
1246,31,,1.0,11.0,PARUS_MAJOR_1.jpg,PINK_ROBIN_3.jpg,3.0,,,,A7VA2Y4H6U31O
1247,32,,1.0,12.0,GOLDEN_CHLOROPHONIA_5.jpg,ROADRUNNER_2.jpg,1.0,,,,A7VA2Y4H6U31O
1248,33,,1.0,13.0,SCARLET_TANAGER_2.jpg,BORNEAN_LEAFBIRD_1.jpg,3.0,,,,A7VA2Y4H6U31O
1249,34,,1.0,14.0,LESSER_ADJUTANT_5.jpg,RED_HEADED_WOODPECKER_1.jpg,3.0,,,,A7VA2Y4H6U31O
