,layer,correct,test_test_response.keys,test_test_response.corr,test_test_response.rt,trials_2.thisRepN,trials_2.thisTrialN,trials_2.thisN,trials_2.thisIndex,trials_2.ran,image1,image2,subject
0,1.0,left,left,1.0,6.1472,0.0,0.0,0.0,0.0,1.0,GYRFALCON_1.jpg,OSTRICH_1.jpg,A11F3MA5FWH6SJ
1,3.0,left,left,1.0,1.8693,0.0,1.0,1.0,1.0,1.0,ASIAN_DOLLARD_BIRD_2.jpg,VIOLET_GREEN_SWALLOW_4.jpg,A11F3MA5FWH6SJ
2,1.0,right,right,1.0,2.9381,0.0,2.0,2.0,2.0,1.0,KIWI_3.jpg,ARARIPE_MANAKIN_4.jpg,A11F3MA5FWH6SJ
3,2.0,left,left,1.0,3.6978,0.0,3.0,3.0,3.0,1.0,CASSOWARY_1.jpg,SCARLET_MACAW_1.jpg,A11F3MA5FWH6SJ
4,3.0,left,right,0.0,1.7443,0.0,4.0,4.0,4.0,1.0,ALPINE_CHOUGH_4.jpg,BOBOLINK_3.jpg,A11F3MA5FWH6SJ
5,2.0,left,left,1.0,1.744,0.0,5.0,5.0,5.0,1.0,STRIPPED_SWALLOW_1.jpg,MAGPIE_GOOSE_4.jpg,A11F3MA5FWH6SJ
6,2.0,left,left,1.0,1.7469,0.0,6.0,6.0,6.0,1.0,AFRICAN_PIED_HORNBILL_5.jpg,ALEXANDRINE_PARAKEET_1.jpg,A11F3MA5FWH6SJ
7,3.0,right,right,1.0,1.16,0.0,7.0,7.0,7.0,1.0,BORNEAN_LEAFBIRD_1.jpg,SCARLET_TANAGER_2.jpg,A11F3MA5FWH6SJ
8,3.0,right,right,1.0,2.0252,0.0,8.0,8.0,8.0,1.0,FRIGATE_1.jpg,RUBY_THROATED_HUMMINGBIRD_1.jpg,A11F3MA5FWH6SJ
9,1.0,left,left,1.0,1.4638,0.0,9.0,9.0,9.0,1.0,INLAND_DOTTEREL_4.jpg,CASSOWARY_2.jpg,A11F3MA5FWH6SJ
10,1.0,left,left,1.0,1.9133,0.0,10.0,10.0,10.0,1.0,PINK_ROBIN_4.jpg,SPOONBILL_3.jpg,A11F3MA5FWH6SJ
11,2.0,right,right,1.0,1.1223,0.0,11.0,11.0,11.0,1.0,RAZORBILL_1.jpg,CHUKAR_PARTRIDGE_5.jpg,A11F3MA5FWH6SJ
12,1.0,left,left,1.0,1.7746,0.0,12.0,12.0,12.0,1.0,CRESTED_NUTHATCH_2.jpg,SCARLET_IBIS_3.jpg,A11F3MA5FWH6SJ
13,1.0,left,left,1.0,0.9219,0.0,13.0,13.0,13.0,1.0,AMERICAN_PIPIT_5.jpg,EMU_2.jpg,A11F3MA5FWH6SJ
14,2.0,left,left,1.0,6.0249,0.0,14.0,14.0,14.0,1.0,NORTHERN_JACANA_3.jpg,CRAB_PLOVER_3.jpg,A11F3MA5FWH6SJ
15,3.0,left,left,1.0,1.9152,0.0,15.0,15.0,15.0,1.0,BROWN_THRASHER_3.jpg,BLACK_BAZA_4.jpg,A11F3MA5FWH6SJ
16,2.0,right,right,1.0,2.7377,0.0,16.0,16.0,16.0,1.0,GREAT_POTOO_3.jpg,WHITE_CHEEKED_TURACO_5.jpg,A11F3MA5FWH6SJ
17,1.0,left,left,1.0,1.7942,0.0,17.0,17.0,17.0,1.0,ECUADORIAN_HILLSTAR_5.jpg,SCARLET_IBIS_2.jpg,A11F3MA5FWH6SJ
18,2.0,left,left,1.0,1.1613,0.0,18.0,18.0,18.0,1.0,GRAY_KINGBIRD_5.jpg,COCK_OF_THE__ROCK_4.jpg,A11F3MA5FWH6SJ
19,3.0,left,left,1.0,2.1035,0.0,19.0,19.0,19.0,1.0,TASMANIAN_HEN_5.jpg,COPPERY_TAILED_COUCAL_1.jpg,A11F3MA5FWH6SJ
20,2.0,right,left,0.0,1.1905,0.0,20.0,20.0,20.0,1.0,SMITHS_LONGSPUR_5.jpg,INCA_TERN_4.jpg,A11F3MA5FWH6SJ
21,2.0,right,right,1.0,0.8096,0.0,21.0,21.0,21.0,1.0,MYNA_5.jpg,RUBY_THROATED_HUMMINGBIRD_3.jpg,A11F3MA5FWH6SJ
22,2.0,left,left,1.0,1.1505,0.0,22.0,22.0,22.0,1.0,OVENBIRD_5.jpg,FAIRY_PENGUIN_1.jpg,A11F3MA5FWH6SJ
23,3.0,right,right,1.0,3.0018,0.0,23.0,23.0,23.0,1.0,BEARDED_BELLBIRD_1.jpg,LITTLE_AUK_5.jpg,A11F3MA5FWH6SJ
24,1.0,left,right,0.0,1.4315,0.0,24.0,24.0,24.0,1.0,OCELLATED_TURKEY_1.jpg,CHIPPING_SPARROW_1.jpg,A11F3MA5FWH6SJ
25,1.0,right,left,0.0,5.3934,0.0,25.0,25.0,25.0,1.0,CANARY_2.jpg,ASIAN_CRESTED_IBIS_4.jpg,A11F3MA5FWH6SJ
26,2.0,right,right,1.0,1.5238,0.0,26.0,26.0,26.0,1.0,EASTERN_GOLDEN_WEAVER_5.jpg,IVORY_GULL_1.jpg,A11F3MA5FWH6SJ
27,1.0,left,left,1.0,1.3536,0.0,27.0,27.0,27.0,1.0,GREY_PLOVER_1.jpg,HYACINTH_MACAW_3.jpg,A11F3MA5FWH6SJ
28,3.0,right,right,1.0,1.1285,0.0,28.0,28.0,28.0,1.0,IBERIAN_MAGPIE_1.jpg,BALI_STARLING_1.jpg,A11F3MA5FWH6SJ
29,3.0,left,right,0.0,3.7132,0.0,29.0,29.0,29.0,1.0,VERMILION_FLYCATHER_3.jpg,RED_BEARDED_BEE_EATER_1.jpg,A11F3MA5FWH6SJ
30,2.0,left,left,1.0,2.4987,0.0,30.0,30.0,30.0,1.0,BREWERS_BLACKBIRD_3.jpg,GOLDEN_CHEEKED_WARBLER_3.jpg,A11F3MA5FWH6SJ
31,1.0,right,right,1.0,1.5287,0.0,31.0,31.0,31.0,1.0,RED_BEARDED_BEE_EATER_3.jpg,KAGU_5.jpg,A11F3MA5FWH6SJ
32,1.0,left,left,1.0,5.918,0.0,32.0,32.0,32.0,1.0,CRESTED_CARACARA_4.jpg,FAIRY_PENGUIN_5.jpg,A11F3MA5FWH6SJ
33,2.0,left,left,1.0,1.3483,0.0,33.0,33.0,33.0,1.0,CASPIAN_TERN_1.jpg,EUROPEAN_GOLDFINCH_4.jpg,A11F3MA5FWH6SJ
34,3.0,right,left,0.0,1.1592,0.0,34.0,34.0,34.0,1.0,QUETZAL_3.jpg,FLAME_BOWERBIRD_3.jpg,A11F3MA5FWH6SJ
35,2.0,right,right,1.0,1.5675,0.0,35.0,35.0,35.0,1.0,INCA_TERN_2.jpg,MALACHITE_KINGFISHER_2.jpg,A11F3MA5FWH6SJ
36,2.0,right,left,0.0,4.7688,0.0,36.0,36.0,36.0,1.0,COMMON_HOUSE_MARTIN_4.jpg,GOLDEN_CHLOROPHONIA_5.jpg,A11F3MA5FWH6SJ
37,3.0,right,right,1.0,1.2444,0.0,37.0,37.0,37.0,1.0,DUSKY_ROBIN_5.jpg,RUBY_THROATED_HUMMINGBIRD_2.jpg,A11F3MA5FWH6SJ
38,3.0,right,right,1.0,1.4955,0.0,38.0,38.0,38.0,1.0,FAIRY_TERN_3.jpg,LESSER_ADJUTANT_4.jpg,A11F3MA5FWH6SJ
39,3.0,right,right,1.0,1.8081,0.0,39.0,39.0,39.0,1.0,MALABAR_HORNBILL_2.jpg,EUROPEAN_TURTLE_DOVE_3.jpg,A11F3MA5FWH6SJ
40,3.0,left,right,0.0,0.1039,0.0,40.0,40.0,40.0,1.0,SHOEBILL_3.jpg,BALD_EAGLE_5.jpg,A11F3MA5FWH6SJ
41,3.0,right,left,0.0,1.3911,0.0,41.0,41.0,41.0,1.0,PINK_ROBIN_3.jpg,PARUS_MAJOR_1.jpg,A11F3MA5FWH6SJ
42,3.0,right,left,0.0,1.0714,0.0,42.0,42.0,42.0,1.0,WHITE_THROATED_BEE_EATER_1.jpg,GOLDEN_CHEEKED_WARBLER_2.jpg,A11F3MA5FWH6SJ
43,3.0,right,left,0.0,1.1339,0.0,43.0,43.0,43.0,1.0,AZURE_TIT_5.jpg,KILLDEAR_2.jpg,A11F3MA5FWH6SJ
44,3.0,right,right,1.0,1.1631,0.0,44.0,44.0,44.0,1.0,CHATTERING_LORY_2.jpg,PEACOCK_3.jpg,A11F3MA5FWH6SJ
45,2.0,right,right,1.0,1.1824,0.0,45.0,45.0,45.0,1.0,MASKED_BOOBY_5.jpg,PYGMY_KINGFISHER_5.jpg,A11F3MA5FWH6SJ
46,1.0,left,left,1.0,1.3759,0.0,46.0,46.0,46.0,1.0,IVORY_GULL_3.jpg,INDIGO_FLYCATCHER_2.jpg,A11F3MA5FWH6SJ
47,2.0,left,left,1.0,1.1421,0.0,47.0,47.0,47.0,1.0,HAWAIIAN_GOOSE_4.jpg,HIMALAYAN_MONAL_2.jpg,A11F3MA5FWH6SJ
48,2.0,left,right,0.0,1.3716,0.0,48.0,48.0,48.0,1.0,EASTERN_TOWEE_2.jpg,GOLDEN_CHLOROPHONIA_1.jpg,A11F3MA5FWH6SJ
49,1.0,right,right,1.0,1.435,0.0,49.0,49.0,49.0,1.0,PEACOCK_1.jpg,LARK_BUNTING_2.jpg,A11F3MA5FWH6SJ
50,3.0,left,left,1.0,2.8567,0.0,50.0,50.0,50.0,1.0,MAGPIE_GOOSE_5.jpg,OYSTER_CATCHER_3.jpg,A11F3MA5FWH6SJ
51,1.0,right,right,1.0,1.9399,0.0,51.0,51.0,51.0,1.0,GREEN_BROADBILL_4.jpg,LESSER_ADJUTANT_5.jpg,A11F3MA5FWH6SJ
52,1.0,right,left,0.0,1.7813,0.0,52.0,52.0,52.0,1.0,GILDED_FLICKER_2.jpg,DOUBLE_BRESTED_CORMARANT_5.jpg,A11F3MA5FWH6SJ
53,3.0,right,right,1.0,1.6964,0.0,53.0,53.0,53.0,1.0,CUBAN_TODY_4.jpg,SPLENDID_WREN_1.jpg,A11F3MA5FWH6SJ
54,1.0,right,right,1.0,1.5509,0.0,54.0,54.0,54.0,1.0,AMERICAN_FLAMINGO_2.jpg,CERULEAN_WARBLER_1.jpg,A11F3MA5FWH6SJ
55,2.0,right,right,1.0,2.0815,0.0,55.0,55.0,55.0,1.0,NORTHERN_GANNET_1.jpg,INDIGO_BUNTING_1.jpg,A11F3MA5FWH6SJ
56,1.0,right,right,1.0,1.2105,0.0,56.0,56.0,56.0,1.0,ASHY_STORM_PETREL_2.jpg,RED_HEADED_WOODPECKER_5.jpg,A11F3MA5FWH6SJ
57,1.0,right,right,1.0,0.821,0.0,57.0,57.0,57.0,1.0,PEACOCK_2.jpg,BROWN_NOODY_3.jpg,A11F3MA5FWH6SJ
58,1.0,left,left,1.0,2.3553,0.0,58.0,58.0,58.0,1.0,RUFOUS_KINGFISHER_1.jpg,SNOWY_OWL_5.jpg,A11F3MA5FWH6SJ
59,2.0,right,left,0.0,2.0843,0.0,59.0,59.0,59.0,1.0,GREY_PLOVER_4.jpg,MYNA_1.jpg,A11F3MA5FWH6SJ
60,2.0,left,left,1.0,2.2436,0.0,0.0,0.0,0.0,1.0,IVORY_GULL_1.jpg,EASTERN_GOLDEN_WEAVER_5.jpg,A1DZMZTXWOM9MR
61,3.0,right,right,1.0,3.0033,0.0,1.0,1.0,1.0,1.0,AZURE_TIT_5.jpg,KILLDEAR_2.jpg,A1DZMZTXWOM9MR
62,2.0,left,left,1.0,1.7927,0.0,2.0,2.0,2.0,1.0,MAGPIE_GOOSE_5.jpg,HAMERKOP_1.jpg,A1DZMZTXWOM9MR
63,3.0,right,right,1.0,1.4383,0.0,3.0,3.0,3.0,1.0,FRIGATE_1.jpg,RUBY_THROATED_HUMMINGBIRD_1.jpg,A1DZMZTXWOM9MR
64,2.0,left,left,1.0,1.8497,0.0,4.0,4.0,4.0,1.0,RUBY_THROATED_HUMMINGBIRD_3.jpg,MYNA_5.jpg,A1DZMZTXWOM9MR
65,2.0,right,right,1.0,1.9074,0.0,5.0,5.0,5.0,1.0,CALIFORNIA_GULL_1.jpg,VERMILION_FLYCATHER_3.jpg,A1DZMZTXWOM9MR
66,2.0,right,right,1.0,1.7177,0.0,6.0,6.0,6.0,1.0,KING_VULTURE_3.jpg,LARK_BUNTING_2.jpg,A1DZMZTXWOM9MR
67,3.0,right,right,1.0,1.6718,0.0,7.0,7.0,7.0,1.0,CRIMSON_SUNBIRD_5.jpg,ECUADORIAN_HILLSTAR_5.jpg,A1DZMZTXWOM9MR
68,1.0,right,left,0.0,3.3869,0.0,8.0,8.0,8.0,1.0,SANDHILL_CRANE_4.jpg,PARUS_MAJOR_1.jpg,A1DZMZTXWOM9MR
69,2.0,left,left,1.0,2.5587,0.0,9.0,9.0,9.0,1.0,STRIPPED_SWALLOW_1.jpg,MAGPIE_GOOSE_4.jpg,A1DZMZTXWOM9MR
70,2.0,right,right,1.0,2.944,0.0,10.0,10.0,10.0,1.0,GREAT_POTOO_3.jpg,WHITE_CHEEKED_TURACO_5.jpg,A1DZMZTXWOM9MR
71,3.0,right,right,1.0,2.9985,0.0,11.0,11.0,11.0,1.0,WATTLED_LAPWING_3.jpg,HAWAIIAN_GOOSE_4.jpg,A1DZMZTXWOM9MR
72,3.0,left,left,1.0,2.7516,0.0,12.0,12.0,12.0,1.0,INDIGO_BUNTING_1.jpg,DARWINS_FLYCATCHER_2.jpg,A1DZMZTXWOM9MR
73,1.0,right,left,0.0,3.6985,0.0,13.0,13.0,13.0,1.0,GILDED_FLICKER_2.jpg,DOUBLE_BRESTED_CORMARANT_5.jpg,A1DZMZTXWOM9MR
74,3.0,right,right,1.0,2.2492,0.0,14.0,14.0,14.0,1.0,DUSKY_ROBIN_5.jpg,RUBY_THROATED_HUMMINGBIRD_2.jpg,A1DZMZTXWOM9MR
75,2.0,left,left,1.0,1.2054,0.0,15.0,15.0,15.0,1.0,PYGMY_KINGFISHER_5.jpg,MASKED_BOOBY_5.jpg,A1DZMZTXWOM9MR
76,3.0,left,left,1.0,1.9765,0.0,16.0,16.0,16.0,1.0,BREWERS_BLACKBIRD_3.jpg,CAPE_LONGCLAW_2.jpg,A1DZMZTXWOM9MR
77,2.0,left,left,1.0,1.7236,0.0,17.0,17.0,17.0,1.0,CHUKAR_PARTRIDGE_5.jpg,RAZORBILL_1.jpg,A1DZMZTXWOM9MR
78,1.0,right,right,1.0,1.9525,0.0,18.0,18.0,18.0,1.0,INDIGO_FLYCATCHER_2.jpg,IVORY_GULL_3.jpg,A1DZMZTXWOM9MR
79,1.0,left,right,0.0,1.7655,0.0,19.0,19.0,19.0,1.0,LESSER_ADJUTANT_4.jpg,ALTAMIRA_YELLOWTHROAT_5.jpg,A1DZMZTXWOM9MR
80,3.0,right,left,0.0,1.4316,0.0,20.0,20.0,20.0,1.0,TOUCHAN_4.jpg,CRESTED_CARACARA_4.jpg,A1DZMZTXWOM9MR
81,1.0,right,right,1.0,1.6156,0.0,21.0,21.0,21.0,1.0,SCARLET_IBIS_3.jpg,CRESTED_NUTHATCH_2.jpg,A1DZMZTXWOM9MR
82,1.0,right,right,1.0,1.5199,0.0,22.0,22.0,22.0,1.0,INDIAN_BUSTARD_2.jpg,FLAME_BOWERBIRD_3.jpg,A1DZMZTXWOM9MR
83,1.0,right,right,1.0,1.3853,0.0,23.0,23.0,23.0,1.0,RED_BEARDED_BEE_EATER_3.jpg,KAGU_5.jpg,A1DZMZTXWOM9MR
84,3.0,left,left,1.0,2.7825,0.0,24.0,24.0,24.0,1.0,ASIAN_CRESTED_IBIS_4.jpg,IVORY_GULL_2.jpg,A1DZMZTXWOM9MR
85,1.0,left,left,1.0,2.1033,0.0,25.0,25.0,25.0,1.0,TASMANIAN_HEN_5.jpg,GREEN_BROADBILL_1.jpg,A1DZMZTXWOM9MR
86,1.0,left,right,0.0,1.4874,0.0,26.0,26.0,26.0,1.0,AFRICAN_PIED_HORNBILL_5.jpg,KIWI_4.jpg,A1DZMZTXWOM9MR
87,2.0,left,left,1.0,2.2052,0.0,27.0,27.0,27.0,1.0,LESSER_ADJUTANT_5.jpg,GAMBELS_QUAIL_1.jpg,A1DZMZTXWOM9MR
88,3.0,right,left,0.0,1.6319,0.0,28.0,28.0,28.0,1.0,SCARLET_IBIS_4.jpg,NORTHERN_JACANA_3.jpg,A1DZMZTXWOM9MR
89,1.0,right,right,1.0,2.3499,0.0,29.0,29.0,29.0,1.0,KIWI_3.jpg,ARARIPE_MANAKIN_4.jpg,A1DZMZTXWOM9MR
90,1.0,right,left,0.0,2.3871,0.0,30.0,30.0,30.0,1.0,ROADRUNNER_2.jpg,GOLDEN_CHLOROPHONIA_5.jpg,A1DZMZTXWOM9MR
91,3.0,right,right,1.0,1.7658,0.0,31.0,31.0,31.0,1.0,PARADISE_TANAGER_3.jpg,MYNA_1.jpg,A1DZMZTXWOM9MR
92,2.0,left,left,1.0,2.1076,0.0,32.0,32.0,32.0,1.0,GOLDEN_CHEEKED_WARBLER_2.jpg,HOUSE_FINCH_2.jpg,A1DZMZTXWOM9MR
93,3.0,left,right,0.0,2.4993,0.0,33.0,33.0,33.0,1.0,LITTLE_AUK_5.jpg,BEARDED_BELLBIRD_1.jpg,A1DZMZTXWOM9MR
94,1.0,left,left,1.0,1.1867,0.0,34.0,34.0,34.0,1.0,SHOEBILL_3.jpg,EASTERN_MEADOWLARK_1.jpg,A1DZMZTXWOM9MR
95,2.0,right,right,1.0,1.2848,0.0,35.0,35.0,35.0,1.0,CINNAMON_ATTILA_2.jpg,GYRFALCON_1.jpg,A1DZMZTXWOM9MR
96,1.0,right,right,1.0,1.5065,0.0,36.0,36.0,36.0,1.0,POMARINE_JAEGER_5.jpg,SPLENDID_WREN_1.jpg,A1DZMZTXWOM9MR
97,3.0,right,right,1.0,3.1317,0.0,37.0,37.0,37.0,1.0,PURPLE_SWAMPHEN_4.jpg,OCELLATED_TURKEY_1.jpg,A1DZMZTXWOM9MR
98,2.0,right,right,1.0,3.7323,0.0,38.0,38.0,38.0,1.0,PAINTED_BUNTING_3.jpg,EUROPEAN_TURTLE_DOVE_3.jpg,A1DZMZTXWOM9MR
99,1.0,left,right,0.0,1.6658,0.0,39.0,39.0,39.0,1.0,BALI_STARLING_1.jpg,CAPE_LONGCLAW_5.jpg,A1DZMZTXWOM9MR
100,3.0,right,right,1.0,1.7019,0.0,40.0,40.0,40.0,1.0,BORNEAN_LEAFBIRD_1.jpg,SCARLET_TANAGER_2.jpg,A1DZMZTXWOM9MR
101,2.0,left,left,1.0,1.8374,0.0,41.0,41.0,41.0,1.0,INLAND_DOTTEREL_4.jpg,NICOBAR_PIGEON_4.jpg,A1DZMZTXWOM9MR
102,2.0,right,right,1.0,1.4232,0.0,42.0,42.0,42.0,1.0,SPANGLED_COTINGA_4.jpg,BROWN_NOODY_3.jpg,A1DZMZTXWOM9MR
103,1.0,left,left,1.0,1.7519,0.0,43.0,43.0,43.0,1.0,PINK_ROBIN_4.jpg,SPOONBILL_3.jpg,A1DZMZTXWOM9MR
104,1.0,right,right,1.0,1.4685,0.0,44.0,44.0,44.0,1.0,DOUBLE_EYED_FIG_PARROT_3.jpg,BROWN_THRASHER_3.jpg,A1DZMZTXWOM9MR
105,3.0,left,left,1.0,2.2655,0.0,45.0,45.0,45.0,1.0,EASTERN_TOWEE_2.jpg,NORTHERN_BEARDLESS_TYRANNULET_5.jpg,A1DZMZTXWOM9MR
106,2.0,right,right,1.0,3.9315,0.0,46.0,46.0,46.0,1.0,LOGGERHEAD_SHRIKE_4.jpg,ASIAN_DOLLARD_BIRD_2.jpg,A1DZMZTXWOM9MR
107,1.0,left,left,1.0,1.1638,0.0,47.0,47.0,47.0,1.0,PEACOCK_3.jpg,ANIANIAU_2.jpg,A1DZMZTXWOM9MR
108,1.0,right,right,1.0,1.5882,0.0,48.0,48.0,48.0,1.0,HYACINTH_MACAW_3.jpg,GREY_PLOVER_1.jpg,A1DZMZTXWOM9MR
109,2.0,right,right,1.0,1.5691,0.0,49.0,49.0,49.0,1.0,FAIRY_PENGUIN_1.jpg,OVENBIRD_5.jpg,A1DZMZTXWOM9MR
110,2.0,left,left,1.0,2.5812,0.0,50.0,50.0,50.0,1.0,ALPINE_CHOUGH_4.jpg,EUROPEAN_GOLDFINCH_3.jpg,A1DZMZTXWOM9MR
111,3.0,left,left,1.0,1.3424,0.0,51.0,51.0,51.0,1.0,RUFOUS_KINGFISHER_1.jpg,HORNED_SUNGEM_4.jpg,A1DZMZTXWOM9MR
112,3.0,right,right,1.0,1.5673,0.0,52.0,52.0,52.0,1.0,BANANAQUIT_1.jpg,CERULEAN_WARBLER_1.jpg,A1DZMZTXWOM9MR
113,1.0,left,left,1.0,1.4356,0.0,53.0,53.0,53.0,1.0,CASPIAN_TERN_1.jpg,GREAT_GRAY_OWL_4.jpg,A1DZMZTXWOM9MR
114,3.0,right,right,1.0,1.6738,0.0,54.0,54.0,54.0,1.0,HEPATIC_TANAGER_5.jpg,AMERICAN_PIPIT_5.jpg,A1DZMZTXWOM9MR
115,3.0,left,left,1.0,2.0267,0.0,55.0,55.0,55.0,1.0,CASSOWARY_1.jpg,AFRICAN_OYSTER_CATCHER_2.jpg,A1DZMZTXWOM9MR
116,2.0,left,left,1.0,1.8024,0.0,56.0,56.0,56.0,1.0,MALACHITE_KINGFISHER_2.jpg,INCA_TERN_2.jpg,A1DZMZTXWOM9MR
117,1.0,left,right,0.0,3.3986,0.0,57.0,57.0,57.0,1.0,GRAY_KINGBIRD_5.jpg,BALD_EAGLE_2.jpg,A1DZMZTXWOM9MR
118,2.0,left,left,1.0,2.0358,0.0,58.0,58.0,58.0,1.0,INCA_TERN_4.jpg,SMITHS_LONGSPUR_5.jpg,A1DZMZTXWOM9MR
119,3.0,left,left,1.0,1.4739,0.0,59.0,59.0,59.0,1.0,RED_HEADED_WOODPECKER_5.jpg,COLLARED_ARACARI_1.jpg,A1DZMZTXWOM9MR
120,1.0,right,right,1.0,2.6043,0.0,0.0,0.0,0.0,1.0,HYACINTH_MACAW_3.jpg,GREY_PLOVER_1.jpg,A1FJGB5JLZ81XB
121,1.0,right,right,1.0,1.7684,0.0,1.0,1.0,1.0,1.0,INDIAN_BUSTARD_2.jpg,FLAME_BOWERBIRD_3.jpg,A1FJGB5JLZ81XB
122,3.0,right,right,1.0,1.7681,0.0,2.0,2.0,2.0,1.0,COMMON_LOON_2.jpg,CASPIAN_TERN_1.jpg,A1FJGB5JLZ81XB
123,2.0,left,right,0.0,2.6,0.0,3.0,3.0,3.0,1.0,KILLDEAR_2.jpg,CAATINGA_CACHOLOTE_4.jpg,A1FJGB5JLZ81XB
124,3.0,right,right,1.0,1.4825,0.0,4.0,4.0,4.0,1.0,CAPUCHINBIRD_2.jpg,AFRICAN_PIED_HORNBILL_5.jpg,A1FJGB5JLZ81XB
125,1.0,right,right,1.0,1.6741,0.0,5.0,5.0,5.0,1.0,POMARINE_JAEGER_5.jpg,SPLENDID_WREN_1.jpg,A1FJGB5JLZ81XB
126,1.0,right,right,1.0,1.581,0.0,6.0,6.0,6.0,1.0,TEAL_DUCK_2.jpg,EUROPEAN_TURTLE_DOVE_3.jpg,A1FJGB5JLZ81XB
127,3.0,left,left,1.0,2.3347,0.0,7.0,7.0,7.0,1.0,ASIAN_CRESTED_IBIS_4.jpg,IVORY_GULL_2.jpg,A1FJGB5JLZ81XB
128,1.0,right,right,1.0,2.7811,0.0,8.0,8.0,8.0,1.0,ALTAMIRA_YELLOWTHROAT_5.jpg,LESSER_ADJUTANT_4.jpg,A1FJGB5JLZ81XB
129,2.0,left,left,1.0,1.5091,0.0,9.0,9.0,9.0,1.0,KAGU_5.jpg,ASHY_STORM_PETREL_1.jpg,A1FJGB5JLZ81XB
130,2.0,right,right,1.0,1.4887,0.0,10.0,10.0,10.0,1.0,MYNA_5.jpg,RUBY_THROATED_HUMMINGBIRD_3.jpg,A1FJGB5JLZ81XB
131,2.0,left,left,1.0,1.8567,0.0,11.0,11.0,11.0,1.0,SHOEBILL_3.jpg,GILDED_FLICKER_5.jpg,A1FJGB5JLZ81XB
132,1.0,right,right,1.0,2.5844,0.0,12.0,12.0,12.0,1.0,DOUBLE_EYED_FIG_PARROT_5.jpg,MAGPIE_GOOSE_5.jpg,A1FJGB5JLZ81XB
133,2.0,left,right,0.0,2.6985,0.0,13.0,13.0,13.0,1.0,GYRFALCON_1.jpg,CINNAMON_ATTILA_2.jpg,A1FJGB5JLZ81XB
134,2.0,right,left,0.0,1.7741,0.0,14.0,14.0,14.0,1.0,LOGGERHEAD_SHRIKE_4.jpg,ASIAN_DOLLARD_BIRD_2.jpg,A1FJGB5JLZ81XB
135,2.0,left,left,1.0,2.782,0.0,15.0,15.0,15.0,1.0,PINK_ROBIN_4.jpg,ALBATROSS_4.jpg,A1FJGB5JLZ81XB
136,2.0,right,right,1.0,1.392,0.0,16.0,16.0,16.0,1.0,APAPANE_4.jpg,RUBY_THROATED_HUMMINGBIRD_2.jpg,A1FJGB5JLZ81XB
137,3.0,right,right,1.0,1.9455,0.0,17.0,17.0,17.0,1.0,CHINESE_POND_HERON_2.jpg,DOUBLE_BRESTED_CORMARANT_5.jpg,A1FJGB5JLZ81XB
138,3.0,right,right,1.0,2.383,0.0,18.0,18.0,18.0,1.0,WATTLED_LAPWING_3.jpg,HAWAIIAN_GOOSE_4.jpg,A1FJGB5JLZ81XB
139,3.0,left,left,1.0,1.4728,0.0,19.0,19.0,19.0,1.0,LESSER_ADJUTANT_5.jpg,RED_HEADED_WOODPECKER_1.jpg,A1FJGB5JLZ81XB
140,3.0,right,left,0.0,2.1275,0.0,20.0,20.0,20.0,1.0,VERMILION_FLYCATHER_5.jpg,GOLDEN_CHLOROPHONIA_5.jpg,A1FJGB5JLZ81XB
141,1.0,right,right,1.0,1.4924,0.0,21.0,21.0,21.0,1.0,SANDHILL_CRANE_2.jpg,EASTERN_TOWEE_2.jpg,A1FJGB5JLZ81XB
142,1.0,left,left,1.0,1.6702,0.0,22.0,22.0,22.0,1.0,ECUADORIAN_HILLSTAR_5.jpg,SCARLET_IBIS_2.jpg,A1FJGB5JLZ81XB
143,2.0,right,right,1.0,2.1329,0.0,23.0,23.0,23.0,1.0,CALIFORNIA_GULL_2.jpg,PARUS_MAJOR_1.jpg,A1FJGB5JLZ81XB
144,1.0,left,left,1.0,1.9566,0.0,24.0,24.0,24.0,1.0,IVORY_GULL_3.jpg,INDIGO_FLYCATCHER_2.jpg,A1FJGB5JLZ81XB
145,3.0,right,right,1.0,2.4082,0.0,25.0,25.0,25.0,1.0,PURPLE_SWAMPHEN_4.jpg,OCELLATED_TURKEY_1.jpg,A1FJGB5JLZ81XB
146,3.0,left,left,1.0,2.0297,0.0,26.0,26.0,26.0,1.0,BALI_STARLING_1.jpg,IBERIAN_MAGPIE_1.jpg,A1FJGB5JLZ81XB
147,1.0,left,left,1.0,1.7806,0.0,27.0,27.0,27.0,1.0,BROWN_THRASHER_3.jpg,DOUBLE_EYED_FIG_PARROT_3.jpg,A1FJGB5JLZ81XB
148,3.0,left,left,1.0,1.9255,0.0,28.0,28.0,28.0,1.0,RED_HEADED_WOODPECKER_5.jpg,COLLARED_ARACARI_1.jpg,A1FJGB5JLZ81XB
149,2.0,right,left,0.0,2.6989,0.0,29.0,29.0,29.0,1.0,INDIAN_PITTA_2.jpg,CRESTED_CARACARA_4.jpg,A1FJGB5JLZ81XB
150,2.0,left,left,1.0,2.3275,0.0,30.0,30.0,30.0,1.0,TASMANIAN_HEN_5.jpg,AFRICAN_EMERALD_CUCKOO_5.jpg,A1FJGB5JLZ81XB
151,2.0,right,right,1.0,1.7633,0.0,31.0,31.0,31.0,1.0,SPANGLED_COTINGA_4.jpg,BROWN_NOODY_3.jpg,A1FJGB5JLZ81XB
152,3.0,right,right,1.0,1.4879,0.0,32.0,32.0,32.0,1.0,BLACK_THROATED_BUSHTIT_1.jpg,CHUKAR_PARTRIDGE_5.jpg,A1FJGB5JLZ81XB
153,2.0,right,right,1.0,2.179,0.0,33.0,33.0,33.0,1.0,MAGPIE_GOOSE_4.jpg,STRIPPED_SWALLOW_1.jpg,A1FJGB5JLZ81XB
154,2.0,right,right,1.0,1.8627,0.0,34.0,34.0,34.0,1.0,AMERICAN_FLAMINGO_5.jpg,CERULEAN_WARBLER_1.jpg,A1FJGB5JLZ81XB
155,2.0,left,left,1.0,2.5013,0.0,35.0,35.0,35.0,1.0,WHITE_CHEEKED_TURACO_5.jpg,GREAT_POTOO_3.jpg,A1FJGB5JLZ81XB
156,2.0,left,left,1.0,1.8572,0.0,36.0,36.0,36.0,1.0,MALACHITE_KINGFISHER_2.jpg,INCA_TERN_2.jpg,A1FJGB5JLZ81XB
157,3.0,left,left,1.0,2.0413,0.0,37.0,37.0,37.0,1.0,NORTHERN_JACANA_3.jpg,SCARLET_IBIS_4.jpg,A1FJGB5JLZ81XB
158,1.0,right,right,1.0,2.8504,0.0,38.0,38.0,38.0,1.0,ROSY_FACED_LOVEBIRD_4.jpg,CASSOWARY_1.jpg,A1FJGB5JLZ81XB
159,1.0,left,left,1.0,2.1354,0.0,39.0,39.0,39.0,1.0,PYGMY_KINGFISHER_5.jpg,GRANDALA_2.jpg,A1FJGB5JLZ81XB
160,3.0,left,left,1.0,2.1073,0.0,40.0,40.0,40.0,1.0,SCARLET_TANAGER_2.jpg,BORNEAN_LEAFBIRD_1.jpg,A1FJGB5JLZ81XB
161,3.0,right,right,1.0,1.4843,0.0,41.0,41.0,41.0,1.0,SHORT_BILLED_DOWITCHER_5.jpg,OVENBIRD_5.jpg,A1FJGB5JLZ81XB
162,1.0,left,left,1.0,1.3938,0.0,42.0,42.0,42.0,1.0,BREWERS_BLACKBIRD_3.jpg,GUINEA_TURACO_3.jpg,A1FJGB5JLZ81XB
163,1.0,left,left,1.0,2.1389,0.0,43.0,43.0,43.0,1.0,ARARIPE_MANAKIN_4.jpg,KIWI_3.jpg,A1FJGB5JLZ81XB
164,2.0,left,left,1.0,1.6724,0.0,44.0,44.0,44.0,1.0,LARK_BUNTING_2.jpg,KING_VULTURE_3.jpg,A1FJGB5JLZ81XB
165,1.0,left,left,1.0,2.2249,0.0,45.0,45.0,45.0,1.0,RUFOUS_KINGFISHER_1.jpg,SNOWY_OWL_5.jpg,A1FJGB5JLZ81XB
166,1.0,left,left,1.0,2.511,0.0,46.0,46.0,46.0,1.0,MYNA_1.jpg,OSTRICH_3.jpg,A1FJGB5JLZ81XB
167,3.0,left,left,1.0,1.5864,0.0,47.0,47.0,47.0,1.0,VERMILION_FLYCATHER_3.jpg,RED_BEARDED_BEE_EATER_1.jpg,A1FJGB5JLZ81XB
168,2.0,left,left,1.0,2.2059,0.0,48.0,48.0,48.0,1.0,INDIGO_BUNTING_1.jpg,NORTHERN_GANNET_1.jpg,A1FJGB5JLZ81XB
169,1.0,right,right,1.0,2.137,0.0,49.0,49.0,49.0,1.0,EMU_2.jpg,AMERICAN_PIPIT_5.jpg,A1FJGB5JLZ81XB
170,3.0,left,left,1.0,1.9525,0.0,50.0,50.0,50.0,1.0,GOLDEN_CHEEKED_WARBLER_2.jpg,WHITE_THROATED_BEE_EATER_1.jpg,A1FJGB5JLZ81XB
171,3.0,right,right,1.0,2.3111,0.0,51.0,51.0,51.0,1.0,CANARY_1.jpg,CRESTED_NUTHATCH_2.jpg,A1FJGB5JLZ81XB
172,3.0,right,right,1.0,1.6719,0.0,52.0,52.0,52.0,1.0,CRESTED_KINGFISHER_1.jpg,INLAND_DOTTEREL_4.jpg,A1FJGB5JLZ81XB
173,1.0,left,left,1.0,2.6853,0.0,53.0,53.0,53.0,1.0,IVORY_GULL_1.jpg,WILSONS_BIRD_OF_PARADISE_4.jpg,A1FJGB5JLZ81XB
174,2.0,left,left,1.0,1.5878,0.0,54.0,54.0,54.0,1.0,GRAY_KINGBIRD_5.jpg,COCK_OF_THE__ROCK_4.jpg,A1FJGB5JLZ81XB
175,3.0,right,left,0.0,1.8611,0.0,55.0,55.0,55.0,1.0,BOBOLINK_3.jpg,ALPINE_CHOUGH_4.jpg,A1FJGB5JLZ81XB
176,2.0,right,right,1.0,2.4072,0.0,56.0,56.0,56.0,1.0,STRAWBERRY_FINCH_4.jpg,PEACOCK_3.jpg,A1FJGB5JLZ81XB
177,1.0,right,right,1.0,1.579,0.0,57.0,57.0,57.0,1.0,SANDHILL_CRANE_3.jpg,LITTLE_AUK_5.jpg,A1FJGB5JLZ81XB
178,3.0,right,right,1.0,2.1349,0.0,58.0,58.0,58.0,1.0,BORNEAN_BRISTLEHEAD_5.jpg,INCA_TERN_4.jpg,A1FJGB5JLZ81XB
179,1.0,right,right,1.0,1.3338,0.0,59.0,59.0,59.0,1.0,BANANAQUIT_2.jpg,RUBY_THROATED_HUMMINGBIRD_1.jpg,A1FJGB5JLZ81XB
180,3.0,left,left,1.0,2.5458,0.0,0.0,0.0,0.0,1.0,SHOEBILL_3.jpg,BALD_EAGLE_5.jpg,A1OM5NWYYYJKQW
181,3.0,right,right,1.0,1.5254,0.0,1.0,1.0,1.0,1.0,SNOWY_EGRET_4.jpg,IVORY_GULL_3.jpg,A1OM5NWYYYJKQW
182,1.0,left,left,1.0,1.5247,0.0,2.0,2.0,2.0,1.0,OVENBIRD_5.jpg,MYNA_4.jpg,A1OM5NWYYYJKQW
183,1.0,left,left,1.0,2.0813,0.0,3.0,3.0,3.0,1.0,BALI_STARLING_1.jpg,CAPE_LONGCLAW_5.jpg,A1OM5NWYYYJKQW
184,1.0,left,right,0.0,2.725,0.0,4.0,4.0,4.0,1.0,CHUKAR_PARTRIDGE_5.jpg,OSTRICH_5.jpg,A1OM5NWYYYJKQW
185,2.0,left,left,1.0,3.969,0.0,5.0,5.0,5.0,1.0,CRESTED_CARACARA_4.jpg,INDIAN_PITTA_2.jpg,A1OM5NWYYYJKQW
186,3.0,left,left,1.0,1.5218,0.0,6.0,6.0,6.0,1.0,CASPIAN_TERN_1.jpg,COMMON_LOON_2.jpg,A1OM5NWYYYJKQW
187,2.0,left,left,1.0,1.4659,0.0,7.0,7.0,7.0,1.0,DOUBLE_BRESTED_CORMARANT_5.jpg,EURASIAN_MAGPIE_4.jpg,A1OM5NWYYYJKQW
188,3.0,left,left,1.0,1.9953,0.0,8.0,8.0,8.0,1.0,INDIGO_BUNTING_1.jpg,DARWINS_FLYCATCHER_2.jpg,A1OM5NWYYYJKQW
189,1.0,right,right,1.0,1.3375,0.0,9.0,9.0,9.0,1.0,GREEN_BROADBILL_4.jpg,LESSER_ADJUTANT_5.jpg,A1OM5NWYYYJKQW
190,2.0,left,left,1.0,1.3384,0.0,10.0,10.0,10.0,1.0,LESSER_ADJUTANT_4.jpg,RAINBOW_LORIKEET_5.jpg,A1OM5NWYYYJKQW
191,3.0,right,right,1.0,2.0822,0.0,11.0,11.0,11.0,1.0,BANANAQUIT_1.jpg,CERULEAN_WARBLER_1.jpg,A1OM5NWYYYJKQW
192,2.0,right,right,1.0,2.207,0.0,12.0,12.0,12.0,1.0,HOUSE_FINCH_2.jpg,GOLDEN_CHEEKED_WARBLER_2.jpg,A1OM5NWYYYJKQW
193,1.0,left,left,1.0,2.9978,0.0,13.0,13.0,13.0,1.0,HAWAIIAN_GOOSE_4.jpg,CUBAN_TODY_3.jpg,A1OM5NWYYYJKQW
194,1.0,right,right,1.0,2.1659,0.0,14.0,14.0,14.0,1.0,SANDHILL_CRANE_4.jpg,PARUS_MAJOR_1.jpg,A1OM5NWYYYJKQW
195,3.0,left,left,1.0,2.689,0.0,15.0,15.0,15.0,1.0,MYNA_1.jpg,PARADISE_TANAGER_3.jpg,A1OM5NWYYYJKQW
196,2.0,left,left,1.0,2.0048,0.0,16.0,16.0,16.0,1.0,GYRFALCON_1.jpg,CINNAMON_ATTILA_2.jpg,A1OM5NWYYYJKQW
197,2.0,left,left,1.0,1.0784,0.0,17.0,17.0,17.0,1.0,PINK_ROBIN_4.jpg,ALBATROSS_4.jpg,A1OM5NWYYYJKQW
198,2.0,left,right,0.0,1.5478,0.0,18.0,18.0,18.0,1.0,ECUADORIAN_HILLSTAR_5.jpg,BOBOLINK_5.jpg,A1OM5NWYYYJKQW
199,2.0,left,left,1.0,1.2477,0.0,19.0,19.0,19.0,1.0,LARK_BUNTING_2.jpg,KING_VULTURE_3.jpg,A1OM5NWYYYJKQW
200,2.0,right,right,1.0,1.79,0.0,20.0,20.0,20.0,1.0,SCARLET_MACAW_1.jpg,CASSOWARY_1.jpg,A1OM5NWYYYJKQW
201,3.0,left,left,1.0,2.1591,0.0,21.0,21.0,21.0,1.0,FLAME_BOWERBIRD_3.jpg,QUETZAL_3.jpg,A1OM5NWYYYJKQW
202,3.0,left,left,1.0,1.3924,0.0,22.0,22.0,22.0,1.0,ASIAN_DOLLARD_BIRD_2.jpg,VIOLET_GREEN_SWALLOW_4.jpg,A1OM5NWYYYJKQW
203,1.0,right,right,1.0,1.6942,0.0,23.0,23.0,23.0,1.0,INDIAN_BUSTARD_1.jpg,VERMILION_FLYCATHER_3.jpg,A1OM5NWYYYJKQW
204,2.0,right,right,1.0,1.2329,0.0,24.0,24.0,24.0,1.0,GOULDIAN_FINCH_4.jpg,GREY_PLOVER_1.jpg,A1OM5NWYYYJKQW
205,3.0,right,right,1.0,1.7303,0.0,25.0,25.0,25.0,1.0,NORTHERN_SHOVELER_1.jpg,RUBY_THROATED_HUMMINGBIRD_3.jpg,A1OM5NWYYYJKQW
206,3.0,left,left,1.0,2.0234,0.0,26.0,26.0,26.0,1.0,RUBY_THROATED_HUMMINGBIRD_2.jpg,DUSKY_ROBIN_5.jpg,A1OM5NWYYYJKQW
207,1.0,right,right,1.0,3.9742,0.0,27.0,27.0,27.0,1.0,KIWI_3.jpg,ARARIPE_MANAKIN_4.jpg,A1OM5NWYYYJKQW
208,1.0,left,right,0.0,1.6742,0.0,28.0,28.0,28.0,1.0,RUFOUS_KINGFISHER_1.jpg,SNOWY_OWL_5.jpg,A1OM5NWYYYJKQW
209,2.0,left,left,1.0,1.808,0.0,29.0,29.0,29.0,1.0,BREWERS_BLACKBIRD_3.jpg,GOLDEN_CHEEKED_WARBLER_3.jpg,A1OM5NWYYYJKQW
210,3.0,left,right,0.0,1.616,0.0,30.0,30.0,30.0,1.0,LITTLE_AUK_5.jpg,BEARDED_BELLBIRD_1.jpg,A1OM5NWYYYJKQW
211,2.0,left,right,0.0,1.7879,0.0,31.0,31.0,31.0,1.0,EASTERN_TOWEE_2.jpg,GOLDEN_CHLOROPHONIA_1.jpg,A1OM5NWYYYJKQW
212,2.0,right,right,1.0,1.3332,0.0,32.0,32.0,32.0,1.0,SPANGLED_COTINGA_4.jpg,BROWN_NOODY_3.jpg,A1OM5NWYYYJKQW
213,1.0,left,left,1.0,1.6493,0.0,33.0,33.0,33.0,1.0,NORTHERN_JACANA_3.jpg,AMERICAN_GOLDFINCH_4.jpg,A1OM5NWYYYJKQW
214,3.0,right,left,0.0,1.8055,0.0,34.0,34.0,34.0,1.0,BORNEAN_BRISTLEHEAD_5.jpg,INCA_TERN_4.jpg,A1OM5NWYYYJKQW
215,3.0,left,left,1.0,1.5172,0.0,35.0,35.0,35.0,1.0,KAGU_5.jpg,DEMOISELLE_CRANE_1.jpg,A1OM5NWYYYJKQW
216,2.0,left,left,1.0,1.7186,0.0,36.0,36.0,36.0,1.0,TASMANIAN_HEN_5.jpg,AFRICAN_EMERALD_CUCKOO_5.jpg,A1OM5NWYYYJKQW
217,3.0,left,left,1.0,1.6871,0.0,37.0,37.0,37.0,1.0,WHITE_CHEEKED_TURACO_5.jpg,PYGMY_KINGFISHER_2.jpg,A1OM5NWYYYJKQW
218,1.0,right,left,0.0,1.4823,0.0,38.0,38.0,38.0,1.0,CANARY_2.jpg,ASIAN_CRESTED_IBIS_4.jpg,A1OM5NWYYYJKQW
219,1.0,left,right,0.0,3.1479,0.0,39.0,39.0,39.0,1.0,OCELLATED_TURKEY_1.jpg,CHIPPING_SPARROW_1.jpg,A1OM5NWYYYJKQW
220,1.0,right,right,1.0,1.871,0.0,40.0,40.0,40.0,1.0,ROADRUNNER_2.jpg,GOLDEN_CHLOROPHONIA_5.jpg,A1OM5NWYYYJKQW
221,3.0,left,left,1.0,1.5546,0.0,41.0,41.0,41.0,1.0,IVORY_GULL_1.jpg,FAIRY_TERN_4.jpg,A1OM5NWYYYJKQW
222,3.0,right,right,1.0,2.5804,0.0,42.0,42.0,42.0,1.0,AFRICAN_FIREFINCH_3.jpg,GRAY_KINGBIRD_5.jpg,A1OM5NWYYYJKQW
223,1.0,left,left,1.0,1.3406,0.0,43.0,43.0,43.0,1.0,EUROPEAN_TURTLE_DOVE_3.jpg,TEAL_DUCK_2.jpg,A1OM5NWYYYJKQW
224,3.0,left,left,1.0,1.5601,0.0,44.0,44.0,44.0,1.0,BROWN_THRASHER_3.jpg,BLACK_BAZA_4.jpg,A1OM5NWYYYJKQW
225,3.0,right,left,0.0,1.8572,0.0,45.0,45.0,45.0,1.0,DOUBLE_EYED_FIG_PARROT_4.jpg,PYGMY_KINGFISHER_5.jpg,A1OM5NWYYYJKQW
226,2.0,left,left,1.0,1.8629,0.0,46.0,46.0,46.0,1.0,AMERICAN_PIPIT_5.jpg,GREEN_MAGPIE_1.jpg,A1OM5NWYYYJKQW
227,1.0,left,right,0.0,1.8974,0.0,47.0,47.0,47.0,1.0,SPLENDID_WREN_1.jpg,POMARINE_JAEGER_5.jpg,A1OM5NWYYYJKQW
228,1.0,left,left,1.0,2.0405,0.0,48.0,48.0,48.0,1.0,KILLDEAR_2.jpg,PEACOCK_5.jpg,A1OM5NWYYYJKQW
229,1.0,left,left,1.0,1.05,0.0,49.0,49.0,49.0,1.0,PEACOCK_3.jpg,ANIANIAU_2.jpg,A1OM5NWYYYJKQW
230,2.0,right,right,1.0,2.2486,0.0,50.0,50.0,50.0,1.0,CRIMSON_CHAT_3.jpg,RED_HEADED_WOODPECKER_5.jpg,A1OM5NWYYYJKQW
231,2.0,left,left,1.0,2.1822,0.0,51.0,51.0,51.0,1.0,AFRICAN_PIED_HORNBILL_5.jpg,ALEXANDRINE_PARAKEET_1.jpg,A1OM5NWYYYJKQW
232,2.0,right,right,1.0,1.5326,0.0,52.0,52.0,52.0,1.0,NICOBAR_PIGEON_4.jpg,INLAND_DOTTEREL_4.jpg,A1OM5NWYYYJKQW
233,3.0,right,right,1.0,1.6492,0.0,53.0,53.0,53.0,1.0,FRIGATE_1.jpg,RUBY_THROATED_HUMMINGBIRD_1.jpg,A1OM5NWYYYJKQW
234,1.0,right,right,1.0,1.9097,0.0,54.0,54.0,54.0,1.0,DOUBLE_BRESTED_CORMARANT_4.jpg,STRIPPED_SWALLOW_1.jpg,A1OM5NWYYYJKQW
235,3.0,left,left,1.0,1.1499,0.0,55.0,55.0,55.0,1.0,ALPINE_CHOUGH_4.jpg,BOBOLINK_3.jpg,A1OM5NWYYYJKQW
236,2.0,right,right,1.0,1.7825,0.0,56.0,56.0,56.0,1.0,HAMERKOP_1.jpg,MAGPIE_GOOSE_5.jpg,A1OM5NWYYYJKQW
237,1.0,right,right,1.0,1.0496,0.0,57.0,57.0,57.0,1.0,BEARDED_BARBET_2.jpg,SCARLET_TANAGER_2.jpg,A1OM5NWYYYJKQW
238,2.0,left,left,1.0,1.558,0.0,58.0,58.0,58.0,1.0,MALACHITE_KINGFISHER_2.jpg,INCA_TERN_2.jpg,A1OM5NWYYYJKQW
239,1.0,right,right,1.0,1.9652,0.0,59.0,59.0,59.0,1.0,SCARLET_IBIS_3.jpg,CRESTED_NUTHATCH_2.jpg,A1OM5NWYYYJKQW
240,1.0,right,right,1.0,3.4824,0.0,0.0,0.0,0.0,1.0,ALTAMIRA_YELLOWTHROAT_5.jpg,LESSER_ADJUTANT_4.jpg,A1PHDT66U6IK4Q
241,2.0,right,left,0.0,1.8509,0.0,1.0,1.0,1.0,1.0,AFRICAN_FIREFINCH_1.jpg,CRESTED_NUTHATCH_2.jpg,A1PHDT66U6IK4Q
242,1.0,right,right,1.0,1.3942,0.0,2.0,2.0,2.0,1.0,WILSONS_BIRD_OF_PARADISE_4.jpg,IVORY_GULL_1.jpg,A1PHDT66U6IK4Q
243,1.0,right,right,1.0,2.3538,0.0,3.0,3.0,3.0,1.0,EMU_2.jpg,AMERICAN_PIPIT_5.jpg,A1PHDT66U6IK4Q
244,3.0,right,right,1.0,2.4304,0.0,4.0,4.0,4.0,1.0,RED_HEADED_WOODPECKER_1.jpg,LESSER_ADJUTANT_5.jpg,A1PHDT66U6IK4Q
245,2.0,right,right,1.0,3.7724,0.0,5.0,5.0,5.0,1.0,GREY_PLOVER_4.jpg,MYNA_1.jpg,A1PHDT66U6IK4Q
246,3.0,right,right,1.0,1.9901,0.0,6.0,6.0,6.0,1.0,CHATTERING_LORY_2.jpg,PEACOCK_3.jpg,A1PHDT66U6IK4Q
247,3.0,left,left,1.0,4.6782,0.0,7.0,7.0,7.0,1.0,NORTHERN_JACANA_3.jpg,SCARLET_IBIS_4.jpg,A1PHDT66U6IK4Q
248,3.0,left,right,0.0,1.584,0.0,8.0,8.0,8.0,1.0,GOLDEN_CHLOROPHONIA_5.jpg,VERMILION_FLYCATHER_5.jpg,A1PHDT66U6IK4Q
249,1.0,left,left,1.0,1.6134,0.0,9.0,9.0,9.0,1.0,OVENBIRD_5.jpg,MYNA_4.jpg,A1PHDT66U6IK4Q
250,3.0,left,left,1.0,2.4778,0.0,10.0,10.0,10.0,1.0,KILLDEAR_2.jpg,AZURE_TIT_5.jpg,A1PHDT66U6IK4Q
251,3.0,left,left,1.0,1.8946,0.0,11.0,11.0,11.0,1.0,RUBY_THROATED_HUMMINGBIRD_1.jpg,FRIGATE_1.jpg,A1PHDT66U6IK4Q
252,3.0,right,right,1.0,3.0055,0.0,12.0,12.0,12.0,1.0,FAIRY_TERN_1.jpg,GYRFALCON_1.jpg,A1PHDT66U6IK4Q
253,3.0,left,left,1.0,4.1728,0.0,13.0,13.0,13.0,1.0,INDIGO_BUNTING_1.jpg,DARWINS_FLYCATCHER_2.jpg,A1PHDT66U6IK4Q
254,3.0,left,left,1.0,3.188,0.0,14.0,14.0,14.0,1.0,MAGPIE_GOOSE_5.jpg,OYSTER_CATCHER_3.jpg,A1PHDT66U6IK4Q
255,2.0,left,left,1.0,5.3757,0.0,15.0,15.0,15.0,1.0,LARK_BUNTING_2.jpg,KING_VULTURE_3.jpg,A1PHDT66U6IK4Q
256,1.0,right,right,1.0,3.3477,0.0,16.0,16.0,16.0,1.0,CASSOWARY_2.jpg,INLAND_DOTTEREL_4.jpg,A1PHDT66U6IK4Q
257,2.0,left,left,1.0,2.7239,0.0,17.0,17.0,17.0,1.0,BROWN_THRASHER_3.jpg,OYSTER_CATCHER_4.jpg,A1PHDT66U6IK4Q
258,2.0,right,right,1.0,2.6853,0.0,18.0,18.0,18.0,1.0,SPANGLED_COTINGA_4.jpg,BROWN_NOODY_3.jpg,A1PHDT66U6IK4Q
259,2.0,left,left,1.0,2.6675,0.0,19.0,19.0,19.0,1.0,OCELLATED_TURKEY_1.jpg,AMERICAN_PIPIT_1.jpg,A1PHDT66U6IK4Q
260,1.0,right,right,1.0,2.3335,0.0,20.0,20.0,20.0,1.0,INDIAN_BUSTARD_2.jpg,FLAME_BOWERBIRD_3.jpg,A1PHDT66U6IK4Q
261,1.0,left,left,1.0,6.6939,0.0,21.0,21.0,21.0,1.0,PYGMY_KINGFISHER_5.jpg,GRANDALA_2.jpg,A1PHDT66U6IK4Q
262,2.0,left,left,1.0,3.1595,0.0,22.0,22.0,22.0,1.0,VERMILION_FLYCATHER_3.jpg,CALIFORNIA_GULL_1.jpg,A1PHDT66U6IK4Q
263,1.0,right,right,1.0,2.4953,0.0,23.0,23.0,23.0,1.0,HYACINTH_MACAW_3.jpg,GREY_PLOVER_1.jpg,A1PHDT66U6IK4Q
264,1.0,left,left,1.0,2.9045,0.0,24.0,24.0,24.0,1.0,PINK_ROBIN_4.jpg,SPOONBILL_3.jpg,A1PHDT66U6IK4Q
265,1.0,left,left,1.0,3.2951,0.0,25.0,25.0,25.0,1.0,DOUBLE_BRESTED_CORMARANT_5.jpg,GILDED_FLICKER_2.jpg,A1PHDT66U6IK4Q
266,3.0,right,right,1.0,3.346,0.0,26.0,26.0,26.0,1.0,VIOLET_GREEN_SWALLOW_4.jpg,ASIAN_DOLLARD_BIRD_2.jpg,A1PHDT66U6IK4Q
267,2.0,left,left,1.0,3.6739,0.0,27.0,27.0,27.0,1.0,ARARIPE_MANAKIN_4.jpg,BLACK_VULTURE_1.jpg,A1PHDT66U6IK4Q
268,1.0,right,right,1.0,1.8672,0.0,28.0,28.0,28.0,1.0,BALD_EAGLE_2.jpg,GRAY_KINGBIRD_5.jpg,A1PHDT66U6IK4Q
269,3.0,left,left,1.0,1.5456,0.0,29.0,29.0,29.0,1.0,RUBY_THROATED_HUMMINGBIRD_3.jpg,NORTHERN_SHOVELER_1.jpg,A1PHDT66U6IK4Q
270,3.0,right,right,1.0,2.9891,0.0,30.0,30.0,30.0,1.0,NORTHERN_BEARDLESS_TYRANNULET_5.jpg,EASTERN_TOWEE_2.jpg,A1PHDT66U6IK4Q
271,2.0,right,right,1.0,1.9074,0.0,31.0,31.0,31.0,1.0,DOUBLE_BRESTED_CORMARANT_1.jpg,SPLENDID_WREN_1.jpg,A1PHDT66U6IK4Q
272,3.0,left,left,1.0,1.6125,0.0,32.0,32.0,32.0,1.0,IVORY_GULL_3.jpg,SNOWY_EGRET_4.jpg,A1PHDT66U6IK4Q
273,1.0,left,left,1.0,2.2456,0.0,33.0,33.0,33.0,1.0,RED_HEADED_WOODPECKER_5.jpg,ASHY_STORM_PETREL_2.jpg,A1PHDT66U6IK4Q
274,2.0,left,left,1.0,4.0404,0.0,34.0,34.0,34.0,1.0,MALACHITE_KINGFISHER_2.jpg,INCA_TERN_2.jpg,A1PHDT66U6IK4Q
275,2.0,left,left,1.0,3.5714,0.0,35.0,35.0,35.0,1.0,ECUADORIAN_HILLSTAR_5.jpg,BOBOLINK_5.jpg,A1PHDT66U6IK4Q
276,2.0,right,left,0.0,6.3971,0.0,36.0,36.0,36.0,1.0,ALEXANDRINE_PARAKEET_1.jpg,AFRICAN_PIED_HORNBILL_5.jpg,A1PHDT66U6IK4Q
277,2.0,right,right,1.0,2.7638,0.0,37.0,37.0,37.0,1.0,APAPANE_4.jpg,RUBY_THROATED_HUMMINGBIRD_2.jpg,A1PHDT66U6IK4Q
278,2.0,right,right,1.0,3.3546,0.0,38.0,38.0,38.0,1.0,AFRICAN_EMERALD_CUCKOO_5.jpg,TASMANIAN_HEN_5.jpg,A1PHDT66U6IK4Q
279,1.0,left,left,1.0,1.8994,0.0,39.0,39.0,39.0,1.0,SCARLET_TANAGER_2.jpg,BEARDED_BARBET_2.jpg,A1PHDT66U6IK4Q
280,2.0,left,left,1.0,2.5231,0.0,40.0,40.0,40.0,1.0,CERULEAN_WARBLER_1.jpg,AMERICAN_FLAMINGO_5.jpg,A1PHDT66U6IK4Q
281,2.0,left,left,1.0,5.2691,0.0,41.0,41.0,41.0,1.0,LITTLE_AUK_5.jpg,ORANGE_BRESTED_BUNTING_3.jpg,A1PHDT66U6IK4Q
282,1.0,right,right,1.0,2.1566,0.0,42.0,42.0,42.0,1.0,CUBAN_TODY_3.jpg,HAWAIIAN_GOOSE_4.jpg,A1PHDT66U6IK4Q
283,2.0,left,left,1.0,2.4727,0.0,43.0,43.0,43.0,1.0,ALPINE_CHOUGH_4.jpg,EUROPEAN_GOLDFINCH_3.jpg,A1PHDT66U6IK4Q
284,3.0,left,left,1.0,4.4803,0.0,44.0,44.0,44.0,1.0,CRESTED_CARACARA_4.jpg,TOUCHAN_4.jpg,A1PHDT66U6IK4Q
285,3.0,right,right,1.0,8.5804,0.0,45.0,45.0,45.0,1.0,DEMOISELLE_CRANE_1.jpg,KAGU_5.jpg,A1PHDT66U6IK4Q
286,3.0,left,left,1.0,3.6215,0.0,46.0,46.0,46.0,1.0,GOLDEN_CHEEKED_WARBLER_2.jpg,WHITE_THROATED_BEE_EATER_1.jpg,A1PHDT66U6IK4Q
287,2.0,left,left,1.0,3.5754,0.0,47.0,47.0,47.0,1.0,PARUS_MAJOR_1.jpg,CALIFORNIA_GULL_2.jpg,A1PHDT66U6IK4Q
288,1.0,right,right,1.0,1.8561,0.0,48.0,48.0,48.0,1.0,CAPE_LONGCLAW_5.jpg,BALI_STARLING_1.jpg,A1PHDT66U6IK4Q
289,2.0,left,left,1.0,3.8166,0.0,49.0,49.0,49.0,1.0,INCA_TERN_4.jpg,SMITHS_LONGSPUR_5.jpg,A1PHDT66U6IK4Q
290,1.0,left,left,1.0,2.7065,0.0,50.0,50.0,50.0,1.0,BREWERS_BLACKBIRD_3.jpg,GUINEA_TURACO_3.jpg,A1PHDT66U6IK4Q
291,3.0,right,right,1.0,3.488,0.0,51.0,51.0,51.0,1.0,AFRICAN_OYSTER_CATCHER_2.jpg,CASSOWARY_1.jpg,A1PHDT66U6IK4Q
292,1.0,left,right,0.0,5.6392,0.0,52.0,52.0,52.0,1.0,CHUKAR_PARTRIDGE_5.jpg,OSTRICH_5.jpg,A1PHDT66U6IK4Q
293,3.0,left,left,1.0,6.1388,0.0,53.0,53.0,53.0,1.0,SHOEBILL_3.jpg,BALD_EAGLE_5.jpg,A1PHDT66U6IK4Q
294,2.0,right,left,0.0,7.0109,0.0,54.0,54.0,54.0,1.0,EUROPEAN_GOLDFINCH_4.jpg,CASPIAN_TERN_1.jpg,A1PHDT66U6IK4Q
295,3.0,left,right,0.0,5.0326,0.0,55.0,55.0,55.0,1.0,EUROPEAN_TURTLE_DOVE_3.jpg,MALABAR_HORNBILL_2.jpg,A1PHDT66U6IK4Q
296,3.0,right,right,1.0,4.7805,0.0,56.0,56.0,56.0,1.0,GO_AWAY_BIRD_5.jpg,STRIPPED_SWALLOW_1.jpg,A1PHDT66U6IK4Q
297,1.0,left,right,0.0,1.1804,0.0,57.0,57.0,57.0,1.0,RUFOUS_KINGFISHER_1.jpg,SNOWY_OWL_5.jpg,A1PHDT66U6IK4Q
298,1.0,right,left,0.0,2.4026,0.0,58.0,58.0,58.0,1.0,NORTHERN_MOCKINGBIRD_4.jpg,WHITE_CHEEKED_TURACO_5.jpg,A1PHDT66U6IK4Q
299,1.0,right,right,1.0,8.6493,0.0,59.0,59.0,59.0,1.0,CANARY_2.jpg,ASIAN_CRESTED_IBIS_4.jpg,A1PHDT66U6IK4Q
300,1.0,right,left,0.0,7.3586,0.0,0.0,0.0,0.0,1.0,SPOONBILL_1.jpg,GOLDEN_CHEEKED_WARBLER_2.jpg,A1QT3YA7G8MO63
301,2.0,left,right,0.0,0.0041,0.0,1.0,1.0,1.0,1.0,BREWERS_BLACKBIRD_3.jpg,GOLDEN_CHEEKED_WARBLER_3.jpg,A1QT3YA7G8MO63
302,3.0,left,right,0.0,0.767,0.0,2.0,2.0,2.0,1.0,RUFOUS_KINGFISHER_1.jpg,HORNED_SUNGEM_4.jpg,A1QT3YA7G8MO63
303,1.0,right,right,1.0,3.4321,0.0,3.0,3.0,3.0,1.0,DOUBLE_EYED_FIG_PARROT_3.jpg,BROWN_THRASHER_3.jpg,A1QT3YA7G8MO63
304,2.0,left,left,1.0,2.1721,0.0,4.0,4.0,4.0,1.0,OVENBIRD_5.jpg,FAIRY_PENGUIN_1.jpg,A1QT3YA7G8MO63
305,3.0,right,left,0.0,1.3847,0.0,5.0,5.0,5.0,1.0,BEARDED_BELLBIRD_1.jpg,LITTLE_AUK_5.jpg,A1QT3YA7G8MO63
306,1.0,left,left,1.0,1.5213,0.0,6.0,6.0,6.0,1.0,GREY_PLOVER_1.jpg,HYACINTH_MACAW_3.jpg,A1QT3YA7G8MO63
307,3.0,right,right,1.0,0.9818,0.0,7.0,7.0,7.0,1.0,PARADISE_TANAGER_3.jpg,MYNA_1.jpg,A1QT3YA7G8MO63
308,1.0,right,right,1.0,1.5073,0.0,8.0,8.0,8.0,1.0,AMERICAN_FLAMINGO_1.jpg,MALACHITE_KINGFISHER_2.jpg,A1QT3YA7G8MO63
309,1.0,right,right,1.0,1.1931,0.0,9.0,9.0,9.0,1.0,KIWI_4.jpg,AFRICAN_PIED_HORNBILL_5.jpg,A1QT3YA7G8MO63
310,3.0,right,right,1.0,1.9769,0.0,10.0,10.0,10.0,1.0,COMMON_LOON_2.jpg,CASPIAN_TERN_1.jpg,A1QT3YA7G8MO63
311,2.0,left,right,0.0,1.0742,0.0,11.0,11.0,11.0,1.0,PEACOCK_3.jpg,STRAWBERRY_FINCH_4.jpg,A1QT3YA7G8MO63
312,1.0,left,left,1.0,1.5771,0.0,12.0,12.0,12.0,1.0,IVORY_GULL_3.jpg,INDIGO_FLYCATCHER_2.jpg,A1QT3YA7G8MO63
313,1.0,left,left,1.0,1.4767,0.0,13.0,13.0,13.0,1.0,VERMILION_FLYCATHER_3.jpg,INDIAN_BUSTARD_1.jpg,A1QT3YA7G8MO63
314,1.0,right,right,1.0,1.1595,0.0,14.0,14.0,14.0,1.0,GRANDALA_2.jpg,PYGMY_KINGFISHER_5.jpg,A1QT3YA7G8MO63
315,3.0,right,left,0.0,2.8254,0.0,15.0,15.0,15.0,1.0,GUINEA_TURACO_5.jpg,BROWN_NOODY_3.jpg,A1QT3YA7G8MO63
316,2.0,left,right,0.0,1.5841,0.0,16.0,16.0,16.0,1.0,EUROPEAN_TURTLE_DOVE_3.jpg,PAINTED_BUNTING_3.jpg,A1QT3YA7G8MO63
317,2.0,right,right,1.0,1.4442,0.0,17.0,17.0,17.0,1.0,ASHY_STORM_PETREL_1.jpg,KAGU_5.jpg,A1QT3YA7G8MO63
318,1.0,right,right,1.0,3.0925,0.0,18.0,18.0,18.0,1.0,PEACOCK_5.jpg,KILLDEAR_2.jpg,A1QT3YA7G8MO63
319,1.0,left,left,1.0,1.324,0.0,19.0,19.0,19.0,1.0,GRAY_KINGBIRD_5.jpg,BALD_EAGLE_2.jpg,A1QT3YA7G8MO63
320,3.0,right,right,1.0,1.3217,0.0,20.0,20.0,20.0,1.0,CHINESE_POND_HERON_2.jpg,DOUBLE_BRESTED_CORMARANT_5.jpg,A1QT3YA7G8MO63
321,3.0,right,right,1.0,1.4097,0.0,21.0,21.0,21.0,1.0,FAIRY_TERN_1.jpg,GYRFALCON_1.jpg,A1QT3YA7G8MO63
322,2.0,right,right,1.0,1.4441,0.0,22.0,22.0,22.0,1.0,COMMON_HOUSE_MARTIN_4.jpg,GOLDEN_CHLOROPHONIA_5.jpg,A1QT3YA7G8MO63
323,2.0,left,right,0.0,4.8776,0.0,23.0,23.0,23.0,1.0,STRIPPED_SWALLOW_1.jpg,MAGPIE_GOOSE_4.jpg,A1QT3YA7G8MO63
324,2.0,right,left,0.0,0.881,0.0,24.0,24.0,24.0,1.0,SCARLET_MACAW_1.jpg,CASSOWARY_1.jpg,A1QT3YA7G8MO63
325,3.0,left,right,0.0,6.4699,0.0,25.0,25.0,25.0,1.0,ASIAN_DOLLARD_BIRD_2.jpg,VIOLET_GREEN_SWALLOW_4.jpg,A1QT3YA7G8MO63
326,2.0,right,left,0.0,1.2413,0.0,26.0,26.0,26.0,1.0,ALBATROSS_4.jpg,PINK_ROBIN_4.jpg,A1QT3YA7G8MO63
327,3.0,right,right,1.0,17.7029,0.0,27.0,27.0,27.0,1.0,PINK_ROBIN_3.jpg,PARUS_MAJOR_1.jpg,A1QT3YA7G8MO63
328,2.0,right,right,1.0,1.7989,0.0,28.0,28.0,28.0,1.0,GAMBELS_QUAIL_1.jpg,LESSER_ADJUTANT_5.jpg,A1QT3YA7G8MO63
329,1.0,right,right,1.0,1.2153,0.0,29.0,29.0,29.0,1.0,SCARLET_IBIS_3.jpg,CRESTED_NUTHATCH_2.jpg,A1QT3YA7G8MO63
330,2.0,right,right,1.0,6.1801,0.0,30.0,30.0,30.0,1.0,CRAB_PLOVER_3.jpg,NORTHERN_JACANA_3.jpg,A1QT3YA7G8MO63
331,2.0,left,left,1.0,3.1732,0.0,31.0,31.0,31.0,1.0,INLAND_DOTTEREL_4.jpg,NICOBAR_PIGEON_4.jpg,A1QT3YA7G8MO63
332,2.0,left,right,0.0,1.1418,0.0,32.0,32.0,32.0,1.0,SHOEBILL_3.jpg,GILDED_FLICKER_5.jpg,A1QT3YA7G8MO63
333,2.0,left,left,1.0,1.4394,0.0,33.0,33.0,33.0,1.0,FLAME_BOWERBIRD_3.jpg,BROWN_THRASHER_4.jpg,A1QT3YA7G8MO63
334,1.0,left,left,1.0,20.8438,0.0,34.0,34.0,34.0,1.0,ALPINE_CHOUGH_4.jpg,SNOWY_EGRET_2.jpg,A1QT3YA7G8MO63
335,1.0,right,right,1.0,1.7148,0.0,35.0,35.0,35.0,1.0,ELLIOTS__PHEASANT_4.jpg,INCA_TERN_4.jpg,A1QT3YA7G8MO63
336,3.0,right,right,1.0,1.9379,0.0,36.0,36.0,36.0,1.0,CACTUS_WREN_3.jpg,LARK_BUNTING_2.jpg,A1QT3YA7G8MO63
337,2.0,left,left,1.0,5.0676,0.0,37.0,37.0,37.0,1.0,CERULEAN_WARBLER_1.jpg,AMERICAN_FLAMINGO_5.jpg,A1QT3YA7G8MO63
338,2.0,left,right,0.0,1.3939,0.0,38.0,38.0,38.0,1.0,ECUADORIAN_HILLSTAR_5.jpg,BOBOLINK_5.jpg,A1QT3YA7G8MO63
339,3.0,right,right,1.0,1.0968,0.0,39.0,39.0,39.0,1.0,HEPATIC_TANAGER_5.jpg,AMERICAN_PIPIT_5.jpg,A1QT3YA7G8MO63
340,1.0,left,right,0.0,15.1616,0.0,40.0,40.0,40.0,1.0,SCARLET_TANAGER_2.jpg,BEARDED_BARBET_2.jpg,A1QT3YA7G8MO63
341,3.0,right,right,1.0,6.8623,0.0,41.0,41.0,41.0,1.0,FAIRY_TERN_3.jpg,LESSER_ADJUTANT_4.jpg,A1QT3YA7G8MO63
342,1.0,right,left,0.0,2.8977,0.0,42.0,42.0,42.0,1.0,POMARINE_JAEGER_5.jpg,SPLENDID_WREN_1.jpg,A1QT3YA7G8MO63
343,2.0,left,right,0.0,1.3514,0.0,43.0,43.0,43.0,1.0,BALI_STARLING_1.jpg,PURPLE_FINCH_2.jpg,A1QT3YA7G8MO63
344,2.0,right,right,1.0,1.1181,0.0,44.0,44.0,44.0,1.0,NORTHERN_GANNET_1.jpg,INDIGO_BUNTING_1.jpg,A1QT3YA7G8MO63
345,1.0,left,left,1.0,18.431,0.0,45.0,45.0,45.0,1.0,IVORY_GULL_1.jpg,WILSONS_BIRD_OF_PARADISE_4.jpg,A1QT3YA7G8MO63
346,2.0,right,left,0.0,1.5629,0.0,46.0,46.0,46.0,1.0,BLACK_VULTURE_1.jpg,ARARIPE_MANAKIN_4.jpg,A1QT3YA7G8MO63
347,3.0,left,right,0.0,0.7545,0.0,47.0,47.0,47.0,1.0,EASTERN_TOWEE_2.jpg,NORTHERN_BEARDLESS_TYRANNULET_5.jpg,A1QT3YA7G8MO63
348,3.0,right,left,0.0,1.1547,0.0,48.0,48.0,48.0,1.0,DUSKY_ROBIN_5.jpg,RUBY_THROATED_HUMMINGBIRD_2.jpg,A1QT3YA7G8MO63
349,1.0,left,right,0.0,1.0238,0.0,49.0,49.0,49.0,1.0,CHUKAR_PARTRIDGE_5.jpg,OSTRICH_5.jpg,A1QT3YA7G8MO63
350,2.0,right,left,0.0,11.1493,0.0,50.0,50.0,50.0,1.0,CRIMSON_CHAT_3.jpg,RED_HEADED_WOODPECKER_5.jpg,A1QT3YA7G8MO63
351,1.0,left,left,1.0,1.5568,0.0,51.0,51.0,51.0,1.0,TASMANIAN_HEN_5.jpg,GREEN_BROADBILL_1.jpg,A1QT3YA7G8MO63
352,3.0,left,right,0.0,27.2357,0.0,52.0,52.0,52.0,1.0,MAGPIE_GOOSE_5.jpg,OYSTER_CATCHER_3.jpg,A1QT3YA7G8MO63
353,1.0,right,left,0.0,1.6872,0.0,53.0,53.0,53.0,1.0,MALAGASY_WHITE_EYE_2.jpg,RUBY_THROATED_HUMMINGBIRD_3.jpg,A1QT3YA7G8MO63
354,3.0,right,left,0.0,6.1146,0.0,54.0,54.0,54.0,1.0,PYGMY_KINGFISHER_2.jpg,WHITE_CHEEKED_TURACO_5.jpg,A1QT3YA7G8MO63
355,3.0,left,left,1.0,12.7762,0.0,55.0,55.0,55.0,1.0,CRESTED_CARACARA_4.jpg,TOUCHAN_4.jpg,A1QT3YA7G8MO63
356,3.0,left,right,0.0,13.3372,0.0,56.0,56.0,56.0,1.0,ASIAN_CRESTED_IBIS_4.jpg,IVORY_GULL_2.jpg,A1QT3YA7G8MO63
357,3.0,left,right,0.0,1.2357,0.0,57.0,57.0,57.0,1.0,RUBY_THROATED_HUMMINGBIRD_1.jpg,FRIGATE_1.jpg,A1QT3YA7G8MO63
358,1.0,left,left,1.0,20.7513,0.0,58.0,58.0,58.0,1.0,HAWAIIAN_GOOSE_4.jpg,CUBAN_TODY_3.jpg,A1QT3YA7G8MO63
359,3.0,right,left,0.0,41.5818,0.0,59.0,59.0,59.0,1.0,PURPLE_SWAMPHEN_4.jpg,OCELLATED_TURKEY_1.jpg,A1QT3YA7G8MO63
360,3.0,left,left,1.0,1.2108,0.0,0.0,0.0,0.0,1.0,ASIAN_CRESTED_IBIS_4.jpg,IVORY_GULL_2.jpg,A1SNC8UL8YFRH5
361,1.0,left,left,1.0,1.9283,0.0,1.0,1.0,1.0,1.0,RUBY_THROATED_HUMMINGBIRD_3.jpg,MALAGASY_WHITE_EYE_2.jpg,A1SNC8UL8YFRH5
362,1.0,left,left,1.0,1.6259,0.0,2.0,2.0,2.0,1.0,MYNA_1.jpg,OSTRICH_3.jpg,A1SNC8UL8YFRH5
363,3.0,left,left,1.0,1.9838,0.0,3.0,3.0,3.0,1.0,INLAND_DOTTEREL_4.jpg,CRESTED_KINGFISHER_1.jpg,A1SNC8UL8YFRH5
364,1.0,right,right,1.0,1.6893,0.0,4.0,4.0,4.0,1.0,SPOONBILL_3.jpg,PINK_ROBIN_4.jpg,A1SNC8UL8YFRH5
365,1.0,right,right,1.0,1.7751,0.0,5.0,5.0,5.0,1.0,KIWI_4.jpg,AFRICAN_PIED_HORNBILL_5.jpg,A1SNC8UL8YFRH5
366,2.0,right,right,1.0,1.6279,0.0,6.0,6.0,6.0,1.0,ORANGE_BRESTED_BUNTING_3.jpg,LITTLE_AUK_5.jpg,A1SNC8UL8YFRH5
367,3.0,right,right,1.0,2.4334,0.0,7.0,7.0,7.0,1.0,CACTUS_WREN_3.jpg,LARK_BUNTING_2.jpg,A1SNC8UL8YFRH5
368,2.0,right,right,1.0,2.0693,0.0,8.0,8.0,8.0,1.0,VULTURINE_GUINEAFOWL_4.jpg,RUBY_THROATED_HUMMINGBIRD_1.jpg,A1SNC8UL8YFRH5
369,1.0,left,left,1.0,1.1116,0.0,9.0,9.0,9.0,1.0,KAGU_5.jpg,RED_BEARDED_BEE_EATER_3.jpg,A1SNC8UL8YFRH5
370,2.0,left,left,1.0,1.2295,0.0,10.0,10.0,10.0,1.0,PEACOCK_3.jpg,STRAWBERRY_FINCH_4.jpg,A1SNC8UL8YFRH5
371,2.0,right,right,1.0,0.9889,0.0,11.0,11.0,11.0,1.0,GREAT_POTOO_3.jpg,WHITE_CHEEKED_TURACO_5.jpg,A1SNC8UL8YFRH5
372,2.0,right,left,0.0,2.078,0.0,12.0,12.0,12.0,1.0,GOLDEN_CHEEKED_WARBLER_3.jpg,BREWERS_BLACKBIRD_3.jpg,A1SNC8UL8YFRH5
373,3.0,left,left,1.0,1.4264,0.0,13.0,13.0,13.0,1.0,CRESTED_CARACARA_4.jpg,TOUCHAN_4.jpg,A1SNC8UL8YFRH5
374,1.0,right,right,1.0,3.1292,0.0,14.0,14.0,14.0,1.0,TEAL_DUCK_2.jpg,EUROPEAN_TURTLE_DOVE_3.jpg,A1SNC8UL8YFRH5
375,3.0,right,right,1.0,1.9094,0.0,15.0,15.0,15.0,1.0,NORTHERN_BEARDLESS_TYRANNULET_5.jpg,EASTERN_TOWEE_2.jpg,A1SNC8UL8YFRH5
376,1.0,left,left,1.0,1.7109,0.0,16.0,16.0,16.0,1.0,CASSOWARY_1.jpg,ROSY_FACED_LOVEBIRD_4.jpg,A1SNC8UL8YFRH5
377,2.0,right,right,1.0,4.3342,0.0,17.0,17.0,17.0,1.0,EURASIAN_MAGPIE_4.jpg,DOUBLE_BRESTED_CORMARANT_5.jpg,A1SNC8UL8YFRH5
378,2.0,right,right,1.0,4.1231,0.0,18.0,18.0,18.0,1.0,NORTHERN_GANNET_1.jpg,INDIGO_BUNTING_1.jpg,A1SNC8UL8YFRH5
379,3.0,right,right,1.0,2.7123,0.0,19.0,19.0,19.0,1.0,BORNEAN_LEAFBIRD_3.jpg,ARARIPE_MANAKIN_4.jpg,A1SNC8UL8YFRH5
380,3.0,right,right,1.0,2.2743,0.0,20.0,20.0,20.0,1.0,COMMON_LOON_2.jpg,CASPIAN_TERN_1.jpg,A1SNC8UL8YFRH5
381,3.0,right,right,1.0,2.555,0.0,21.0,21.0,21.0,1.0,OYSTER_CATCHER_3.jpg,MAGPIE_GOOSE_5.jpg,A1SNC8UL8YFRH5
382,3.0,right,right,1.0,2.2026,0.0,22.0,22.0,22.0,1.0,DOUBLE_EYED_FIG_PARROT_4.jpg,PYGMY_KINGFISHER_5.jpg,A1SNC8UL8YFRH5
383,1.0,left,left,1.0,1.6318,0.0,23.0,23.0,23.0,1.0,GOLDEN_CHEEKED_WARBLER_2.jpg,SPOONBILL_1.jpg,A1SNC8UL8YFRH5
384,2.0,left,left,1.0,1.8014,0.0,24.0,24.0,24.0,1.0,VERMILION_FLYCATHER_3.jpg,CALIFORNIA_GULL_1.jpg,A1SNC8UL8YFRH5
385,2.0,right,right,1.0,1.7411,0.0,25.0,25.0,25.0,1.0,GREEN_MAGPIE_1.jpg,AMERICAN_PIPIT_5.jpg,A1SNC8UL8YFRH5
386,3.0,right,right,1.0,2.2962,0.0,26.0,26.0,26.0,1.0,BORNEAN_BRISTLEHEAD_5.jpg,INCA_TERN_4.jpg,A1SNC8UL8YFRH5
387,1.0,left,left,1.0,4.9166,0.0,27.0,27.0,27.0,1.0,ALPINE_CHOUGH_4.jpg,SNOWY_EGRET_2.jpg,A1SNC8UL8YFRH5
388,1.0,left,left,1.0,2.2895,0.0,28.0,28.0,28.0,1.0,CERULEAN_WARBLER_1.jpg,AMERICAN_FLAMINGO_2.jpg,A1SNC8UL8YFRH5
389,1.0,left,left,1.0,2.8998,0.0,29.0,29.0,29.0,1.0,ASIAN_DOLLARD_BIRD_2.jpg,ALBATROSS_2.jpg,A1SNC8UL8YFRH5
390,1.0,right,right,1.0,2.0977,0.0,30.0,30.0,30.0,1.0,INDIGO_FLYCATCHER_2.jpg,IVORY_GULL_3.jpg,A1SNC8UL8YFRH5
391,1.0,right,right,1.0,3.7995,0.0,31.0,31.0,31.0,1.0,MYNA_4.jpg,OVENBIRD_5.jpg,A1SNC8UL8YFRH5
392,1.0,left,left,1.0,1.4956,0.0,32.0,32.0,32.0,1.0,ECUADORIAN_HILLSTAR_5.jpg,SCARLET_IBIS_2.jpg,A1SNC8UL8YFRH5
393,3.0,right,left,0.0,7.8266,0.0,33.0,33.0,33.0,1.0,PINK_ROBIN_3.jpg,PARUS_MAJOR_1.jpg,A1SNC8UL8YFRH5
394,2.0,right,right,1.0,6.1892,0.0,34.0,34.0,34.0,1.0,AMERICAN_PIPIT_1.jpg,OCELLATED_TURKEY_1.jpg,A1SNC8UL8YFRH5
395,2.0,right,right,1.0,1.6718,0.0,35.0,35.0,35.0,1.0,RAZORBILL_1.jpg,CHUKAR_PARTRIDGE_5.jpg,A1SNC8UL8YFRH5
396,3.0,left,left,1.0,3.0304,0.0,36.0,36.0,36.0,1.0,NORTHERN_JACANA_3.jpg,SCARLET_IBIS_4.jpg,A1SNC8UL8YFRH5
397,3.0,right,right,1.0,16.0225,0.0,37.0,37.0,37.0,1.0,AFRICAN_FIREFINCH_3.jpg,GRAY_KINGBIRD_5.jpg,A1SNC8UL8YFRH5
398,2.0,left,left,1.0,3.4051,0.0,38.0,38.0,38.0,1.0,KILLDEAR_2.jpg,CAATINGA_CACHOLOTE_4.jpg,A1SNC8UL8YFRH5
399,1.0,right,right,1.0,4.1657,0.0,39.0,39.0,39.0,1.0,INDIAN_BUSTARD_2.jpg,FLAME_BOWERBIRD_3.jpg,A1SNC8UL8YFRH5
400,3.0,right,right,1.0,1.5335,0.0,40.0,40.0,40.0,1.0,GO_AWAY_BIRD_5.jpg,STRIPPED_SWALLOW_1.jpg,A1SNC8UL8YFRH5
401,2.0,right,right,1.0,3.7499,0.0,41.0,41.0,41.0,1.0,APAPANE_4.jpg,RUBY_THROATED_HUMMINGBIRD_2.jpg,A1SNC8UL8YFRH5
402,2.0,left,left,1.0,2.115,0.0,42.0,42.0,42.0,1.0,TASMANIAN_HEN_5.jpg,AFRICAN_EMERALD_CUCKOO_5.jpg,A1SNC8UL8YFRH5
403,3.0,left,left,1.0,4.0209,0.0,43.0,43.0,43.0,1.0,GREY_PLOVER_1.jpg,ECUADORIAN_HILLSTAR_3.jpg,A1SNC8UL8YFRH5
404,3.0,left,left,1.0,8.578,0.0,44.0,44.0,44.0,1.0,LESSER_ADJUTANT_4.jpg,FAIRY_TERN_3.jpg,A1SNC8UL8YFRH5
405,1.0,right,right,1.0,2.4065,0.0,45.0,45.0,45.0,1.0,SCARLET_IBIS_3.jpg,CRESTED_NUTHATCH_2.jpg,A1SNC8UL8YFRH5
406,1.0,right,right,1.0,2.8637,0.0,46.0,46.0,46.0,1.0,EASTERN_MEADOWLARK_1.jpg,SHOEBILL_3.jpg,A1SNC8UL8YFRH5
407,3.0,left,left,1.0,2.8608,0.0,47.0,47.0,47.0,1.0,BALI_STARLING_1.jpg,IBERIAN_MAGPIE_1.jpg,A1SNC8UL8YFRH5
408,2.0,left,left,1.0,6.2133,0.0,48.0,48.0,48.0,1.0,GOLDEN_CHLOROPHONIA_5.jpg,COMMON_HOUSE_MARTIN_4.jpg,A1SNC8UL8YFRH5
409,3.0,right,right,1.0,2.5315,0.0,49.0,49.0,49.0,1.0,GUINEA_TURACO_5.jpg,BROWN_NOODY_3.jpg,A1SNC8UL8YFRH5
410,2.0,left,left,1.0,5.0605,0.0,50.0,50.0,50.0,1.0,SCARLET_TANAGER_2.jpg,NORTHERN_GANNET_2.jpg,A1SNC8UL8YFRH5
411,3.0,left,left,1.0,2.2045,0.0,51.0,51.0,51.0,1.0,SPLENDID_WREN_1.jpg,CUBAN_TODY_4.jpg,A1SNC8UL8YFRH5
412,1.0,left,right,0.0,5.85,0.0,52.0,52.0,52.0,1.0,BROWN_THRASHER_3.jpg,DOUBLE_EYED_FIG_PARROT_3.jpg,A1SNC8UL8YFRH5
413,2.0,right,right,1.0,1.8966,0.0,53.0,53.0,53.0,1.0,MAGPIE_GOOSE_3.jpg,RUFOUS_KINGFISHER_1.jpg,A1SNC8UL8YFRH5
414,2.0,right,right,1.0,1.9396,0.0,54.0,54.0,54.0,1.0,CINNAMON_ATTILA_2.jpg,GYRFALCON_1.jpg,A1SNC8UL8YFRH5
415,3.0,right,right,1.0,3.382,0.0,55.0,55.0,55.0,1.0,RED_HEADED_WOODPECKER_1.jpg,LESSER_ADJUTANT_5.jpg,A1SNC8UL8YFRH5
416,2.0,left,left,1.0,3.8678,0.0,56.0,56.0,56.0,1.0,RED_HEADED_WOODPECKER_5.jpg,CRIMSON_CHAT_3.jpg,A1SNC8UL8YFRH5
417,1.0,left,left,1.0,1.8172,0.0,57.0,57.0,57.0,1.0,IVORY_GULL_1.jpg,WILSONS_BIRD_OF_PARADISE_4.jpg,A1SNC8UL8YFRH5
418,2.0,right,right,1.0,4.3933,0.0,58.0,58.0,58.0,1.0,HIMALAYAN_MONAL_2.jpg,HAWAIIAN_GOOSE_4.jpg,A1SNC8UL8YFRH5
419,1.0,left,left,1.0,1.4308,0.0,59.0,59.0,59.0,1.0,MALACHITE_KINGFISHER_2.jpg,AMERICAN_FLAMINGO_1.jpg,A1SNC8UL8YFRH5
420,1.0,right,num_6,0.0,24.0045,0.0,0.0,0.0,0.0,1.0,OSTRICH_5.jpg,CHUKAR_PARTRIDGE_5.jpg,A1TKZIBGTP7FE8
421,3.0,left,num_6,0.0,0.0142,0.0,1.0,1.0,1.0,1.0,ASIAN_DOLLARD_BIRD_2.jpg,VIOLET_GREEN_SWALLOW_4.jpg,A1TKZIBGTP7FE8
422,1.0,right,right,1.0,10.8584,0.0,2.0,2.0,2.0,1.0,DOUBLE_EYED_FIG_PARROT_3.jpg,BROWN_THRASHER_3.jpg,A1TKZIBGTP7FE8
423,2.0,left,right,0.0,4.9864,0.0,3.0,3.0,3.0,1.0,OVENBIRD_5.jpg,FAIRY_PENGUIN_1.jpg,A1TKZIBGTP7FE8
424,3.0,right,right,1.0,1.8584,0.0,4.0,4.0,4.0,1.0,QUETZAL_3.jpg,FLAME_BOWERBIRD_3.jpg,A1TKZIBGTP7FE8
425,3.0,right,left,0.0,0.5462,0.0,5.0,5.0,5.0,1.0,CRIMSON_SUNBIRD_5.jpg,ECUADORIAN_HILLSTAR_5.jpg,A1TKZIBGTP7FE8
426,2.0,right,left,0.0,3.7174,0.0,6.0,6.0,6.0,1.0,NORTHERN_GANNET_1.jpg,INDIGO_BUNTING_1.jpg,A1TKZIBGTP7FE8
427,2.0,left,left,1.0,6.4558,0.0,7.0,7.0,7.0,1.0,RED_HEADED_WOODPECKER_5.jpg,CRIMSON_CHAT_3.jpg,A1TKZIBGTP7FE8
428,2.0,left,left,1.0,2.072,0.0,8.0,8.0,8.0,1.0,IVORY_GULL_1.jpg,EASTERN_GOLDEN_WEAVER_5.jpg,A1TKZIBGTP7FE8
429,3.0,left,left,1.0,4.2221,0.0,9.0,9.0,9.0,1.0,IVORY_GULL_3.jpg,SNOWY_EGRET_4.jpg,A1TKZIBGTP7FE8
430,1.0,left,right,0.0,6.4601,0.0,10.0,10.0,10.0,1.0,OCELLATED_TURKEY_1.jpg,CHIPPING_SPARROW_1.jpg,A1TKZIBGTP7FE8
431,3.0,right,left,0.0,5.2684,0.0,11.0,11.0,11.0,1.0,HORNED_SUNGEM_4.jpg,RUFOUS_KINGFISHER_1.jpg,A1TKZIBGTP7FE8
432,2.0,right,right,1.0,0.0114,0.0,12.0,12.0,12.0,1.0,COCK_OF_THE__ROCK_4.jpg,GRAY_KINGBIRD_5.jpg,A1TKZIBGTP7FE8
433,1.0,right,right,1.0,12.7138,0.0,13.0,13.0,13.0,1.0,INDIAN_BUSTARD_1.jpg,VERMILION_FLYCATHER_3.jpg,A1TKZIBGTP7FE8
434,3.0,right,left,0.0,0.2019,0.0,14.0,14.0,14.0,1.0,AFRICAN_OYSTER_CATCHER_2.jpg,CASSOWARY_1.jpg,A1TKZIBGTP7FE8
435,1.0,right,left,0.0,18.8713,0.0,15.0,15.0,15.0,1.0,SCARLET_IBIS_3.jpg,CRESTED_NUTHATCH_2.jpg,A1TKZIBGTP7FE8
436,1.0,right,right,1.0,0.0079,0.0,16.0,16.0,16.0,1.0,BEARDED_BARBET_2.jpg,SCARLET_TANAGER_2.jpg,A1TKZIBGTP7FE8
437,3.0,right,left,0.0,0.3002,0.0,17.0,17.0,17.0,1.0,MALABAR_HORNBILL_2.jpg,EUROPEAN_TURTLE_DOVE_3.jpg,A1TKZIBGTP7FE8
438,1.0,right,right,1.0,0.3687,0.0,18.0,18.0,18.0,1.0,MALAGASY_WHITE_EYE_2.jpg,RUBY_THROATED_HUMMINGBIRD_3.jpg,A1TKZIBGTP7FE8
439,3.0,left,right,0.0,1.6323,0.0,19.0,19.0,19.0,1.0,GOLDEN_CHEEKED_WARBLER_2.jpg,WHITE_THROATED_BEE_EATER_1.jpg,A1TKZIBGTP7FE8
440,2.0,right,right,1.0,0.016,0.0,20.0,20.0,20.0,1.0,HIMALAYAN_MONAL_2.jpg,HAWAIIAN_GOOSE_4.jpg,A1TKZIBGTP7FE8
441,1.0,left,right,0.0,0.4109,0.0,21.0,21.0,21.0,1.0,EASTERN_TOWEE_2.jpg,SANDHILL_CRANE_2.jpg,A1TKZIBGTP7FE8
442,1.0,left,right,0.0,0.0113,0.0,22.0,22.0,22.0,1.0,BALI_STARLING_1.jpg,CAPE_LONGCLAW_5.jpg,A1TKZIBGTP7FE8
443,2.0,left,right,0.0,0.4935,0.0,23.0,23.0,23.0,1.0,MALACHITE_KINGFISHER_2.jpg,INCA_TERN_2.jpg,A1TKZIBGTP7FE8
444,3.0,left,right,0.0,0.0106,0.0,24.0,24.0,24.0,1.0,SPLENDID_WREN_1.jpg,CUBAN_TODY_4.jpg,A1TKZIBGTP7FE8
445,2.0,left,right,0.0,0.0105,0.0,25.0,25.0,25.0,1.0,KAGU_5.jpg,ASHY_STORM_PETREL_1.jpg,A1TKZIBGTP7FE8
446,2.0,right,left,0.0,0.0139,0.0,26.0,26.0,26.0,1.0,STRAWBERRY_FINCH_4.jpg,PEACOCK_3.jpg,A1TKZIBGTP7FE8
447,1.0,right,left,0.0,0.4354,0.0,27.0,27.0,27.0,1.0,GRANDALA_2.jpg,PYGMY_KINGFISHER_5.jpg,A1TKZIBGTP7FE8
448,3.0,left,left,1.0,0.4007,0.0,28.0,28.0,28.0,1.0,LESSER_ADJUTANT_4.jpg,FAIRY_TERN_3.jpg,A1TKZIBGTP7FE8
449,3.0,right,left,0.0,0.215,0.0,29.0,29.0,29.0,1.0,CAPUCHINBIRD_2.jpg,AFRICAN_PIED_HORNBILL_5.jpg,A1TKZIBGTP7FE8
450,3.0,left,left,1.0,1.9679,0.0,30.0,30.0,30.0,1.0,GOLDEN_CHLOROPHONIA_5.jpg,VERMILION_FLYCATHER_5.jpg,A1TKZIBGTP7FE8
451,1.0,right,left,0.0,3.3442,0.0,31.0,31.0,31.0,1.0,NORTHERN_MOCKINGBIRD_4.jpg,WHITE_CHEEKED_TURACO_5.jpg,A1TKZIBGTP7FE8
452,2.0,left,right,0.0,3.7938,0.0,32.0,32.0,32.0,1.0,INCA_TERN_4.jpg,SMITHS_LONGSPUR_5.jpg,A1TKZIBGTP7FE8
453,2.0,left,left,1.0,0.0073,0.0,33.0,33.0,33.0,1.0,CERULEAN_WARBLER_1.jpg,AMERICAN_FLAMINGO_5.jpg,A1TKZIBGTP7FE8
454,2.0,left,left,1.0,0.0174,0.0,34.0,34.0,34.0,1.0,BROWN_NOODY_3.jpg,SPANGLED_COTINGA_4.jpg,A1TKZIBGTP7FE8
455,1.0,left,right,0.0,0.4607,0.0,35.0,35.0,35.0,1.0,BREWERS_BLACKBIRD_3.jpg,GUINEA_TURACO_3.jpg,A1TKZIBGTP7FE8
456,3.0,right,right,1.0,0.4065,0.0,36.0,36.0,36.0,1.0,AZURE_TIT_5.jpg,KILLDEAR_2.jpg,A1TKZIBGTP7FE8
457,1.0,left,right,0.0,0.0176,0.0,37.0,37.0,37.0,1.0,LESSER_ADJUTANT_5.jpg,GREEN_BROADBILL_4.jpg,A1TKZIBGTP7FE8
458,3.0,right,left,0.0,0.5484,0.0,38.0,38.0,38.0,1.0,HEPATIC_TANAGER_5.jpg,AMERICAN_PIPIT_5.jpg,A1TKZIBGTP7FE8
459,1.0,left,right,0.0,0.0199,0.0,39.0,39.0,39.0,1.0,TASMANIAN_HEN_5.jpg,GREEN_BROADBILL_1.jpg,A1TKZIBGTP7FE8
460,2.0,left,left,1.0,0.9513,0.0,40.0,40.0,40.0,1.0,MAGPIE_GOOSE_5.jpg,HAMERKOP_1.jpg,A1TKZIBGTP7FE8
461,1.0,right,left,0.0,0.0095,0.0,41.0,41.0,41.0,1.0,SNOWY_EGRET_2.jpg,ALPINE_CHOUGH_4.jpg,A1TKZIBGTP7FE8
462,1.0,right,right,1.0,0.0228,0.0,42.0,42.0,42.0,1.0,SANDHILL_CRANE_4.jpg,PARUS_MAJOR_1.jpg,A1TKZIBGTP7FE8
463,3.0,left,left,1.0,0.5672,0.0,43.0,43.0,43.0,1.0,PINK_ROBIN_4.jpg,COMMON_IORA_4.jpg,A1TKZIBGTP7FE8
464,1.0,left,left,1.0,0.0094,0.0,44.0,44.0,44.0,1.0,CRESTED_CARACARA_4.jpg,FAIRY_PENGUIN_5.jpg,A1TKZIBGTP7FE8
465,2.0,left,left,1.0,0.0088,0.0,45.0,45.0,45.0,1.0,RUBY_THROATED_HUMMINGBIRD_2.jpg,APAPANE_4.jpg,A1TKZIBGTP7FE8
466,3.0,right,right,1.0,0.0098,0.0,46.0,46.0,46.0,1.0,CRESTED_KINGFISHER_1.jpg,INLAND_DOTTEREL_4.jpg,A1TKZIBGTP7FE8
467,3.0,right,right,1.0,0.0118,0.0,47.0,47.0,47.0,1.0,ECUADORIAN_HILLSTAR_3.jpg,GREY_PLOVER_1.jpg,A1TKZIBGTP7FE8
468,1.0,right,left,0.0,0.3795,0.0,48.0,48.0,48.0,1.0,BANANAQUIT_2.jpg,RUBY_THROATED_HUMMINGBIRD_1.jpg,A1TKZIBGTP7FE8
469,3.0,left,right,0.0,0.0088,0.0,49.0,49.0,49.0,1.0,MYNA_1.jpg,PARADISE_TANAGER_3.jpg,A1TKZIBGTP7FE8
470,1.0,left,right,0.0,0.0366,0.0,50.0,50.0,50.0,1.0,GYRFALCON_1.jpg,OSTRICH_1.jpg,A1TKZIBGTP7FE8
471,2.0,left,right,0.0,0.9536,0.0,51.0,51.0,51.0,1.0,STRIPPED_SWALLOW_1.jpg,MAGPIE_GOOSE_4.jpg,A1TKZIBGTP7FE8
472,2.0,left,right,0.0,0.1837,0.0,52.0,52.0,52.0,1.0,SHOEBILL_3.jpg,GILDED_FLICKER_5.jpg,A1TKZIBGTP7FE8
473,2.0,right,left,0.0,0.4867,0.0,53.0,53.0,53.0,1.0,EURASIAN_MAGPIE_4.jpg,DOUBLE_BRESTED_CORMARANT_5.jpg,A1TKZIBGTP7FE8
474,3.0,right,right,1.0,0.1715,0.0,54.0,54.0,54.0,1.0,BEARDED_BELLBIRD_1.jpg,LITTLE_AUK_5.jpg,A1TKZIBGTP7FE8
475,2.0,left,right,0.0,0.0174,0.0,55.0,55.0,55.0,1.0,LARK_BUNTING_2.jpg,KING_VULTURE_3.jpg,A1TKZIBGTP7FE8
476,1.0,right,left,0.0,0.0071,0.0,56.0,56.0,56.0,1.0,CANARY_2.jpg,ASIAN_CRESTED_IBIS_4.jpg,A1TKZIBGTP7FE8
477,2.0,left,right,0.0,0.9203,0.0,57.0,57.0,57.0,1.0,NORTHERN_JACANA_3.jpg,CRAB_PLOVER_3.jpg,A1TKZIBGTP7FE8
478,2.0,left,left,1.0,0.0083,0.0,58.0,58.0,58.0,1.0,CASPIAN_TERN_1.jpg,EUROPEAN_GOLDFINCH_4.jpg,A1TKZIBGTP7FE8
479,3.0,right,left,0.0,0.0189,0.0,59.0,59.0,59.0,1.0,BORNEAN_LEAFBIRD_3.jpg,ARARIPE_MANAKIN_4.jpg,A1TKZIBGTP7FE8
480,3.0,left,left,1.0,3.802,0.0,0.0,0.0,0.0,1.0,VERMILION_FLYCATHER_3.jpg,RED_BEARDED_BEE_EATER_1.jpg,A25PFSORDO3SWQ
481,2.0,left,right,0.0,6.733,0.0,1.0,1.0,1.0,1.0,MYNA_1.jpg,GREY_PLOVER_4.jpg,A25PFSORDO3SWQ
482,3.0,right,right,1.0,7.329,0.0,2.0,2.0,2.0,1.0,WATTLED_LAPWING_3.jpg,HAWAIIAN_GOOSE_4.jpg,A25PFSORDO3SWQ
483,3.0,left,left,1.0,1.963,0.0,3.0,3.0,3.0,1.0,GOLDEN_CHEEKED_WARBLER_2.jpg,WHITE_THROATED_BEE_EATER_1.jpg,A25PFSORDO3SWQ
484,1.0,left,left,1.0,1.484,0.0,4.0,4.0,4.0,1.0,STRIPPED_SWALLOW_1.jpg,DOUBLE_BRESTED_CORMARANT_4.jpg,A25PFSORDO3SWQ
485,1.0,right,right,1.0,1.513,0.0,5.0,5.0,5.0,1.0,FRIGATE_4.jpg,INDIGO_BUNTING_1.jpg,A25PFSORDO3SWQ
486,3.0,left,left,1.0,1.28,0.0,6.0,6.0,6.0,1.0,ASIAN_CRESTED_IBIS_4.jpg,IVORY_GULL_2.jpg,A25PFSORDO3SWQ
487,2.0,right,right,1.0,1.164,0.0,7.0,7.0,7.0,1.0,ALBATROSS_4.jpg,PINK_ROBIN_4.jpg,A25PFSORDO3SWQ
488,2.0,left,left,1.0,5.764,0.0,8.0,8.0,8.0,1.0,CHUKAR_PARTRIDGE_5.jpg,RAZORBILL_1.jpg,A25PFSORDO3SWQ
489,2.0,right,right,1.0,1.281,0.0,9.0,9.0,9.0,1.0,GILDED_FLICKER_5.jpg,SHOEBILL_3.jpg,A25PFSORDO3SWQ
490,3.0,right,right,1.0,2.866,0.0,10.0,10.0,10.0,1.0,CAPUCHINBIRD_2.jpg,AFRICAN_PIED_HORNBILL_5.jpg,A25PFSORDO3SWQ
491,2.0,right,right,1.0,1.548,0.0,11.0,11.0,11.0,1.0,DOUBLE_BRESTED_CORMARANT_1.jpg,SPLENDID_WREN_1.jpg,A25PFSORDO3SWQ
492,2.0,left,right,0.0,7.051,0.0,12.0,12.0,12.0,1.0,BALI_STARLING_1.jpg,PURPLE_FINCH_2.jpg,A25PFSORDO3SWQ
493,3.0,left,left,1.0,1.284,0.0,13.0,13.0,13.0,1.0,CASSOWARY_1.jpg,AFRICAN_OYSTER_CATCHER_2.jpg,A25PFSORDO3SWQ
494,2.0,right,right,1.0,3.899,0.0,14.0,14.0,14.0,1.0,BLACK_VULTURE_1.jpg,ARARIPE_MANAKIN_4.jpg,A25PFSORDO3SWQ
495,2.0,left,left,1.0,3.433,0.0,15.0,15.0,15.0,1.0,INLAND_DOTTEREL_4.jpg,NICOBAR_PIGEON_4.jpg,A25PFSORDO3SWQ
496,2.0,right,right,1.0,1.778,0.0,16.0,16.0,16.0,1.0,FLAME_TANAGER_3.jpg,IVORY_GULL_3.jpg,A25PFSORDO3SWQ
497,1.0,right,right,1.0,2.289,0.0,17.0,17.0,17.0,1.0,TEAL_DUCK_2.jpg,EUROPEAN_TURTLE_DOVE_3.jpg,A25PFSORDO3SWQ
498,3.0,left,right,0.0,2.384,0.0,18.0,18.0,18.0,1.0,GOLDEN_CHLOROPHONIA_5.jpg,VERMILION_FLYCATHER_5.jpg,A25PFSORDO3SWQ
499,2.0,right,left,0.0,7.484,0.0,19.0,19.0,19.0,1.0,AFRICAN_FIREFINCH_1.jpg,CRESTED_NUTHATCH_2.jpg,A25PFSORDO3SWQ
500,3.0,left,left,1.0,6.612,0.0,20.0,20.0,20.0,1.0,BREWERS_BLACKBIRD_3.jpg,CAPE_LONGCLAW_2.jpg,A25PFSORDO3SWQ
501,1.0,left,left,1.0,2.399,0.0,21.0,21.0,21.0,1.0,BROWN_NOODY_3.jpg,PEACOCK_2.jpg,A25PFSORDO3SWQ
502,1.0,right,right,1.0,10.786,0.0,22.0,22.0,22.0,1.0,SNOWY_EGRET_2.jpg,ALPINE_CHOUGH_4.jpg,A25PFSORDO3SWQ
503,3.0,right,right,1.0,2.448,0.0,23.0,23.0,23.0,1.0,SCARLET_IBIS_4.jpg,NORTHERN_JACANA_3.jpg,A25PFSORDO3SWQ
504,1.0,left,left,1.0,2.232,0.0,24.0,24.0,24.0,1.0,KILLDEAR_2.jpg,PEACOCK_5.jpg,A25PFSORDO3SWQ
505,1.0,right,right,1.0,10.28,0.0,25.0,25.0,25.0,1.0,GREEN_BROADBILL_1.jpg,TASMANIAN_HEN_5.jpg,A25PFSORDO3SWQ
506,3.0,right,right,1.0,2.964,0.0,26.0,26.0,26.0,1.0,OYSTER_CATCHER_3.jpg,MAGPIE_GOOSE_5.jpg,A25PFSORDO3SWQ
507,2.0,right,right,1.0,8.944,0.0,27.0,27.0,27.0,1.0,NORTHERN_GANNET_2.jpg,SCARLET_TANAGER_2.jpg,A25PFSORDO3SWQ
508,1.0,right,right,1.0,1.545,0.0,28.0,28.0,28.0,1.0,OSTRICH_1.jpg,GYRFALCON_1.jpg,A25PFSORDO3SWQ
509,1.0,right,right,1.0,4.03,0.0,29.0,29.0,29.0,1.0,BANANAQUIT_2.jpg,RUBY_THROATED_HUMMINGBIRD_1.jpg,A25PFSORDO3SWQ
510,3.0,left,left,1.0,4.116,0.0,30.0,30.0,30.0,1.0,MALACHITE_KINGFISHER_2.jpg,GREEN_BROADBILL_5.jpg,A25PFSORDO3SWQ
511,1.0,left,left,1.0,1.812,0.0,31.0,31.0,31.0,1.0,CERULEAN_WARBLER_1.jpg,AMERICAN_FLAMINGO_2.jpg,A25PFSORDO3SWQ
512,2.0,left,left,1.0,5.03,0.0,32.0,32.0,32.0,1.0,PEACOCK_3.jpg,STRAWBERRY_FINCH_4.jpg,A25PFSORDO3SWQ
513,2.0,right,left,0.0,6.495,0.0,33.0,33.0,33.0,1.0,MAGPIE_GOOSE_3.jpg,RUFOUS_KINGFISHER_1.jpg,A25PFSORDO3SWQ
514,2.0,right,right,1.0,1.95,0.0,34.0,34.0,34.0,1.0,GOULDIAN_FINCH_4.jpg,GREY_PLOVER_1.jpg,A25PFSORDO3SWQ
515,1.0,right,left,0.0,3.815,0.0,35.0,35.0,35.0,1.0,NORTHERN_MOCKINGBIRD_4.jpg,WHITE_CHEEKED_TURACO_5.jpg,A25PFSORDO3SWQ
516,3.0,left,right,0.0,15.26,0.0,36.0,36.0,36.0,1.0,DOUBLE_BRESTED_CORMARANT_5.jpg,CHINESE_POND_HERON_2.jpg,A25PFSORDO3SWQ
517,1.0,right,right,1.0,2.169,0.0,37.0,37.0,37.0,1.0,CHIPPING_SPARROW_1.jpg,OCELLATED_TURKEY_1.jpg,A25PFSORDO3SWQ
518,1.0,left,left,1.0,5.844,0.0,38.0,38.0,38.0,1.0,AMERICAN_PIPIT_5.jpg,EMU_2.jpg,A25PFSORDO3SWQ
519,1.0,right,right,1.0,1.631,0.0,39.0,39.0,39.0,1.0,BALD_EAGLE_2.jpg,GRAY_KINGBIRD_5.jpg,A25PFSORDO3SWQ
520,2.0,left,right,0.0,4.137,0.0,40.0,40.0,40.0,1.0,CASPIAN_TERN_1.jpg,EUROPEAN_GOLDFINCH_4.jpg,A25PFSORDO3SWQ
521,3.0,left,left,1.0,2.966,0.0,41.0,41.0,41.0,1.0,FLAME_BOWERBIRD_3.jpg,QUETZAL_3.jpg,A25PFSORDO3SWQ
522,3.0,right,left,0.0,6.551,0.0,42.0,42.0,42.0,1.0,CACTUS_WREN_3.jpg,LARK_BUNTING_2.jpg,A25PFSORDO3SWQ
523,1.0,right,right,1.0,2.911,0.0,43.0,43.0,43.0,1.0,ALBATROSS_2.jpg,ASIAN_DOLLARD_BIRD_2.jpg,A25PFSORDO3SWQ
524,3.0,left,left,1.0,1.966,0.0,44.0,44.0,44.0,1.0,IVORY_GULL_1.jpg,FAIRY_TERN_4.jpg,A25PFSORDO3SWQ
525,2.0,right,right,1.0,2.845,0.0,45.0,45.0,45.0,1.0,FAIRY_PENGUIN_1.jpg,OVENBIRD_5.jpg,A25PFSORDO3SWQ
526,1.0,left,left,1.0,2.234,0.0,46.0,46.0,46.0,1.0,RUBY_THROATED_HUMMINGBIRD_3.jpg,MALAGASY_WHITE_EYE_2.jpg,A25PFSORDO3SWQ
527,2.0,left,left,1.0,6.168,0.0,47.0,47.0,47.0,1.0,EASTERN_TOWEE_2.jpg,GOLDEN_CHLOROPHONIA_1.jpg,A25PFSORDO3SWQ
528,3.0,right,right,1.0,4.878,0.0,48.0,48.0,48.0,1.0,BEARDED_BELLBIRD_1.jpg,LITTLE_AUK_5.jpg,A25PFSORDO3SWQ
529,1.0,left,left,1.0,3.566,0.0,49.0,49.0,49.0,1.0,CRESTED_CARACARA_4.jpg,FAIRY_PENGUIN_5.jpg,A25PFSORDO3SWQ
530,3.0,left,left,1.0,3.19,0.0,50.0,50.0,50.0,1.0,RED_HEADED_WOODPECKER_5.jpg,COLLARED_ARACARI_1.jpg,A25PFSORDO3SWQ
531,1.0,left,left,1.0,2.432,0.0,51.0,51.0,51.0,1.0,LESSER_ADJUTANT_5.jpg,GREEN_BROADBILL_4.jpg,A25PFSORDO3SWQ
532,2.0,left,left,1.0,3.667,0.0,52.0,52.0,52.0,1.0,RUBY_THROATED_HUMMINGBIRD_2.jpg,APAPANE_4.jpg,A25PFSORDO3SWQ
533,3.0,right,right,1.0,2.829,0.0,53.0,53.0,53.0,1.0,DOUBLE_EYED_FIG_PARROT_4.jpg,PYGMY_KINGFISHER_5.jpg,A25PFSORDO3SWQ
534,2.0,left,left,1.0,3.588,0.0,54.0,54.0,54.0,1.0,BROWN_THRASHER_3.jpg,OYSTER_CATCHER_4.jpg,A25PFSORDO3SWQ
535,2.0,left,right,0.0,3.804,0.0,55.0,55.0,55.0,1.0,INCA_TERN_4.jpg,SMITHS_LONGSPUR_5.jpg,A25PFSORDO3SWQ
536,3.0,right,right,1.0,2.605,0.0,56.0,56.0,56.0,1.0,CRIMSON_SUNBIRD_5.jpg,ECUADORIAN_HILLSTAR_5.jpg,A25PFSORDO3SWQ
537,3.0,right,right,1.0,1.941,0.0,57.0,57.0,57.0,1.0,FAIRY_TERN_3.jpg,LESSER_ADJUTANT_4.jpg,A25PFSORDO3SWQ
538,1.0,left,left,1.0,2.284,0.0,58.0,58.0,58.0,1.0,KAGU_5.jpg,RED_BEARDED_BEE_EATER_3.jpg,A25PFSORDO3SWQ
539,1.0,right,right,1.0,2.038,0.0,59.0,59.0,59.0,1.0,SANDHILL_CRANE_4.jpg,PARUS_MAJOR_1.jpg,A25PFSORDO3SWQ
540,2.0,left,left,1.0,2.2838,0.0,0.0,0.0,0.0,1.0,RUBY_THROATED_HUMMINGBIRD_2.jpg,APAPANE_4.jpg,A2IP3ZAFYGV8M9
541,1.0,left,left,1.0,1.7012,0.0,1.0,1.0,1.0,1.0,CASSOWARY_1.jpg,ROSY_FACED_LOVEBIRD_4.jpg,A2IP3ZAFYGV8M9
542,3.0,left,left,1.0,2.8186,0.0,2.0,2.0,2.0,1.0,ECUADORIAN_HILLSTAR_5.jpg,CRIMSON_SUNBIRD_5.jpg,A2IP3ZAFYGV8M9
543,1.0,right,right,1.0,1.831,0.0,3.0,3.0,3.0,1.0,GILDED_FLICKER_2.jpg,DOUBLE_BRESTED_CORMARANT_5.jpg,A2IP3ZAFYGV8M9
544,2.0,right,right,1.0,1.2746,0.0,4.0,4.0,4.0,1.0,INCA_TERN_2.jpg,MALACHITE_KINGFISHER_2.jpg,A2IP3ZAFYGV8M9
545,1.0,left,left,1.0,1.545,0.0,5.0,5.0,5.0,1.0,RED_HEADED_WOODPECKER_5.jpg,ASHY_STORM_PETREL_2.jpg,A2IP3ZAFYGV8M9
546,1.0,right,right,1.0,2.0178,0.0,6.0,6.0,6.0,1.0,SANDHILL_CRANE_4.jpg,PARUS_MAJOR_1.jpg,A2IP3ZAFYGV8M9
547,2.0,right,right,1.0,1.506,0.0,7.0,7.0,7.0,1.0,AFRICAN_EMERALD_CUCKOO_5.jpg,TASMANIAN_HEN_5.jpg,A2IP3ZAFYGV8M9
548,2.0,right,right,1.0,1.9734,0.0,8.0,8.0,8.0,1.0,CAATINGA_CACHOLOTE_4.jpg,KILLDEAR_2.jpg,A2IP3ZAFYGV8M9
549,1.0,left,right,0.0,1.7041,0.0,9.0,9.0,9.0,1.0,RUBY_THROATED_HUMMINGBIRD_1.jpg,BANANAQUIT_2.jpg,A2IP3ZAFYGV8M9
550,3.0,left,left,1.0,1.7003,0.0,10.0,10.0,10.0,1.0,LARK_BUNTING_2.jpg,CACTUS_WREN_3.jpg,A2IP3ZAFYGV8M9
551,1.0,right,right,1.0,1.7615,0.0,11.0,11.0,11.0,1.0,MYNA_4.jpg,OVENBIRD_5.jpg,A2IP3ZAFYGV8M9
552,1.0,right,right,1.0,1.7132,0.0,12.0,12.0,12.0,1.0,SPOONBILL_1.jpg,GOLDEN_CHEEKED_WARBLER_2.jpg,A2IP3ZAFYGV8M9
553,3.0,right,right,1.0,2.2618,0.0,13.0,13.0,13.0,1.0,BLACK_BAZA_4.jpg,BROWN_THRASHER_3.jpg,A2IP3ZAFYGV8M9
554,1.0,right,right,1.0,1.2297,0.0,14.0,14.0,14.0,1.0,PEACOCK_2.jpg,BROWN_NOODY_3.jpg,A2IP3ZAFYGV8M9
555,3.0,right,right,1.0,1.6194,0.0,15.0,15.0,15.0,1.0,CAPE_LONGCLAW_2.jpg,BREWERS_BLACKBIRD_3.jpg,A2IP3ZAFYGV8M9
556,3.0,right,left,0.0,4.1919,0.0,16.0,16.0,16.0,1.0,DARWINS_FLYCATCHER_2.jpg,INDIGO_BUNTING_1.jpg,A2IP3ZAFYGV8M9
557,2.0,left,left,1.0,2.1291,0.0,17.0,17.0,17.0,1.0,SCARLET_TANAGER_2.jpg,NORTHERN_GANNET_2.jpg,A2IP3ZAFYGV8M9
558,3.0,left,left,1.0,1.8133,0.0,18.0,18.0,18.0,1.0,ASIAN_CRESTED_IBIS_4.jpg,IVORY_GULL_2.jpg,A2IP3ZAFYGV8M9
559,3.0,left,left,1.0,2.5714,0.0,19.0,19.0,19.0,1.0,CRESTED_CARACARA_4.jpg,TOUCHAN_4.jpg,A2IP3ZAFYGV8M9
560,3.0,right,right,1.0,2.2182,0.0,20.0,20.0,20.0,1.0,CRESTED_KINGFISHER_1.jpg,INLAND_DOTTEREL_4.jpg,A2IP3ZAFYGV8M9
561,2.0,right,left,0.0,2.3694,0.0,21.0,21.0,21.0,1.0,PURPLE_FINCH_2.jpg,BALI_STARLING_1.jpg,A2IP3ZAFYGV8M9
562,3.0,right,right,1.0,2.6669,0.0,22.0,22.0,22.0,1.0,HEPATIC_TANAGER_5.jpg,AMERICAN_PIPIT_5.jpg,A2IP3ZAFYGV8M9
563,1.0,right,right,1.0,2.0642,0.0,23.0,23.0,23.0,1.0,SCARLET_IBIS_3.jpg,CRESTED_NUTHATCH_2.jpg,A2IP3ZAFYGV8M9
564,1.0,left,left,1.0,1.2878,0.0,24.0,24.0,24.0,1.0,SHOEBILL_3.jpg,EASTERN_MEADOWLARK_1.jpg,A2IP3ZAFYGV8M9
565,3.0,right,right,1.0,5.0219,0.0,25.0,25.0,25.0,1.0,VERMILION_FLYCATHER_5.jpg,GOLDEN_CHLOROPHONIA_5.jpg,A2IP3ZAFYGV8M9
566,3.0,left,right,0.0,6.8811,0.0,26.0,26.0,26.0,1.0,MAGPIE_GOOSE_5.jpg,OYSTER_CATCHER_3.jpg,A2IP3ZAFYGV8M9
567,2.0,left,right,0.0,2.089,0.0,27.0,27.0,27.0,1.0,MYNA_1.jpg,GREY_PLOVER_4.jpg,A2IP3ZAFYGV8M9
568,2.0,right,right,1.0,2.0458,0.0,28.0,28.0,28.0,1.0,SMITHS_LONGSPUR_5.jpg,INCA_TERN_4.jpg,A2IP3ZAFYGV8M9
569,3.0,right,right,1.0,2.6813,0.0,29.0,29.0,29.0,1.0,PYGMY_KINGFISHER_2.jpg,WHITE_CHEEKED_TURACO_5.jpg,A2IP3ZAFYGV8M9
570,1.0,left,right,0.0,2.5029,0.0,30.0,30.0,30.0,1.0,HAWAIIAN_GOOSE_4.jpg,CUBAN_TODY_3.jpg,A2IP3ZAFYGV8M9
571,2.0,left,left,1.0,2.065,0.0,31.0,31.0,31.0,1.0,NORTHERN_JACANA_3.jpg,CRAB_PLOVER_3.jpg,A2IP3ZAFYGV8M9
572,2.0,right,left,0.0,3.1127,0.0,32.0,32.0,32.0,1.0,FLAME_TANAGER_3.jpg,IVORY_GULL_3.jpg,A2IP3ZAFYGV8M9
573,3.0,right,right,1.0,3.2311,0.0,33.0,33.0,33.0,1.0,PURPLE_SWAMPHEN_4.jpg,OCELLATED_TURKEY_1.jpg,A2IP3ZAFYGV8M9
574,1.0,left,left,1.0,2.3106,0.0,34.0,34.0,34.0,1.0,EUROPEAN_TURTLE_DOVE_3.jpg,TEAL_DUCK_2.jpg,A2IP3ZAFYGV8M9
575,1.0,left,left,1.0,1.8067,0.0,35.0,35.0,35.0,1.0,LESSER_ADJUTANT_5.jpg,GREEN_BROADBILL_4.jpg,A2IP3ZAFYGV8M9
576,3.0,left,left,1.0,3.243,0.0,36.0,36.0,36.0,1.0,CASPIAN_TERN_1.jpg,COMMON_LOON_2.jpg,A2IP3ZAFYGV8M9
577,1.0,right,right,1.0,1.0412,0.0,37.0,37.0,37.0,1.0,ALBATROSS_2.jpg,ASIAN_DOLLARD_BIRD_2.jpg,A2IP3ZAFYGV8M9
578,3.0,left,right,0.0,3.2101,0.0,38.0,38.0,38.0,1.0,PEACOCK_3.jpg,CHATTERING_LORY_2.jpg,A2IP3ZAFYGV8M9
579,2.0,left,left,1.0,1.2118,0.0,39.0,39.0,39.0,1.0,PYGMY_KINGFISHER_5.jpg,MASKED_BOOBY_5.jpg,A2IP3ZAFYGV8M9
580,3.0,right,right,1.0,1.8954,0.0,40.0,40.0,40.0,1.0,RED_BEARDED_BEE_EATER_1.jpg,VERMILION_FLYCATHER_3.jpg,A2IP3ZAFYGV8M9
581,1.0,left,left,1.0,1.5307,0.0,41.0,41.0,41.0,1.0,GYRFALCON_1.jpg,OSTRICH_1.jpg,A2IP3ZAFYGV8M9
582,2.0,left,left,1.0,3.7694,0.0,42.0,42.0,42.0,1.0,LESSER_ADJUTANT_4.jpg,RAINBOW_LORIKEET_5.jpg,A2IP3ZAFYGV8M9
583,1.0,left,left,1.0,4.1938,0.0,43.0,43.0,43.0,1.0,GREY_PLOVER_1.jpg,HYACINTH_MACAW_3.jpg,A2IP3ZAFYGV8M9
584,2.0,left,left,1.0,1.5253,0.0,44.0,44.0,44.0,1.0,RUBY_THROATED_HUMMINGBIRD_3.jpg,MYNA_5.jpg,A2IP3ZAFYGV8M9
585,2.0,right,left,0.0,3.4676,0.0,45.0,45.0,45.0,1.0,BROWN_THRASHER_4.jpg,FLAME_BOWERBIRD_3.jpg,A2IP3ZAFYGV8M9
586,1.0,right,left,0.0,1.8052,0.0,46.0,46.0,46.0,1.0,RED_BEARDED_BEE_EATER_3.jpg,KAGU_5.jpg,A2IP3ZAFYGV8M9
587,3.0,left,left,1.0,2.1084,0.0,47.0,47.0,47.0,1.0,AFRICAN_PIED_HORNBILL_5.jpg,CAPUCHINBIRD_2.jpg,A2IP3ZAFYGV8M9
588,1.0,right,right,1.0,1.6737,0.0,48.0,48.0,48.0,1.0,AMERICAN_FLAMINGO_2.jpg,CERULEAN_WARBLER_1.jpg,A2IP3ZAFYGV8M9
589,2.0,right,right,1.0,1.6148,0.0,49.0,49.0,49.0,1.0,MAGPIE_GOOSE_4.jpg,STRIPPED_SWALLOW_1.jpg,A2IP3ZAFYGV8M9
590,1.0,left,left,1.0,2.7332,0.0,50.0,50.0,50.0,1.0,ARARIPE_MANAKIN_4.jpg,KIWI_3.jpg,A2IP3ZAFYGV8M9
591,2.0,right,right,1.0,4.1663,0.0,51.0,51.0,51.0,1.0,RAZORBILL_1.jpg,CHUKAR_PARTRIDGE_5.jpg,A2IP3ZAFYGV8M9
592,1.0,left,left,1.0,1.9302,0.0,52.0,52.0,52.0,1.0,GRAY_KINGBIRD_5.jpg,BALD_EAGLE_2.jpg,A2IP3ZAFYGV8M9
593,2.0,left,left,1.0,1.8058,0.0,53.0,53.0,53.0,1.0,LITTLE_AUK_5.jpg,ORANGE_BRESTED_BUNTING_3.jpg,A2IP3ZAFYGV8M9
594,3.0,left,right,0.0,3.2008,0.0,54.0,54.0,54.0,1.0,EASTERN_TOWEE_2.jpg,NORTHERN_BEARDLESS_TYRANNULET_5.jpg,A2IP3ZAFYGV8M9
595,3.0,left,left,1.0,1.3131,0.0,55.0,55.0,55.0,1.0,PINK_ROBIN_4.jpg,COMMON_IORA_4.jpg,A2IP3ZAFYGV8M9
596,2.0,left,right,0.0,4.0105,0.0,56.0,56.0,56.0,1.0,ALPINE_CHOUGH_4.jpg,EUROPEAN_GOLDFINCH_3.jpg,A2IP3ZAFYGV8M9
597,3.0,left,left,1.0,6.5962,0.0,57.0,57.0,57.0,1.0,RUFOUS_KINGFISHER_1.jpg,HORNED_SUNGEM_4.jpg,A2IP3ZAFYGV8M9
598,2.0,right,right,1.0,2.2189,0.0,58.0,58.0,58.0,1.0,DOUBLE_BRESTED_CORMARANT_1.jpg,SPLENDID_WREN_1.jpg,A2IP3ZAFYGV8M9
599,2.0,left,left,1.0,3.3175,0.0,59.0,59.0,59.0,1.0,IVORY_GULL_1.jpg,EASTERN_GOLDEN_WEAVER_5.jpg,A2IP3ZAFYGV8M9
600,1.0,left,left,1.0,6.8191,0.0,0.0,0.0,0.0,1.0,PARUS_MAJOR_1.jpg,SANDHILL_CRANE_4.jpg,A2M183CETUMR96
601,3.0,left,right,0.0,3.7427,0.0,1.0,1.0,1.0,1.0,CERULEAN_WARBLER_1.jpg,BANANAQUIT_1.jpg,A2M183CETUMR96
602,3.0,left,left,1.0,7.1218,0.0,2.0,2.0,2.0,1.0,LESSER_ADJUTANT_5.jpg,RED_HEADED_WOODPECKER_1.jpg,A2M183CETUMR96
603,2.0,right,right,1.0,3.5678,0.0,3.0,3.0,3.0,1.0,NORTHERN_GANNET_2.jpg,SCARLET_TANAGER_2.jpg,A2M183CETUMR96
604,1.0,left,left,1.0,1.5688,0.0,4.0,4.0,4.0,1.0,INDIGO_BUNTING_1.jpg,FRIGATE_4.jpg,A2M183CETUMR96
605,1.0,right,right,1.0,1.389,0.0,5.0,5.0,5.0,1.0,GOLDEN_CHLOROPHONIA_2.jpg,RUBY_THROATED_HUMMINGBIRD_2.jpg,A2M183CETUMR96
606,3.0,left,left,1.0,1.3843,0.0,6.0,6.0,6.0,1.0,RUBY_THROATED_HUMMINGBIRD_1.jpg,FRIGATE_1.jpg,A2M183CETUMR96
607,2.0,left,left,1.0,1.8137,0.0,7.0,7.0,7.0,1.0,ASIAN_CRESTED_IBIS_4.jpg,OYSTER_CATCHER_2.jpg,A2M183CETUMR96
608,3.0,right,right,1.0,4.8534,0.0,8.0,8.0,8.0,1.0,WATTLED_LAPWING_3.jpg,HAWAIIAN_GOOSE_4.jpg,A2M183CETUMR96
609,2.0,left,left,1.0,1.2024,0.0,9.0,9.0,9.0,1.0,KAGU_5.jpg,ASHY_STORM_PETREL_1.jpg,A2M183CETUMR96
610,2.0,right,left,0.0,13.5139,0.0,10.0,10.0,10.0,1.0,CRAB_PLOVER_3.jpg,NORTHERN_JACANA_3.jpg,A2M183CETUMR96
611,1.0,left,right,0.0,10.4646,0.0,11.0,11.0,11.0,1.0,EASTERN_TOWEE_2.jpg,SANDHILL_CRANE_2.jpg,A2M183CETUMR96
612,2.0,right,right,1.0,2.8993,0.0,12.0,12.0,12.0,1.0,AFRICAN_EMERALD_CUCKOO_5.jpg,TASMANIAN_HEN_5.jpg,A2M183CETUMR96
613,1.0,right,right,1.0,1.3435,0.0,13.0,13.0,13.0,1.0,ANIANIAU_2.jpg,PEACOCK_3.jpg,A2M183CETUMR96
614,1.0,left,left,1.0,1.3433,0.0,14.0,14.0,14.0,1.0,WHITE_CHEEKED_TURACO_5.jpg,NORTHERN_MOCKINGBIRD_4.jpg,A2M183CETUMR96
615,3.0,left,left,1.0,2.1485,0.0,15.0,15.0,15.0,1.0,IVORY_GULL_1.jpg,FAIRY_TERN_4.jpg,A2M183CETUMR96
616,2.0,right,right,1.0,1.3936,0.0,16.0,16.0,16.0,1.0,INDIAN_PITTA_2.jpg,CRESTED_CARACARA_4.jpg,A2M183CETUMR96
617,1.0,left,left,1.0,12.574,0.0,17.0,17.0,17.0,1.0,AMERICAN_PIPIT_5.jpg,EMU_2.jpg,A2M183CETUMR96
618,3.0,right,right,1.0,4.1402,0.0,18.0,18.0,18.0,1.0,ECUADORIAN_HILLSTAR_3.jpg,GREY_PLOVER_1.jpg,A2M183CETUMR96
619,2.0,right,right,1.0,1.6332,0.0,19.0,19.0,19.0,1.0,MYNA_5.jpg,RUBY_THROATED_HUMMINGBIRD_3.jpg,A2M183CETUMR96
620,2.0,left,left,1.0,3.3318,0.0,20.0,20.0,20.0,1.0,ARARIPE_MANAKIN_4.jpg,BLACK_VULTURE_1.jpg,A2M183CETUMR96
621,2.0,right,right,1.0,2.1661,0.0,21.0,21.0,21.0,1.0,NICOBAR_PIGEON_4.jpg,INLAND_DOTTEREL_4.jpg,A2M183CETUMR96
622,2.0,right,right,1.0,8.1123,0.0,22.0,22.0,22.0,1.0,AFRICAN_FIREFINCH_1.jpg,CRESTED_NUTHATCH_2.jpg,A2M183CETUMR96
623,3.0,left,left,1.0,1.3367,0.0,23.0,23.0,23.0,1.0,LESSER_ADJUTANT_4.jpg,FAIRY_TERN_3.jpg,A2M183CETUMR96
624,1.0,left,right,0.0,3.549,0.0,24.0,24.0,24.0,1.0,LITTLE_AUK_5.jpg,SANDHILL_CRANE_3.jpg,A2M183CETUMR96
625,2.0,left,left,1.0,5.1423,0.0,25.0,25.0,25.0,1.0,DOUBLE_BRESTED_CORMARANT_5.jpg,EURASIAN_MAGPIE_4.jpg,A2M183CETUMR96
626,1.0,right,left,0.0,16.4463,0.0,26.0,26.0,26.0,1.0,INDIAN_BUSTARD_1.jpg,VERMILION_FLYCATHER_3.jpg,A2M183CETUMR96
627,3.0,right,right,1.0,2.9014,0.0,27.0,27.0,27.0,1.0,COLLARED_ARACARI_1.jpg,RED_HEADED_WOODPECKER_5.jpg,A2M183CETUMR96
628,2.0,right,left,0.0,10.424,0.0,28.0,28.0,28.0,1.0,SMITHS_LONGSPUR_5.jpg,INCA_TERN_4.jpg,A2M183CETUMR96
629,2.0,right,right,1.0,4.5081,0.0,29.0,29.0,29.0,1.0,ALEXANDRINE_PARAKEET_1.jpg,AFRICAN_PIED_HORNBILL_5.jpg,A2M183CETUMR96
630,1.0,left,right,0.0,12.4,0.0,30.0,30.0,30.0,1.0,GOLDEN_CHLOROPHONIA_5.jpg,ROADRUNNER_2.jpg,A2M183CETUMR96
631,1.0,right,right,1.0,2.1111,0.0,31.0,31.0,31.0,1.0,DOUBLE_BRESTED_CORMARANT_4.jpg,STRIPPED_SWALLOW_1.jpg,A2M183CETUMR96
632,3.0,left,left,1.0,2.746,0.0,32.0,32.0,32.0,1.0,BROWN_THRASHER_3.jpg,BLACK_BAZA_4.jpg,A2M183CETUMR96
633,3.0,left,left,1.0,4.545,0.0,33.0,33.0,33.0,1.0,KILLDEAR_2.jpg,AZURE_TIT_5.jpg,A2M183CETUMR96
634,1.0,left,left,1.0,1.721,0.0,34.0,34.0,34.0,1.0,MALACHITE_KINGFISHER_2.jpg,AMERICAN_FLAMINGO_1.jpg,A2M183CETUMR96
635,3.0,right,right,1.0,6.9047,0.0,35.0,35.0,35.0,1.0,MALABAR_HORNBILL_2.jpg,EUROPEAN_TURTLE_DOVE_3.jpg,A2M183CETUMR96
636,1.0,right,right,1.0,1.4615,0.0,36.0,36.0,36.0,1.0,POMARINE_JAEGER_5.jpg,SPLENDID_WREN_1.jpg,A2M183CETUMR96
637,2.0,left,left,1.0,1.3053,0.0,37.0,37.0,37.0,1.0,IVORY_GULL_3.jpg,FLAME_TANAGER_3.jpg,A2M183CETUMR96
638,1.0,left,left,1.0,11.0284,0.0,38.0,38.0,38.0,1.0,OCELLATED_TURKEY_1.jpg,CHIPPING_SPARROW_1.jpg,A2M183CETUMR96
639,3.0,right,right,1.0,1.4242,0.0,39.0,39.0,39.0,1.0,BALD_EAGLE_5.jpg,SHOEBILL_3.jpg,A2M183CETUMR96
640,3.0,right,right,1.0,5.5804,0.0,40.0,40.0,40.0,1.0,DOUBLE_EYED_FIG_PARROT_4.jpg,PYGMY_KINGFISHER_5.jpg,A2M183CETUMR96
641,2.0,right,right,1.0,4.097,0.0,41.0,41.0,41.0,1.0,PURPLE_FINCH_2.jpg,BALI_STARLING_1.jpg,A2M183CETUMR96
642,1.0,right,right,1.0,1.6554,0.0,42.0,42.0,42.0,1.0,BALD_EAGLE_2.jpg,GRAY_KINGBIRD_5.jpg,A2M183CETUMR96
643,3.0,left,left,1.0,5.4259,0.0,43.0,43.0,43.0,1.0,MYNA_1.jpg,PARADISE_TANAGER_3.jpg,A2M183CETUMR96
644,2.0,left,left,1.0,26.565,0.0,44.0,44.0,44.0,1.0,FLAME_BOWERBIRD_3.jpg,BROWN_THRASHER_4.jpg,A2M183CETUMR96
645,2.0,left,left,1.0,2.6022,0.0,45.0,45.0,45.0,1.0,CASSOWARY_1.jpg,SCARLET_MACAW_1.jpg,A2M183CETUMR96
646,1.0,right,right,1.0,18.1768,0.0,46.0,46.0,46.0,1.0,PEACOCK_1.jpg,LARK_BUNTING_2.jpg,A2M183CETUMR96
647,2.0,left,left,1.0,9.3684,0.0,47.0,47.0,47.0,1.0,ASIAN_DOLLARD_BIRD_2.jpg,LOGGERHEAD_SHRIKE_4.jpg,A2M183CETUMR96
648,1.0,right,right,1.0,4.8819,0.0,48.0,48.0,48.0,1.0,SPOONBILL_1.jpg,GOLDEN_CHEEKED_WARBLER_2.jpg,A2M183CETUMR96
649,3.0,left,left,1.0,5.61,0.0,49.0,49.0,49.0,1.0,PINK_ROBIN_4.jpg,COMMON_IORA_4.jpg,A2M183CETUMR96
650,3.0,right,right,1.0,2.6373,0.0,50.0,50.0,50.0,1.0,BOBOLINK_3.jpg,ALPINE_CHOUGH_4.jpg,A2M183CETUMR96
651,3.0,right,right,1.0,2.9317,0.0,51.0,51.0,51.0,1.0,HORNED_SUNGEM_4.jpg,RUFOUS_KINGFISHER_1.jpg,A2M183CETUMR96
652,3.0,left,left,1.0,2.9098,0.0,52.0,52.0,52.0,1.0,BROWN_NOODY_3.jpg,GUINEA_TURACO_5.jpg,A2M183CETUMR96
653,3.0,right,left,0.0,3.8751,0.0,53.0,53.0,53.0,1.0,OYSTER_CATCHER_3.jpg,MAGPIE_GOOSE_5.jpg,A2M183CETUMR96
654,1.0,right,left,0.0,5.974,0.0,54.0,54.0,54.0,1.0,GUINEA_TURACO_3.jpg,BREWERS_BLACKBIRD_3.jpg,A2M183CETUMR96
655,3.0,left,left,1.0,1.3256,0.0,55.0,55.0,55.0,1.0,ECUADORIAN_HILLSTAR_5.jpg,CRIMSON_SUNBIRD_5.jpg,A2M183CETUMR96
656,2.0,left,left,1.0,2.6311,0.0,56.0,56.0,56.0,1.0,OVENBIRD_5.jpg,FAIRY_PENGUIN_1.jpg,A2M183CETUMR96
657,1.0,left,left,1.0,4.023,0.0,57.0,57.0,57.0,1.0,GYRFALCON_1.jpg,OSTRICH_1.jpg,A2M183CETUMR96
658,2.0,left,left,1.0,2.6397,0.0,58.0,58.0,58.0,1.0,CASPIAN_TERN_1.jpg,EUROPEAN_GOLDFINCH_4.jpg,A2M183CETUMR96
659,1.0,right,right,1.0,20.5188,0.0,59.0,59.0,59.0,1.0,OSTRICH_5.jpg,CHUKAR_PARTRIDGE_5.jpg,A2M183CETUMR96
660,2.0,right,right,1.0,3.644,0.0,0.0,0.0,0.0,1.0,FAIRY_PENGUIN_1.jpg,OVENBIRD_5.jpg,A2VLTSW6CXIUMR
661,2.0,left,left,1.0,4.0487,0.0,1.0,1.0,1.0,1.0,BALI_STARLING_1.jpg,PURPLE_FINCH_2.jpg,A2VLTSW6CXIUMR
662,3.0,right,right,1.0,1.4117,0.0,2.0,2.0,2.0,1.0,GO_AWAY_BIRD_5.jpg,STRIPPED_SWALLOW_1.jpg,A2VLTSW6CXIUMR
663,3.0,left,left,1.0,1.5636,0.0,3.0,3.0,3.0,1.0,LESSER_ADJUTANT_4.jpg,FAIRY_TERN_3.jpg,A2VLTSW6CXIUMR
664,1.0,right,right,1.0,1.4464,0.0,4.0,4.0,4.0,1.0,SANDHILL_CRANE_4.jpg,PARUS_MAJOR_1.jpg,A2VLTSW6CXIUMR
665,2.0,left,left,1.0,2.2161,0.0,5.0,5.0,5.0,1.0,TASMANIAN_HEN_5.jpg,AFRICAN_EMERALD_CUCKOO_5.jpg,A2VLTSW6CXIUMR
666,2.0,left,left,1.0,4.4807,0.0,6.0,6.0,6.0,1.0,BROWN_THRASHER_3.jpg,OYSTER_CATCHER_4.jpg,A2VLTSW6CXIUMR
667,1.0,left,right,0.0,2.0571,0.0,7.0,7.0,7.0,1.0,RUBY_THROATED_HUMMINGBIRD_1.jpg,BANANAQUIT_2.jpg,A2VLTSW6CXIUMR
668,3.0,right,right,1.0,5.3326,0.0,8.0,8.0,8.0,1.0,BANANAQUIT_1.jpg,CERULEAN_WARBLER_1.jpg,A2VLTSW6CXIUMR
669,1.0,right,right,1.0,1.5758,0.0,9.0,9.0,9.0,1.0,MALAGASY_WHITE_EYE_2.jpg,RUBY_THROATED_HUMMINGBIRD_3.jpg,A2VLTSW6CXIUMR
670,1.0,left,right,0.0,3.4711,0.0,10.0,10.0,10.0,1.0,CRESTED_CARACARA_4.jpg,FAIRY_PENGUIN_5.jpg,A2VLTSW6CXIUMR
671,3.0,right,left,0.0,5.0766,0.0,11.0,11.0,11.0,1.0,VIOLET_GREEN_SWALLOW_4.jpg,ASIAN_DOLLARD_BIRD_2.jpg,A2VLTSW6CXIUMR
672,2.0,left,right,0.0,2.4149,0.0,12.0,12.0,12.0,1.0,GOLDEN_CHEEKED_WARBLER_2.jpg,HOUSE_FINCH_2.jpg,A2VLTSW6CXIUMR
673,1.0,left,right,0.0,2.1634,0.0,13.0,13.0,13.0,1.0,NORTHERN_JACANA_3.jpg,AMERICAN_GOLDFINCH_4.jpg,A2VLTSW6CXIUMR
674,1.0,right,left,0.0,1.8893,0.0,14.0,14.0,14.0,1.0,CHIPPING_SPARROW_1.jpg,OCELLATED_TURKEY_1.jpg,A2VLTSW6CXIUMR
675,1.0,left,left,1.0,1.4521,0.0,15.0,15.0,15.0,1.0,GREY_PLOVER_1.jpg,HYACINTH_MACAW_3.jpg,A2VLTSW6CXIUMR
676,3.0,right,right,1.0,4.3053,0.0,16.0,16.0,16.0,1.0,BORNEAN_BRISTLEHEAD_5.jpg,INCA_TERN_4.jpg,A2VLTSW6CXIUMR
677,2.0,left,left,1.0,3.0567,0.0,17.0,17.0,17.0,1.0,BROWN_NOODY_3.jpg,SPANGLED_COTINGA_4.jpg,A2VLTSW6CXIUMR
678,3.0,right,right,1.0,2.0075,0.0,18.0,18.0,18.0,1.0,CANARY_1.jpg,CRESTED_NUTHATCH_2.jpg,A2VLTSW6CXIUMR
679,3.0,right,right,1.0,1.4118,0.0,19.0,19.0,19.0,1.0,AZURE_TIT_5.jpg,KILLDEAR_2.jpg,A2VLTSW6CXIUMR
680,3.0,right,right,1.0,2.1117,0.0,20.0,20.0,20.0,1.0,DOUBLE_EYED_FIG_PARROT_4.jpg,PYGMY_KINGFISHER_5.jpg,A2VLTSW6CXIUMR
681,1.0,right,left,0.0,1.739,0.0,21.0,21.0,21.0,1.0,SNOWY_EGRET_2.jpg,ALPINE_CHOUGH_4.jpg,A2VLTSW6CXIUMR
682,1.0,right,left,0.0,1.9801,0.0,22.0,22.0,22.0,1.0,CANARY_2.jpg,ASIAN_CRESTED_IBIS_4.jpg,A2VLTSW6CXIUMR
683,3.0,left,left,1.0,1.6039,0.0,23.0,23.0,23.0,1.0,LITTLE_AUK_5.jpg,BEARDED_BELLBIRD_1.jpg,A2VLTSW6CXIUMR
684,3.0,right,left,0.0,1.3305,0.0,24.0,24.0,24.0,1.0,AFRICAN_OYSTER_CATCHER_2.jpg,CASSOWARY_1.jpg,A2VLTSW6CXIUMR
685,3.0,right,right,1.0,3.0984,0.0,25.0,25.0,25.0,1.0,HORNED_SUNGEM_4.jpg,RUFOUS_KINGFISHER_1.jpg,A2VLTSW6CXIUMR
686,3.0,right,right,1.0,1.414,0.0,26.0,26.0,26.0,1.0,RED_HEADED_WOODPECKER_1.jpg,LESSER_ADJUTANT_5.jpg,A2VLTSW6CXIUMR
687,2.0,right,right,1.0,2.6126,0.0,27.0,27.0,27.0,1.0,GREAT_POTOO_3.jpg,WHITE_CHEEKED_TURACO_5.jpg,A2VLTSW6CXIUMR
688,3.0,right,right,1.0,2.3548,0.0,28.0,28.0,28.0,1.0,HEPATIC_TANAGER_5.jpg,AMERICAN_PIPIT_5.jpg,A2VLTSW6CXIUMR
689,2.0,left,left,1.0,1.2792,0.0,29.0,29.0,29.0,1.0,GRAY_KINGBIRD_5.jpg,COCK_OF_THE__ROCK_4.jpg,A2VLTSW6CXIUMR
690,2.0,right,left,0.0,3.2515,0.0,30.0,30.0,30.0,1.0,NORTHERN_GANNET_1.jpg,INDIGO_BUNTING_1.jpg,A2VLTSW6CXIUMR
691,2.0,right,right,1.0,1.2885,0.0,31.0,31.0,31.0,1.0,HIMALAYAN_MONAL_2.jpg,HAWAIIAN_GOOSE_4.jpg,A2VLTSW6CXIUMR
692,1.0,right,right,1.0,1.5019,0.0,32.0,32.0,32.0,1.0,OSTRICH_5.jpg,CHUKAR_PARTRIDGE_5.jpg,A2VLTSW6CXIUMR
693,3.0,right,right,1.0,3.3346,0.0,33.0,33.0,33.0,1.0,CACTUS_WREN_3.jpg,LARK_BUNTING_2.jpg,A2VLTSW6CXIUMR
694,1.0,right,right,1.0,1.9441,0.0,34.0,34.0,34.0,1.0,RED_BEARDED_BEE_EATER_3.jpg,KAGU_5.jpg,A2VLTSW6CXIUMR
695,2.0,right,left,0.0,3.2982,0.0,35.0,35.0,35.0,1.0,GOLDEN_CHLOROPHONIA_1.jpg,EASTERN_TOWEE_2.jpg,A2VLTSW6CXIUMR
696,3.0,right,right,1.0,1.58,0.0,36.0,36.0,36.0,1.0,CUBAN_TODY_4.jpg,SPLENDID_WREN_1.jpg,A2VLTSW6CXIUMR
697,2.0,right,right,1.0,1.6885,0.0,37.0,37.0,37.0,1.0,APAPANE_4.jpg,RUBY_THROATED_HUMMINGBIRD_2.jpg,A2VLTSW6CXIUMR
698,2.0,right,left,0.0,2.3178,0.0,38.0,38.0,38.0,1.0,GREY_PLOVER_4.jpg,MYNA_1.jpg,A2VLTSW6CXIUMR
699,3.0,right,right,1.0,1.7964,0.0,39.0,39.0,39.0,1.0,CAPE_LONGCLAW_2.jpg,BREWERS_BLACKBIRD_3.jpg,A2VLTSW6CXIUMR
700,2.0,left,left,1.0,3.2488,0.0,40.0,40.0,40.0,1.0,SCARLET_TANAGER_2.jpg,NORTHERN_GANNET_2.jpg,A2VLTSW6CXIUMR
701,3.0,left,right,0.0,4.431,0.0,41.0,41.0,41.0,1.0,GOLDEN_CHLOROPHONIA_5.jpg,VERMILION_FLYCATHER_5.jpg,A2VLTSW6CXIUMR
702,1.0,left,left,1.0,1.52,0.0,42.0,42.0,42.0,1.0,INLAND_DOTTEREL_4.jpg,CASSOWARY_2.jpg,A2VLTSW6CXIUMR
703,1.0,right,right,1.0,1.4231,0.0,43.0,43.0,43.0,1.0,EASTERN_MEADOWLARK_1.jpg,SHOEBILL_3.jpg,A2VLTSW6CXIUMR
704,2.0,right,right,1.0,4.1187,0.0,44.0,44.0,44.0,1.0,EUROPEAN_GOLDFINCH_4.jpg,CASPIAN_TERN_1.jpg,A2VLTSW6CXIUMR
705,1.0,right,right,1.0,2.224,0.0,45.0,45.0,45.0,1.0,TEAL_DUCK_2.jpg,EUROPEAN_TURTLE_DOVE_3.jpg,A2VLTSW6CXIUMR
706,2.0,left,left,1.0,1.3842,0.0,46.0,46.0,46.0,1.0,IVORY_GULL_3.jpg,FLAME_TANAGER_3.jpg,A2VLTSW6CXIUMR
707,1.0,right,left,0.0,4.2744,0.0,47.0,47.0,47.0,1.0,INDIAN_BUSTARD_1.jpg,VERMILION_FLYCATHER_3.jpg,A2VLTSW6CXIUMR
708,3.0,left,left,1.0,1.8401,0.0,48.0,48.0,48.0,1.0,MALACHITE_KINGFISHER_2.jpg,GREEN_BROADBILL_5.jpg,A2VLTSW6CXIUMR
709,2.0,right,right,1.0,8.0456,0.0,49.0,49.0,49.0,1.0,HAMERKOP_1.jpg,MAGPIE_GOOSE_5.jpg,A2VLTSW6CXIUMR
710,2.0,left,right,0.0,62.1011,0.0,50.0,50.0,50.0,1.0,ECUADORIAN_HILLSTAR_5.jpg,BOBOLINK_5.jpg,A2VLTSW6CXIUMR
711,1.0,right,right,1.0,1.8111,0.0,51.0,51.0,51.0,1.0,ASHY_STORM_PETREL_2.jpg,RED_HEADED_WOODPECKER_5.jpg,A2VLTSW6CXIUMR
712,2.0,left,left,1.0,45.427,0.0,52.0,52.0,52.0,1.0,AFRICAN_PIED_HORNBILL_5.jpg,ALEXANDRINE_PARAKEET_1.jpg,A2VLTSW6CXIUMR
713,1.0,right,right,1.0,2.845,0.0,53.0,53.0,53.0,1.0,WILSONS_BIRD_OF_PARADISE_4.jpg,IVORY_GULL_1.jpg,A2VLTSW6CXIUMR
714,1.0,left,left,1.0,36.5627,0.0,54.0,54.0,54.0,1.0,GYRFALCON_1.jpg,OSTRICH_1.jpg,A2VLTSW6CXIUMR
715,3.0,right,left,0.0,1.4988,0.0,55.0,55.0,55.0,1.0,QUETZAL_3.jpg,FLAME_BOWERBIRD_3.jpg,A2VLTSW6CXIUMR
716,1.0,left,left,1.0,4.6561,0.0,56.0,56.0,56.0,1.0,DOUBLE_BRESTED_CORMARANT_5.jpg,GILDED_FLICKER_2.jpg,A2VLTSW6CXIUMR
717,2.0,right,right,1.0,2.4791,0.0,57.0,57.0,57.0,1.0,STRAWBERRY_FINCH_4.jpg,PEACOCK_3.jpg,A2VLTSW6CXIUMR
718,1.0,left,left,1.0,3.3002,0.0,58.0,58.0,58.0,1.0,ARARIPE_MANAKIN_4.jpg,KIWI_3.jpg,A2VLTSW6CXIUMR
719,3.0,right,right,1.0,1.2178,0.0,59.0,59.0,59.0,1.0,COMMON_IORA_4.jpg,PINK_ROBIN_4.jpg,A2VLTSW6CXIUMR
720,3.0,left,right,0.0,3.299,0.0,0.0,0.0,0.0,1.0,CRESTED_CARACARA_4.jpg,TOUCHAN_4.jpg,A2YVQKJX3FO6P
721,2.0,left,left,1.0,3.242,0.0,1.0,1.0,1.0,1.0,BROWN_THRASHER_3.jpg,OYSTER_CATCHER_4.jpg,A2YVQKJX3FO6P
722,3.0,right,left,0.0,2.236,0.0,2.0,2.0,2.0,1.0,WHITE_THROATED_BEE_EATER_1.jpg,GOLDEN_CHEEKED_WARBLER_2.jpg,A2YVQKJX3FO6P
723,2.0,right,right,1.0,2.245,0.0,3.0,3.0,3.0,1.0,HAMERKOP_1.jpg,MAGPIE_GOOSE_5.jpg,A2YVQKJX3FO6P
724,3.0,right,right,1.0,1.934,0.0,4.0,4.0,4.0,1.0,NORTHERN_BEARDLESS_TYRANNULET_5.jpg,EASTERN_TOWEE_2.jpg,A2YVQKJX3FO6P
725,1.0,left,left,1.0,1.822,0.0,5.0,5.0,5.0,1.0,SPLENDID_WREN_1.jpg,POMARINE_JAEGER_5.jpg,A2YVQKJX3FO6P
726,2.0,right,left,0.0,2.099,0.0,6.0,6.0,6.0,1.0,LOGGERHEAD_SHRIKE_4.jpg,ASIAN_DOLLARD_BIRD_2.jpg,A2YVQKJX3FO6P
727,2.0,right,left,0.0,2.732,0.0,7.0,7.0,7.0,1.0,FAIRY_PENGUIN_1.jpg,OVENBIRD_5.jpg,A2YVQKJX3FO6P
728,3.0,left,left,1.0,3.556,0.0,8.0,8.0,8.0,1.0,GRAY_KINGBIRD_5.jpg,AFRICAN_FIREFINCH_3.jpg,A2YVQKJX3FO6P
729,3.0,left,left,1.0,2.326,0.0,9.0,9.0,9.0,1.0,IVORY_GULL_3.jpg,SNOWY_EGRET_4.jpg,A2YVQKJX3FO6P
730,3.0,right,right,1.0,2.186,0.0,10.0,10.0,10.0,1.0,DARWINS_FLYCATCHER_2.jpg,INDIGO_BUNTING_1.jpg,A2YVQKJX3FO6P
731,1.0,left,left,1.0,2.147,0.0,11.0,11.0,11.0,1.0,INCA_TERN_4.jpg,ELLIOTS__PHEASANT_4.jpg,A2YVQKJX3FO6P
732,3.0,right,right,1.0,2.49,0.0,12.0,12.0,12.0,1.0,COMMON_IORA_4.jpg,PINK_ROBIN_4.jpg,A2YVQKJX3FO6P
733,2.0,right,left,0.0,1.983,0.0,13.0,13.0,13.0,1.0,ASHY_STORM_PETREL_1.jpg,KAGU_5.jpg,A2YVQKJX3FO6P
734,2.0,right,right,1.0,1.73,0.0,14.0,14.0,14.0,1.0,BLACK_VULTURE_1.jpg,ARARIPE_MANAKIN_4.jpg,A2YVQKJX3FO6P
735,2.0,right,right,1.0,1.95,0.0,15.0,15.0,15.0,1.0,APAPANE_4.jpg,RUBY_THROATED_HUMMINGBIRD_2.jpg,A2YVQKJX3FO6P
736,2.0,right,left,0.0,16.888,0.0,16.0,16.0,16.0,1.0,MYNA_5.jpg,RUBY_THROATED_HUMMINGBIRD_3.jpg,A2YVQKJX3FO6P
737,1.0,left,right,0.0,53.25,0.0,17.0,17.0,17.0,1.0,PEACOCK_3.jpg,ANIANIAU_2.jpg,A2YVQKJX3FO6P
738,3.0,left,left,1.0,1.821,0.0,18.0,18.0,18.0,1.0,AFRICAN_PIED_HORNBILL_5.jpg,CAPUCHINBIRD_2.jpg,A2YVQKJX3FO6P
739,1.0,right,left,0.0,2.072,0.0,19.0,19.0,19.0,1.0,OSTRICH_5.jpg,CHUKAR_PARTRIDGE_5.jpg,A2YVQKJX3FO6P
740,2.0,left,left,1.0,2.165,0.0,20.0,20.0,20.0,1.0,MYNA_1.jpg,GREY_PLOVER_4.jpg,A2YVQKJX3FO6P
741,3.0,left,left,1.0,4.347,0.0,21.0,21.0,21.0,1.0,PARUS_MAJOR_1.jpg,PINK_ROBIN_3.jpg,A2YVQKJX3FO6P
742,2.0,left,left,1.0,3.609,0.0,22.0,22.0,22.0,1.0,IVORY_GULL_1.jpg,EASTERN_GOLDEN_WEAVER_5.jpg,A2YVQKJX3FO6P
743,1.0,left,left,1.0,2.128,0.0,23.0,23.0,23.0,1.0,HAWAIIAN_GOOSE_4.jpg,CUBAN_TODY_3.jpg,A2YVQKJX3FO6P
744,1.0,right,right,1.0,2.141,0.0,24.0,24.0,24.0,1.0,AMERICAN_FLAMINGO_1.jpg,MALACHITE_KINGFISHER_2.jpg,A2YVQKJX3FO6P
745,3.0,left,left,1.0,2.007,0.0,25.0,25.0,25.0,1.0,NORTHERN_JACANA_3.jpg,SCARLET_IBIS_4.jpg,A2YVQKJX3FO6P
746,1.0,right,right,1.0,1.922,0.0,26.0,26.0,26.0,1.0,INDIAN_BUSTARD_2.jpg,FLAME_BOWERBIRD_3.jpg,A2YVQKJX3FO6P
747,3.0,left,right,0.0,1.695,0.0,27.0,27.0,27.0,1.0,LARK_BUNTING_2.jpg,CACTUS_WREN_3.jpg,A2YVQKJX3FO6P
748,3.0,left,right,0.0,1.448,0.0,28.0,28.0,28.0,1.0,GOLDEN_CHLOROPHONIA_5.jpg,VERMILION_FLYCATHER_5.jpg,A2YVQKJX3FO6P
749,3.0,left,left,1.0,1.484,0.0,29.0,29.0,29.0,1.0,LESSER_ADJUTANT_4.jpg,FAIRY_TERN_3.jpg,A2YVQKJX3FO6P
750,2.0,left,left,1.0,2.105,0.0,30.0,30.0,30.0,1.0,SCARLET_TANAGER_2.jpg,NORTHERN_GANNET_2.jpg,A2YVQKJX3FO6P
751,2.0,left,right,0.0,1.776,0.0,31.0,31.0,31.0,1.0,RUFOUS_KINGFISHER_1.jpg,MAGPIE_GOOSE_3.jpg,A2YVQKJX3FO6P
752,1.0,right,right,1.0,1.654,0.0,32.0,32.0,32.0,1.0,TEAL_DUCK_2.jpg,EUROPEAN_TURTLE_DOVE_3.jpg,A2YVQKJX3FO6P
753,2.0,left,right,0.0,1.903,0.0,33.0,33.0,33.0,1.0,CASPIAN_TERN_1.jpg,EUROPEAN_GOLDFINCH_4.jpg,A2YVQKJX3FO6P
754,1.0,right,right,1.0,1.698,0.0,34.0,34.0,34.0,1.0,PEACOCK_5.jpg,KILLDEAR_2.jpg,A2YVQKJX3FO6P
755,3.0,right,left,0.0,1.724,0.0,35.0,35.0,35.0,1.0,GUINEA_TURACO_5.jpg,BROWN_NOODY_3.jpg,A2YVQKJX3FO6P
756,2.0,right,right,1.0,1.702,0.0,36.0,36.0,36.0,1.0,MASKED_BOOBY_5.jpg,PYGMY_KINGFISHER_5.jpg,A2YVQKJX3FO6P
757,3.0,right,right,1.0,1.661,0.0,37.0,37.0,37.0,1.0,CANARY_1.jpg,CRESTED_NUTHATCH_2.jpg,A2YVQKJX3FO6P
758,2.0,left,right,0.0,1.684,0.0,38.0,38.0,38.0,1.0,CASSOWARY_1.jpg,SCARLET_MACAW_1.jpg,A2YVQKJX3FO6P
759,1.0,right,right,1.0,1.657,0.0,39.0,39.0,39.0,1.0,GUINEA_TURACO_3.jpg,BREWERS_BLACKBIRD_3.jpg,A2YVQKJX3FO6P
760,1.0,right,right,1.0,1.835,0.0,40.0,40.0,40.0,1.0,AMERICAN_FLAMINGO_2.jpg,CERULEAN_WARBLER_1.jpg,A2YVQKJX3FO6P
761,1.0,right,right,1.0,1.77,0.0,41.0,41.0,41.0,1.0,EMU_2.jpg,AMERICAN_PIPIT_5.jpg,A2YVQKJX3FO6P
762,3.0,right,left,0.0,1.451,0.0,42.0,42.0,42.0,1.0,CHINESE_POND_HERON_2.jpg,DOUBLE_BRESTED_CORMARANT_5.jpg,A2YVQKJX3FO6P
763,2.0,right,left,0.0,1.94,0.0,43.0,43.0,43.0,1.0,GAMBELS_QUAIL_1.jpg,LESSER_ADJUTANT_5.jpg,A2YVQKJX3FO6P
764,3.0,right,right,1.0,1.641,0.0,44.0,44.0,44.0,1.0,PURPLE_SWAMPHEN_4.jpg,OCELLATED_TURKEY_1.jpg,A2YVQKJX3FO6P
765,1.0,left,left,1.0,2.158,0.0,45.0,45.0,45.0,1.0,INLAND_DOTTEREL_4.jpg,CASSOWARY_2.jpg,A2YVQKJX3FO6P
766,1.0,right,left,0.0,2.31,0.0,46.0,46.0,46.0,1.0,NORTHERN_MOCKINGBIRD_4.jpg,WHITE_CHEEKED_TURACO_5.jpg,A2YVQKJX3FO6P
767,3.0,right,right,1.0,1.657,0.0,47.0,47.0,47.0,1.0,GO_AWAY_BIRD_5.jpg,STRIPPED_SWALLOW_1.jpg,A2YVQKJX3FO6P
768,1.0,left,left,1.0,1.732,0.0,48.0,48.0,48.0,1.0,TASMANIAN_HEN_5.jpg,GREEN_BROADBILL_1.jpg,A2YVQKJX3FO6P
769,1.0,left,right,0.0,1.5,0.0,49.0,49.0,49.0,1.0,BALI_STARLING_1.jpg,CAPE_LONGCLAW_5.jpg,A2YVQKJX3FO6P
770,2.0,left,right,0.0,2.001,0.0,50.0,50.0,50.0,1.0,RED_HEADED_WOODPECKER_5.jpg,CRIMSON_CHAT_3.jpg,A2YVQKJX3FO6P
771,1.0,right,left,0.0,2.142,0.0,51.0,51.0,51.0,1.0,SANDHILL_CRANE_3.jpg,LITTLE_AUK_5.jpg,A2YVQKJX3FO6P
772,3.0,right,right,1.0,1.728,0.0,52.0,52.0,52.0,1.0,IVORY_GULL_2.jpg,ASIAN_CRESTED_IBIS_4.jpg,A2YVQKJX3FO6P
773,1.0,right,right,1.0,1.931,0.0,53.0,53.0,53.0,1.0,SCARLET_IBIS_2.jpg,ECUADORIAN_HILLSTAR_5.jpg,A2YVQKJX3FO6P
774,1.0,right,left,0.0,1.716,0.0,54.0,54.0,54.0,1.0,HYACINTH_MACAW_3.jpg,GREY_PLOVER_1.jpg,A2YVQKJX3FO6P
775,1.0,left,right,0.0,1.47,0.0,55.0,55.0,55.0,1.0,RUBY_THROATED_HUMMINGBIRD_1.jpg,BANANAQUIT_2.jpg,A2YVQKJX3FO6P
776,2.0,right,left,0.0,1.695,0.0,56.0,56.0,56.0,1.0,GILDED_FLICKER_5.jpg,SHOEBILL_3.jpg,A2YVQKJX3FO6P
777,2.0,left,right,0.0,1.879,0.0,57.0,57.0,57.0,1.0,GYRFALCON_1.jpg,CINNAMON_ATTILA_2.jpg,A2YVQKJX3FO6P
778,2.0,right,left,0.0,1.665,0.0,58.0,58.0,58.0,1.0,EUROPEAN_GOLDFINCH_3.jpg,ALPINE_CHOUGH_4.jpg,A2YVQKJX3FO6P
779,3.0,left,right,0.0,1.113,0.0,59.0,59.0,59.0,1.0,VERMILION_FLYCATHER_3.jpg,RED_BEARDED_BEE_EATER_1.jpg,A2YVQKJX3FO6P
780,3.0,left,left,1.0,1.3934,0.0,0.0,0.0,0.0,1.0,ALPINE_CHOUGH_4.jpg,BOBOLINK_3.jpg,A39VAFCIGP83ER
781,3.0,left,left,1.0,1.028,0.0,1.0,1.0,1.0,1.0,HAWAIIAN_GOOSE_4.jpg,WATTLED_LAPWING_3.jpg,A39VAFCIGP83ER
782,2.0,right,left,0.0,1.2394,0.0,2.0,2.0,2.0,1.0,NORTHERN_GANNET_2.jpg,SCARLET_TANAGER_2.jpg,A39VAFCIGP83ER
783,2.0,right,right,1.0,1.285700001,0.0,3.0,3.0,3.0,1.0,RAINBOW_LORIKEET_5.jpg,LESSER_ADJUTANT_4.jpg,A39VAFCIGP83ER
784,3.0,left,left,1.0,1.6,0.0,4.0,4.0,4.0,1.0,FLAME_BOWERBIRD_3.jpg,QUETZAL_3.jpg,A39VAFCIGP83ER
785,2.0,left,right,0.0,1.2794,0.0,5.0,5.0,5.0,1.0,ARARIPE_MANAKIN_4.jpg,BLACK_VULTURE_1.jpg,A39VAFCIGP83ER
786,3.0,right,left,0.0,1.3696,0.0,6.0,6.0,6.0,1.0,CHINESE_POND_HERON_2.jpg,DOUBLE_BRESTED_CORMARANT_5.jpg,A39VAFCIGP83ER
787,3.0,left,right,0.0,1.409699999,0.0,7.0,7.0,7.0,1.0,KAGU_5.jpg,DEMOISELLE_CRANE_1.jpg,A39VAFCIGP83ER
788,2.0,right,left,0.0,1.144599998,0.0,8.0,8.0,8.0,1.0,ORANGE_BRESTED_BUNTING_3.jpg,LITTLE_AUK_5.jpg,A39VAFCIGP83ER
789,1.0,left,right,0.0,1.1686,0.0,9.0,9.0,9.0,1.0,GOLDEN_CHEEKED_WARBLER_2.jpg,SPOONBILL_1.jpg,A39VAFCIGP83ER
790,2.0,right,left,0.0,1.242800001,0.0,10.0,10.0,10.0,1.0,VULTURINE_GUINEAFOWL_4.jpg,RUBY_THROATED_HUMMINGBIRD_1.jpg,A39VAFCIGP83ER
791,3.0,right,right,1.0,1.216900002,0.0,11.0,11.0,11.0,1.0,AZURE_TIT_5.jpg,KILLDEAR_2.jpg,A39VAFCIGP83ER
792,1.0,right,left,0.0,1.1435,0.0,12.0,12.0,12.0,1.0,BALD_EAGLE_2.jpg,GRAY_KINGBIRD_5.jpg,A39VAFCIGP83ER
793,3.0,right,left,0.0,1.277299999,0.0,13.0,13.0,13.0,1.0,COLLARED_ARACARI_1.jpg,RED_HEADED_WOODPECKER_5.jpg,A39VAFCIGP83ER
794,2.0,left,left,1.0,1.9879,0.0,14.0,14.0,14.0,1.0,LESSER_ADJUTANT_5.jpg,GAMBELS_QUAIL_1.jpg,A39VAFCIGP83ER
795,2.0,left,left,1.0,1.702300001,0.0,15.0,15.0,15.0,1.0,CRESTED_NUTHATCH_2.jpg,AFRICAN_FIREFINCH_1.jpg,A39VAFCIGP83ER
796,1.0,right,left,0.0,1.7839,0.0,16.0,16.0,16.0,1.0,SCARLET_IBIS_2.jpg,ECUADORIAN_HILLSTAR_5.jpg,A39VAFCIGP83ER
797,1.0,right,left,0.0,1.616,0.0,17.0,17.0,17.0,1.0,CAPE_LONGCLAW_5.jpg,BALI_STARLING_1.jpg,A39VAFCIGP83ER
798,3.0,left,right,0.0,2.1706,0.0,18.0,18.0,18.0,1.0,CERULEAN_WARBLER_1.jpg,BANANAQUIT_1.jpg,A39VAFCIGP83ER
799,1.0,left,left,1.0,1.120800001,0.0,19.0,19.0,19.0,1.0,IVORY_GULL_3.jpg,INDIGO_FLYCATCHER_2.jpg,A39VAFCIGP83ER
800,1.0,right,left,0.0,1.6625,0.0,20.0,20.0,20.0,1.0,ROADRUNNER_2.jpg,GOLDEN_CHLOROPHONIA_5.jpg,A39VAFCIGP83ER
801,1.0,left,right,0.0,0.7986,0.0,21.0,21.0,21.0,1.0,INDIGO_BUNTING_1.jpg,FRIGATE_4.jpg,A39VAFCIGP83ER
802,1.0,right,left,0.0,1.881700001,0.0,22.0,22.0,22.0,1.0,SANDHILL_CRANE_2.jpg,EASTERN_TOWEE_2.jpg,A39VAFCIGP83ER
803,1.0,left,left,1.0,0.6991,0.0,23.0,23.0,23.0,1.0,ASIAN_CRESTED_IBIS_4.jpg,CANARY_2.jpg,A39VAFCIGP83ER
804,3.0,left,right,0.0,0.403300001,0.0,24.0,24.0,24.0,1.0,TASMANIAN_HEN_5.jpg,COPPERY_TAILED_COUCAL_1.jpg,A39VAFCIGP83ER
805,1.0,left,left,1.0,1.201700001,0.0,25.0,25.0,25.0,1.0,AMERICAN_PIPIT_5.jpg,EMU_2.jpg,A39VAFCIGP83ER
806,3.0,right,right,1.0,1.4545,0.0,26.0,26.0,26.0,1.0,BLACK_BAZA_4.jpg,BROWN_THRASHER_3.jpg,A39VAFCIGP83ER
807,1.0,right,right,1.0,1.9134,0.0,27.0,27.0,27.0,1.0,PEACOCK_2.jpg,BROWN_NOODY_3.jpg,A39VAFCIGP83ER
808,1.0,right,right,1.0,0.1126,0.0,28.0,28.0,28.0,1.0,DOUBLE_BRESTED_CORMARANT_4.jpg,STRIPPED_SWALLOW_1.jpg,A39VAFCIGP83ER
809,3.0,left,right,0.0,0.203599998,0.0,29.0,29.0,29.0,1.0,MALACHITE_KINGFISHER_2.jpg,GREEN_BROADBILL_5.jpg,A39VAFCIGP83ER
810,2.0,left,left,1.0,2.450799999,0.0,30.0,30.0,30.0,1.0,BREWERS_BLACKBIRD_3.jpg,GOLDEN_CHEEKED_WARBLER_3.jpg,A39VAFCIGP83ER
811,3.0,left,right,0.0,4.475200001,0.0,31.0,31.0,31.0,1.0,INLAND_DOTTEREL_4.jpg,CRESTED_KINGFISHER_1.jpg,A39VAFCIGP83ER
812,2.0,right,right,1.0,3.337,0.0,32.0,32.0,32.0,1.0,PAINTED_BUNTING_3.jpg,EUROPEAN_TURTLE_DOVE_3.jpg,A39VAFCIGP83ER
813,3.0,right,left,0.0,2.1169,0.0,33.0,33.0,33.0,1.0,FAIRY_TERN_1.jpg,GYRFALCON_1.jpg,A39VAFCIGP83ER
814,2.0,left,right,0.0,1.285599998,0.0,34.0,34.0,34.0,1.0,RUFOUS_KINGFISHER_1.jpg,MAGPIE_GOOSE_3.jpg,A39VAFCIGP83ER
815,2.0,right,right,1.0,11.7772,0.0,35.0,35.0,35.0,1.0,GILDED_FLICKER_5.jpg,SHOEBILL_3.jpg,A39VAFCIGP83ER
816,2.0,right,right,1.0,0.4924,0.0,36.0,36.0,36.0,1.0,GOULDIAN_FINCH_4.jpg,GREY_PLOVER_1.jpg,A39VAFCIGP83ER
817,2.0,left,right,0.0,0.1054,0.0,37.0,37.0,37.0,1.0,PARUS_MAJOR_1.jpg,CALIFORNIA_GULL_2.jpg,A39VAFCIGP83ER
818,2.0,right,right,1.0,0.1036,0.0,38.0,38.0,38.0,1.0,STRAWBERRY_FINCH_4.jpg,PEACOCK_3.jpg,A39VAFCIGP83ER
819,2.0,left,left,1.0,0.202199999,0.0,39.0,39.0,39.0,1.0,AFRICAN_PIED_HORNBILL_5.jpg,ALEXANDRINE_PARAKEET_1.jpg,A39VAFCIGP83ER
820,3.0,left,right,0.0,0.307200001,0.0,40.0,40.0,40.0,1.0,RUBY_THROATED_HUMMINGBIRD_3.jpg,NORTHERN_SHOVELER_1.jpg,A39VAFCIGP83ER
821,3.0,left,right,0.0,0.099699999,0.0,41.0,41.0,41.0,1.0,OCELLATED_TURKEY_1.jpg,PURPLE_SWAMPHEN_4.jpg,A39VAFCIGP83ER
822,3.0,left,right,0.0,0.109299999,0.0,42.0,42.0,42.0,1.0,RUBY_THROATED_HUMMINGBIRD_2.jpg,DUSKY_ROBIN_5.jpg,A39VAFCIGP83ER
823,1.0,left,right,0.0,0.115,0.0,43.0,43.0,43.0,1.0,CRESTED_CARACARA_4.jpg,FAIRY_PENGUIN_5.jpg,A39VAFCIGP83ER
824,1.0,left,right,0.0,13.348,0.0,44.0,44.0,44.0,1.0,WHITE_CHEEKED_TURACO_5.jpg,NORTHERN_MOCKINGBIRD_4.jpg,A39VAFCIGP83ER
825,3.0,left,right,0.0,37.9284,0.0,45.0,45.0,45.0,1.0,CHUKAR_PARTRIDGE_5.jpg,BLACK_THROATED_BUSHTIT_1.jpg,A39VAFCIGP83ER
826,3.0,left,right,0.0,27.2304,0.0,46.0,46.0,46.0,1.0,CASSOWARY_1.jpg,AFRICAN_OYSTER_CATCHER_2.jpg,A39VAFCIGP83ER
827,2.0,right,right,1.0,66.1169,0.0,47.0,47.0,47.0,1.0,HAMERKOP_1.jpg,MAGPIE_GOOSE_5.jpg,A39VAFCIGP83ER
828,3.0,right,right,1.0,70.1403,0.0,48.0,48.0,48.0,1.0,CUBAN_TODY_4.jpg,SPLENDID_WREN_1.jpg,A39VAFCIGP83ER
829,1.0,right,right,1.0,12.0705,0.0,49.0,49.0,49.0,1.0,ALBATROSS_2.jpg,ASIAN_DOLLARD_BIRD_2.jpg,A39VAFCIGP83ER
830,1.0,left,right,0.0,8.0786,0.0,50.0,50.0,50.0,1.0,LARK_BUNTING_2.jpg,PEACOCK_1.jpg,A39VAFCIGP83ER
831,2.0,left,right,0.0,1.436,0.0,51.0,51.0,51.0,1.0,PYGMY_KINGFISHER_5.jpg,MASKED_BOOBY_5.jpg,A39VAFCIGP83ER
832,1.0,right,right,1.0,1.0486,0.0,52.0,52.0,52.0,1.0,SPOONBILL_3.jpg,PINK_ROBIN_4.jpg,A39VAFCIGP83ER
833,3.0,left,right,0.0,1.1574,0.0,53.0,53.0,53.0,1.0,NORTHERN_JACANA_3.jpg,SCARLET_IBIS_4.jpg,A39VAFCIGP83ER
834,1.0,left,left,1.0,1.288,0.0,54.0,54.0,54.0,1.0,INCA_TERN_4.jpg,ELLIOTS__PHEASANT_4.jpg,A39VAFCIGP83ER
835,2.0,left,right,0.0,28.2717,0.0,55.0,55.0,55.0,1.0,OVENBIRD_5.jpg,FAIRY_PENGUIN_1.jpg,A39VAFCIGP83ER
836,2.0,right,right,1.0,1.0955,0.0,56.0,56.0,56.0,1.0,CALIFORNIA_GULL_1.jpg,VERMILION_FLYCATHER_3.jpg,A39VAFCIGP83ER
837,1.0,left,left,1.0,1.5014,0.0,57.0,57.0,57.0,1.0,CASPIAN_TERN_1.jpg,GREAT_GRAY_OWL_4.jpg,A39VAFCIGP83ER
838,2.0,right,right,1.0,13.0865,0.0,58.0,58.0,58.0,1.0,GREY_PLOVER_4.jpg,MYNA_1.jpg,A39VAFCIGP83ER
839,1.0,left,left,1.0,1.419700001,0.0,59.0,59.0,59.0,1.0,IVORY_GULL_1.jpg,WILSONS_BIRD_OF_PARADISE_4.jpg,A39VAFCIGP83ER
840,2.0,right,right,1.0,7.508,0.0,0.0,0.0,0.0,1.0,MAGPIE_GOOSE_3.jpg,RUFOUS_KINGFISHER_1.jpg,A3ATB5GC4BQIH0
841,3.0,right,right,1.0,2.97,0.0,1.0,1.0,1.0,1.0,WATTLED_LAPWING_3.jpg,HAWAIIAN_GOOSE_4.jpg,A3ATB5GC4BQIH0
842,2.0,right,right,1.0,2.221,0.0,2.0,2.0,2.0,1.0,CINNAMON_ATTILA_2.jpg,GYRFALCON_1.jpg,A3ATB5GC4BQIH0
843,3.0,right,left,0.0,1.811,0.0,3.0,3.0,3.0,1.0,FAIRY_TERN_4.jpg,IVORY_GULL_1.jpg,A3ATB5GC4BQIH0
844,1.0,left,right,0.0,1.736,0.0,4.0,4.0,4.0,1.0,EASTERN_TOWEE_2.jpg,SANDHILL_CRANE_2.jpg,A3ATB5GC4BQIH0
845,2.0,left,right,0.0,2.219,0.0,5.0,5.0,5.0,1.0,BROWN_THRASHER_3.jpg,OYSTER_CATCHER_4.jpg,A3ATB5GC4BQIH0
846,2.0,left,left,1.0,2.088,0.0,6.0,6.0,6.0,1.0,PINK_ROBIN_4.jpg,ALBATROSS_4.jpg,A3ATB5GC4BQIH0
847,3.0,left,right,0.0,1.883,0.0,7.0,7.0,7.0,1.0,INLAND_DOTTEREL_4.jpg,CRESTED_KINGFISHER_1.jpg,A3ATB5GC4BQIH0
848,1.0,right,left,0.0,2.438,0.0,8.0,8.0,8.0,1.0,CAPE_LONGCLAW_5.jpg,BALI_STARLING_1.jpg,A3ATB5GC4BQIH0
849,1.0,right,right,1.0,3.964,0.0,9.0,9.0,9.0,1.0,FAIRY_PENGUIN_5.jpg,CRESTED_CARACARA_4.jpg,A3ATB5GC4BQIH0
850,1.0,right,left,0.0,2.285,0.0,10.0,10.0,10.0,1.0,INDIGO_FLYCATCHER_2.jpg,IVORY_GULL_3.jpg,A3ATB5GC4BQIH0
851,1.0,right,right,1.0,2.966,0.0,11.0,11.0,11.0,1.0,DOUBLE_BRESTED_CORMARANT_4.jpg,STRIPPED_SWALLOW_1.jpg,A3ATB5GC4BQIH0
852,3.0,left,right,0.0,1.316,0.0,12.0,12.0,12.0,1.0,ASIAN_DOLLARD_BIRD_2.jpg,VIOLET_GREEN_SWALLOW_4.jpg,A3ATB5GC4BQIH0
853,3.0,right,left,0.0,1.934,0.0,13.0,13.0,13.0,1.0,OYSTER_CATCHER_3.jpg,MAGPIE_GOOSE_5.jpg,A3ATB5GC4BQIH0
854,1.0,right,right,1.0,1.634,0.0,14.0,14.0,14.0,1.0,SPOONBILL_1.jpg,GOLDEN_CHEEKED_WARBLER_2.jpg,A3ATB5GC4BQIH0
855,1.0,right,left,0.0,2.478,0.0,15.0,15.0,15.0,1.0,PEACOCK_2.jpg,BROWN_NOODY_3.jpg,A3ATB5GC4BQIH0
856,3.0,right,right,1.0,2.238,0.0,16.0,16.0,16.0,1.0,CUBAN_TODY_4.jpg,SPLENDID_WREN_1.jpg,A3ATB5GC4BQIH0
857,2.0,right,right,1.0,1.772,0.0,17.0,17.0,17.0,1.0,RAINBOW_LORIKEET_5.jpg,LESSER_ADJUTANT_4.jpg,A3ATB5GC4BQIH0
858,3.0,right,left,0.0,1.296,0.0,18.0,18.0,18.0,1.0,SHORT_BILLED_DOWITCHER_5.jpg,OVENBIRD_5.jpg,A3ATB5GC4BQIH0
859,2.0,left,right,0.0,1.116,0.0,19.0,19.0,19.0,1.0,INDIGO_BUNTING_1.jpg,NORTHERN_GANNET_1.jpg,A3ATB5GC4BQIH0
860,3.0,right,right,1.0,2.965,0.0,20.0,20.0,20.0,1.0,GREEN_BROADBILL_5.jpg,MALACHITE_KINGFISHER_2.jpg,A3ATB5GC4BQIH0
861,2.0,left,left,1.0,1.68,0.0,21.0,21.0,21.0,1.0,CERULEAN_WARBLER_1.jpg,AMERICAN_FLAMINGO_5.jpg,A3ATB5GC4BQIH0
862,2.0,left,left,1.0,1.561,0.0,22.0,22.0,22.0,1.0,PARUS_MAJOR_1.jpg,CALIFORNIA_GULL_2.jpg,A3ATB5GC4BQIH0
863,3.0,right,right,1.0,4.426,0.0,23.0,23.0,23.0,1.0,CAPE_LONGCLAW_2.jpg,BREWERS_BLACKBIRD_3.jpg,A3ATB5GC4BQIH0
864,1.0,left,right,0.0,4.309,0.0,24.0,24.0,24.0,1.0,KILLDEAR_2.jpg,PEACOCK_5.jpg,A3ATB5GC4BQIH0
865,2.0,right,left,0.0,1.647,0.0,25.0,25.0,25.0,1.0,COMMON_HOUSE_MARTIN_4.jpg,GOLDEN_CHLOROPHONIA_5.jpg,A3ATB5GC4BQIH0
866,1.0,right,right,1.0,1.703,0.0,26.0,26.0,26.0,1.0,GREAT_GRAY_OWL_4.jpg,CASPIAN_TERN_1.jpg,A3ATB5GC4BQIH0
867,3.0,right,left,0.0,1.909,0.0,27.0,27.0,27.0,1.0,MALABAR_HORNBILL_2.jpg,EUROPEAN_TURTLE_DOVE_3.jpg,A3ATB5GC4BQIH0
868,2.0,right,right,1.0,3.223,0.0,28.0,28.0,28.0,1.0,COCK_OF_THE__ROCK_4.jpg,GRAY_KINGBIRD_5.jpg,A3ATB5GC4BQIH0
869,1.0,left,right,0.0,2.081,0.0,29.0,29.0,29.0,1.0,MYNA_1.jpg,OSTRICH_3.jpg,A3ATB5GC4BQIH0
870,2.0,left,right,0.0,1.794,0.0,30.0,30.0,30.0,1.0,SCARLET_TANAGER_2.jpg,NORTHERN_GANNET_2.jpg,A3ATB5GC4BQIH0
871,2.0,left,right,0.0,2.868,0.0,31.0,31.0,31.0,1.0,CHUKAR_PARTRIDGE_5.jpg,RAZORBILL_1.jpg,A3ATB5GC4BQIH0
872,2.0,left,left,1.0,2.838,0.0,32.0,32.0,32.0,1.0,ALPINE_CHOUGH_4.jpg,EUROPEAN_GOLDFINCH_3.jpg,A3ATB5GC4BQIH0
873,3.0,left,left,1.0,1.951,0.0,33.0,33.0,33.0,1.0,GREY_PLOVER_1.jpg,ECUADORIAN_HILLSTAR_3.jpg,A3ATB5GC4BQIH0
874,2.0,right,right,1.0,2.105,0.0,34.0,34.0,34.0,1.0,MYNA_5.jpg,RUBY_THROATED_HUMMINGBIRD_3.jpg,A3ATB5GC4BQIH0
875,1.0,left,right,0.0,2.783,0.0,35.0,35.0,35.0,1.0,KAGU_5.jpg,RED_BEARDED_BEE_EATER_3.jpg,A3ATB5GC4BQIH0
876,3.0,left,left,1.0,2.293,0.0,36.0,36.0,36.0,1.0,INCA_TERN_4.jpg,BORNEAN_BRISTLEHEAD_5.jpg,A3ATB5GC4BQIH0
877,1.0,left,left,1.0,2.918,0.0,37.0,37.0,37.0,1.0,FLAME_BOWERBIRD_3.jpg,INDIAN_BUSTARD_2.jpg,A3ATB5GC4BQIH0
878,2.0,right,left,0.0,2.077,0.0,38.0,38.0,38.0,1.0,AFRICAN_EMERALD_CUCKOO_5.jpg,TASMANIAN_HEN_5.jpg,A3ATB5GC4BQIH0
879,2.0,right,right,1.0,2.75,0.0,39.0,39.0,39.0,1.0,OYSTER_CATCHER_2.jpg,ASIAN_CRESTED_IBIS_4.jpg,A3ATB5GC4BQIH0
880,2.0,right,right,1.0,1.716,0.0,40.0,40.0,40.0,1.0,AFRICAN_FIREFINCH_1.jpg,CRESTED_NUTHATCH_2.jpg,A3ATB5GC4BQIH0
881,2.0,right,right,1.0,1.828,0.0,41.0,41.0,41.0,1.0,VULTURINE_GUINEAFOWL_4.jpg,RUBY_THROATED_HUMMINGBIRD_1.jpg,A3ATB5GC4BQIH0
882,1.0,right,right,1.0,1.818,0.0,42.0,42.0,42.0,1.0,GOLDEN_CHLOROPHONIA_2.jpg,RUBY_THROATED_HUMMINGBIRD_2.jpg,A3ATB5GC4BQIH0
883,3.0,right,left,0.0,2.633,0.0,43.0,43.0,43.0,1.0,PURPLE_SWAMPHEN_4.jpg,OCELLATED_TURKEY_1.jpg,A3ATB5GC4BQIH0
884,1.0,right,left,0.0,1.808,0.0,44.0,44.0,44.0,1.0,ROSY_FACED_LOVEBIRD_4.jpg,CASSOWARY_1.jpg,A3ATB5GC4BQIH0
885,1.0,left,left,1.0,1.701,0.0,45.0,45.0,45.0,1.0,PYGMY_KINGFISHER_5.jpg,GRANDALA_2.jpg,A3ATB5GC4BQIH0
886,1.0,right,right,1.0,1.836,0.0,46.0,46.0,46.0,1.0,KIWI_4.jpg,AFRICAN_PIED_HORNBILL_5.jpg,A3ATB5GC4BQIH0
887,3.0,left,left,1.0,8.713,0.0,47.0,47.0,47.0,1.0,VERMILION_FLYCATHER_3.jpg,RED_BEARDED_BEE_EATER_1.jpg,A3ATB5GC4BQIH0
888,3.0,right,right,1.0,5.386,0.0,48.0,48.0,48.0,1.0,RED_HEADED_WOODPECKER_1.jpg,LESSER_ADJUTANT_5.jpg,A3ATB5GC4BQIH0
889,3.0,right,left,0.0,5.837,0.0,49.0,49.0,49.0,1.0,BALD_EAGLE_5.jpg,SHOEBILL_3.jpg,A3ATB5GC4BQIH0
890,1.0,right,right,1.0,2.184,0.0,50.0,50.0,50.0,1.0,SCARLET_IBIS_2.jpg,ECUADORIAN_HILLSTAR_5.jpg,A3ATB5GC4BQIH0
891,1.0,left,right,0.0,1.913,0.0,51.0,51.0,51.0,1.0,NORTHERN_JACANA_3.jpg,AMERICAN_GOLDFINCH_4.jpg,A3ATB5GC4BQIH0
892,3.0,left,left,1.0,3.296,0.0,52.0,52.0,52.0,1.0,DOUBLE_BRESTED_CORMARANT_5.jpg,CHINESE_POND_HERON_2.jpg,A3ATB5GC4BQIH0
893,2.0,right,left,0.0,0.988,0.0,53.0,53.0,53.0,1.0,GREAT_POTOO_3.jpg,WHITE_CHEEKED_TURACO_5.jpg,A3ATB5GC4BQIH0
894,3.0,right,right,1.0,2.528,0.0,54.0,54.0,54.0,1.0,CACTUS_WREN_3.jpg,LARK_BUNTING_2.jpg,A3ATB5GC4BQIH0
895,1.0,left,left,1.0,3.153,0.0,55.0,55.0,55.0,1.0,RED_HEADED_WOODPECKER_5.jpg,ASHY_STORM_PETREL_2.jpg,A3ATB5GC4BQIH0
896,3.0,right,right,1.0,1.333,0.0,56.0,56.0,56.0,1.0,HEPATIC_TANAGER_5.jpg,AMERICAN_PIPIT_5.jpg,A3ATB5GC4BQIH0
897,3.0,right,left,0.0,2.513,0.0,57.0,57.0,57.0,1.0,CHATTERING_LORY_2.jpg,PEACOCK_3.jpg,A3ATB5GC4BQIH0
898,1.0,left,left,1.0,1.502,0.0,58.0,58.0,58.0,1.0,LITTLE_AUK_5.jpg,SANDHILL_CRANE_3.jpg,A3ATB5GC4BQIH0
899,2.0,right,left,0.0,1.293,0.0,59.0,59.0,59.0,1.0,BLACK_VULTURE_1.jpg,ARARIPE_MANAKIN_4.jpg,A3ATB5GC4BQIH0
900,3.0,right,right,1.0,1.055,0.0,0.0,0.0,0.0,1.0,CHATTERING_LORY_2.jpg,PEACOCK_3.jpg,A3BU8UL4W258UU
901,2.0,left,left,1.0,1.297,0.0,1.0,1.0,1.0,1.0,FLAME_BOWERBIRD_3.jpg,BROWN_THRASHER_4.jpg,A3BU8UL4W258UU
902,1.0,right,right,1.0,1.853,0.0,2.0,2.0,2.0,1.0,CHIPPING_SPARROW_1.jpg,OCELLATED_TURKEY_1.jpg,A3BU8UL4W258UU
903,3.0,left,left,1.0,2.193,0.0,3.0,3.0,3.0,1.0,RUFOUS_KINGFISHER_1.jpg,HORNED_SUNGEM_4.jpg,A3BU8UL4W258UU
904,3.0,left,right,0.0,1.183,0.0,4.0,4.0,4.0,1.0,MAGPIE_GOOSE_5.jpg,OYSTER_CATCHER_3.jpg,A3BU8UL4W258UU
905,2.0,left,left,1.0,1.853,0.0,5.0,5.0,5.0,1.0,LARK_BUNTING_2.jpg,KING_VULTURE_3.jpg,A3BU8UL4W258UU
906,2.0,left,left,1.0,1.865,0.0,6.0,6.0,6.0,1.0,BROWN_THRASHER_3.jpg,OYSTER_CATCHER_4.jpg,A3BU8UL4W258UU
907,3.0,right,right,1.0,1.133,0.0,7.0,7.0,7.0,1.0,BALD_EAGLE_5.jpg,SHOEBILL_3.jpg,A3BU8UL4W258UU
908,3.0,left,left,1.0,1.695,0.0,8.0,8.0,8.0,1.0,BROWN_NOODY_3.jpg,GUINEA_TURACO_5.jpg,A3BU8UL4W258UU
909,1.0,right,right,1.0,1.24,0.0,9.0,9.0,9.0,1.0,TEAL_DUCK_2.jpg,EUROPEAN_TURTLE_DOVE_3.jpg,A3BU8UL4W258UU
910,1.0,left,left,1.0,1.638,0.0,10.0,10.0,10.0,1.0,NORTHERN_JACANA_3.jpg,AMERICAN_GOLDFINCH_4.jpg,A3BU8UL4W258UU
