,layer,correct,test_test_response.keys,test_test_response.corr,test_test_response.rt,trials_2.thisRepN,trials_2.thisTrialN,trials_2.thisN,trials_2.thisIndex,trials_2.ran,image1,image2,bar_2.response,subject
0,0.0,right,right,1.0,2.0456,0.0,0.0,0.0,0.0,1.0,mountain_171.jpg,mountain_101.jpg,2.0,AC5PVOOS79W2B
1,0.0,right,right,1.0,1.446,0.0,1.0,1.0,1.0,1.0,mountain_3.jpg,mountain_232.jpg,2.0,AC5PVOOS79W2B
2,0.0,right,right,1.0,1.1804,0.0,2.0,2.0,2.0,1.0,highway_85.jpg,highway_93.jpg,4.0,AC5PVOOS79W2B
3,0.0,left,left,1.0,1.1092,0.0,3.0,3.0,3.0,1.0,mountain_123.jpg,mountain_94.jpg,1.0,AC5PVOOS79W2B
4,1.0,right,right,1.0,1.7708,0.0,4.0,4.0,4.0,1.0,golf_course_209.jpg,golf_course_309.jpg,3.0,AC5PVOOS79W2B
5,0.0,right,right,1.0,2.1436,0.0,5.0,5.0,5.0,1.0,golf_course_130.jpg,golf_course_87.jpg,7.0,AC5PVOOS79W2B
6,1.0,right,right,1.0,2.5726,0.0,6.0,6.0,6.0,1.0,playground_244.jpg,playground_60.jpg,4.0,AC5PVOOS79W2B
7,1.0,right,right,1.0,1.8739,0.0,7.0,7.0,7.0,1.0,playground_12.jpg,playground_10.jpg,3.0,AC5PVOOS79W2B
8,0.0,right,right,1.0,1.1486,0.0,8.0,8.0,8.0,1.0,highway_389.jpg,highway_359.jpg,1.0,AC5PVOOS79W2B
9,1.0,left,left,1.0,1.6361,0.0,9.0,9.0,9.0,1.0,bridge_108.jpg,bridge_148.jpg,1.0,AC5PVOOS79W2B
10,0.0,left,left,1.0,1.6834,0.0,10.0,10.0,10.0,1.0,bridge_202.jpg,bridge_31.jpg,1.0,AC5PVOOS79W2B
11,0.0,right,left,0.0,3.1729,0.0,11.0,11.0,11.0,1.0,golf_course_25.jpg,golf_course_195.jpg,1.0,AC5PVOOS79W2B
12,1.0,right,right,1.0,2.2682,0.0,12.0,12.0,12.0,1.0,bridge_60.jpg,bridge_65.jpg,1.0,AC5PVOOS79W2B
13,0.0,left,right,0.0,1.5352,0.0,13.0,13.0,13.0,1.0,bridge_250.jpg,bridge_134.jpg,2.0,AC5PVOOS79W2B
14,0.0,right,right,1.0,1.3323,0.0,14.0,14.0,14.0,1.0,badlands_94.jpg,badlands_52.jpg,5.0,AC5PVOOS79W2B
15,1.0,left,left,1.0,1.7881,0.0,15.0,15.0,15.0,1.0,mountain_154.jpg,mountain_95.jpg,4.0,AC5PVOOS79W2B
16,0.0,right,right,1.0,1.1145,0.0,16.0,16.0,16.0,1.0,bridge_17.jpg,bridge_172.jpg,1.0,AC5PVOOS79W2B
17,0.0,left,left,1.0,2.3523,0.0,17.0,17.0,17.0,1.0,bridge_256.jpg,bridge_54.jpg,2.0,AC5PVOOS79W2B
18,0.0,right,right,1.0,0.9902,0.0,18.0,18.0,18.0,1.0,badlands_34.jpg,badlands_222.jpg,5.0,AC5PVOOS79W2B
19,0.0,left,left,1.0,2.1681,0.0,19.0,19.0,19.0,1.0,playground_145.jpg,playground_229.jpg,3.0,AC5PVOOS79W2B
20,1.0,left,right,0.0,2.3939,0.0,20.0,20.0,20.0,1.0,golf_course_15.jpg,golf_course_97.jpg,6.0,AC5PVOOS79W2B
21,0.0,left,left,1.0,0.8114,0.0,21.0,21.0,21.0,1.0,bridge_146.jpg,bridge_27.jpg,2.0,AC5PVOOS79W2B
22,0.0,right,right,1.0,3.623,0.0,22.0,22.0,22.0,1.0,highway_384.jpg,highway_273.jpg,4.0,AC5PVOOS79W2B
23,0.0,right,right,1.0,2.0508,0.0,23.0,23.0,23.0,1.0,golf_course_157.jpg,golf_course_188.jpg,1.0,AC5PVOOS79W2B
24,1.0,left,left,1.0,1.7176,0.0,24.0,24.0,24.0,1.0,playground_131.jpg,playground_164.jpg,5.0,AC5PVOOS79W2B
25,1.0,right,right,1.0,1.9518,0.0,25.0,25.0,25.0,1.0,highway_174.jpg,highway_415.jpg,5.0,AC5PVOOS79W2B
26,0.0,right,right,1.0,1.9748,0.0,26.0,26.0,26.0,1.0,mountain_184.jpg,mountain_230.jpg,4.0,AC5PVOOS79W2B
27,1.0,right,left,0.0,1.3655,0.0,27.0,27.0,27.0,1.0,badlands_98.jpg,badlands_21.jpg,3.0,AC5PVOOS79W2B
28,1.0,right,right,1.0,1.9196,0.0,28.0,28.0,28.0,1.0,badlands_101.jpg,badlands_23.jpg,1.0,AC5PVOOS79W2B
29,1.0,right,right,1.0,1.4591,0.0,29.0,29.0,29.0,1.0,highway_122.jpg,highway_209.jpg,5.0,AC5PVOOS79W2B
30,0.0,right,right,1.0,1.5931,0.0,30.0,30.0,30.0,1.0,playground_214.jpg,playground_257.jpg,7.0,AC5PVOOS79W2B
31,0.0,left,left,1.0,3.1194,0.0,31.0,31.0,31.0,1.0,playground_76.jpg,playground_22.jpg,5.0,AC5PVOOS79W2B
32,1.0,left,left,1.0,8.232,0.0,32.0,32.0,32.0,1.0,highway_177.jpg,highway_278.jpg,6.0,AC5PVOOS79W2B
33,0.0,left,left,1.0,1.8901,0.0,33.0,33.0,33.0,1.0,badlands_24.jpg,badlands_3.jpg,3.0,AC5PVOOS79W2B
34,0.0,left,right,0.0,5.0836,0.0,34.0,34.0,34.0,1.0,badlands_221.jpg,badlands_115.jpg,2.0,AC5PVOOS79W2B
35,0.0,right,right,1.0,0.9113,0.0,35.0,35.0,35.0,1.0,playground_137.jpg,playground_144.jpg,1.0,AC5PVOOS79W2B
36,1.0,left,right,0.0,2.1846,0.0,36.0,36.0,36.0,1.0,badlands_113.jpg,badlands_203.jpg,7.0,AC5PVOOS79W2B
37,0.0,left,left,1.0,1.4777,0.0,37.0,37.0,37.0,1.0,golf_course_193.jpg,golf_course_235.jpg,5.0,AC5PVOOS79W2B
38,0.0,left,left,1.0,3.2764,0.0,38.0,38.0,38.0,1.0,badlands_70.jpg,badlands_102.jpg,4.0,AC5PVOOS79W2B
39,1.0,right,right,1.0,3.9928,0.0,39.0,39.0,39.0,1.0,mountain_295.jpg,mountain_156.jpg,2.0,AC5PVOOS79W2B
40,1.0,right,right,1.0,3.1955,0.0,40.0,40.0,40.0,1.0,highway_406.jpg,highway_394.jpg,3.0,AC5PVOOS79W2B
41,1.0,right,right,1.0,2.0371,0.0,41.0,41.0,41.0,1.0,mountain_93.jpg,mountain_222.jpg,2.0,AC5PVOOS79W2B
42,0.0,right,right,1.0,1.5702,0.0,42.0,42.0,42.0,1.0,mountain_193.jpg,mountain_57.jpg,6.0,AC5PVOOS79W2B
43,1.0,left,left,1.0,2.2712,0.0,43.0,43.0,43.0,1.0,badlands_137.jpg,badlands_139.jpg,3.0,AC5PVOOS79W2B
44,1.0,right,right,1.0,1.3115,0.0,44.0,44.0,44.0,1.0,badlands_103.jpg,badlands_184.jpg,4.0,AC5PVOOS79W2B
45,1.0,left,left,1.0,1.7298,0.0,45.0,45.0,45.0,1.0,bridge_128.jpg,bridge_244.jpg,2.0,AC5PVOOS79W2B
46,1.0,right,right,1.0,3.6905,0.0,46.0,46.0,46.0,1.0,highway_293.jpg,highway_156.jpg,9.0,AC5PVOOS79W2B
47,1.0,right,right,1.0,1.3162,0.0,47.0,47.0,47.0,1.0,golf_course_26.jpg,golf_course_331.jpg,6.0,AC5PVOOS79W2B
48,1.0,left,left,1.0,2.2672,0.0,48.0,48.0,48.0,1.0,mountain_293.jpg,mountain_47.jpg,3.0,AC5PVOOS79W2B
49,1.0,left,left,1.0,2.3419,0.0,49.0,49.0,49.0,1.0,mountain_110.jpg,mountain_223.jpg,4.0,AC5PVOOS79W2B
50,1.0,right,right,1.0,1.8621,0.0,50.0,50.0,50.0,1.0,bridge_75.jpg,bridge_191.jpg,2.0,AC5PVOOS79W2B
51,1.0,right,left,0.0,2.4193,0.0,51.0,51.0,51.0,1.0,bridge_82.jpg,bridge_91.jpg,1.0,AC5PVOOS79W2B
52,0.0,left,left,1.0,1.9632,0.0,52.0,52.0,52.0,1.0,highway_294.jpg,highway_203.jpg,3.0,AC5PVOOS79W2B
53,0.0,left,left,1.0,2.7215,0.0,53.0,53.0,53.0,1.0,playground_117.jpg,playground_167.jpg,4.0,AC5PVOOS79W2B
54,1.0,right,right,1.0,1.9736,0.0,54.0,54.0,54.0,1.0,golf_course_262.jpg,golf_course_217.jpg,3.0,AC5PVOOS79W2B
55,1.0,left,left,1.0,1.7873,0.0,55.0,55.0,55.0,1.0,golf_course_78.jpg,golf_course_101.jpg,1.0,AC5PVOOS79W2B
56,1.0,left,left,1.0,5.5292,0.0,56.0,56.0,56.0,1.0,playground_219.jpg,playground_205.jpg,7.0,AC5PVOOS79W2B
57,1.0,left,right,0.0,2.7775,0.0,57.0,57.0,57.0,1.0,playground_240.jpg,playground_40.jpg,4.0,AC5PVOOS79W2B
58,0.0,right,right,1.0,1.2734,0.0,58.0,58.0,58.0,1.0,golf_course_312.jpg,golf_course_214.jpg,2.0,AC5PVOOS79W2B
59,0.0,left,left,1.0,3.5491,0.0,59.0,59.0,59.0,1.0,highway_245.jpg,highway_134.jpg,2.0,AC5PVOOS79W2B
60,0.0,right,right,1.0,1.866,0.0,0.0,0.0,0.0,1.0,badlands_225.jpg,badlands_113.jpg,8.0,A1KRXY4629AK58
61,1.0,left,right,0.0,2.675,0.0,1.0,1.0,1.0,1.0,bridge_91.jpg,bridge_82.jpg,8.0,A1KRXY4629AK58
62,0.0,right,left,0.0,2.564,0.0,2.0,2.0,2.0,1.0,badlands_194.jpg,badlands_137.jpg,8.0,A1KRXY4629AK58
63,0.0,right,right,1.0,2.053,0.0,3.0,3.0,3.0,1.0,highway_203.jpg,highway_294.jpg,8.0,A1KRXY4629AK58
64,0.0,right,right,1.0,2.506,0.0,4.0,4.0,4.0,1.0,highway_204.jpg,highway_394.jpg,7.0,A1KRXY4629AK58
65,0.0,right,right,1.0,1.943,0.0,5.0,5.0,5.0,1.0,bridge_181.jpg,bridge_65.jpg,7.0,A1KRXY4629AK58
66,0.0,left,left,1.0,1.975,0.0,6.0,6.0,6.0,1.0,playground_240.jpg,playground_2.jpg,7.0,A1KRXY4629AK58
67,1.0,right,right,1.0,1.946,0.0,7.0,7.0,7.0,1.0,highway_293.jpg,highway_156.jpg,8.0,A1KRXY4629AK58
68,1.0,right,right,1.0,1.538,0.0,8.0,8.0,8.0,1.0,bridge_244.jpg,bridge_128.jpg,8.0,A1KRXY4629AK58
69,0.0,left,right,0.0,2.989,0.0,9.0,9.0,9.0,1.0,golf_course_15.jpg,golf_course_113.jpg,7.0,A1KRXY4629AK58
70,1.0,right,left,0.0,2.698,0.0,10.0,10.0,10.0,1.0,highway_369.jpg,highway_93.jpg,7.0,A1KRXY4629AK58
71,1.0,right,right,1.0,2.244,0.0,11.0,11.0,11.0,1.0,mountain_95.jpg,mountain_154.jpg,8.0,A1KRXY4629AK58
72,1.0,right,right,1.0,1.905,0.0,12.0,12.0,12.0,1.0,highway_379.jpg,highway_359.jpg,7.0,A1KRXY4629AK58
73,0.0,right,right,1.0,2.035,0.0,13.0,13.0,13.0,1.0,golf_course_312.jpg,golf_course_214.jpg,7.0,A1KRXY4629AK58
74,0.0,right,right,1.0,2.327,0.0,14.0,14.0,14.0,1.0,badlands_228.jpg,badlands_184.jpg,5.0,A1KRXY4629AK58
75,1.0,right,right,1.0,2.106,0.0,15.0,15.0,15.0,1.0,mountain_221.jpg,mountain_101.jpg,7.0,A1KRXY4629AK58
76,1.0,right,right,1.0,2.177,0.0,16.0,16.0,16.0,1.0,mountain_138.jpg,mountain_57.jpg,7.0,A1KRXY4629AK58
77,1.0,right,left,0.0,2.484,0.0,17.0,17.0,17.0,1.0,playground_242.jpg,playground_145.jpg,7.0,A1KRXY4629AK58
78,1.0,left,right,0.0,2.059,0.0,18.0,18.0,18.0,1.0,mountain_293.jpg,mountain_47.jpg,7.0,A1KRXY4629AK58
79,1.0,left,left,1.0,2.325,0.0,19.0,19.0,19.0,1.0,playground_117.jpg,playground_127.jpg,7.0,A1KRXY4629AK58
80,1.0,right,right,1.0,2.057,0.0,20.0,20.0,20.0,1.0,golf_course_160.jpg,golf_course_188.jpg,7.0,A1KRXY4629AK58
81,1.0,right,left,0.0,2.245,0.0,21.0,21.0,21.0,1.0,bridge_211.jpg,bridge_256.jpg,7.0,A1KRXY4629AK58
82,0.0,right,right,1.0,1.751,0.0,22.0,22.0,22.0,1.0,golf_course_35.jpg,golf_course_217.jpg,7.0,A1KRXY4629AK58
83,1.0,right,right,1.0,2.93,0.0,23.0,23.0,23.0,1.0,playground_72.jpg,playground_76.jpg,7.0,A1KRXY4629AK58
84,1.0,left,left,1.0,2.849,0.0,24.0,24.0,24.0,1.0,golf_course_87.jpg,golf_course_161.jpg,6.0,A1KRXY4629AK58
85,0.0,right,right,1.0,2.197,0.0,25.0,25.0,25.0,1.0,mountain_3.jpg,mountain_232.jpg,7.0,A1KRXY4629AK58
86,1.0,left,left,1.0,2.128,0.0,26.0,26.0,26.0,1.0,highway_273.jpg,highway_171.jpg,8.0,A1KRXY4629AK58
87,1.0,left,right,0.0,3.7,0.0,27.0,27.0,27.0,1.0,highway_209.jpg,highway_122.jpg,8.0,A1KRXY4629AK58
88,0.0,right,right,1.0,2.42,0.0,28.0,28.0,28.0,1.0,bridge_17.jpg,bridge_172.jpg,7.0,A1KRXY4629AK58
89,0.0,right,right,1.0,2.086,0.0,29.0,29.0,29.0,1.0,mountain_157.jpg,mountain_110.jpg,7.0,A1KRXY4629AK58
90,1.0,right,right,1.0,2.187,0.0,30.0,30.0,30.0,1.0,badlands_53.jpg,badlands_24.jpg,6.0,A1KRXY4629AK58
91,0.0,left,left,1.0,2.591,0.0,31.0,31.0,31.0,1.0,playground_10.jpg,playground_122.jpg,8.0,A1KRXY4629AK58
92,0.0,left,left,1.0,2.565,0.0,32.0,32.0,32.0,1.0,bridge_202.jpg,bridge_31.jpg,7.0,A1KRXY4629AK58
93,1.0,left,right,0.0,2.296,0.0,33.0,33.0,33.0,1.0,badlands_221.jpg,badlands_207.jpg,7.0,A1KRXY4629AK58
94,0.0,left,left,1.0,2.304,0.0,34.0,34.0,34.0,1.0,bridge_191.jpg,bridge_184.jpg,6.0,A1KRXY4629AK58
95,0.0,left,left,1.0,2.651,0.0,35.0,35.0,35.0,1.0,playground_60.jpg,playground_268.jpg,9.0,A1KRXY4629AK58
96,1.0,left,left,1.0,2.02,0.0,36.0,36.0,36.0,1.0,badlands_52.jpg,badlands_63.jpg,7.0,A1KRXY4629AK58
97,1.0,right,right,1.0,2.492,0.0,37.0,37.0,37.0,1.0,playground_215.jpg,playground_257.jpg,7.0,A1KRXY4629AK58
98,0.0,right,right,1.0,2.074,0.0,38.0,38.0,38.0,1.0,mountain_128.jpg,mountain_156.jpg,7.0,A1KRXY4629AK58
99,0.0,right,right,1.0,2.95,0.0,39.0,39.0,39.0,1.0,highway_60.jpg,highway_415.jpg,7.0,A1KRXY4629AK58
100,0.0,left,left,1.0,3.012,0.0,40.0,40.0,40.0,1.0,highway_245.jpg,highway_134.jpg,7.0,A1KRXY4629AK58
101,0.0,left,left,1.0,2.118,0.0,41.0,41.0,41.0,1.0,bridge_250.jpg,bridge_134.jpg,8.0,A1KRXY4629AK58
102,0.0,right,right,1.0,2.129,0.0,42.0,42.0,42.0,1.0,mountain_184.jpg,mountain_230.jpg,8.0,A1KRXY4629AK58
103,0.0,right,right,1.0,2.407,0.0,43.0,43.0,43.0,1.0,playground_137.jpg,playground_144.jpg,7.0,A1KRXY4629AK58
104,1.0,right,right,1.0,2.311,0.0,44.0,44.0,44.0,1.0,badlands_119.jpg,badlands_70.jpg,7.0,A1KRXY4629AK58
105,1.0,right,right,1.0,2.676,0.0,45.0,45.0,45.0,1.0,golf_course_2.jpg,golf_course_195.jpg,7.0,A1KRXY4629AK58
106,0.0,left,left,1.0,2.59,0.0,46.0,46.0,46.0,1.0,golf_course_193.jpg,golf_course_235.jpg,7.0,A1KRXY4629AK58
107,0.0,right,right,1.0,2.647,0.0,47.0,47.0,47.0,1.0,golf_course_134.jpg,golf_course_78.jpg,7.0,A1KRXY4629AK58
108,0.0,right,left,0.0,4.218,0.0,48.0,48.0,48.0,1.0,mountain_244.jpg,mountain_222.jpg,7.0,A1KRXY4629AK58
109,0.0,right,right,1.0,1.9,0.0,49.0,49.0,49.0,1.0,badlands_1.jpg,badlands_21.jpg,7.0,A1KRXY4629AK58
110,1.0,left,left,1.0,3.506,0.0,50.0,50.0,50.0,1.0,bridge_146.jpg,bridge_121.jpg,7.0,A1KRXY4629AK58
111,0.0,left,left,1.0,1.724,0.0,51.0,51.0,51.0,1.0,playground_131.jpg,playground_43.jpg,7.0,A1KRXY4629AK58
112,1.0,left,left,1.0,2.039,0.0,52.0,52.0,52.0,1.0,badlands_222.jpg,badlands_62.jpg,7.0,A1KRXY4629AK58
113,1.0,left,left,1.0,2.717,0.0,53.0,53.0,53.0,1.0,playground_219.jpg,playground_205.jpg,6.0,A1KRXY4629AK58
114,0.0,left,right,0.0,2.536,0.0,54.0,54.0,54.0,1.0,badlands_23.jpg,badlands_114.jpg,8.0,A1KRXY4629AK58
115,1.0,left,left,1.0,3.508,0.0,55.0,55.0,55.0,1.0,golf_course_331.jpg,golf_course_26.jpg,8.0,A1KRXY4629AK58
116,1.0,left,left,1.0,2.639,0.0,56.0,56.0,56.0,1.0,golf_course_309.jpg,golf_course_209.jpg,6.0,A1KRXY4629AK58
117,1.0,right,right,1.0,3.323,0.0,57.0,57.0,57.0,1.0,mountain_189.jpg,mountain_123.jpg,7.0,A1KRXY4629AK58
118,0.0,right,right,1.0,2.277,0.0,58.0,58.0,58.0,1.0,highway_87.jpg,highway_177.jpg,7.0,A1KRXY4629AK58
119,1.0,left,right,0.0,4.213,0.0,59.0,59.0,59.0,1.0,bridge_108.jpg,bridge_148.jpg,7.0,A1KRXY4629AK58
120,1.0,right,right,1.0,4.5026,0.0,0.0,0.0,0.0,1.0,mountain_93.jpg,mountain_222.jpg,2.0,A3C5TMQP0L94K4
121,0.0,right,left,0.0,2.3109,0.0,1.0,1.0,1.0,1.0,mountain_171.jpg,mountain_101.jpg,2.0,A3C5TMQP0L94K4
122,1.0,left,left,1.0,1.5698,0.0,2.0,2.0,2.0,1.0,badlands_70.jpg,badlands_119.jpg,3.0,A3C5TMQP0L94K4
123,1.0,left,left,1.0,1.393,0.0,3.0,3.0,3.0,1.0,playground_131.jpg,playground_164.jpg,6.0,A3C5TMQP0L94K4
124,0.0,left,left,1.0,1.2399,0.0,4.0,4.0,4.0,1.0,bridge_172.jpg,bridge_17.jpg,3.0,A3C5TMQP0L94K4
125,1.0,left,left,1.0,0.8482,0.0,5.0,5.0,5.0,1.0,highway_294.jpg,highway_368.jpg,3.0,A3C5TMQP0L94K4
126,1.0,left,left,1.0,0.667,0.0,6.0,6.0,6.0,1.0,badlands_24.jpg,badlands_53.jpg,7.0,A3C5TMQP0L94K4
127,0.0,left,left,1.0,0.7877,0.0,7.0,7.0,7.0,1.0,bridge_91.jpg,bridge_253.jpg,4.0,A3C5TMQP0L94K4
128,1.0,left,left,1.0,0.595,0.0,8.0,8.0,8.0,1.0,mountain_57.jpg,mountain_138.jpg,2.0,A3C5TMQP0L94K4
129,0.0,right,left,0.0,0.3827,0.0,9.0,9.0,9.0,1.0,badlands_114.jpg,badlands_23.jpg,3.0,A3C5TMQP0L94K4
130,1.0,right,left,0.0,0.4072,0.0,10.0,10.0,10.0,1.0,golf_course_101.jpg,golf_course_78.jpg,5.0,A3C5TMQP0L94K4
131,1.0,left,left,1.0,1.1549,0.0,11.0,11.0,11.0,1.0,mountain_293.jpg,mountain_47.jpg,7.0,A3C5TMQP0L94K4
132,0.0,left,left,1.0,0.4328,0.0,12.0,12.0,12.0,1.0,golf_course_15.jpg,golf_course_113.jpg,5.0,A3C5TMQP0L94K4
133,1.0,left,left,1.0,0.3407,0.0,13.0,13.0,13.0,1.0,bridge_250.jpg,bridge_205.jpg,6.0,A3C5TMQP0L94K4
134,1.0,right,left,0.0,0.1843,0.0,14.0,14.0,14.0,1.0,badlands_103.jpg,badlands_184.jpg,6.0,A3C5TMQP0L94K4
135,0.0,left,left,1.0,0.1036,0.0,15.0,15.0,15.0,1.0,mountain_232.jpg,mountain_3.jpg,4.0,A3C5TMQP0L94K4
136,0.0,left,left,1.0,0.2619,0.0,16.0,16.0,16.0,1.0,golf_course_87.jpg,golf_course_130.jpg,5.0,A3C5TMQP0L94K4
137,0.0,right,left,0.0,0.091,0.0,17.0,17.0,17.0,1.0,mountain_157.jpg,mountain_110.jpg,6.0,A3C5TMQP0L94K4
138,0.0,right,left,0.0,0.2842,0.0,18.0,18.0,18.0,1.0,golf_course_35.jpg,golf_course_217.jpg,3.0,A3C5TMQP0L94K4
139,1.0,left,left,1.0,0.1979,0.0,19.0,19.0,19.0,1.0,highway_273.jpg,highway_171.jpg,2.0,A3C5TMQP0L94K4
140,1.0,right,left,0.0,0.0873,0.0,20.0,20.0,20.0,1.0,highway_174.jpg,highway_415.jpg,5.0,A3C5TMQP0L94K4
141,1.0,left,left,1.0,0.0076,0.0,21.0,21.0,21.0,1.0,bridge_108.jpg,bridge_148.jpg,6.0,A3C5TMQP0L94K4
142,1.0,left,left,1.0,0.1817,0.0,22.0,22.0,22.0,1.0,playground_144.jpg,playground_65.jpg,7.0,A3C5TMQP0L94K4
143,0.0,left,left,1.0,0.0078,0.0,23.0,23.0,23.0,1.0,highway_156.jpg,highway_160.jpg,5.0,A3C5TMQP0L94K4
144,1.0,right,left,0.0,0.009,0.0,24.0,24.0,24.0,1.0,playground_127.jpg,playground_117.jpg,6.0,A3C5TMQP0L94K4
145,1.0,right,left,0.0,0.0882,0.0,25.0,25.0,25.0,1.0,mountain_295.jpg,mountain_156.jpg,7.0,A3C5TMQP0L94K4
146,1.0,right,left,0.0,2.048,0.0,26.0,26.0,26.0,1.0,highway_278.jpg,highway_177.jpg,6.0,A3C5TMQP0L94K4
147,1.0,right,left,0.0,0.9474,0.0,27.0,27.0,27.0,1.0,golf_course_2.jpg,golf_course_195.jpg,4.0,A3C5TMQP0L94K4
148,0.0,left,left,1.0,1.0316,0.0,28.0,28.0,28.0,1.0,badlands_137.jpg,badlands_194.jpg,7.0,A3C5TMQP0L94K4
149,0.0,left,left,1.0,0.0893,0.0,29.0,29.0,29.0,1.0,playground_10.jpg,playground_122.jpg,5.0,A3C5TMQP0L94K4
150,1.0,right,left,0.0,0.0882,0.0,30.0,30.0,30.0,1.0,playground_40.jpg,playground_240.jpg,5.0,A3C5TMQP0L94K4
151,1.0,left,left,1.0,0.0077,0.0,31.0,31.0,31.0,1.0,golf_course_331.jpg,golf_course_26.jpg,4.0,A3C5TMQP0L94K4
152,1.0,left,left,1.0,0.0074,0.0,32.0,32.0,32.0,1.0,mountain_230.jpg,mountain_97.jpg,6.0,A3C5TMQP0L94K4
153,0.0,right,left,0.0,0.0077,0.0,33.0,33.0,33.0,1.0,bridge_61.jpg,bridge_128.jpg,3.0,A3C5TMQP0L94K4
154,0.0,right,left,0.0,0.0087,0.0,34.0,34.0,34.0,1.0,playground_214.jpg,playground_257.jpg,4.0,A3C5TMQP0L94K4
155,1.0,left,left,1.0,0.0076,0.0,35.0,35.0,35.0,1.0,bridge_256.jpg,bridge_211.jpg,2.0,A3C5TMQP0L94K4
156,0.0,left,left,1.0,0.0091,0.0,36.0,36.0,36.0,1.0,highway_209.jpg,highway_314.jpg,1.0,A3C5TMQP0L94K4
157,0.0,left,left,1.0,0.0084,0.0,37.0,37.0,37.0,1.0,bridge_65.jpg,bridge_181.jpg,2.0,A3C5TMQP0L94K4
158,0.0,left,left,1.0,0.0079,0.0,38.0,38.0,38.0,1.0,playground_76.jpg,playground_22.jpg,5.0,A3C5TMQP0L94K4
159,1.0,left,left,1.0,0.0087,0.0,39.0,39.0,39.0,1.0,highway_245.jpg,highway_206.jpg,4.0,A3C5TMQP0L94K4
160,0.0,left,left,1.0,0.0075,0.0,40.0,40.0,40.0,1.0,badlands_113.jpg,badlands_225.jpg,4.0,A3C5TMQP0L94K4
161,0.0,right,left,0.0,0.0075,0.0,41.0,41.0,41.0,1.0,playground_229.jpg,playground_145.jpg,3.0,A3C5TMQP0L94K4
162,0.0,left,left,1.0,0.0077,0.0,42.0,42.0,42.0,1.0,highway_93.jpg,highway_85.jpg,4.0,A3C5TMQP0L94K4
163,0.0,left,left,1.0,0.1015,0.0,43.0,43.0,43.0,1.0,bridge_191.jpg,bridge_184.jpg,3.0,A3C5TMQP0L94K4
164,0.0,right,left,0.0,0.0074,0.0,44.0,44.0,44.0,1.0,badlands_94.jpg,badlands_52.jpg,4.0,A3C5TMQP0L94K4
165,0.0,right,left,0.0,0.1811,0.0,45.0,45.0,45.0,1.0,mountain_131.jpg,mountain_154.jpg,4.0,A3C5TMQP0L94K4
166,0.0,left,left,1.0,0.0935,0.0,46.0,46.0,46.0,1.0,highway_394.jpg,highway_204.jpg,4.0,A3C5TMQP0L94K4
167,1.0,right,left,0.0,0.0074,0.0,47.0,47.0,47.0,1.0,playground_244.jpg,playground_60.jpg,3.0,A3C5TMQP0L94K4
168,0.0,right,left,0.0,0.0889,0.0,48.0,48.0,48.0,1.0,highway_389.jpg,highway_359.jpg,5.0,A3C5TMQP0L94K4
169,0.0,right,left,0.0,0.0076,0.0,49.0,49.0,49.0,1.0,golf_course_16.jpg,golf_course_309.jpg,4.0,A3C5TMQP0L94K4
170,1.0,left,left,1.0,0.0886,0.0,50.0,50.0,50.0,1.0,badlands_21.jpg,badlands_98.jpg,6.0,A3C5TMQP0L94K4
171,0.0,right,left,0.0,0.0074,0.0,51.0,51.0,51.0,1.0,mountain_94.jpg,mountain_123.jpg,2.0,A3C5TMQP0L94K4
172,1.0,left,left,1.0,0.0929,0.0,52.0,52.0,52.0,1.0,bridge_146.jpg,bridge_121.jpg,1.0,A3C5TMQP0L94K4
173,1.0,left,left,1.0,0.0945,0.0,53.0,53.0,53.0,1.0,golf_course_193.jpg,golf_course_123.jpg,2.0,A3C5TMQP0L94K4
174,1.0,left,left,1.0,0.0079,0.0,54.0,54.0,54.0,1.0,golf_course_214.jpg,golf_course_317.jpg,5.0,A3C5TMQP0L94K4
175,0.0,right,left,0.0,2.4217,0.0,55.0,55.0,55.0,1.0,golf_course_157.jpg,golf_course_188.jpg,2.0,A3C5TMQP0L94K4
176,0.0,right,left,0.0,0.095,0.0,56.0,56.0,56.0,1.0,badlands_34.jpg,badlands_222.jpg,4.0,A3C5TMQP0L94K4
177,1.0,right,left,0.0,0.0078,0.0,57.0,57.0,57.0,1.0,bridge_38.jpg,bridge_202.jpg,8.0,A3C5TMQP0L94K4
178,0.0,left,left,1.0,0.0073,0.0,58.0,58.0,58.0,1.0,playground_219.jpg,playground_21.jpg,3.0,A3C5TMQP0L94K4
179,1.0,left,left,1.0,0.0988,0.0,59.0,59.0,59.0,1.0,badlands_221.jpg,badlands_207.jpg,3.0,A3C5TMQP0L94K4
180,0.0,right,right,1.0,2.562,0.0,0.0,0.0,0.0,1.0,playground_137.jpg,playground_144.jpg,5.0,A1I7H6RDJS4EKN
181,1.0,right,right,1.0,2.497,0.0,1.0,1.0,1.0,1.0,bridge_60.jpg,bridge_65.jpg,5.0,A1I7H6RDJS4EKN
182,0.0,right,right,1.0,3.143,0.0,2.0,2.0,2.0,1.0,mountain_193.jpg,mountain_57.jpg,7.0,A1I7H6RDJS4EKN
183,1.0,right,right,1.0,2.75,0.0,3.0,3.0,3.0,1.0,golf_course_209.jpg,golf_course_309.jpg,6.0,A1I7H6RDJS4EKN
184,0.0,right,right,1.0,5.787,0.0,4.0,4.0,4.0,1.0,mountain_72.jpg,mountain_293.jpg,8.0,A1I7H6RDJS4EKN
185,1.0,left,left,1.0,3.15,0.0,5.0,5.0,5.0,1.0,badlands_21.jpg,badlands_98.jpg,7.0,A1I7H6RDJS4EKN
186,1.0,right,right,1.0,6.712,0.0,6.0,6.0,6.0,1.0,golf_course_123.jpg,golf_course_193.jpg,6.0,A1I7H6RDJS4EKN
187,1.0,right,right,1.0,3.84,0.0,7.0,7.0,7.0,1.0,bridge_244.jpg,bridge_128.jpg,8.0,A1I7H6RDJS4EKN
188,0.0,right,right,1.0,5.018,0.0,8.0,8.0,8.0,1.0,golf_course_134.jpg,golf_course_78.jpg,8.0,A1I7H6RDJS4EKN
189,1.0,left,left,1.0,3.42,0.0,9.0,9.0,9.0,1.0,highway_359.jpg,highway_379.jpg,8.0,A1I7H6RDJS4EKN
190,0.0,left,left,1.0,5.737,0.0,10.0,10.0,10.0,1.0,highway_245.jpg,highway_134.jpg,7.0,A1I7H6RDJS4EKN
191,0.0,right,right,1.0,2.798,0.0,11.0,11.0,11.0,1.0,badlands_3.jpg,badlands_24.jpg,7.0,A1I7H6RDJS4EKN
192,0.0,right,right,1.0,6.488,0.0,12.0,12.0,12.0,1.0,playground_122.jpg,playground_10.jpg,8.0,A1I7H6RDJS4EKN
193,0.0,right,right,1.0,2.723,0.0,13.0,13.0,13.0,1.0,playground_43.jpg,playground_131.jpg,7.0,A1I7H6RDJS4EKN
194,1.0,left,left,1.0,7.699,0.0,14.0,14.0,14.0,1.0,highway_156.jpg,highway_293.jpg,7.0,A1I7H6RDJS4EKN
195,1.0,right,right,1.0,7.431,0.0,15.0,15.0,15.0,1.0,mountain_95.jpg,mountain_154.jpg,7.0,A1I7H6RDJS4EKN
196,1.0,left,left,1.0,4.01,0.0,16.0,16.0,16.0,1.0,playground_257.jpg,playground_215.jpg,7.0,A1I7H6RDJS4EKN
197,0.0,right,right,1.0,6.6,0.0,17.0,17.0,17.0,1.0,golf_course_35.jpg,golf_course_217.jpg,7.0,A1I7H6RDJS4EKN
198,1.0,right,right,1.0,3.972,0.0,18.0,18.0,18.0,1.0,mountain_223.jpg,mountain_110.jpg,8.0,A1I7H6RDJS4EKN
199,1.0,right,right,1.0,4.132,0.0,19.0,19.0,19.0,1.0,golf_course_2.jpg,golf_course_195.jpg,7.0,A1I7H6RDJS4EKN
200,1.0,right,right,1.0,4.067,0.0,20.0,20.0,20.0,1.0,playground_205.jpg,playground_219.jpg,7.0,A1I7H6RDJS4EKN
201,0.0,left,left,1.0,6.764,0.0,21.0,21.0,21.0,1.0,golf_course_15.jpg,golf_course_113.jpg,8.0,A1I7H6RDJS4EKN
202,0.0,left,left,1.0,2.929,0.0,22.0,22.0,22.0,1.0,golf_course_188.jpg,golf_course_157.jpg,7.0,A1I7H6RDJS4EKN
203,0.0,left,right,0.0,5.579,0.0,23.0,23.0,23.0,1.0,badlands_23.jpg,badlands_114.jpg,8.0,A1I7H6RDJS4EKN
204,1.0,right,right,1.0,4.431,0.0,24.0,24.0,24.0,1.0,playground_40.jpg,playground_240.jpg,8.0,A1I7H6RDJS4EKN
205,1.0,right,right,1.0,6.385,0.0,25.0,25.0,25.0,1.0,highway_122.jpg,highway_209.jpg,7.0,A1I7H6RDJS4EKN
206,0.0,right,right,1.0,6.866,0.0,26.0,26.0,26.0,1.0,bridge_27.jpg,bridge_146.jpg,6.0,A1I7H6RDJS4EKN
207,0.0,left,left,1.0,3.334,0.0,27.0,27.0,27.0,1.0,bridge_91.jpg,bridge_253.jpg,4.0,A1I7H6RDJS4EKN
208,1.0,left,left,1.0,9.008,0.0,28.0,28.0,28.0,1.0,highway_177.jpg,highway_278.jpg,8.0,A1I7H6RDJS4EKN
209,1.0,left,left,1.0,6.015,0.0,29.0,29.0,29.0,1.0,badlands_184.jpg,badlands_103.jpg,7.0,A1I7H6RDJS4EKN
210,1.0,left,left,1.0,3.463,0.0,30.0,30.0,30.0,1.0,bridge_191.jpg,bridge_75.jpg,8.0,A1I7H6RDJS4EKN
211,1.0,left,right,0.0,4.186,0.0,31.0,31.0,31.0,1.0,golf_course_331.jpg,golf_course_26.jpg,7.0,A1I7H6RDJS4EKN
212,0.0,right,right,1.0,2.586,0.0,32.0,32.0,32.0,1.0,mountain_171.jpg,mountain_101.jpg,6.0,A1I7H6RDJS4EKN
213,1.0,right,right,1.0,5.578,0.0,33.0,33.0,33.0,1.0,mountain_97.jpg,mountain_230.jpg,7.0,A1I7H6RDJS4EKN
214,0.0,right,right,1.0,2.718,0.0,34.0,34.0,34.0,1.0,bridge_116.jpg,bridge_108.jpg,6.0,A1I7H6RDJS4EKN
215,0.0,left,left,1.0,7.197,0.0,35.0,35.0,35.0,1.0,golf_course_87.jpg,golf_course_130.jpg,8.0,A1I7H6RDJS4EKN
216,1.0,right,right,1.0,4.063,0.0,36.0,36.0,36.0,1.0,badlands_119.jpg,badlands_70.jpg,7.0,A1I7H6RDJS4EKN
217,0.0,left,left,1.0,5.574,0.0,37.0,37.0,37.0,1.0,highway_273.jpg,highway_384.jpg,7.0,A1I7H6RDJS4EKN
218,1.0,right,right,1.0,5.559,0.0,38.0,38.0,38.0,1.0,golf_course_317.jpg,golf_course_214.jpg,8.0,A1I7H6RDJS4EKN
219,1.0,left,left,1.0,5.448,0.0,39.0,39.0,39.0,1.0,mountain_156.jpg,mountain_295.jpg,8.0,A1I7H6RDJS4EKN
220,0.0,left,left,1.0,4.296,0.0,40.0,40.0,40.0,1.0,mountain_123.jpg,mountain_94.jpg,5.0,A1I7H6RDJS4EKN
221,0.0,right,right,1.0,4.938,0.0,41.0,41.0,41.0,1.0,highway_204.jpg,highway_394.jpg,7.0,A1I7H6RDJS4EKN
222,1.0,right,left,0.0,4.327,0.0,42.0,42.0,42.0,1.0,bridge_211.jpg,bridge_256.jpg,7.0,A1I7H6RDJS4EKN
223,0.0,right,right,1.0,7.278,0.0,43.0,43.0,43.0,1.0,playground_167.jpg,playground_117.jpg,7.0,A1I7H6RDJS4EKN
224,0.0,left,left,1.0,3.213,0.0,44.0,44.0,44.0,1.0,bridge_202.jpg,bridge_31.jpg,5.0,A1I7H6RDJS4EKN
225,1.0,right,right,1.0,3.638,0.0,45.0,45.0,45.0,1.0,mountain_54.jpg,mountain_232.jpg,8.0,A1I7H6RDJS4EKN
226,0.0,left,left,1.0,6.155,0.0,46.0,46.0,46.0,1.0,highway_415.jpg,highway_60.jpg,8.0,A1I7H6RDJS4EKN
227,1.0,right,left,0.0,4.878,0.0,47.0,47.0,47.0,1.0,badlands_139.jpg,badlands_137.jpg,7.0,A1I7H6RDJS4EKN
228,1.0,left,left,1.0,16.01,0.0,48.0,48.0,48.0,1.0,playground_76.jpg,playground_72.jpg,8.0,A1I7H6RDJS4EKN
229,1.0,left,left,1.0,4.413,0.0,49.0,49.0,49.0,1.0,badlands_221.jpg,badlands_207.jpg,7.0,A1I7H6RDJS4EKN
230,1.0,left,left,1.0,6.225,0.0,50.0,50.0,50.0,1.0,playground_60.jpg,playground_244.jpg,8.0,A1I7H6RDJS4EKN
231,0.0,right,right,1.0,8.957,0.0,51.0,51.0,51.0,1.0,playground_229.jpg,playground_145.jpg,7.0,A1I7H6RDJS4EKN
232,0.0,left,right,0.0,5.407,0.0,52.0,52.0,52.0,1.0,mountain_222.jpg,mountain_244.jpg,7.0,A1I7H6RDJS4EKN
233,0.0,left,right,0.0,5.219,0.0,53.0,53.0,53.0,1.0,highway_294.jpg,highway_203.jpg,7.0,A1I7H6RDJS4EKN
234,0.0,right,right,1.0,3.633,0.0,54.0,54.0,54.0,1.0,badlands_225.jpg,badlands_113.jpg,7.0,A1I7H6RDJS4EKN
235,0.0,right,right,1.0,3.053,0.0,55.0,55.0,55.0,1.0,bridge_17.jpg,bridge_172.jpg,5.0,A1I7H6RDJS4EKN
236,0.0,right,left,0.0,4.404,0.0,56.0,56.0,56.0,1.0,badlands_34.jpg,badlands_222.jpg,6.0,A1I7H6RDJS4EKN
237,0.0,left,left,1.0,3.272,0.0,57.0,57.0,57.0,1.0,badlands_52.jpg,badlands_94.jpg,5.0,A1I7H6RDJS4EKN
238,1.0,right,right,1.0,5.904,0.0,58.0,58.0,58.0,1.0,highway_369.jpg,highway_93.jpg,7.0,A1I7H6RDJS4EKN
239,1.0,left,left,1.0,4.953,0.0,59.0,59.0,59.0,1.0,bridge_250.jpg,bridge_205.jpg,7.0,A1I7H6RDJS4EKN
240,1.0,left,left,1.0,39.5175,0.0,0.0,0.0,0.0,1.0,badlands_24.jpg,badlands_53.jpg,7.0,A2PBFKNWWIIAO8
241,1.0,right,right,1.0,2.0115,0.0,1.0,1.0,1.0,1.0,bridge_244.jpg,bridge_128.jpg,6.0,A2PBFKNWWIIAO8
242,0.0,left,left,1.0,6.3193,0.0,2.0,2.0,2.0,1.0,mountain_57.jpg,mountain_193.jpg,7.0,A2PBFKNWWIIAO8
243,0.0,right,right,1.0,3.8487,0.0,3.0,3.0,3.0,1.0,bridge_116.jpg,bridge_108.jpg,7.0,A2PBFKNWWIIAO8
244,1.0,left,left,1.0,3.8767,0.0,4.0,4.0,4.0,1.0,highway_294.jpg,highway_368.jpg,6.0,A2PBFKNWWIIAO8
245,1.0,right,right,1.0,3.0209,0.0,5.0,5.0,5.0,1.0,badlands_101.jpg,badlands_23.jpg,9.0,A2PBFKNWWIIAO8
246,1.0,left,left,1.0,4.3008,0.0,6.0,6.0,6.0,1.0,badlands_184.jpg,badlands_103.jpg,4.0,A2PBFKNWWIIAO8
247,1.0,right,left,0.0,3.7923,0.0,7.0,7.0,7.0,1.0,playground_72.jpg,playground_76.jpg,6.0,A2PBFKNWWIIAO8
248,1.0,right,left,0.0,2.1458,0.0,8.0,8.0,8.0,1.0,playground_242.jpg,playground_145.jpg,7.0,A2PBFKNWWIIAO8
249,1.0,right,left,0.0,3.8985,0.0,9.0,9.0,9.0,1.0,bridge_121.jpg,bridge_146.jpg,7.0,A2PBFKNWWIIAO8
250,0.0,left,right,0.0,2.0026,0.0,10.0,10.0,10.0,1.0,highway_93.jpg,highway_85.jpg,8.0,A2PBFKNWWIIAO8
251,0.0,left,left,1.0,3.3469,0.0,11.0,11.0,11.0,1.0,golf_course_87.jpg,golf_course_130.jpg,8.0,A2PBFKNWWIIAO8
252,1.0,right,left,0.0,2.0606,0.0,12.0,12.0,12.0,1.0,mountain_93.jpg,mountain_222.jpg,7.0,A2PBFKNWWIIAO8
253,0.0,left,right,0.0,2.1328,0.0,13.0,13.0,13.0,1.0,bridge_91.jpg,bridge_253.jpg,8.0,A2PBFKNWWIIAO8
254,0.0,right,left,0.0,1.6862,0.0,14.0,14.0,14.0,1.0,playground_43.jpg,playground_131.jpg,6.0,A2PBFKNWWIIAO8
255,0.0,right,right,1.0,1.3957,0.0,15.0,15.0,15.0,1.0,highway_204.jpg,highway_394.jpg,9.0,A2PBFKNWWIIAO8
256,0.0,left,right,0.0,2.2676,0.0,16.0,16.0,16.0,1.0,golf_course_15.jpg,golf_course_113.jpg,6.0,A2PBFKNWWIIAO8
257,0.0,right,left,0.0,1.2441,0.0,17.0,17.0,17.0,1.0,playground_122.jpg,playground_10.jpg,5.0,A2PBFKNWWIIAO8
258,1.0,right,left,0.0,2.5337,0.0,18.0,18.0,18.0,1.0,mountain_295.jpg,mountain_156.jpg,5.0,A2PBFKNWWIIAO8
259,0.0,left,left,1.0,1.6522,0.0,19.0,19.0,19.0,1.0,mountain_101.jpg,mountain_171.jpg,5.0,A2PBFKNWWIIAO8
260,0.0,left,right,0.0,2.2069,0.0,20.0,20.0,20.0,1.0,bridge_250.jpg,bridge_134.jpg,6.0,A2PBFKNWWIIAO8
261,1.0,right,right,1.0,2.0142,0.0,21.0,21.0,21.0,1.0,highway_293.jpg,highway_156.jpg,8.0,A2PBFKNWWIIAO8
262,1.0,left,right,0.0,1.6372,0.0,22.0,22.0,22.0,1.0,badlands_113.jpg,badlands_203.jpg,8.0,A2PBFKNWWIIAO8
263,0.0,right,left,0.0,3.2305,0.0,23.0,23.0,23.0,1.0,mountain_72.jpg,mountain_293.jpg,6.0,A2PBFKNWWIIAO8
264,1.0,left,right,0.0,2.1968,0.0,24.0,24.0,24.0,1.0,mountain_230.jpg,mountain_97.jpg,7.0,A2PBFKNWWIIAO8
265,0.0,left,left,1.0,1.4679,0.0,25.0,25.0,25.0,1.0,badlands_222.jpg,badlands_34.jpg,5.0,A2PBFKNWWIIAO8
266,0.0,left,left,1.0,2.4217,0.0,26.0,26.0,26.0,1.0,playground_257.jpg,playground_214.jpg,6.0,A2PBFKNWWIIAO8
267,1.0,left,left,1.0,1.5183,0.0,27.0,27.0,27.0,1.0,mountain_123.jpg,mountain_189.jpg,7.0,A2PBFKNWWIIAO8
268,0.0,right,right,1.0,3.9139,0.0,28.0,28.0,28.0,1.0,badlands_194.jpg,badlands_137.jpg,8.0,A2PBFKNWWIIAO8
269,0.0,left,left,1.0,2.4986,0.0,29.0,29.0,29.0,1.0,highway_273.jpg,highway_384.jpg,5.0,A2PBFKNWWIIAO8
270,0.0,left,left,1.0,1.4831,0.0,30.0,30.0,30.0,1.0,badlands_221.jpg,badlands_115.jpg,6.0,A2PBFKNWWIIAO8
271,1.0,right,right,1.0,1.4549,0.0,31.0,31.0,31.0,1.0,bridge_38.jpg,bridge_202.jpg,7.0,A2PBFKNWWIIAO8
272,0.0,left,left,1.0,1.7141,0.0,32.0,32.0,32.0,1.0,bridge_256.jpg,bridge_54.jpg,5.0,A2PBFKNWWIIAO8
273,1.0,right,left,0.0,1.2696,0.0,33.0,33.0,33.0,1.0,golf_course_123.jpg,golf_course_193.jpg,6.0,A2PBFKNWWIIAO8
274,1.0,right,left,0.0,1.6675,0.0,34.0,34.0,34.0,1.0,golf_course_317.jpg,golf_course_214.jpg,6.0,A2PBFKNWWIIAO8
275,0.0,right,right,1.0,1.9118,0.0,35.0,35.0,35.0,1.0,golf_course_157.jpg,golf_course_188.jpg,7.0,A2PBFKNWWIIAO8
276,1.0,left,right,0.0,2.2252,0.0,36.0,36.0,36.0,1.0,highway_177.jpg,highway_278.jpg,7.0,A2PBFKNWWIIAO8
277,1.0,left,left,1.0,1.4457,0.0,37.0,37.0,37.0,1.0,badlands_70.jpg,badlands_119.jpg,6.0,A2PBFKNWWIIAO8
278,0.0,left,left,1.0,1.7695,0.0,38.0,38.0,38.0,1.0,golf_course_331.jpg,golf_course_114.jpg,6.0,A2PBFKNWWIIAO8
279,0.0,right,right,1.0,3.5612,0.0,39.0,39.0,39.0,1.0,highway_314.jpg,highway_209.jpg,7.0,A2PBFKNWWIIAO8
280,0.0,right,right,1.0,1.444,0.0,40.0,40.0,40.0,1.0,mountain_157.jpg,mountain_110.jpg,6.0,A2PBFKNWWIIAO8
281,1.0,left,left,1.0,2.5528,0.0,41.0,41.0,41.0,1.0,mountain_232.jpg,mountain_54.jpg,4.0,A2PBFKNWWIIAO8
282,0.0,right,left,0.0,48.9888,0.0,42.0,42.0,42.0,1.0,bridge_181.jpg,bridge_65.jpg,7.0,A2PBFKNWWIIAO8
283,1.0,left,left,1.0,2.2661,0.0,43.0,43.0,43.0,1.0,highway_415.jpg,highway_174.jpg,7.0,A2PBFKNWWIIAO8
284,1.0,right,left,0.0,2.1755,0.0,44.0,44.0,44.0,1.0,highway_379.jpg,highway_359.jpg,8.0,A2PBFKNWWIIAO8
285,1.0,left,right,0.0,1.7268,0.0,45.0,45.0,45.0,1.0,golf_course_309.jpg,golf_course_209.jpg,5.0,A2PBFKNWWIIAO8
286,0.0,left,left,1.0,1.7591,0.0,46.0,46.0,46.0,1.0,badlands_21.jpg,badlands_1.jpg,6.0,A2PBFKNWWIIAO8
287,1.0,right,left,0.0,1.8444,0.0,47.0,47.0,47.0,1.0,playground_40.jpg,playground_240.jpg,7.0,A2PBFKNWWIIAO8
288,0.0,right,right,1.0,2.0403,0.0,48.0,48.0,48.0,1.0,mountain_131.jpg,mountain_154.jpg,5.0,A2PBFKNWWIIAO8
289,1.0,right,right,1.0,2.3153,0.0,49.0,49.0,49.0,1.0,bridge_163.jpg,bridge_172.jpg,6.0,A2PBFKNWWIIAO8
290,0.0,right,right,1.0,2.1956,0.0,50.0,50.0,50.0,1.0,golf_course_134.jpg,golf_course_78.jpg,5.0,A2PBFKNWWIIAO8
291,0.0,left,left,1.0,2.8315,0.0,51.0,51.0,51.0,1.0,badlands_52.jpg,badlands_94.jpg,7.0,A2PBFKNWWIIAO8
292,0.0,right,left,0.0,2.413,0.0,52.0,52.0,52.0,1.0,highway_134.jpg,highway_245.jpg,6.0,A2PBFKNWWIIAO8
293,0.0,right,left,0.0,342.2196,0.0,53.0,53.0,53.0,1.0,playground_167.jpg,playground_117.jpg,7.0,A2PBFKNWWIIAO8
294,1.0,left,right,0.0,0.9635,0.0,54.0,54.0,54.0,1.0,playground_60.jpg,playground_244.jpg,8.0,A2PBFKNWWIIAO8
295,0.0,left,left,1.0,2.0911,0.0,55.0,55.0,55.0,1.0,playground_219.jpg,playground_21.jpg,6.0,A2PBFKNWWIIAO8
296,1.0,left,right,0.0,1.3431,0.0,56.0,56.0,56.0,1.0,bridge_191.jpg,bridge_75.jpg,7.0,A2PBFKNWWIIAO8
297,1.0,left,left,1.0,1.0741,0.0,57.0,57.0,57.0,1.0,playground_144.jpg,playground_65.jpg,6.0,A2PBFKNWWIIAO8
298,1.0,left,right,0.0,1.0271,0.0,58.0,58.0,58.0,1.0,golf_course_217.jpg,golf_course_262.jpg,7.0,A2PBFKNWWIIAO8
299,1.0,right,left,0.0,1.0557,0.0,59.0,59.0,59.0,1.0,golf_course_2.jpg,golf_course_195.jpg,6.0,A2PBFKNWWIIAO8
300,0.0,left,left,1.0,2.9988,0.0,0.0,0.0,0.0,1.0,playground_219.jpg,playground_21.jpg,3.0,A3V2XCDF45VN9X
301,0.0,left,left,1.0,2.4487,0.0,1.0,1.0,1.0,1.0,mountain_230.jpg,mountain_184.jpg,6.0,A3V2XCDF45VN9X
302,1.0,right,right,1.0,2.6657,0.0,2.0,2.0,2.0,1.0,mountain_47.jpg,mountain_293.jpg,4.0,A3V2XCDF45VN9X
303,1.0,left,left,1.0,2.1803,0.0,3.0,3.0,3.0,1.0,highway_245.jpg,highway_206.jpg,5.0,A3V2XCDF45VN9X
304,1.0,right,right,1.0,1.7954,0.0,4.0,4.0,4.0,1.0,golf_course_262.jpg,golf_course_217.jpg,3.0,A3V2XCDF45VN9X
305,1.0,right,left,0.0,3.4875,0.0,5.0,5.0,5.0,1.0,mountain_295.jpg,mountain_156.jpg,3.0,A3V2XCDF45VN9X
306,0.0,left,right,0.0,2.1241,0.0,6.0,6.0,6.0,1.0,badlands_184.jpg,badlands_228.jpg,7.0,A3V2XCDF45VN9X
307,1.0,left,right,0.0,2.1978,0.0,7.0,7.0,7.0,1.0,golf_course_331.jpg,golf_course_26.jpg,7.0,A3V2XCDF45VN9X
308,1.0,left,left,1.0,2.0684,0.0,8.0,8.0,8.0,1.0,mountain_232.jpg,mountain_54.jpg,4.0,A3V2XCDF45VN9X
309,1.0,left,right,0.0,2.1851,0.0,9.0,9.0,9.0,1.0,golf_course_195.jpg,golf_course_2.jpg,6.0,A3V2XCDF45VN9X
310,0.0,left,right,0.0,1.1225,0.0,10.0,10.0,10.0,1.0,bridge_250.jpg,bridge_134.jpg,7.0,A3V2XCDF45VN9X
311,1.0,left,right,0.0,1.2144,0.0,11.0,11.0,11.0,1.0,badlands_222.jpg,badlands_62.jpg,8.0,A3V2XCDF45VN9X
312,0.0,left,left,1.0,2.1228,0.0,12.0,12.0,12.0,1.0,badlands_70.jpg,badlands_102.jpg,4.0,A3V2XCDF45VN9X
313,1.0,right,right,1.0,1.5787,0.0,13.0,13.0,13.0,1.0,bridge_82.jpg,bridge_91.jpg,5.0,A3V2XCDF45VN9X
314,0.0,right,right,1.0,1.2192,0.0,14.0,14.0,14.0,1.0,playground_137.jpg,playground_144.jpg,4.0,A3V2XCDF45VN9X
315,1.0,left,left,1.0,2.4217,0.0,15.0,15.0,15.0,1.0,highway_294.jpg,highway_368.jpg,5.0,A3V2XCDF45VN9X
316,1.0,left,left,1.0,1.3804,0.0,16.0,16.0,16.0,1.0,highway_156.jpg,highway_293.jpg,4.0,A3V2XCDF45VN9X
317,0.0,left,left,1.0,1.5536,0.0,17.0,17.0,17.0,1.0,golf_course_188.jpg,golf_course_157.jpg,3.0,A3V2XCDF45VN9X
318,0.0,left,left,1.0,1.6561,0.0,18.0,18.0,18.0,1.0,badlands_24.jpg,badlands_3.jpg,2.0,A3V2XCDF45VN9X
319,0.0,right,right,1.0,2.3979,0.0,19.0,19.0,19.0,1.0,playground_122.jpg,playground_10.jpg,3.0,A3V2XCDF45VN9X
320,1.0,right,right,1.0,0.9277,0.0,20.0,20.0,20.0,1.0,playground_72.jpg,playground_76.jpg,5.0,A3V2XCDF45VN9X
321,1.0,right,right,1.0,1.4816,0.0,21.0,21.0,21.0,1.0,bridge_75.jpg,bridge_191.jpg,4.0,A3V2XCDF45VN9X
322,1.0,left,right,0.0,1.1478,0.0,22.0,22.0,22.0,1.0,highway_415.jpg,highway_174.jpg,6.0,A3V2XCDF45VN9X
323,0.0,right,right,1.0,1.708,0.0,23.0,23.0,23.0,1.0,golf_course_113.jpg,golf_course_15.jpg,5.0,A3V2XCDF45VN9X
324,0.0,right,right,1.0,1.18,0.0,24.0,24.0,24.0,1.0,playground_2.jpg,playground_240.jpg,3.0,A3V2XCDF45VN9X
325,1.0,left,left,1.0,1.4072,0.0,25.0,25.0,25.0,1.0,bridge_146.jpg,bridge_121.jpg,4.0,A3V2XCDF45VN9X
326,0.0,left,right,0.0,1.0996,0.0,26.0,26.0,26.0,1.0,mountain_101.jpg,mountain_171.jpg,3.0,A3V2XCDF45VN9X
327,0.0,right,right,1.0,1.6036,0.0,27.0,27.0,27.0,1.0,bridge_61.jpg,bridge_128.jpg,2.0,A3V2XCDF45VN9X
328,1.0,left,left,1.0,1.4297,0.0,28.0,28.0,28.0,1.0,playground_257.jpg,playground_215.jpg,5.0,A3V2XCDF45VN9X
329,0.0,right,right,1.0,1.195,0.0,29.0,29.0,29.0,1.0,golf_course_16.jpg,golf_course_309.jpg,3.0,A3V2XCDF45VN9X
330,0.0,right,right,1.0,1.1602,0.0,30.0,30.0,30.0,1.0,golf_course_312.jpg,golf_course_214.jpg,8.0,A3V2XCDF45VN9X
331,0.0,right,right,1.0,1.6351,0.0,31.0,31.0,31.0,1.0,bridge_181.jpg,bridge_65.jpg,3.0,A3V2XCDF45VN9X
332,0.0,right,right,1.0,3.1965,0.0,32.0,32.0,32.0,1.0,badlands_94.jpg,badlands_52.jpg,4.0,A3V2XCDF45VN9X
333,1.0,left,left,1.0,1.4805,0.0,33.0,33.0,33.0,1.0,golf_course_78.jpg,golf_course_101.jpg,6.0,A3V2XCDF45VN9X
334,1.0,right,right,1.0,1.3624,0.0,34.0,34.0,34.0,1.0,badlands_98.jpg,badlands_21.jpg,1.0,A3V2XCDF45VN9X
335,1.0,right,left,0.0,1.8052,0.0,35.0,35.0,35.0,1.0,playground_242.jpg,playground_145.jpg,4.0,A3V2XCDF45VN9X
336,1.0,left,right,0.0,1.9662,0.0,36.0,36.0,36.0,1.0,bridge_202.jpg,bridge_38.jpg,3.0,A3V2XCDF45VN9X
337,0.0,right,right,1.0,1.5162,0.0,37.0,37.0,37.0,1.0,bridge_54.jpg,bridge_256.jpg,6.0,A3V2XCDF45VN9X
338,1.0,left,right,0.0,1.4457,0.0,38.0,38.0,38.0,1.0,playground_60.jpg,playground_244.jpg,7.0,A3V2XCDF45VN9X
339,1.0,right,left,0.0,1.1633,0.0,39.0,39.0,39.0,1.0,badlands_203.jpg,badlands_113.jpg,6.0,A3V2XCDF45VN9X
340,1.0,right,right,1.0,1.38,0.0,40.0,40.0,40.0,1.0,mountain_138.jpg,mountain_57.jpg,2.0,A3V2XCDF45VN9X
341,0.0,left,left,1.0,1.5454,0.0,41.0,41.0,41.0,1.0,highway_93.jpg,highway_85.jpg,6.0,A3V2XCDF45VN9X
342,1.0,left,left,1.0,1.4763,0.0,42.0,42.0,42.0,1.0,mountain_110.jpg,mountain_223.jpg,4.0,A3V2XCDF45VN9X
343,0.0,left,left,1.0,1.9044,0.0,43.0,43.0,43.0,1.0,highway_177.jpg,highway_87.jpg,4.0,A3V2XCDF45VN9X
344,1.0,left,left,1.0,1.9161,0.0,44.0,44.0,44.0,1.0,highway_209.jpg,highway_122.jpg,3.0,A3V2XCDF45VN9X
345,0.0,left,left,1.0,1.5822,0.0,45.0,45.0,45.0,1.0,highway_359.jpg,highway_389.jpg,2.0,A3V2XCDF45VN9X
346,0.0,right,left,0.0,1.5476,0.0,46.0,46.0,46.0,1.0,badlands_194.jpg,badlands_137.jpg,3.0,A3V2XCDF45VN9X
347,0.0,left,right,0.0,1.1172,0.0,47.0,47.0,47.0,1.0,highway_273.jpg,highway_384.jpg,6.0,A3V2XCDF45VN9X
348,1.0,right,left,0.0,1.1321,0.0,48.0,48.0,48.0,1.0,badlands_207.jpg,badlands_221.jpg,6.0,A3V2XCDF45VN9X
349,0.0,left,left,1.0,1.2335,0.0,49.0,49.0,49.0,1.0,highway_394.jpg,highway_204.jpg,3.0,A3V2XCDF45VN9X
350,1.0,right,right,1.0,1.396,0.0,50.0,50.0,50.0,1.0,badlands_101.jpg,badlands_23.jpg,2.0,A3V2XCDF45VN9X
351,0.0,left,right,0.0,1.175,0.0,51.0,51.0,51.0,1.0,bridge_108.jpg,bridge_116.jpg,5.0,A3V2XCDF45VN9X
352,1.0,left,right,0.0,1.1475,0.0,52.0,52.0,52.0,1.0,playground_117.jpg,playground_127.jpg,3.0,A3V2XCDF45VN9X
353,0.0,right,right,1.0,1.7354,0.0,53.0,53.0,53.0,1.0,mountain_94.jpg,mountain_123.jpg,2.0,A3V2XCDF45VN9X
354,0.0,right,left,0.0,1.5364,0.0,54.0,54.0,54.0,1.0,mountain_244.jpg,mountain_222.jpg,4.0,A3V2XCDF45VN9X
355,1.0,left,left,1.0,1.5006,0.0,55.0,55.0,55.0,1.0,bridge_172.jpg,bridge_163.jpg,4.0,A3V2XCDF45VN9X
356,0.0,right,right,1.0,1.2484,0.0,56.0,56.0,56.0,1.0,golf_course_130.jpg,golf_course_87.jpg,3.0,A3V2XCDF45VN9X
357,0.0,right,right,1.0,2.1941,0.0,57.0,57.0,57.0,1.0,playground_43.jpg,playground_131.jpg,6.0,A3V2XCDF45VN9X
358,0.0,right,right,1.0,1.1125,0.0,58.0,58.0,58.0,1.0,mountain_131.jpg,mountain_154.jpg,3.0,A3V2XCDF45VN9X
359,1.0,left,right,0.0,1.3936,0.0,59.0,59.0,59.0,1.0,golf_course_193.jpg,golf_course_123.jpg,3.0,A3V2XCDF45VN9X
360,0.0,left,right,0.0,3.2,0.0,0.0,0.0,0.0,1.0,highway_177.jpg,highway_87.jpg,8.0,ADP3FQJ88ATS0
361,0.0,right,left,0.0,2.887,0.0,1.0,1.0,1.0,1.0,playground_229.jpg,playground_145.jpg,7.0,ADP3FQJ88ATS0
362,1.0,left,right,0.0,1.886,0.0,2.0,2.0,2.0,1.0,bridge_108.jpg,bridge_148.jpg,8.0,ADP3FQJ88ATS0
363,0.0,left,left,1.0,1.855,0.0,3.0,3.0,3.0,1.0,highway_156.jpg,highway_160.jpg,7.0,ADP3FQJ88ATS0
364,0.0,right,right,1.0,1.808,0.0,4.0,4.0,4.0,1.0,bridge_134.jpg,bridge_250.jpg,8.0,ADP3FQJ88ATS0
365,0.0,left,left,1.0,3.754,0.0,5.0,5.0,5.0,1.0,badlands_23.jpg,badlands_114.jpg,6.0,ADP3FQJ88ATS0
366,1.0,left,right,0.0,2.895,0.0,6.0,6.0,6.0,1.0,badlands_184.jpg,badlands_103.jpg,2.0,ADP3FQJ88ATS0
367,1.0,left,right,0.0,3.475,0.0,7.0,7.0,7.0,1.0,badlands_21.jpg,badlands_98.jpg,8.0,ADP3FQJ88ATS0
368,0.0,right,left,0.0,3.702,0.0,8.0,8.0,8.0,1.0,playground_167.jpg,playground_117.jpg,6.0,ADP3FQJ88ATS0
369,1.0,left,right,0.0,2.034,0.0,9.0,9.0,9.0,1.0,golf_course_331.jpg,golf_course_26.jpg,7.0,ADP3FQJ88ATS0
370,1.0,right,left,0.0,2.493,0.0,10.0,10.0,10.0,1.0,bridge_121.jpg,bridge_146.jpg,7.0,ADP3FQJ88ATS0
371,1.0,left,left,1.0,2.947,0.0,11.0,11.0,11.0,1.0,golf_course_78.jpg,golf_course_101.jpg,8.0,ADP3FQJ88ATS0
372,0.0,right,left,0.0,5.23,0.0,12.0,12.0,12.0,1.0,bridge_17.jpg,bridge_172.jpg,7.0,ADP3FQJ88ATS0
373,0.0,right,right,1.0,5.2,0.0,13.0,13.0,13.0,1.0,highway_384.jpg,highway_273.jpg,8.0,ADP3FQJ88ATS0
374,0.0,right,right,1.0,3.939,0.0,14.0,14.0,14.0,1.0,bridge_184.jpg,bridge_191.jpg,8.0,ADP3FQJ88ATS0
375,0.0,left,left,1.0,2.846,0.0,15.0,15.0,15.0,1.0,bridge_65.jpg,bridge_181.jpg,7.0,ADP3FQJ88ATS0
376,0.0,right,right,1.0,3.205,0.0,16.0,16.0,16.0,1.0,playground_2.jpg,playground_240.jpg,8.0,ADP3FQJ88ATS0
377,0.0,right,right,1.0,7.034,0.0,17.0,17.0,17.0,1.0,mountain_157.jpg,mountain_110.jpg,8.0,ADP3FQJ88ATS0
378,1.0,left,left,1.0,1.727,0.0,18.0,18.0,18.0,1.0,mountain_230.jpg,mountain_97.jpg,8.0,ADP3FQJ88ATS0
379,1.0,left,right,0.0,1.464,0.0,19.0,19.0,19.0,1.0,badlands_137.jpg,badlands_139.jpg,7.0,ADP3FQJ88ATS0
380,1.0,right,left,0.0,2.572,0.0,20.0,20.0,20.0,1.0,highway_122.jpg,highway_209.jpg,7.0,ADP3FQJ88ATS0
381,1.0,right,right,1.0,2.452,0.0,21.0,21.0,21.0,1.0,highway_206.jpg,highway_245.jpg,6.0,ADP3FQJ88ATS0
382,0.0,right,left,0.0,2.524,0.0,22.0,22.0,22.0,1.0,mountain_171.jpg,mountain_101.jpg,8.0,ADP3FQJ88ATS0
383,0.0,left,right,0.0,3.169,0.0,23.0,23.0,23.0,1.0,bridge_91.jpg,bridge_253.jpg,6.0,ADP3FQJ88ATS0
384,1.0,right,right,1.0,1.777,0.0,24.0,24.0,24.0,1.0,playground_164.jpg,playground_131.jpg,7.0,ADP3FQJ88ATS0
385,1.0,left,right,0.0,2.871,0.0,25.0,25.0,25.0,1.0,mountain_154.jpg,mountain_95.jpg,7.0,ADP3FQJ88ATS0
386,0.0,right,left,0.0,2.806,0.0,26.0,26.0,26.0,1.0,playground_214.jpg,playground_257.jpg,6.0,ADP3FQJ88ATS0
387,1.0,right,right,1.0,2.514,0.0,27.0,27.0,27.0,1.0,highway_406.jpg,highway_394.jpg,8.0,ADP3FQJ88ATS0
388,1.0,left,right,0.0,1.881,0.0,28.0,28.0,28.0,1.0,golf_course_195.jpg,golf_course_2.jpg,8.0,ADP3FQJ88ATS0
389,0.0,left,left,1.0,3.306,0.0,29.0,29.0,29.0,1.0,golf_course_87.jpg,golf_course_130.jpg,8.0,ADP3FQJ88ATS0
390,0.0,right,left,0.0,1.47,0.0,30.0,30.0,30.0,1.0,badlands_34.jpg,badlands_222.jpg,7.0,ADP3FQJ88ATS0
391,0.0,left,right,0.0,2.201,0.0,31.0,31.0,31.0,1.0,golf_course_188.jpg,golf_course_157.jpg,7.0,ADP3FQJ88ATS0
392,1.0,right,right,1.0,1.58,0.0,32.0,32.0,32.0,1.0,golf_course_97.jpg,golf_course_15.jpg,7.0,ADP3FQJ88ATS0
393,0.0,right,left,0.0,2.164,0.0,33.0,33.0,33.0,1.0,playground_21.jpg,playground_219.jpg,6.0,ADP3FQJ88ATS0
394,0.0,left,right,0.0,4.427,0.0,34.0,34.0,34.0,1.0,golf_course_214.jpg,golf_course_312.jpg,7.0,ADP3FQJ88ATS0
395,0.0,right,right,1.0,7.56,0.0,35.0,35.0,35.0,1.0,golf_course_35.jpg,golf_course_217.jpg,7.0,ADP3FQJ88ATS0
396,1.0,right,right,1.0,2.512,0.0,36.0,36.0,36.0,1.0,bridge_38.jpg,bridge_202.jpg,6.0,ADP3FQJ88ATS0
397,1.0,left,left,1.0,1.658,0.0,37.0,37.0,37.0,1.0,highway_359.jpg,highway_379.jpg,7.0,ADP3FQJ88ATS0
398,1.0,right,right,1.0,1.634,0.0,38.0,38.0,38.0,1.0,mountain_189.jpg,mountain_123.jpg,7.0,ADP3FQJ88ATS0
399,1.0,left,right,0.0,1.482,0.0,39.0,39.0,39.0,1.0,playground_144.jpg,playground_65.jpg,8.0,ADP3FQJ88ATS0
400,0.0,right,left,0.0,1.648,0.0,40.0,40.0,40.0,1.0,badlands_225.jpg,badlands_113.jpg,6.0,ADP3FQJ88ATS0
401,1.0,left,right,0.0,1.798,0.0,41.0,41.0,41.0,1.0,badlands_221.jpg,badlands_207.jpg,8.0,ADP3FQJ88ATS0
402,0.0,right,left,0.0,1.919,0.0,42.0,42.0,42.0,1.0,mountain_244.jpg,mountain_222.jpg,6.0,ADP3FQJ88ATS0
403,1.0,right,right,1.0,1.754,0.0,43.0,43.0,43.0,1.0,mountain_54.jpg,mountain_232.jpg,7.0,ADP3FQJ88ATS0
404,1.0,left,left,1.0,3.443,0.0,44.0,44.0,44.0,1.0,playground_10.jpg,playground_12.jpg,7.0,ADP3FQJ88ATS0
405,1.0,left,right,0.0,1.941,0.0,45.0,45.0,45.0,1.0,playground_76.jpg,playground_72.jpg,8.0,ADP3FQJ88ATS0
406,0.0,right,left,0.0,2.437,0.0,46.0,46.0,46.0,1.0,mountain_128.jpg,mountain_156.jpg,7.0,ADP3FQJ88ATS0
407,1.0,left,right,0.0,2.708,0.0,47.0,47.0,47.0,1.0,playground_60.jpg,playground_244.jpg,8.0,ADP3FQJ88ATS0
408,0.0,left,right,0.0,0.01,0.0,48.0,48.0,48.0,1.0,highway_93.jpg,highway_85.jpg,8.0,ADP3FQJ88ATS0
409,1.0,left,left,1.0,1.102,0.0,49.0,49.0,49.0,1.0,highway_294.jpg,highway_368.jpg,7.0,ADP3FQJ88ATS0
410,0.0,left,right,0.0,0.013,0.0,50.0,50.0,50.0,1.0,badlands_70.jpg,badlands_102.jpg,7.0,ADP3FQJ88ATS0
411,1.0,right,left,0.0,0.007,0.0,51.0,51.0,51.0,1.0,bridge_211.jpg,bridge_256.jpg,7.0,ADP3FQJ88ATS0
412,1.0,left,left,1.0,0.874,0.0,52.0,52.0,52.0,1.0,badlands_52.jpg,badlands_63.jpg,7.0,ADP3FQJ88ATS0
413,1.0,left,left,1.0,1.46,0.0,53.0,53.0,53.0,1.0,mountain_293.jpg,mountain_47.jpg,7.0,ADP3FQJ88ATS0
414,0.0,left,left,1.0,1.292,0.0,54.0,54.0,54.0,1.0,golf_course_309.jpg,golf_course_16.jpg,7.0,ADP3FQJ88ATS0
415,1.0,left,left,1.0,1.107,0.0,55.0,55.0,55.0,1.0,bridge_128.jpg,bridge_244.jpg,7.0,ADP3FQJ88ATS0
416,1.0,right,left,0.0,1.856,0.0,56.0,56.0,56.0,1.0,golf_course_123.jpg,golf_course_193.jpg,8.0,ADP3FQJ88ATS0
417,0.0,right,left,0.0,1.482,0.0,57.0,57.0,57.0,1.0,highway_60.jpg,highway_415.jpg,7.0,ADP3FQJ88ATS0
418,0.0,left,right,0.0,1.22,0.0,58.0,58.0,58.0,1.0,badlands_24.jpg,badlands_3.jpg,7.0,ADP3FQJ88ATS0
419,0.0,left,left,1.0,2.98,0.0,59.0,59.0,59.0,1.0,mountain_57.jpg,mountain_193.jpg,7.0,ADP3FQJ88ATS0
420,0.0,right,left,0.0,9.1494,0.0,0.0,0.0,0.0,1.0,bridge_181.jpg,bridge_65.jpg,6.0,A34A8MQJ7X1LCS
421,1.0,right,right,1.0,4.8929,0.0,1.0,1.0,1.0,1.0,mountain_47.jpg,mountain_293.jpg,7.0,A34A8MQJ7X1LCS
422,0.0,left,left,1.0,3.7223,0.0,2.0,2.0,2.0,1.0,mountain_230.jpg,mountain_184.jpg,4.0,A34A8MQJ7X1LCS
423,0.0,right,left,0.0,8.6342,0.0,3.0,3.0,3.0,1.0,highway_134.jpg,highway_245.jpg,6.0,A34A8MQJ7X1LCS
424,1.0,right,left,0.0,4.4673,0.0,4.0,4.0,4.0,1.0,playground_65.jpg,playground_144.jpg,8.0,A34A8MQJ7X1LCS
425,1.0,right,left,0.0,3.3516,0.0,5.0,5.0,5.0,1.0,badlands_119.jpg,badlands_70.jpg,6.0,A34A8MQJ7X1LCS
426,0.0,left,left,1.0,2.1625,0.0,6.0,6.0,6.0,1.0,badlands_221.jpg,badlands_115.jpg,7.0,A34A8MQJ7X1LCS
427,1.0,right,left,0.0,3.6165,0.0,7.0,7.0,7.0,1.0,golf_course_26.jpg,golf_course_331.jpg,8.0,A34A8MQJ7X1LCS
428,1.0,left,left,1.0,1.91,0.0,8.0,8.0,8.0,1.0,mountain_57.jpg,mountain_138.jpg,7.0,A34A8MQJ7X1LCS
429,1.0,right,left,0.0,2.952,0.0,9.0,9.0,9.0,1.0,playground_244.jpg,playground_60.jpg,7.0,A34A8MQJ7X1LCS
430,0.0,right,right,1.0,3.7867,0.0,10.0,10.0,10.0,1.0,playground_22.jpg,playground_76.jpg,6.0,A34A8MQJ7X1LCS
431,0.0,right,right,1.0,8.3185,0.0,11.0,11.0,11.0,1.0,golf_course_130.jpg,golf_course_87.jpg,5.0,A34A8MQJ7X1LCS
432,1.0,right,left,0.0,4.2944,0.0,12.0,12.0,12.0,1.0,playground_164.jpg,playground_131.jpg,5.0,A34A8MQJ7X1LCS
433,0.0,left,left,1.0,2.2178,0.0,13.0,13.0,13.0,1.0,mountain_154.jpg,mountain_131.jpg,6.0,A34A8MQJ7X1LCS
434,0.0,left,left,1.0,6.3067,0.0,14.0,14.0,14.0,1.0,mountain_110.jpg,mountain_157.jpg,8.0,A34A8MQJ7X1LCS
435,0.0,right,left,0.0,3.2217,0.0,15.0,15.0,15.0,1.0,playground_229.jpg,playground_145.jpg,5.0,A34A8MQJ7X1LCS
436,0.0,right,right,1.0,3.0705,0.0,16.0,16.0,16.0,1.0,badlands_114.jpg,badlands_23.jpg,7.0,A34A8MQJ7X1LCS
437,1.0,right,right,1.0,3.4091,0.0,17.0,17.0,17.0,1.0,highway_406.jpg,highway_394.jpg,7.0,A34A8MQJ7X1LCS
438,0.0,right,right,1.0,2.8013,0.0,18.0,18.0,18.0,1.0,bridge_31.jpg,bridge_202.jpg,3.0,A34A8MQJ7X1LCS
439,1.0,left,right,0.0,3.7546,0.0,19.0,19.0,19.0,1.0,badlands_137.jpg,badlands_139.jpg,2.0,A34A8MQJ7X1LCS
440,1.0,left,right,0.0,3.2129,0.0,20.0,20.0,20.0,1.0,golf_course_217.jpg,golf_course_262.jpg,2.0,A34A8MQJ7X1LCS
441,0.0,left,right,0.0,2.0166,0.0,21.0,21.0,21.0,1.0,playground_117.jpg,playground_167.jpg,4.0,A34A8MQJ7X1LCS
442,0.0,left,right,0.0,5.1298,0.0,22.0,22.0,22.0,1.0,bridge_250.jpg,bridge_134.jpg,4.0,A34A8MQJ7X1LCS
443,1.0,left,left,1.0,1.7261,0.0,23.0,23.0,23.0,1.0,bridge_128.jpg,bridge_244.jpg,1.0,A34A8MQJ7X1LCS
444,1.0,left,left,1.0,4.2476,0.0,24.0,24.0,24.0,1.0,highway_177.jpg,highway_278.jpg,8.0,A34A8MQJ7X1LCS
445,0.0,right,right,1.0,2.9049,0.0,25.0,25.0,25.0,1.0,badlands_228.jpg,badlands_184.jpg,8.0,A34A8MQJ7X1LCS
446,0.0,left,left,1.0,2.667,0.0,26.0,26.0,26.0,1.0,mountain_123.jpg,mountain_94.jpg,5.0,A34A8MQJ7X1LCS
447,1.0,right,left,0.0,5.3063,0.0,27.0,27.0,27.0,1.0,mountain_221.jpg,mountain_101.jpg,1.0,A34A8MQJ7X1LCS
448,1.0,right,right,1.0,3.31,0.0,28.0,28.0,28.0,1.0,mountain_295.jpg,mountain_156.jpg,1.0,A34A8MQJ7X1LCS
449,1.0,left,left,1.0,1.8776,0.0,29.0,29.0,29.0,1.0,golf_course_193.jpg,golf_course_123.jpg,4.0,A34A8MQJ7X1LCS
450,0.0,left,right,0.0,4.4757,0.0,30.0,30.0,30.0,1.0,highway_294.jpg,highway_203.jpg,1.0,A34A8MQJ7X1LCS
451,0.0,right,left,0.0,2.0964,0.0,31.0,31.0,31.0,1.0,bridge_27.jpg,bridge_146.jpg,9.0,A34A8MQJ7X1LCS
452,0.0,left,left,1.0,3.4358,0.0,32.0,32.0,32.0,1.0,golf_course_15.jpg,golf_course_113.jpg,1.0,A34A8MQJ7X1LCS
453,1.0,left,left,1.0,4.2252,0.0,33.0,33.0,33.0,1.0,golf_course_195.jpg,golf_course_2.jpg,8.0,A34A8MQJ7X1LCS
454,0.0,left,right,0.0,3.3089,0.0,34.0,34.0,34.0,1.0,playground_219.jpg,playground_21.jpg,5.0,A34A8MQJ7X1LCS
455,0.0,left,right,0.0,3.3903,0.0,35.0,35.0,35.0,1.0,badlands_24.jpg,badlands_3.jpg,1.0,A34A8MQJ7X1LCS
456,1.0,left,right,0.0,3.5519,0.0,36.0,36.0,36.0,1.0,highway_415.jpg,highway_174.jpg,9.0,A34A8MQJ7X1LCS
457,1.0,left,right,0.0,4.1504,0.0,37.0,37.0,37.0,1.0,bridge_191.jpg,bridge_75.jpg,8.0,A34A8MQJ7X1LCS
458,0.0,left,left,1.0,2.8806,0.0,38.0,38.0,38.0,1.0,mountain_232.jpg,mountain_3.jpg,1.0,A34A8MQJ7X1LCS
459,1.0,left,left,1.0,2.476,0.0,39.0,39.0,39.0,1.0,bridge_172.jpg,bridge_163.jpg,5.0,A34A8MQJ7X1LCS
460,0.0,left,left,1.0,2.0709,0.0,40.0,40.0,40.0,1.0,golf_course_188.jpg,golf_course_157.jpg,1.0,A34A8MQJ7X1LCS
461,1.0,right,left,0.0,3.2024,0.0,41.0,41.0,41.0,1.0,badlands_98.jpg,badlands_21.jpg,3.0,A34A8MQJ7X1LCS
462,0.0,right,left,0.0,2.7535,0.0,42.0,42.0,42.0,1.0,golf_course_134.jpg,golf_course_78.jpg,4.0,A34A8MQJ7X1LCS
463,1.0,right,left,0.0,1.6252,0.0,43.0,43.0,43.0,1.0,mountain_93.jpg,mountain_222.jpg,5.0,A34A8MQJ7X1LCS
464,1.0,left,left,1.0,5.6234,0.0,44.0,44.0,44.0,1.0,highway_93.jpg,highway_369.jpg,9.0,A34A8MQJ7X1LCS
465,0.0,left,left,1.0,4.5635,0.0,45.0,45.0,45.0,1.0,highway_359.jpg,highway_389.jpg,1.0,A34A8MQJ7X1LCS
466,1.0,right,left,0.0,4.3843,0.0,46.0,46.0,46.0,1.0,highway_122.jpg,highway_209.jpg,7.0,A34A8MQJ7X1LCS
467,0.0,left,left,1.0,2.2671,0.0,47.0,47.0,47.0,1.0,badlands_113.jpg,badlands_225.jpg,3.0,A34A8MQJ7X1LCS
468,0.0,left,left,1.0,2.8673,0.0,48.0,48.0,48.0,1.0,bridge_256.jpg,bridge_54.jpg,4.0,A34A8MQJ7X1LCS
469,0.0,right,right,1.0,2.144,0.0,49.0,49.0,49.0,1.0,playground_2.jpg,playground_240.jpg,8.0,A34A8MQJ7X1LCS
470,1.0,right,left,0.0,6.0828,0.0,50.0,50.0,50.0,1.0,playground_215.jpg,playground_257.jpg,3.0,A34A8MQJ7X1LCS
471,1.0,right,right,1.0,3.4399,0.0,51.0,51.0,51.0,1.0,badlands_62.jpg,badlands_222.jpg,8.0,A34A8MQJ7X1LCS
472,1.0,right,right,1.0,2.9973,0.0,52.0,52.0,52.0,1.0,golf_course_209.jpg,golf_course_309.jpg,4.0,A34A8MQJ7X1LCS
473,0.0,right,right,1.0,2.1297,0.0,53.0,53.0,53.0,1.0,highway_384.jpg,highway_273.jpg,8.0,A34A8MQJ7X1LCS
474,1.0,left,right,0.0,3.892,0.0,54.0,54.0,54.0,1.0,bridge_108.jpg,bridge_148.jpg,4.0,A34A8MQJ7X1LCS
475,1.0,right,left,0.0,1.8821,0.0,55.0,55.0,55.0,1.0,bridge_82.jpg,bridge_91.jpg,3.0,A34A8MQJ7X1LCS
476,0.0,left,left,1.0,9.1836,0.0,56.0,56.0,56.0,1.0,highway_156.jpg,highway_160.jpg,3.0,A34A8MQJ7X1LCS
477,0.0,right,right,1.0,1.4676,0.0,57.0,57.0,57.0,1.0,golf_course_312.jpg,golf_course_214.jpg,8.0,A34A8MQJ7X1LCS
478,1.0,right,right,1.0,3.3287,0.0,58.0,58.0,58.0,1.0,badlands_63.jpg,badlands_52.jpg,5.0,A34A8MQJ7X1LCS
479,1.0,left,right,0.0,3.9471,0.0,59.0,59.0,59.0,1.0,playground_10.jpg,playground_12.jpg,5.0,A34A8MQJ7X1LCS
480,1.0,right,right,1.0,1.6653,0.0,0.0,0.0,0.0,1.0,bridge_244.jpg,bridge_128.jpg,5.0,A2U5OFMW8H30PC
481,0.0,right,left,0.0,1.6858,0.0,1.0,1.0,1.0,1.0,golf_course_134.jpg,golf_course_78.jpg,6.0,A2U5OFMW8H30PC
482,1.0,left,right,0.0,1.8921,0.0,2.0,2.0,2.0,1.0,mountain_101.jpg,mountain_221.jpg,6.0,A2U5OFMW8H30PC
483,1.0,right,right,1.0,1.5274,0.0,3.0,3.0,3.0,1.0,golf_course_97.jpg,golf_course_15.jpg,7.0,A2U5OFMW8H30PC
484,1.0,left,left,1.0,1.2528,0.0,4.0,4.0,4.0,1.0,highway_394.jpg,highway_406.jpg,5.0,A2U5OFMW8H30PC
485,1.0,left,right,0.0,1.8241,0.0,5.0,5.0,5.0,1.0,bridge_202.jpg,bridge_38.jpg,5.0,A2U5OFMW8H30PC
486,1.0,right,left,0.0,1.2319,0.0,6.0,6.0,6.0,1.0,golf_course_161.jpg,golf_course_87.jpg,5.0,A2U5OFMW8H30PC
487,0.0,left,right,0.0,1.4895,0.0,7.0,7.0,7.0,1.0,golf_course_188.jpg,golf_course_157.jpg,4.0,A2U5OFMW8H30PC
488,1.0,left,left,1.0,2.6986,0.0,8.0,8.0,8.0,1.0,badlands_52.jpg,badlands_63.jpg,6.0,A2U5OFMW8H30PC
489,1.0,left,right,0.0,2.7589,0.0,9.0,9.0,9.0,1.0,bridge_256.jpg,bridge_211.jpg,7.0,A2U5OFMW8H30PC
490,1.0,right,right,1.0,1.833,0.0,10.0,10.0,10.0,1.0,badlands_103.jpg,badlands_184.jpg,6.0,A2U5OFMW8H30PC
491,1.0,right,right,1.0,3.2845,0.0,11.0,11.0,11.0,1.0,badlands_53.jpg,badlands_24.jpg,7.0,A2U5OFMW8H30PC
492,0.0,left,left,1.0,2.7732,0.0,12.0,12.0,12.0,1.0,mountain_156.jpg,mountain_128.jpg,7.0,A2U5OFMW8H30PC
493,0.0,left,right,0.0,1.3855,0.0,13.0,13.0,13.0,1.0,golf_course_217.jpg,golf_course_35.jpg,7.0,A2U5OFMW8H30PC
494,0.0,left,left,1.0,1.4609,0.0,14.0,14.0,14.0,1.0,playground_145.jpg,playground_229.jpg,5.0,A2U5OFMW8H30PC
495,0.0,left,right,0.0,1.6086,0.0,15.0,15.0,15.0,1.0,badlands_23.jpg,badlands_114.jpg,6.0,A2U5OFMW8H30PC
496,0.0,left,left,1.0,1.3046,0.0,16.0,16.0,16.0,1.0,bridge_191.jpg,bridge_184.jpg,6.0,A2U5OFMW8H30PC
497,1.0,left,left,1.0,34.2262,0.0,17.0,17.0,17.0,1.0,highway_93.jpg,highway_369.jpg,6.0,A2U5OFMW8H30PC
498,1.0,right,right,1.0,1.4062,0.0,18.0,18.0,18.0,1.0,bridge_163.jpg,bridge_172.jpg,7.0,A2U5OFMW8H30PC
499,1.0,left,left,1.0,1.3139,0.0,19.0,19.0,19.0,1.0,mountain_154.jpg,mountain_95.jpg,6.0,A2U5OFMW8H30PC
500,0.0,left,left,1.0,1.9271,0.0,20.0,20.0,20.0,1.0,bridge_108.jpg,bridge_116.jpg,4.0,A2U5OFMW8H30PC
501,1.0,right,right,1.0,0.6712,0.0,21.0,21.0,21.0,1.0,mountain_97.jpg,mountain_230.jpg,7.0,A2U5OFMW8H30PC
502,0.0,left,left,1.0,0.836,0.0,22.0,22.0,22.0,1.0,highway_294.jpg,highway_203.jpg,4.0,A2U5OFMW8H30PC
503,0.0,right,right,1.0,0.7595,0.0,23.0,23.0,23.0,1.0,badlands_1.jpg,badlands_21.jpg,7.0,A2U5OFMW8H30PC
504,1.0,left,left,1.0,0.6688,0.0,24.0,24.0,24.0,1.0,badlands_70.jpg,badlands_119.jpg,4.0,A2U5OFMW8H30PC
505,1.0,left,right,0.0,1.8751,0.0,25.0,25.0,25.0,1.0,highway_177.jpg,highway_278.jpg,6.0,A2U5OFMW8H30PC
506,0.0,left,left,1.0,0.8881,0.0,26.0,26.0,26.0,1.0,bridge_146.jpg,bridge_27.jpg,5.0,A2U5OFMW8H30PC
507,0.0,left,right,0.0,1.0885,0.0,27.0,27.0,27.0,1.0,badlands_222.jpg,badlands_34.jpg,7.0,A2U5OFMW8H30PC
508,0.0,left,left,1.0,1.0355,0.0,28.0,28.0,28.0,1.0,golf_course_214.jpg,golf_course_312.jpg,4.0,A2U5OFMW8H30PC
509,0.0,right,right,1.0,0.984,0.0,29.0,29.0,29.0,1.0,bridge_134.jpg,bridge_250.jpg,5.0,A2U5OFMW8H30PC
510,1.0,right,left,0.0,1.003,0.0,30.0,30.0,30.0,1.0,playground_72.jpg,playground_76.jpg,5.0,A2U5OFMW8H30PC
511,0.0,right,right,1.0,1.1985,0.0,31.0,31.0,31.0,1.0,badlands_225.jpg,badlands_113.jpg,7.0,A2U5OFMW8H30PC
512,0.0,left,left,1.0,1.5876,0.0,32.0,32.0,32.0,1.0,playground_117.jpg,playground_167.jpg,4.0,A2U5OFMW8H30PC
513,0.0,right,right,1.0,1.3,0.0,33.0,33.0,33.0,1.0,mountain_94.jpg,mountain_123.jpg,5.0,A2U5OFMW8H30PC
514,1.0,left,left,1.0,2.0643,0.0,34.0,34.0,34.0,1.0,playground_10.jpg,playground_12.jpg,7.0,A2U5OFMW8H30PC
515,0.0,left,left,1.0,2.0357,0.0,35.0,35.0,35.0,1.0,mountain_293.jpg,mountain_72.jpg,5.0,A2U5OFMW8H30PC
516,0.0,left,right,0.0,1.4748,0.0,36.0,36.0,36.0,1.0,bridge_65.jpg,bridge_181.jpg,6.0,A2U5OFMW8H30PC
517,0.0,right,left,0.0,1.2633,0.0,37.0,37.0,37.0,1.0,golf_course_114.jpg,golf_course_331.jpg,4.0,A2U5OFMW8H30PC
518,0.0,left,right,0.0,0.9583,0.0,38.0,38.0,38.0,1.0,highway_359.jpg,highway_389.jpg,4.0,A2U5OFMW8H30PC
519,0.0,right,left,0.0,1.2241,0.0,39.0,39.0,39.0,1.0,badlands_194.jpg,badlands_137.jpg,3.0,A2U5OFMW8H30PC
520,1.0,right,right,1.0,1.0494,0.0,40.0,40.0,40.0,1.0,golf_course_2.jpg,golf_course_195.jpg,4.0,A2U5OFMW8H30PC
521,1.0,left,right,0.0,17.2066,0.0,41.0,41.0,41.0,1.0,golf_course_309.jpg,golf_course_209.jpg,4.0,A2U5OFMW8H30PC
522,1.0,right,right,1.0,1.5962,0.0,42.0,42.0,42.0,1.0,bridge_82.jpg,bridge_91.jpg,4.0,A2U5OFMW8H30PC
523,0.0,right,left,0.0,2.4308,0.0,43.0,43.0,43.0,1.0,mountain_244.jpg,mountain_222.jpg,4.0,A2U5OFMW8H30PC
524,0.0,left,right,0.0,1.4128,0.0,44.0,44.0,44.0,1.0,playground_257.jpg,playground_214.jpg,7.0,A2U5OFMW8H30PC
525,1.0,right,right,1.0,1.1427,0.0,45.0,45.0,45.0,1.0,highway_122.jpg,highway_209.jpg,7.0,A2U5OFMW8H30PC
526,1.0,left,left,1.0,1.3949,0.0,46.0,46.0,46.0,1.0,mountain_232.jpg,mountain_54.jpg,7.0,A2U5OFMW8H30PC
527,0.0,right,left,0.0,1.0216,0.0,47.0,47.0,47.0,1.0,mountain_157.jpg,mountain_110.jpg,4.0,A2U5OFMW8H30PC
528,1.0,right,right,1.0,0.8119,0.0,48.0,48.0,48.0,1.0,badlands_207.jpg,badlands_221.jpg,6.0,A2U5OFMW8H30PC
529,1.0,right,left,0.0,5.9948,0.0,49.0,49.0,49.0,1.0,playground_244.jpg,playground_60.jpg,3.0,A2U5OFMW8H30PC
530,1.0,left,left,1.0,1.2472,0.0,50.0,50.0,50.0,1.0,playground_131.jpg,playground_164.jpg,3.0,A2U5OFMW8H30PC
531,0.0,left,left,1.0,1.2725,0.0,51.0,51.0,51.0,1.0,playground_240.jpg,playground_2.jpg,4.0,A2U5OFMW8H30PC
532,1.0,left,left,1.0,4.8365,0.0,52.0,52.0,52.0,1.0,golf_course_193.jpg,golf_course_123.jpg,4.0,A2U5OFMW8H30PC
533,1.0,right,left,0.0,1.7033,0.0,53.0,53.0,53.0,1.0,playground_205.jpg,playground_219.jpg,4.0,A2U5OFMW8H30PC
534,0.0,right,left,0.0,2.231,0.0,54.0,54.0,54.0,1.0,playground_137.jpg,playground_144.jpg,4.0,A2U5OFMW8H30PC
535,1.0,left,right,0.0,1.6216,0.0,55.0,55.0,55.0,1.0,highway_156.jpg,highway_293.jpg,3.0,A2U5OFMW8H30PC
536,0.0,right,right,1.0,1.0229,0.0,56.0,56.0,56.0,1.0,highway_134.jpg,highway_245.jpg,3.0,A2U5OFMW8H30PC
537,0.0,left,left,1.0,0.6975,0.0,57.0,57.0,57.0,1.0,highway_415.jpg,highway_60.jpg,3.0,A2U5OFMW8H30PC
538,1.0,left,right,0.0,1.3409,0.0,58.0,58.0,58.0,1.0,mountain_57.jpg,mountain_138.jpg,6.0,A2U5OFMW8H30PC
539,0.0,left,left,1.0,1.4416,0.0,59.0,59.0,59.0,1.0,highway_273.jpg,highway_384.jpg,3.0,A2U5OFMW8H30PC
540,0.0,right,right,1.0,8.85,0.0,0.0,0.0,0.0,1.0,golf_course_25.jpg,golf_course_195.jpg,6.0,A1RC4Y575PV6EG
541,0.0,left,right,0.0,4.433,0.0,1.0,1.0,1.0,1.0,mountain_222.jpg,mountain_244.jpg,5.0,A1RC4Y575PV6EG
542,1.0,right,right,1.0,8.729,0.0,2.0,2.0,2.0,1.0,golf_course_209.jpg,golf_course_309.jpg,7.0,A1RC4Y575PV6EG
543,0.0,right,left,0.0,6.194,0.0,3.0,3.0,3.0,1.0,playground_22.jpg,playground_76.jpg,6.0,A1RC4Y575PV6EG
544,1.0,left,right,0.0,2.232,0.0,4.0,4.0,4.0,1.0,badlands_70.jpg,badlands_119.jpg,7.0,A1RC4Y575PV6EG
545,0.0,left,right,0.0,3.629,0.0,5.0,5.0,5.0,1.0,playground_257.jpg,playground_214.jpg,6.0,A1RC4Y575PV6EG
546,0.0,left,left,1.0,4.449,0.0,6.0,6.0,6.0,1.0,badlands_184.jpg,badlands_228.jpg,6.0,A1RC4Y575PV6EG
547,0.0,right,right,1.0,5.916,0.0,7.0,7.0,7.0,1.0,golf_course_130.jpg,golf_course_87.jpg,6.0,A1RC4Y575PV6EG
548,1.0,right,right,1.0,1.905,0.0,8.0,8.0,8.0,1.0,playground_40.jpg,playground_240.jpg,7.0,A1RC4Y575PV6EG
549,0.0,right,left,0.0,2.725,0.0,9.0,9.0,9.0,1.0,badlands_94.jpg,badlands_52.jpg,7.0,A1RC4Y575PV6EG
550,1.0,left,right,0.0,2.857,0.0,10.0,10.0,10.0,1.0,badlands_24.jpg,badlands_53.jpg,7.0,A1RC4Y575PV6EG
551,0.0,left,right,0.0,9.377,0.0,11.0,11.0,11.0,1.0,badlands_113.jpg,badlands_225.jpg,8.0,A1RC4Y575PV6EG
552,0.0,right,right,1.0,2.614,0.0,12.0,12.0,12.0,1.0,highway_389.jpg,highway_359.jpg,6.0,A1RC4Y575PV6EG
553,0.0,right,right,1.0,3.951,0.0,13.0,13.0,13.0,1.0,mountain_72.jpg,mountain_293.jpg,7.0,A1RC4Y575PV6EG
554,1.0,left,right,0.0,4.604,0.0,14.0,14.0,14.0,1.0,bridge_256.jpg,bridge_211.jpg,6.0,A1RC4Y575PV6EG
555,1.0,right,right,1.0,4.7,0.0,15.0,15.0,15.0,1.0,bridge_75.jpg,bridge_191.jpg,7.0,A1RC4Y575PV6EG
556,0.0,right,right,1.0,2.638,0.0,16.0,16.0,16.0,1.0,bridge_253.jpg,bridge_91.jpg,8.0,A1RC4Y575PV6EG
557,1.0,right,right,1.0,3.994,0.0,17.0,17.0,17.0,1.0,mountain_221.jpg,mountain_101.jpg,6.0,A1RC4Y575PV6EG
558,0.0,left,right,0.0,4.308,0.0,18.0,18.0,18.0,1.0,playground_60.jpg,playground_268.jpg,8.0,A1RC4Y575PV6EG
559,0.0,right,right,1.0,7.717,0.0,19.0,19.0,19.0,1.0,badlands_114.jpg,badlands_23.jpg,7.0,A1RC4Y575PV6EG
560,1.0,left,right,0.0,3.605,0.0,20.0,20.0,20.0,1.0,bridge_146.jpg,bridge_121.jpg,6.0,A1RC4Y575PV6EG
561,1.0,left,left,1.0,2.819,0.0,21.0,21.0,21.0,1.0,golf_course_193.jpg,golf_course_123.jpg,6.0,A1RC4Y575PV6EG
562,1.0,left,right,0.0,1.595,0.0,22.0,22.0,22.0,1.0,golf_course_188.jpg,golf_course_160.jpg,6.0,A1RC4Y575PV6EG
563,1.0,left,right,0.0,1.342,0.0,23.0,23.0,23.0,1.0,highway_415.jpg,highway_174.jpg,7.0,A1RC4Y575PV6EG
564,0.0,right,left,0.0,1.61,0.0,24.0,24.0,24.0,1.0,golf_course_312.jpg,golf_course_214.jpg,5.0,A1RC4Y575PV6EG
565,0.0,left,right,0.0,1.336,0.0,25.0,25.0,25.0,1.0,mountain_154.jpg,mountain_131.jpg,6.0,A1RC4Y575PV6EG
566,1.0,right,left,0.0,2.906,0.0,26.0,26.0,26.0,1.0,highway_368.jpg,highway_294.jpg,7.0,A1RC4Y575PV6EG
567,0.0,right,right,1.0,1.988,0.0,27.0,27.0,27.0,1.0,highway_160.jpg,highway_156.jpg,7.0,A1RC4Y575PV6EG
568,0.0,right,right,1.0,6.092,0.0,28.0,28.0,28.0,1.0,badlands_34.jpg,badlands_222.jpg,5.0,A1RC4Y575PV6EG
569,1.0,left,right,0.0,2.418,0.0,29.0,29.0,29.0,1.0,mountain_230.jpg,mountain_97.jpg,7.0,A1RC4Y575PV6EG
570,1.0,left,right,0.0,1.808,0.0,30.0,30.0,30.0,1.0,bridge_128.jpg,bridge_244.jpg,6.0,A1RC4Y575PV6EG
571,1.0,right,right,1.0,1.413,0.0,31.0,31.0,31.0,1.0,mountain_138.jpg,mountain_57.jpg,7.0,A1RC4Y575PV6EG
572,1.0,right,left,0.0,2.436,0.0,32.0,32.0,32.0,1.0,playground_127.jpg,playground_117.jpg,5.0,A1RC4Y575PV6EG
573,1.0,right,right,1.0,1.826,0.0,33.0,33.0,33.0,1.0,mountain_189.jpg,mountain_123.jpg,6.0,A1RC4Y575PV6EG
574,1.0,left,right,0.0,1.425,0.0,34.0,34.0,34.0,1.0,badlands_21.jpg,badlands_98.jpg,6.0,A1RC4Y575PV6EG
575,1.0,right,right,1.0,1.539,0.0,35.0,35.0,35.0,1.0,bridge_205.jpg,bridge_250.jpg,7.0,A1RC4Y575PV6EG
576,0.0,right,right,1.0,1.398,0.0,36.0,36.0,36.0,1.0,mountain_157.jpg,mountain_110.jpg,5.0,A1RC4Y575PV6EG
577,1.0,left,right,0.0,1.795,0.0,37.0,37.0,37.0,1.0,golf_course_15.jpg,golf_course_97.jpg,7.0,A1RC4Y575PV6EG
578,1.0,right,left,0.0,2.63,0.0,38.0,38.0,38.0,1.0,highway_206.jpg,highway_245.jpg,5.0,A1RC4Y575PV6EG
579,0.0,right,right,1.0,1.913,0.0,39.0,39.0,39.0,1.0,bridge_17.jpg,bridge_172.jpg,6.0,A1RC4Y575PV6EG
580,0.0,left,right,0.0,3.426,0.0,40.0,40.0,40.0,1.0,mountain_232.jpg,mountain_3.jpg,7.0,A1RC4Y575PV6EG
581,0.0,right,right,1.0,1.621,0.0,41.0,41.0,41.0,1.0,golf_course_114.jpg,golf_course_331.jpg,6.0,A1RC4Y575PV6EG
582,1.0,right,left,0.0,1.975,0.0,42.0,42.0,42.0,1.0,badlands_207.jpg,badlands_221.jpg,5.0,A1RC4Y575PV6EG
583,0.0,left,right,0.0,1.129,0.0,43.0,43.0,43.0,1.0,highway_177.jpg,highway_87.jpg,6.0,A1RC4Y575PV6EG
584,0.0,right,right,1.0,1.398,0.0,44.0,44.0,44.0,1.0,playground_122.jpg,playground_10.jpg,6.0,A1RC4Y575PV6EG
585,0.0,right,left,0.0,1.602,0.0,45.0,45.0,45.0,1.0,bridge_31.jpg,bridge_202.jpg,6.0,A1RC4Y575PV6EG
586,0.0,right,right,1.0,1.881,0.0,46.0,46.0,46.0,1.0,playground_137.jpg,playground_144.jpg,6.0,A1RC4Y575PV6EG
587,1.0,right,left,0.0,2.536,0.0,47.0,47.0,47.0,1.0,highway_171.jpg,highway_273.jpg,6.0,A1RC4Y575PV6EG
588,1.0,right,right,1.0,4.637,0.0,48.0,48.0,48.0,1.0,highway_369.jpg,highway_93.jpg,6.0,A1RC4Y575PV6EG
589,1.0,left,right,0.0,3.446,0.0,49.0,49.0,49.0,1.0,playground_131.jpg,playground_164.jpg,5.0,A1RC4Y575PV6EG
590,1.0,right,left,0.0,2.296,0.0,50.0,50.0,50.0,1.0,playground_242.jpg,playground_145.jpg,5.0,A1RC4Y575PV6EG
591,0.0,left,right,0.0,2.466,0.0,51.0,51.0,51.0,1.0,bridge_65.jpg,bridge_181.jpg,7.0,A1RC4Y575PV6EG
592,1.0,left,right,0.0,6.029,0.0,52.0,52.0,52.0,1.0,badlands_137.jpg,badlands_139.jpg,7.0,A1RC4Y575PV6EG
593,1.0,right,right,1.0,6.528,0.0,53.0,53.0,53.0,1.0,mountain_295.jpg,mountain_156.jpg,7.0,A1RC4Y575PV6EG
594,1.0,right,left,0.0,3.655,0.0,54.0,54.0,54.0,1.0,golf_course_101.jpg,golf_course_78.jpg,7.0,A1RC4Y575PV6EG
595,0.0,left,left,1.0,1.979,0.0,55.0,55.0,55.0,1.0,highway_394.jpg,highway_204.jpg,7.0,A1RC4Y575PV6EG
596,0.0,right,left,0.0,3.249,0.0,56.0,56.0,56.0,1.0,golf_course_35.jpg,golf_course_217.jpg,5.0,A1RC4Y575PV6EG
597,1.0,right,right,1.0,4.223,0.0,57.0,57.0,57.0,1.0,playground_205.jpg,playground_219.jpg,8.0,A1RC4Y575PV6EG
598,0.0,right,right,1.0,4.122,0.0,58.0,58.0,58.0,1.0,highway_314.jpg,highway_209.jpg,8.0,A1RC4Y575PV6EG
599,0.0,left,left,1.0,4.092,0.0,59.0,59.0,59.0,1.0,bridge_108.jpg,bridge_116.jpg,7.0,A1RC4Y575PV6EG
600,1.0,right,left,0.0,1.8746,0.0,0.0,0.0,0.0,1.0,highway_293.jpg,highway_156.jpg,6.0,A19CS96QCO32RT
601,1.0,left,right,0.0,1.4585,0.0,1.0,1.0,1.0,1.0,highway_415.jpg,highway_174.jpg,7.0,A19CS96QCO32RT
602,0.0,right,left,0.0,2.0676,0.0,2.0,2.0,2.0,1.0,golf_course_235.jpg,golf_course_193.jpg,6.0,A19CS96QCO32RT
603,1.0,right,right,1.0,1.2543,0.0,3.0,3.0,3.0,1.0,mountain_138.jpg,mountain_57.jpg,5.0,A19CS96QCO32RT
604,1.0,right,right,1.0,1.2513,0.0,4.0,4.0,4.0,1.0,bridge_148.jpg,bridge_108.jpg,6.0,A19CS96QCO32RT
605,0.0,right,left,0.0,1.2686,0.0,5.0,5.0,5.0,1.0,playground_268.jpg,playground_60.jpg,7.0,A19CS96QCO32RT
606,0.0,left,left,1.0,1.4622,0.0,6.0,6.0,6.0,1.0,badlands_221.jpg,badlands_115.jpg,7.0,A19CS96QCO32RT
607,1.0,left,left,1.0,0.8496,0.0,7.0,7.0,7.0,1.0,playground_76.jpg,playground_72.jpg,6.0,A19CS96QCO32RT
608,1.0,right,right,1.0,1.0396,0.0,8.0,8.0,8.0,1.0,mountain_47.jpg,mountain_293.jpg,6.0,A19CS96QCO32RT
609,1.0,left,right,0.0,0.8459,0.0,9.0,9.0,9.0,1.0,badlands_113.jpg,badlands_203.jpg,7.0,A19CS96QCO32RT
610,0.0,left,right,0.0,1.8801,0.0,10.0,10.0,10.0,1.0,bridge_250.jpg,bridge_134.jpg,7.0,A19CS96QCO32RT
611,0.0,left,right,0.0,1.049,0.0,11.0,11.0,11.0,1.0,bridge_191.jpg,bridge_184.jpg,7.0,A19CS96QCO32RT
612,0.0,right,left,0.0,1.0496,0.0,12.0,12.0,12.0,1.0,badlands_94.jpg,badlands_52.jpg,6.0,A19CS96QCO32RT
613,0.0,right,right,1.0,1.0445,0.0,13.0,13.0,13.0,1.0,bridge_54.jpg,bridge_256.jpg,6.0,A19CS96QCO32RT
614,1.0,right,right,1.0,1.2571,0.0,14.0,14.0,14.0,1.0,golf_course_161.jpg,golf_course_87.jpg,8.0,A19CS96QCO32RT
615,0.0,left,right,0.0,2.4933,0.0,15.0,15.0,15.0,1.0,playground_117.jpg,playground_167.jpg,7.0,A19CS96QCO32RT
616,1.0,right,left,0.0,1.2636,0.0,16.0,16.0,16.0,1.0,bridge_82.jpg,bridge_91.jpg,7.0,A19CS96QCO32RT
617,1.0,right,right,1.0,1.0452,0.0,17.0,17.0,17.0,1.0,highway_278.jpg,highway_177.jpg,7.0,A19CS96QCO32RT
618,1.0,right,right,1.0,1.2511,0.0,18.0,18.0,18.0,1.0,bridge_60.jpg,bridge_65.jpg,8.0,A19CS96QCO32RT
619,1.0,right,left,0.0,0.8629,0.0,19.0,19.0,19.0,1.0,playground_215.jpg,playground_257.jpg,6.0,A19CS96QCO32RT
620,1.0,right,right,1.0,1.258,0.0,20.0,20.0,20.0,1.0,golf_course_101.jpg,golf_course_78.jpg,7.0,A19CS96QCO32RT
621,0.0,left,right,0.0,1.881,0.0,21.0,21.0,21.0,1.0,bridge_172.jpg,bridge_17.jpg,8.0,A19CS96QCO32RT
622,0.0,right,right,1.0,1.0539,0.0,22.0,22.0,22.0,1.0,mountain_184.jpg,mountain_230.jpg,6.0,A19CS96QCO32RT
623,1.0,left,right,0.0,0.0069,0.0,23.0,23.0,23.0,1.0,highway_359.jpg,highway_379.jpg,7.0,A19CS96QCO32RT
624,0.0,left,right,0.0,2.0753,0.0,24.0,24.0,24.0,1.0,playground_240.jpg,playground_2.jpg,7.0,A19CS96QCO32RT
625,1.0,left,left,1.0,3.3187,0.0,25.0,25.0,25.0,1.0,golf_course_195.jpg,golf_course_2.jpg,8.0,A19CS96QCO32RT
626,1.0,left,right,0.0,1.26,0.0,26.0,26.0,26.0,1.0,mountain_110.jpg,mountain_223.jpg,8.0,A19CS96QCO32RT
627,0.0,left,left,1.0,1.4532,0.0,27.0,27.0,27.0,1.0,mountain_154.jpg,mountain_131.jpg,8.0,A19CS96QCO32RT
628,0.0,right,right,1.0,1.4539,0.0,28.0,28.0,28.0,1.0,highway_384.jpg,highway_273.jpg,8.0,A19CS96QCO32RT
629,0.0,right,right,1.0,1.4617,0.0,29.0,29.0,29.0,1.0,highway_204.jpg,highway_394.jpg,5.0,A19CS96QCO32RT
630,0.0,left,right,0.0,0.634,0.0,30.0,30.0,30.0,1.0,golf_course_331.jpg,golf_course_114.jpg,5.0,A19CS96QCO32RT
631,0.0,left,left,1.0,1.0462,0.0,31.0,31.0,31.0,1.0,highway_209.jpg,highway_314.jpg,6.0,A19CS96QCO32RT
632,1.0,right,right,1.0,1.0475,0.0,32.0,32.0,32.0,1.0,mountain_93.jpg,mountain_222.jpg,7.0,A19CS96QCO32RT
633,1.0,left,left,1.0,1.0563,0.0,33.0,33.0,33.0,1.0,playground_219.jpg,playground_205.jpg,7.0,A19CS96QCO32RT
634,0.0,right,right,1.0,1.2714,0.0,34.0,34.0,34.0,1.0,playground_229.jpg,playground_145.jpg,6.0,A19CS96QCO32RT
635,1.0,right,left,0.0,1.0439,0.0,35.0,35.0,35.0,1.0,highway_206.jpg,highway_245.jpg,6.0,A19CS96QCO32RT
636,0.0,right,right,1.0,1.4511,0.0,36.0,36.0,36.0,1.0,bridge_27.jpg,bridge_146.jpg,6.0,A19CS96QCO32RT
637,1.0,right,right,1.0,1.052,0.0,37.0,37.0,37.0,1.0,playground_164.jpg,playground_131.jpg,6.0,A19CS96QCO32RT
638,0.0,right,left,0.0,0.8342,0.0,38.0,38.0,38.0,1.0,badlands_228.jpg,badlands_184.jpg,6.0,A19CS96QCO32RT
639,0.0,right,right,1.0,1.6629,0.0,39.0,39.0,39.0,1.0,golf_course_35.jpg,golf_course_217.jpg,6.0,A19CS96QCO32RT
640,1.0,left,left,1.0,1.0389,0.0,40.0,40.0,40.0,1.0,badlands_23.jpg,badlands_101.jpg,6.0,A19CS96QCO32RT
641,0.0,right,right,1.0,1.1179,0.0,41.0,41.0,41.0,1.0,golf_course_113.jpg,golf_course_15.jpg,6.0,A19CS96QCO32RT
642,0.0,left,right,0.0,1.2544,0.0,42.0,42.0,42.0,1.0,badlands_24.jpg,badlands_3.jpg,6.0,A19CS96QCO32RT
643,1.0,right,left,0.0,1.0563,0.0,43.0,43.0,43.0,1.0,badlands_62.jpg,badlands_222.jpg,7.0,A19CS96QCO32RT
644,1.0,left,right,0.0,0.8395,0.0,44.0,44.0,44.0,1.0,bridge_128.jpg,bridge_244.jpg,7.0,A19CS96QCO32RT
645,0.0,right,left,0.0,1.2479,0.0,45.0,45.0,45.0,1.0,mountain_3.jpg,mountain_232.jpg,7.0,A19CS96QCO32RT
646,1.0,right,right,1.0,1.0476,0.0,46.0,46.0,46.0,1.0,badlands_119.jpg,badlands_70.jpg,7.0,A19CS96QCO32RT
647,0.0,right,left,0.0,1.0494,0.0,47.0,47.0,47.0,1.0,highway_203.jpg,highway_294.jpg,6.0,A19CS96QCO32RT
648,0.0,left,right,0.0,1.0486,0.0,48.0,48.0,48.0,1.0,mountain_101.jpg,mountain_171.jpg,7.0,A19CS96QCO32RT
649,0.0,left,right,0.0,1.4655,0.0,49.0,49.0,49.0,1.0,golf_course_188.jpg,golf_course_157.jpg,7.0,A19CS96QCO32RT
650,1.0,right,left,0.0,1.0618,0.0,50.0,50.0,50.0,1.0,playground_65.jpg,playground_144.jpg,7.0,A19CS96QCO32RT
651,0.0,right,right,1.0,1.465,0.0,51.0,51.0,51.0,1.0,playground_122.jpg,playground_10.jpg,6.0,A19CS96QCO32RT
652,1.0,right,left,0.0,1.0529,0.0,52.0,52.0,52.0,1.0,mountain_295.jpg,mountain_156.jpg,7.0,A19CS96QCO32RT
653,1.0,left,right,0.0,2.0843,0.0,53.0,53.0,53.0,1.0,golf_course_214.jpg,golf_course_317.jpg,7.0,A19CS96QCO32RT
654,0.0,left,left,1.0,1.0639,0.0,54.0,54.0,54.0,1.0,badlands_137.jpg,badlands_194.jpg,7.0,A19CS96QCO32RT
655,0.0,right,left,0.0,1.0437,0.0,55.0,55.0,55.0,1.0,mountain_94.jpg,mountain_123.jpg,7.0,A19CS96QCO32RT
656,1.0,right,right,1.0,1.047,0.0,56.0,56.0,56.0,1.0,badlands_98.jpg,badlands_21.jpg,7.0,A19CS96QCO32RT
657,1.0,right,left,0.0,1.0465,0.0,57.0,57.0,57.0,1.0,golf_course_209.jpg,golf_course_309.jpg,7.0,A19CS96QCO32RT
658,0.0,right,right,1.0,0.8385,0.0,58.0,58.0,58.0,1.0,highway_85.jpg,highway_93.jpg,7.0,A19CS96QCO32RT
659,1.0,right,left,0.0,0.8389,0.0,59.0,59.0,59.0,1.0,bridge_38.jpg,bridge_202.jpg,7.0,A19CS96QCO32RT
660,1.0,left,left,1.0,3.9576,0.0,0.0,0.0,0.0,1.0,golf_course_87.jpg,golf_course_161.jpg,1.0,AEK2SAEL9GG39
661,1.0,left,left,1.0,1.7008,0.0,1.0,1.0,1.0,1.0,bridge_202.jpg,bridge_38.jpg,3.0,AEK2SAEL9GG39
662,0.0,right,right,1.0,1.9157,0.0,2.0,2.0,2.0,1.0,badlands_114.jpg,badlands_23.jpg,5.0,AEK2SAEL9GG39
663,0.0,left,left,1.0,1.039,0.0,3.0,3.0,3.0,1.0,highway_245.jpg,highway_134.jpg,2.0,AEK2SAEL9GG39
664,1.0,right,right,1.0,1.895,0.0,4.0,4.0,4.0,1.0,highway_171.jpg,highway_273.jpg,4.0,AEK2SAEL9GG39
665,1.0,right,right,1.0,2.2049,0.0,5.0,5.0,5.0,1.0,golf_course_101.jpg,golf_course_78.jpg,3.0,AEK2SAEL9GG39
666,0.0,right,right,1.0,2.1761,0.0,6.0,6.0,6.0,1.0,badlands_34.jpg,badlands_222.jpg,2.0,AEK2SAEL9GG39
667,0.0,left,left,1.0,0.9512,0.0,7.0,7.0,7.0,1.0,playground_144.jpg,playground_137.jpg,2.0,AEK2SAEL9GG39
668,0.0,left,left,1.0,2.4651,0.0,8.0,8.0,8.0,1.0,bridge_128.jpg,bridge_61.jpg,1.0,AEK2SAEL9GG39
669,1.0,left,left,1.0,1.9174,0.0,9.0,9.0,9.0,1.0,mountain_232.jpg,mountain_54.jpg,4.0,AEK2SAEL9GG39
670,1.0,left,right,0.0,1.5549,0.0,10.0,10.0,10.0,1.0,playground_145.jpg,playground_242.jpg,5.0,AEK2SAEL9GG39
671,0.0,left,left,1.0,3.2212,0.0,11.0,11.0,11.0,1.0,highway_156.jpg,highway_160.jpg,2.0,AEK2SAEL9GG39
672,0.0,left,right,0.0,5.1488,0.0,12.0,12.0,12.0,1.0,playground_60.jpg,playground_268.jpg,3.0,AEK2SAEL9GG39
673,1.0,left,left,1.0,1.1845,0.0,13.0,13.0,13.0,1.0,badlands_221.jpg,badlands_207.jpg,3.0,AEK2SAEL9GG39
674,0.0,left,left,1.0,1.7367,0.0,14.0,14.0,14.0,1.0,mountain_154.jpg,mountain_131.jpg,2.0,AEK2SAEL9GG39
675,0.0,right,right,1.0,1.5865,0.0,15.0,15.0,15.0,1.0,bridge_181.jpg,bridge_65.jpg,3.0,AEK2SAEL9GG39
676,1.0,left,left,1.0,2.3344,0.0,16.0,16.0,16.0,1.0,mountain_110.jpg,mountain_223.jpg,3.0,AEK2SAEL9GG39
677,0.0,right,right,1.0,0.8842,0.0,17.0,17.0,17.0,1.0,bridge_253.jpg,bridge_91.jpg,1.0,AEK2SAEL9GG39
678,1.0,left,left,1.0,1.3734,0.0,18.0,18.0,18.0,1.0,bridge_108.jpg,bridge_148.jpg,1.0,AEK2SAEL9GG39
679,0.0,left,left,1.0,1.1492,0.0,19.0,19.0,19.0,1.0,mountain_230.jpg,mountain_184.jpg,1.0,AEK2SAEL9GG39
680,1.0,right,right,1.0,1.2231,0.0,20.0,20.0,20.0,1.0,playground_164.jpg,playground_131.jpg,6.0,AEK2SAEL9GG39
681,1.0,left,right,0.0,1.1542,0.0,21.0,21.0,21.0,1.0,playground_76.jpg,playground_72.jpg,5.0,AEK2SAEL9GG39
682,1.0,left,left,1.0,1.5536,0.0,22.0,22.0,22.0,1.0,highway_294.jpg,highway_368.jpg,4.0,AEK2SAEL9GG39
683,0.0,right,left,0.0,1.3516,0.0,23.0,23.0,23.0,1.0,mountain_193.jpg,mountain_57.jpg,2.0,AEK2SAEL9GG39
684,1.0,left,left,1.0,1.0287,0.0,24.0,24.0,24.0,1.0,golf_course_15.jpg,golf_course_97.jpg,4.0,AEK2SAEL9GG39
685,0.0,right,right,1.0,0.9207,0.0,25.0,25.0,25.0,1.0,golf_course_157.jpg,golf_course_188.jpg,2.0,AEK2SAEL9GG39
686,0.0,right,right,1.0,1.0638,0.0,26.0,26.0,26.0,1.0,golf_course_235.jpg,golf_course_193.jpg,1.0,AEK2SAEL9GG39
687,0.0,right,right,1.0,1.5001,0.0,27.0,27.0,27.0,1.0,mountain_72.jpg,mountain_293.jpg,6.0,AEK2SAEL9GG39
688,0.0,right,left,0.0,1.3513,0.0,28.0,28.0,28.0,1.0,playground_167.jpg,playground_117.jpg,6.0,AEK2SAEL9GG39
689,1.0,left,left,1.0,1.274,0.0,29.0,29.0,29.0,1.0,highway_93.jpg,highway_369.jpg,5.0,AEK2SAEL9GG39
690,0.0,left,right,0.0,1.3348,0.0,30.0,30.0,30.0,1.0,highway_394.jpg,highway_204.jpg,2.0,AEK2SAEL9GG39
691,0.0,left,left,1.0,2.5322,0.0,31.0,31.0,31.0,1.0,golf_course_214.jpg,golf_course_312.jpg,4.0,AEK2SAEL9GG39
692,1.0,right,right,1.0,1.72,0.0,32.0,32.0,32.0,1.0,highway_174.jpg,highway_415.jpg,6.0,AEK2SAEL9GG39
693,1.0,left,left,1.0,1.654,0.0,33.0,33.0,33.0,1.0,mountain_123.jpg,mountain_189.jpg,4.0,AEK2SAEL9GG39
694,1.0,right,right,1.0,0.9427,0.0,34.0,34.0,34.0,1.0,golf_course_262.jpg,golf_course_217.jpg,2.0,AEK2SAEL9GG39
695,1.0,right,right,1.0,1.117,0.0,35.0,35.0,35.0,1.0,bridge_205.jpg,bridge_250.jpg,5.0,AEK2SAEL9GG39
696,1.0,left,right,0.0,1.1099,0.0,36.0,36.0,36.0,1.0,mountain_101.jpg,mountain_221.jpg,4.0,AEK2SAEL9GG39
697,0.0,left,left,1.0,2.003,0.0,37.0,37.0,37.0,1.0,badlands_24.jpg,badlands_3.jpg,5.0,AEK2SAEL9GG39
698,0.0,right,left,0.0,1.8196,0.0,38.0,38.0,38.0,1.0,badlands_194.jpg,badlands_137.jpg,4.0,AEK2SAEL9GG39
699,1.0,left,left,1.0,2.1371,0.0,39.0,39.0,39.0,1.0,highway_177.jpg,highway_278.jpg,6.0,AEK2SAEL9GG39
700,1.0,left,left,1.0,1.4386,0.0,40.0,40.0,40.0,1.0,mountain_156.jpg,mountain_295.jpg,4.0,AEK2SAEL9GG39
701,0.0,left,left,1.0,1.0421,0.0,41.0,41.0,41.0,1.0,badlands_21.jpg,badlands_1.jpg,3.0,AEK2SAEL9GG39
702,0.0,left,left,1.0,1.2924,0.0,42.0,42.0,42.0,1.0,playground_10.jpg,playground_122.jpg,5.0,AEK2SAEL9GG39
703,1.0,right,left,0.0,1.7824,0.0,43.0,43.0,43.0,1.0,bridge_75.jpg,bridge_191.jpg,5.0,AEK2SAEL9GG39
704,0.0,left,left,1.0,1.2869,0.0,44.0,44.0,44.0,1.0,highway_209.jpg,highway_314.jpg,1.0,AEK2SAEL9GG39
705,0.0,right,right,1.0,1.4328,0.0,45.0,45.0,45.0,1.0,playground_214.jpg,playground_257.jpg,4.0,AEK2SAEL9GG39
706,1.0,right,right,1.0,1.4543,0.0,46.0,46.0,46.0,1.0,badlands_103.jpg,badlands_184.jpg,2.0,AEK2SAEL9GG39
707,1.0,left,left,1.0,1.008,0.0,47.0,47.0,47.0,1.0,badlands_52.jpg,badlands_63.jpg,4.0,AEK2SAEL9GG39
708,1.0,left,left,1.0,0.7939,0.0,48.0,48.0,48.0,1.0,badlands_70.jpg,badlands_119.jpg,6.0,AEK2SAEL9GG39
709,1.0,right,left,0.0,1.6738,0.0,49.0,49.0,49.0,1.0,badlands_203.jpg,badlands_113.jpg,6.0,AEK2SAEL9GG39
710,0.0,right,right,1.0,1.2165,0.0,50.0,50.0,50.0,1.0,bridge_17.jpg,bridge_172.jpg,3.0,AEK2SAEL9GG39
711,0.0,left,left,1.0,1.0983,0.0,51.0,51.0,51.0,1.0,golf_course_331.jpg,golf_course_114.jpg,2.0,AEK2SAEL9GG39
712,0.0,right,left,0.0,1.0904,0.0,52.0,52.0,52.0,1.0,mountain_244.jpg,mountain_222.jpg,2.0,AEK2SAEL9GG39
713,1.0,left,left,1.0,1.1274,0.0,53.0,53.0,53.0,1.0,playground_219.jpg,playground_205.jpg,5.0,AEK2SAEL9GG39
714,1.0,right,left,0.0,0.95,0.0,54.0,54.0,54.0,1.0,playground_40.jpg,playground_240.jpg,6.0,AEK2SAEL9GG39
715,0.0,left,left,1.0,0.9041,0.0,55.0,55.0,55.0,1.0,bridge_256.jpg,bridge_54.jpg,4.0,AEK2SAEL9GG39
716,0.0,left,left,1.0,1.4555,0.0,56.0,56.0,56.0,1.0,highway_359.jpg,highway_389.jpg,2.0,AEK2SAEL9GG39
717,1.0,right,right,1.0,1.0678,0.0,57.0,57.0,57.0,1.0,bridge_121.jpg,bridge_146.jpg,2.0,AEK2SAEL9GG39
718,1.0,right,right,1.0,1.7259,0.0,58.0,58.0,58.0,1.0,golf_course_209.jpg,golf_course_309.jpg,3.0,AEK2SAEL9GG39
719,0.0,left,left,1.0,1.4327,0.0,59.0,59.0,59.0,1.0,golf_course_195.jpg,golf_course_25.jpg,2.0,AEK2SAEL9GG39
720,1.0,right,left,0.0,1.4364,0.0,0.0,0.0,0.0,1.0,golf_course_26.jpg,golf_course_331.jpg,5.0,A3CSATWFK13YUG
721,1.0,right,right,1.0,2.7739,0.0,1.0,1.0,1.0,1.0,golf_course_2.jpg,golf_course_195.jpg,5.0,A3CSATWFK13YUG
722,1.0,left,right,0.0,6.1569,0.0,2.0,2.0,2.0,1.0,mountain_101.jpg,mountain_221.jpg,5.0,A3CSATWFK13YUG
723,1.0,right,right,1.0,3.66,0.0,3.0,3.0,3.0,1.0,bridge_38.jpg,bridge_202.jpg,5.0,A3CSATWFK13YUG
724,1.0,right,right,1.0,10.8051,0.0,4.0,4.0,4.0,1.0,bridge_244.jpg,bridge_128.jpg,5.0,A3CSATWFK13YUG
725,1.0,right,right,1.0,2.7532,0.0,5.0,5.0,5.0,1.0,badlands_103.jpg,badlands_184.jpg,5.0,A3CSATWFK13YUG
726,1.0,left,right,0.0,5.7681,0.0,6.0,6.0,6.0,1.0,badlands_221.jpg,badlands_207.jpg,5.0,A3CSATWFK13YUG
727,0.0,right,right,1.0,1.6696,0.0,7.0,7.0,7.0,1.0,mountain_157.jpg,mountain_110.jpg,5.0,A3CSATWFK13YUG
728,1.0,left,right,0.0,1.7216,0.0,8.0,8.0,8.0,1.0,mountain_232.jpg,mountain_54.jpg,5.0,A3CSATWFK13YUG
729,1.0,left,right,0.0,1.6122,0.0,9.0,9.0,9.0,1.0,playground_117.jpg,playground_127.jpg,5.0,A3CSATWFK13YUG
730,1.0,left,right,0.0,1.6457,0.0,10.0,10.0,10.0,1.0,bridge_146.jpg,bridge_121.jpg,5.0,A3CSATWFK13YUG
731,0.0,left,right,0.0,1.4029,0.0,11.0,11.0,11.0,1.0,badlands_23.jpg,badlands_114.jpg,5.0,A3CSATWFK13YUG
732,1.0,right,left,0.0,1.3659,0.0,12.0,12.0,12.0,1.0,highway_278.jpg,highway_177.jpg,5.0,A3CSATWFK13YUG
733,1.0,left,right,0.0,2.2394,0.0,13.0,13.0,13.0,1.0,highway_394.jpg,highway_406.jpg,5.0,A3CSATWFK13YUG
734,0.0,right,right,1.0,2.5305,0.0,14.0,14.0,14.0,1.0,golf_course_16.jpg,golf_course_309.jpg,5.0,A3CSATWFK13YUG
735,1.0,right,right,1.0,2.4206,0.0,15.0,15.0,15.0,1.0,badlands_119.jpg,badlands_70.jpg,5.0,A3CSATWFK13YUG
736,0.0,right,left,0.0,5.1473,0.0,16.0,16.0,16.0,1.0,mountain_72.jpg,mountain_293.jpg,5.0,A3CSATWFK13YUG
737,1.0,left,right,0.0,1.2004,0.0,17.0,17.0,17.0,1.0,highway_359.jpg,highway_379.jpg,5.0,A3CSATWFK13YUG
738,0.0,left,right,0.0,1.2041,0.0,18.0,18.0,18.0,1.0,bridge_256.jpg,bridge_54.jpg,6.0,A3CSATWFK13YUG
739,0.0,left,right,0.0,3.1143,0.0,19.0,19.0,19.0,1.0,highway_93.jpg,highway_85.jpg,5.0,A3CSATWFK13YUG
740,0.0,left,right,0.0,1.1015,0.0,20.0,20.0,20.0,1.0,golf_course_193.jpg,golf_course_235.jpg,5.0,A3CSATWFK13YUG
741,0.0,left,right,0.0,1.7857,0.0,21.0,21.0,21.0,1.0,bridge_108.jpg,bridge_116.jpg,6.0,A3CSATWFK13YUG
742,1.0,left,right,0.0,3.2683,0.0,22.0,22.0,22.0,1.0,playground_240.jpg,playground_40.jpg,6.0,A3CSATWFK13YUG
743,0.0,left,right,0.0,2.8329,0.0,23.0,23.0,23.0,1.0,highway_156.jpg,highway_160.jpg,5.0,A3CSATWFK13YUG
744,0.0,right,right,1.0,0.822,0.0,24.0,24.0,24.0,1.0,highway_134.jpg,highway_245.jpg,5.0,A3CSATWFK13YUG
745,0.0,left,left,1.0,1.4948,0.0,25.0,25.0,25.0,1.0,badlands_21.jpg,badlands_1.jpg,5.0,A3CSATWFK13YUG
746,0.0,left,right,0.0,4.9791,0.0,26.0,26.0,26.0,1.0,golf_course_214.jpg,golf_course_312.jpg,6.0,A3CSATWFK13YUG
747,1.0,left,right,0.0,1.2365,0.0,27.0,27.0,27.0,1.0,badlands_52.jpg,badlands_63.jpg,6.0,A3CSATWFK13YUG
748,1.0,right,right,1.0,62.052,0.0,28.0,28.0,28.0,1.0,highway_171.jpg,highway_273.jpg,6.0,A3CSATWFK13YUG
749,1.0,left,right,0.0,120.0676,0.0,29.0,29.0,29.0,1.0,golf_course_78.jpg,golf_course_101.jpg,6.0,A3CSATWFK13YUG
750,1.0,right,right,1.0,1.6899,0.0,30.0,30.0,30.0,1.0,mountain_95.jpg,mountain_154.jpg,6.0,A3CSATWFK13YUG
751,0.0,left,right,0.0,0.8761,0.0,31.0,31.0,31.0,1.0,bridge_65.jpg,bridge_181.jpg,6.0,A3CSATWFK13YUG
752,1.0,right,right,1.0,0.8377,0.0,32.0,32.0,32.0,1.0,mountain_295.jpg,mountain_156.jpg,6.0,A3CSATWFK13YUG
753,1.0,left,right,0.0,0.8866,0.0,33.0,33.0,33.0,1.0,highway_415.jpg,highway_174.jpg,6.0,A3CSATWFK13YUG
754,1.0,left,right,0.0,3.9409,0.0,34.0,34.0,34.0,1.0,playground_131.jpg,playground_164.jpg,5.0,A3CSATWFK13YUG
755,0.0,right,left,0.0,1.1474,0.0,35.0,35.0,35.0,1.0,golf_course_113.jpg,golf_course_15.jpg,5.0,A3CSATWFK13YUG
756,0.0,right,left,0.0,10.0921,0.0,36.0,36.0,36.0,1.0,playground_268.jpg,playground_60.jpg,5.0,A3CSATWFK13YUG
757,0.0,left,right,0.0,11.3036,0.0,37.0,37.0,37.0,1.0,playground_219.jpg,playground_21.jpg,5.0,A3CSATWFK13YUG
758,0.0,right,right,1.0,3.9282,0.0,38.0,38.0,38.0,1.0,badlands_225.jpg,badlands_113.jpg,6.0,A3CSATWFK13YUG
759,1.0,right,right,1.0,7.8582,0.0,39.0,39.0,39.0,1.0,playground_65.jpg,playground_144.jpg,5.0,A3CSATWFK13YUG
760,0.0,right,right,1.0,2.294,0.0,40.0,40.0,40.0,1.0,golf_course_35.jpg,golf_course_217.jpg,6.0,A3CSATWFK13YUG
761,1.0,right,right,1.0,13.8567,0.0,41.0,41.0,41.0,1.0,playground_12.jpg,playground_10.jpg,6.0,A3CSATWFK13YUG
762,1.0,left,right,0.0,96.4157,0.0,42.0,42.0,42.0,1.0,bridge_250.jpg,bridge_205.jpg,6.0,A3CSATWFK13YUG
763,0.0,right,left,0.0,1.0833,0.0,43.0,43.0,43.0,1.0,playground_229.jpg,playground_145.jpg,6.0,A3CSATWFK13YUG
764,1.0,left,right,0.0,38.8838,0.0,44.0,44.0,44.0,1.0,mountain_123.jpg,mountain_189.jpg,6.0,A3CSATWFK13YUG
765,0.0,left,right,0.0,2.0056,0.0,45.0,45.0,45.0,1.0,mountain_222.jpg,mountain_244.jpg,6.0,A3CSATWFK13YUG
766,1.0,right,right,1.0,1.3818,0.0,46.0,46.0,46.0,1.0,golf_course_160.jpg,golf_course_188.jpg,6.0,A3CSATWFK13YUG
767,0.0,right,right,1.0,0.843,0.0,47.0,47.0,47.0,1.0,badlands_34.jpg,badlands_222.jpg,6.0,A3CSATWFK13YUG
768,0.0,right,left,0.0,1.1903,0.0,48.0,48.0,48.0,1.0,highway_314.jpg,highway_209.jpg,6.0,A3CSATWFK13YUG
769,0.0,right,right,1.0,4.2595,0.0,49.0,49.0,49.0,1.0,bridge_184.jpg,bridge_191.jpg,5.0,A3CSATWFK13YUG
770,1.0,left,right,0.0,4.1723,0.0,50.0,50.0,50.0,1.0,badlands_137.jpg,badlands_139.jpg,5.0,A3CSATWFK13YUG
771,0.0,right,right,1.0,6.0446,0.0,51.0,51.0,51.0,1.0,badlands_3.jpg,badlands_24.jpg,6.0,A3CSATWFK13YUG
772,0.0,right,right,1.0,0.613,0.0,52.0,52.0,52.0,1.0,playground_22.jpg,playground_76.jpg,6.0,A3CSATWFK13YUG
773,1.0,right,right,1.0,0.8337,0.0,53.0,53.0,53.0,1.0,bridge_163.jpg,bridge_172.jpg,6.0,A3CSATWFK13YUG
774,0.0,right,right,1.0,1.1473,0.0,54.0,54.0,54.0,1.0,mountain_184.jpg,mountain_230.jpg,6.0,A3CSATWFK13YUG
775,1.0,right,right,1.0,0.8221,0.0,55.0,55.0,55.0,1.0,golf_course_161.jpg,golf_course_87.jpg,6.0,A3CSATWFK13YUG
776,0.0,right,right,1.0,1.1756,0.0,56.0,56.0,56.0,1.0,bridge_253.jpg,bridge_91.jpg,6.0,A3CSATWFK13YUG
777,0.0,right,right,1.0,5.9232,0.0,57.0,57.0,57.0,1.0,playground_214.jpg,playground_257.jpg,6.0,A3CSATWFK13YUG
778,0.0,right,right,1.0,0.927,0.0,58.0,58.0,58.0,1.0,highway_203.jpg,highway_294.jpg,6.0,A3CSATWFK13YUG
779,0.0,right,right,1.0,0.875,0.0,59.0,59.0,59.0,1.0,mountain_193.jpg,mountain_57.jpg,6.0,A3CSATWFK13YUG
780,0.0,right,right,1.0,2.2001,0.0,0.0,0.0,0.0,1.0,mountain_193.jpg,mountain_57.jpg,7.0,A1Y6CQ2AJ882MO
781,1.0,right,right,1.0,1.5001,0.0,1.0,1.0,1.0,1.0,golf_course_160.jpg,golf_course_188.jpg,7.0,A1Y6CQ2AJ882MO
782,1.0,left,left,1.0,1.6229,0.0,2.0,2.0,2.0,1.0,bridge_108.jpg,bridge_148.jpg,6.0,A1Y6CQ2AJ882MO
783,1.0,left,right,0.0,1.751,0.0,3.0,3.0,3.0,1.0,badlands_137.jpg,badlands_139.jpg,8.0,A1Y6CQ2AJ882MO
784,0.0,left,left,1.0,3.4567,0.0,4.0,4.0,4.0,1.0,playground_76.jpg,playground_22.jpg,9.0,A1Y6CQ2AJ882MO
785,1.0,left,right,0.0,2.3901,0.0,5.0,5.0,5.0,1.0,mountain_123.jpg,mountain_189.jpg,8.0,A1Y6CQ2AJ882MO
786,0.0,left,left,1.0,2.2377,0.0,6.0,6.0,6.0,1.0,bridge_202.jpg,bridge_31.jpg,9.0,A1Y6CQ2AJ882MO
787,0.0,left,left,1.0,2.4768,0.0,7.0,7.0,7.0,1.0,mountain_222.jpg,mountain_244.jpg,9.0,A1Y6CQ2AJ882MO
788,1.0,left,right,0.0,3.0236,0.0,8.0,8.0,8.0,1.0,playground_145.jpg,playground_242.jpg,9.0,A1Y6CQ2AJ882MO
789,0.0,left,left,1.0,1.7034,0.0,9.0,9.0,9.0,1.0,playground_10.jpg,playground_122.jpg,9.0,A1Y6CQ2AJ882MO
790,1.0,left,left,1.0,2.469,0.0,10.0,10.0,10.0,1.0,golf_course_78.jpg,golf_course_101.jpg,9.0,A1Y6CQ2AJ882MO
791,0.0,left,left,1.0,3.2681,0.0,11.0,11.0,11.0,1.0,highway_156.jpg,highway_160.jpg,9.0,A1Y6CQ2AJ882MO
792,1.0,right,right,1.0,2.0484,0.0,12.0,12.0,12.0,1.0,golf_course_161.jpg,golf_course_87.jpg,8.0,A1Y6CQ2AJ882MO
793,1.0,right,right,1.0,2.0592,0.0,13.0,13.0,13.0,1.0,bridge_205.jpg,bridge_250.jpg,8.0,A1Y6CQ2AJ882MO
794,1.0,left,right,0.0,2.5141,0.0,14.0,14.0,14.0,1.0,highway_209.jpg,highway_122.jpg,8.0,A1Y6CQ2AJ882MO
795,0.0,left,right,0.0,2.0657,0.0,15.0,15.0,15.0,1.0,golf_course_195.jpg,golf_course_25.jpg,8.0,A1Y6CQ2AJ882MO
796,1.0,left,left,1.0,2.15,0.0,16.0,16.0,16.0,1.0,bridge_256.jpg,bridge_211.jpg,8.0,A1Y6CQ2AJ882MO
797,0.0,right,right,1.0,2.1081,0.0,17.0,17.0,17.0,1.0,highway_389.jpg,highway_359.jpg,8.0,A1Y6CQ2AJ882MO
798,0.0,right,right,1.0,2.2398,0.0,18.0,18.0,18.0,1.0,badlands_102.jpg,badlands_70.jpg,8.0,A1Y6CQ2AJ882MO
799,1.0,left,right,0.0,1.6701,0.0,19.0,19.0,19.0,1.0,highway_177.jpg,highway_278.jpg,8.0,A1Y6CQ2AJ882MO
800,0.0,left,left,1.0,1.6889,0.0,20.0,20.0,20.0,1.0,playground_144.jpg,playground_137.jpg,9.0,A1Y6CQ2AJ882MO
801,1.0,left,left,1.0,2.2691,0.0,21.0,21.0,21.0,1.0,mountain_154.jpg,mountain_95.jpg,8.0,A1Y6CQ2AJ882MO
802,1.0,left,right,0.0,1.8592,0.0,22.0,22.0,22.0,1.0,highway_273.jpg,highway_171.jpg,8.0,A1Y6CQ2AJ882MO
803,1.0,left,left,1.0,1.7615,0.0,23.0,23.0,23.0,1.0,mountain_110.jpg,mountain_223.jpg,8.0,A1Y6CQ2AJ882MO
804,0.0,left,right,0.0,1.6732,0.0,24.0,24.0,24.0,1.0,golf_course_331.jpg,golf_course_114.jpg,8.0,A1Y6CQ2AJ882MO
805,0.0,left,left,1.0,1.5101,0.0,25.0,25.0,25.0,1.0,golf_course_214.jpg,golf_course_312.jpg,9.0,A1Y6CQ2AJ882MO
806,1.0,left,left,1.0,1.8677,0.0,26.0,26.0,26.0,1.0,mountain_232.jpg,mountain_54.jpg,9.0,A1Y6CQ2AJ882MO
807,1.0,left,left,1.0,2.06,0.0,27.0,27.0,27.0,1.0,bridge_146.jpg,bridge_121.jpg,9.0,A1Y6CQ2AJ882MO
808,0.0,left,left,1.0,1.8778,0.0,28.0,28.0,28.0,1.0,badlands_23.jpg,badlands_114.jpg,8.0,A1Y6CQ2AJ882MO
809,1.0,right,right,1.0,2.0991,0.0,29.0,29.0,29.0,1.0,playground_244.jpg,playground_60.jpg,9.0,A1Y6CQ2AJ882MO
810,0.0,right,left,0.0,1.8082,0.0,30.0,30.0,30.0,1.0,mountain_128.jpg,mountain_156.jpg,8.0,A1Y6CQ2AJ882MO
811,1.0,left,right,0.0,2.3387,0.0,31.0,31.0,31.0,1.0,badlands_184.jpg,badlands_103.jpg,8.0,A1Y6CQ2AJ882MO
812,0.0,right,right,1.0,1.964,0.0,32.0,32.0,32.0,1.0,golf_course_35.jpg,golf_course_217.jpg,9.0,A1Y6CQ2AJ882MO
813,0.0,left,left,1.0,1.7921,0.0,33.0,33.0,33.0,1.0,playground_240.jpg,playground_2.jpg,8.0,A1Y6CQ2AJ882MO
814,1.0,left,left,1.0,1.7486,0.0,34.0,34.0,34.0,1.0,highway_245.jpg,highway_206.jpg,8.0,A1Y6CQ2AJ882MO
815,1.0,left,right,0.0,1.8013,0.0,35.0,35.0,35.0,1.0,playground_219.jpg,playground_205.jpg,8.0,A1Y6CQ2AJ882MO
816,0.0,right,right,1.0,1.5948,0.0,36.0,36.0,36.0,1.0,mountain_72.jpg,mountain_293.jpg,8.0,A1Y6CQ2AJ882MO
817,1.0,right,right,1.0,1.7475,0.0,37.0,37.0,37.0,1.0,playground_215.jpg,playground_257.jpg,9.0,A1Y6CQ2AJ882MO
818,0.0,right,right,1.0,1.5777,0.0,38.0,38.0,38.0,1.0,badlands_94.jpg,badlands_52.jpg,9.0,A1Y6CQ2AJ882MO
819,0.0,right,left,0.0,1.5074,0.0,39.0,39.0,39.0,1.0,bridge_181.jpg,bridge_65.jpg,8.0,A1Y6CQ2AJ882MO
820,1.0,right,right,1.0,1.526,0.0,40.0,40.0,40.0,1.0,golf_course_97.jpg,golf_course_15.jpg,8.0,A1Y6CQ2AJ882MO
821,0.0,right,right,1.0,1.5637,0.0,41.0,41.0,41.0,1.0,badlands_3.jpg,badlands_24.jpg,9.0,A1Y6CQ2AJ882MO
822,1.0,left,right,0.0,2.456,0.0,42.0,42.0,42.0,1.0,playground_131.jpg,playground_164.jpg,9.0,A1Y6CQ2AJ882MO
823,0.0,left,right,0.0,4.0071,0.0,43.0,43.0,43.0,1.0,mountain_101.jpg,mountain_171.jpg,8.0,A1Y6CQ2AJ882MO
824,0.0,left,left,1.0,1.3946,0.0,44.0,44.0,44.0,1.0,highway_415.jpg,highway_60.jpg,8.0,A1Y6CQ2AJ882MO
825,1.0,right,right,1.0,1.3935,0.0,45.0,45.0,45.0,1.0,badlands_98.jpg,badlands_21.jpg,8.0,A1Y6CQ2AJ882MO
826,1.0,left,right,0.0,1.4099,0.0,46.0,46.0,46.0,1.0,mountain_230.jpg,mountain_97.jpg,8.0,A1Y6CQ2AJ882MO
827,0.0,right,right,1.0,1.3493,0.0,47.0,47.0,47.0,1.0,highway_204.jpg,highway_394.jpg,8.0,A1Y6CQ2AJ882MO
828,0.0,right,right,1.0,0.9899,0.0,48.0,48.0,48.0,1.0,highway_85.jpg,highway_93.jpg,8.0,A1Y6CQ2AJ882MO
829,0.0,left,left,1.0,2.3323,0.0,49.0,49.0,49.0,1.0,playground_117.jpg,playground_167.jpg,8.0,A1Y6CQ2AJ882MO
830,0.0,left,left,1.0,1.8394,0.0,50.0,50.0,50.0,1.0,golf_course_309.jpg,golf_course_16.jpg,7.0,A1Y6CQ2AJ882MO
831,0.0,right,right,1.0,1.6768,0.0,51.0,51.0,51.0,1.0,bridge_253.jpg,bridge_91.jpg,8.0,A1Y6CQ2AJ882MO
832,1.0,right,left,0.0,2.5934,0.0,52.0,52.0,52.0,1.0,highway_368.jpg,highway_294.jpg,7.0,A1Y6CQ2AJ882MO
833,1.0,right,right,1.0,1.8957,0.0,53.0,53.0,53.0,1.0,bridge_163.jpg,bridge_172.jpg,8.0,A1Y6CQ2AJ882MO
834,0.0,left,right,0.0,1.8376,0.0,54.0,54.0,54.0,1.0,bridge_191.jpg,bridge_184.jpg,8.0,A1Y6CQ2AJ882MO
835,1.0,right,left,0.0,2.6724,0.0,55.0,55.0,55.0,1.0,golf_course_123.jpg,golf_course_193.jpg,8.0,A1Y6CQ2AJ882MO
836,1.0,left,right,0.0,1.6117,0.0,56.0,56.0,56.0,1.0,badlands_113.jpg,badlands_203.jpg,8.0,A1Y6CQ2AJ882MO
837,0.0,left,left,1.0,1.6793,0.0,57.0,57.0,57.0,1.0,bridge_128.jpg,bridge_61.jpg,8.0,A1Y6CQ2AJ882MO
838,0.0,left,right,0.0,1.7505,0.0,58.0,58.0,58.0,1.0,badlands_222.jpg,badlands_34.jpg,8.0,A1Y6CQ2AJ882MO
839,1.0,left,right,0.0,1.5869,0.0,59.0,59.0,59.0,1.0,badlands_221.jpg,badlands_207.jpg,8.0,A1Y6CQ2AJ882MO
840,0.0,left,left,1.0,2.4518,0.0,0.0,0.0,0.0,1.0,golf_course_87.jpg,golf_course_130.jpg,9.0,A1SRSP0X39CGRW
841,1.0,left,left,1.0,0.1472,0.0,1.0,1.0,1.0,1.0,badlands_21.jpg,badlands_98.jpg,8.0,A1SRSP0X39CGRW
842,1.0,right,right,1.0,0.923,0.0,2.0,2.0,2.0,1.0,mountain_221.jpg,mountain_101.jpg,8.0,A1SRSP0X39CGRW
843,1.0,left,right,0.0,1.2935,0.0,3.0,3.0,3.0,1.0,highway_273.jpg,highway_171.jpg,8.0,A1SRSP0X39CGRW
844,1.0,right,right,1.0,0.0089,0.0,4.0,4.0,4.0,1.0,badlands_53.jpg,badlands_24.jpg,8.0,A1SRSP0X39CGRW
845,0.0,left,right,0.0,0.0092,0.0,5.0,5.0,5.0,1.0,bridge_250.jpg,bridge_134.jpg,8.0,A1SRSP0X39CGRW
846,0.0,left,right,0.0,0.3983,0.0,6.0,6.0,6.0,1.0,badlands_184.jpg,badlands_228.jpg,8.0,A1SRSP0X39CGRW
847,0.0,right,left,0.0,0.2331,0.0,7.0,7.0,7.0,1.0,badlands_114.jpg,badlands_23.jpg,8.0,A1SRSP0X39CGRW
848,1.0,left,right,0.0,0.2119,0.0,8.0,8.0,8.0,1.0,golf_course_217.jpg,golf_course_262.jpg,8.0,A1SRSP0X39CGRW
849,0.0,right,right,1.0,0.1105,0.0,9.0,9.0,9.0,1.0,highway_87.jpg,highway_177.jpg,8.0,A1SRSP0X39CGRW
850,0.0,left,right,0.0,0.0092,0.0,10.0,10.0,10.0,1.0,bridge_146.jpg,bridge_27.jpg,8.0,A1SRSP0X39CGRW
851,0.0,left,left,1.0,0.0087,0.0,11.0,11.0,11.0,1.0,bridge_172.jpg,bridge_17.jpg,8.0,A1SRSP0X39CGRW
852,1.0,right,left,0.0,0.0085,0.0,12.0,12.0,12.0,1.0,highway_293.jpg,highway_156.jpg,8.0,A1SRSP0X39CGRW
853,1.0,left,left,1.0,0.2155,0.0,13.0,13.0,13.0,1.0,mountain_156.jpg,mountain_295.jpg,8.0,A1SRSP0X39CGRW
854,1.0,right,left,0.0,0.0089,0.0,14.0,14.0,14.0,1.0,playground_72.jpg,playground_76.jpg,8.0,A1SRSP0X39CGRW
855,1.0,right,right,1.0,0.1132,0.0,15.0,15.0,15.0,1.0,golf_course_209.jpg,golf_course_309.jpg,8.0,A1SRSP0X39CGRW
856,1.0,right,left,0.0,0.1179,0.0,16.0,16.0,16.0,1.0,bridge_244.jpg,bridge_128.jpg,8.0,A1SRSP0X39CGRW
857,0.0,left,right,0.0,0.0094,0.0,17.0,17.0,17.0,1.0,playground_10.jpg,playground_122.jpg,8.0,A1SRSP0X39CGRW
858,0.0,right,right,1.0,0.1135,0.0,18.0,18.0,18.0,1.0,highway_314.jpg,highway_209.jpg,8.0,A1SRSP0X39CGRW
859,1.0,right,left,0.0,0.1868,0.0,19.0,19.0,19.0,1.0,playground_127.jpg,playground_117.jpg,8.0,A1SRSP0X39CGRW
860,0.0,left,right,0.0,0.0088,0.0,20.0,20.0,20.0,1.0,highway_245.jpg,highway_134.jpg,8.0,A1SRSP0X39CGRW
861,0.0,right,left,0.0,0.2026,0.0,21.0,21.0,21.0,1.0,playground_137.jpg,playground_144.jpg,8.0,A1SRSP0X39CGRW
862,1.0,right,left,0.0,0.0086,0.0,22.0,22.0,22.0,1.0,mountain_223.jpg,mountain_110.jpg,8.0,A1SRSP0X39CGRW
863,1.0,right,right,1.0,0.1162,0.0,23.0,23.0,23.0,1.0,bridge_38.jpg,bridge_202.jpg,8.0,A1SRSP0X39CGRW
864,1.0,right,left,0.0,0.1079,0.0,24.0,24.0,24.0,1.0,highway_368.jpg,highway_294.jpg,8.0,A1SRSP0X39CGRW
865,1.0,right,left,0.0,0.0098,0.0,25.0,25.0,25.0,1.0,playground_40.jpg,playground_240.jpg,8.0,A1SRSP0X39CGRW
866,0.0,right,right,1.0,0.0088,0.0,26.0,26.0,26.0,1.0,playground_43.jpg,playground_131.jpg,8.0,A1SRSP0X39CGRW
867,0.0,right,right,1.0,0.1135,0.0,27.0,27.0,27.0,1.0,playground_268.jpg,playground_60.jpg,8.0,A1SRSP0X39CGRW
868,0.0,right,right,1.0,0.1119,0.0,28.0,28.0,28.0,1.0,mountain_72.jpg,mountain_293.jpg,8.0,A1SRSP0X39CGRW
869,0.0,right,left,0.0,0.0089,0.0,29.0,29.0,29.0,1.0,golf_course_157.jpg,golf_course_188.jpg,8.0,A1SRSP0X39CGRW
870,1.0,left,right,0.0,0.0083,0.0,30.0,30.0,30.0,1.0,badlands_137.jpg,badlands_139.jpg,8.0,A1SRSP0X39CGRW
871,0.0,right,left,0.0,0.0094,0.0,31.0,31.0,31.0,1.0,bridge_181.jpg,bridge_65.jpg,8.0,A1SRSP0X39CGRW
872,0.0,right,right,1.0,0.0085,0.0,32.0,32.0,32.0,1.0,badlands_225.jpg,badlands_113.jpg,8.0,A1SRSP0X39CGRW
873,1.0,right,left,0.0,0.009,0.0,33.0,33.0,33.0,1.0,golf_course_2.jpg,golf_course_195.jpg,8.0,A1SRSP0X39CGRW
874,1.0,left,left,1.0,1.8319,0.0,34.0,34.0,34.0,1.0,mountain_57.jpg,mountain_138.jpg,8.0,A1SRSP0X39CGRW
875,1.0,left,left,1.0,0.1088,0.0,35.0,35.0,35.0,1.0,bridge_191.jpg,bridge_75.jpg,8.0,A1SRSP0X39CGRW
876,1.0,right,right,1.0,0.3077,0.0,36.0,36.0,36.0,1.0,highway_369.jpg,highway_93.jpg,8.0,A1SRSP0X39CGRW
877,0.0,right,left,0.0,0.2172,0.0,37.0,37.0,37.0,1.0,golf_course_114.jpg,golf_course_331.jpg,8.0,A1SRSP0X39CGRW
878,1.0,left,right,0.0,0.115,0.0,38.0,38.0,38.0,1.0,playground_257.jpg,playground_215.jpg,8.0,A1SRSP0X39CGRW
879,0.0,right,right,1.0,0.0085,0.0,39.0,39.0,39.0,1.0,badlands_115.jpg,badlands_221.jpg,8.0,A1SRSP0X39CGRW
880,0.0,right,left,0.0,0.1042,0.0,40.0,40.0,40.0,1.0,mountain_94.jpg,mountain_123.jpg,8.0,A1SRSP0X39CGRW
881,0.0,right,left,0.0,2.1346,0.0,41.0,41.0,41.0,1.0,badlands_102.jpg,badlands_70.jpg,8.0,A1SRSP0X39CGRW
882,1.0,left,left,1.0,0.1976,0.0,42.0,42.0,42.0,1.0,bridge_91.jpg,bridge_82.jpg,8.0,A1SRSP0X39CGRW
883,1.0,left,left,1.0,0.1074,0.0,43.0,43.0,43.0,1.0,highway_415.jpg,highway_174.jpg,8.0,A1SRSP0X39CGRW
884,0.0,left,right,0.0,0.1076,0.0,44.0,44.0,44.0,1.0,highway_394.jpg,highway_204.jpg,8.0,A1SRSP0X39CGRW
885,0.0,right,right,1.0,1.0217,0.0,45.0,45.0,45.0,1.0,mountain_131.jpg,mountain_154.jpg,8.0,A1SRSP0X39CGRW
886,1.0,right,right,1.0,0.1161,0.0,46.0,46.0,46.0,1.0,playground_205.jpg,playground_219.jpg,8.0,A1SRSP0X39CGRW
887,0.0,right,right,1.0,0.1139,0.0,47.0,47.0,47.0,1.0,golf_course_235.jpg,golf_course_193.jpg,8.0,A1SRSP0X39CGRW
888,0.0,left,right,0.0,0.2199,0.0,48.0,48.0,48.0,1.0,bridge_256.jpg,bridge_54.jpg,8.0,A1SRSP0X39CGRW
889,1.0,right,right,1.0,0.1051,0.0,49.0,49.0,49.0,1.0,golf_course_317.jpg,golf_course_214.jpg,8.0,A1SRSP0X39CGRW
890,0.0,left,right,0.0,0.1051,0.0,50.0,50.0,50.0,1.0,playground_145.jpg,playground_229.jpg,8.0,A1SRSP0X39CGRW
891,0.0,right,left,0.0,0.1089,0.0,51.0,51.0,51.0,1.0,mountain_184.jpg,mountain_230.jpg,8.0,A1SRSP0X39CGRW
892,1.0,right,left,0.0,0.1102,0.0,52.0,52.0,52.0,1.0,badlands_63.jpg,badlands_52.jpg,8.0,A1SRSP0X39CGRW
893,1.0,right,right,1.0,0.0091,0.0,53.0,53.0,53.0,1.0,mountain_93.jpg,mountain_222.jpg,8.0,A1SRSP0X39CGRW
894,0.0,left,left,1.0,0.118,0.0,54.0,54.0,54.0,1.0,highway_359.jpg,highway_389.jpg,8.0,A1SRSP0X39CGRW
895,0.0,right,right,1.0,0.0104,0.0,55.0,55.0,55.0,1.0,mountain_3.jpg,mountain_232.jpg,8.0,A1SRSP0X39CGRW
896,1.0,right,left,0.0,0.121,0.0,56.0,56.0,56.0,1.0,golf_course_101.jpg,golf_course_78.jpg,8.0,A1SRSP0X39CGRW
897,0.0,right,left,0.0,0.0087,0.0,57.0,57.0,57.0,1.0,golf_course_113.jpg,golf_course_15.jpg,8.0,A1SRSP0X39CGRW
898,1.0,right,left,0.0,0.0097,0.0,58.0,58.0,58.0,1.0,badlands_62.jpg,badlands_222.jpg,8.0,A1SRSP0X39CGRW
899,1.0,right,right,1.0,0.0089,0.0,59.0,59.0,59.0,1.0,bridge_148.jpg,bridge_108.jpg,8.0,A1SRSP0X39CGRW
900,1.0,left,right,0.0,11.1822,0.0,0.0,0.0,0.0,1.0,highway_415.jpg,highway_174.jpg,6.0,A3A7ZQXHKZQ71I
901,1.0,right,right,1.0,3.7751,0.0,1.0,1.0,1.0,1.0,bridge_148.jpg,bridge_108.jpg,4.0,A3A7ZQXHKZQ71I
902,1.0,left,right,0.0,1.9328,0.0,2.0,2.0,2.0,1.0,badlands_184.jpg,badlands_103.jpg,5.0,A3A7ZQXHKZQ71I
903,1.0,left,right,0.0,2.3754,0.0,3.0,3.0,3.0,1.0,highway_209.jpg,highway_122.jpg,6.0,A3A7ZQXHKZQ71I
904,0.0,right,right,1.0,1.9235,0.0,4.0,4.0,4.0,1.0,highway_85.jpg,highway_93.jpg,7.0,A3A7ZQXHKZQ71I
905,0.0,left,right,0.0,1.6216,0.0,5.0,5.0,5.0,1.0,badlands_21.jpg,badlands_1.jpg,3.0,A3A7ZQXHKZQ71I
906,0.0,left,right,0.0,1.3984,0.0,6.0,6.0,6.0,1.0,highway_156.jpg,highway_160.jpg,6.0,A3A7ZQXHKZQ71I
907,0.0,right,right,1.0,3.0762,0.0,7.0,7.0,7.0,1.0,playground_214.jpg,playground_257.jpg,9.0,A3A7ZQXHKZQ71I
908,0.0,right,right,1.0,1.3104,0.0,8.0,8.0,8.0,1.0,golf_course_235.jpg,golf_course_193.jpg,2.0,A3A7ZQXHKZQ71I
909,1.0,right,right,1.0,1.5402,0.0,9.0,9.0,9.0,1.0,bridge_211.jpg,bridge_256.jpg,7.0,A3A7ZQXHKZQ71I
910,0.0,left,right,0.0,1.5839,0.0,10.0,10.0,10.0,1.0,playground_117.jpg,playground_167.jpg,9.0,A3A7ZQXHKZQ71I
911,1.0,left,right,0.0,1.451,0.0,11.0,11.0,11.0,1.0,playground_131.jpg,playground_164.jpg,7.0,A3A7ZQXHKZQ71I
912,1.0,right,right,1.0,1.7477,0.0,12.0,12.0,12.0,1.0,golf_course_161.jpg,golf_course_87.jpg,6.0,A3A7ZQXHKZQ71I
913,0.0,right,right,1.0,1.2234,0.0,13.0,13.0,13.0,1.0,bridge_17.jpg,bridge_172.jpg,3.0,A3A7ZQXHKZQ71I
914,0.0,left,right,0.0,1.0751,0.0,14.0,14.0,14.0,1.0,mountain_123.jpg,mountain_94.jpg,3.0,A3A7ZQXHKZQ71I
915,1.0,right,right,1.0,1.2361,0.0,15.0,15.0,15.0,1.0,golf_course_101.jpg,golf_course_78.jpg,5.0,A3A7ZQXHKZQ71I
916,1.0,right,right,1.0,0.9915,0.0,16.0,16.0,16.0,1.0,playground_12.jpg,playground_10.jpg,7.0,A3A7ZQXHKZQ71I
917,1.0,right,right,1.0,1.5182,0.0,17.0,17.0,17.0,1.0,mountain_54.jpg,mountain_232.jpg,5.0,A3A7ZQXHKZQ71I
918,1.0,left,right,0.0,0.9822,0.0,18.0,18.0,18.0,1.0,mountain_110.jpg,mountain_223.jpg,7.0,A3A7ZQXHKZQ71I
919,0.0,left,right,0.0,1.6104,0.0,19.0,19.0,19.0,1.0,badlands_113.jpg,badlands_225.jpg,8.0,A3A7ZQXHKZQ71I
920,0.0,right,right,1.0,1.437,0.0,20.0,20.0,20.0,1.0,playground_21.jpg,playground_219.jpg,8.0,A3A7ZQXHKZQ71I
921,0.0,left,right,0.0,1.4669,0.0,21.0,21.0,21.0,1.0,mountain_222.jpg,mountain_244.jpg,5.0,A3A7ZQXHKZQ71I
922,0.0,left,right,0.0,1.0643,0.0,22.0,22.0,22.0,1.0,mountain_293.jpg,mountain_72.jpg,4.0,A3A7ZQXHKZQ71I
923,0.0,left,right,0.0,1.4603,0.0,23.0,23.0,23.0,1.0,golf_course_217.jpg,golf_course_35.jpg,2.0,A3A7ZQXHKZQ71I
924,0.0,right,right,1.0,1.0068,0.0,24.0,24.0,24.0,1.0,bridge_181.jpg,bridge_65.jpg,6.0,A3A7ZQXHKZQ71I
925,0.0,left,right,0.0,1.6791,0.0,25.0,25.0,25.0,1.0,highway_177.jpg,highway_87.jpg,6.0,A3A7ZQXHKZQ71I
926,1.0,right,right,1.0,1.3697,0.0,26.0,26.0,26.0,1.0,badlands_207.jpg,badlands_221.jpg,3.0,A3A7ZQXHKZQ71I
927,1.0,left,right,0.0,1.6709,0.0,27.0,27.0,27.0,1.0,badlands_222.jpg,badlands_62.jpg,4.0,A3A7ZQXHKZQ71I
928,1.0,left,right,0.0,1.5944,0.0,28.0,28.0,28.0,1.0,mountain_154.jpg,mountain_95.jpg,4.0,A3A7ZQXHKZQ71I
929,1.0,left,right,0.0,6.3738,0.0,29.0,29.0,29.0,1.0,highway_294.jpg,highway_368.jpg,7.0,A3A7ZQXHKZQ71I
930,1.0,right,right,1.0,1.5269,0.0,30.0,30.0,30.0,1.0,playground_65.jpg,playground_144.jpg,8.0,A3A7ZQXHKZQ71I
931,0.0,right,right,1.0,3.715,0.0,31.0,31.0,31.0,1.0,badlands_194.jpg,badlands_137.jpg,4.0,A3A7ZQXHKZQ71I
932,1.0,right,right,1.0,1.6781,0.0,32.0,32.0,32.0,1.0,playground_242.jpg,playground_145.jpg,2.0,A3A7ZQXHKZQ71I
933,1.0,right,right,1.0,2.7124,0.0,33.0,33.0,33.0,1.0,golf_course_97.jpg,golf_course_15.jpg,7.0,A3A7ZQXHKZQ71I
934,0.0,right,right,1.0,1.4546,0.0,34.0,34.0,34.0,1.0,golf_course_16.jpg,golf_course_309.jpg,4.0,A3A7ZQXHKZQ71I
935,1.0,left,right,0.0,1.8856,0.0,35.0,35.0,35.0,1.0,golf_course_195.jpg,golf_course_2.jpg,5.0,A3A7ZQXHKZQ71I
936,1.0,left,right,0.0,2.0589,0.0,36.0,36.0,36.0,1.0,badlands_70.jpg,badlands_119.jpg,8.0,A3A7ZQXHKZQ71I
937,0.0,right,right,1.0,2.4295,0.0,37.0,37.0,37.0,1.0,badlands_3.jpg,badlands_24.jpg,6.0,A3A7ZQXHKZQ71I
938,0.0,right,right,1.0,1.7663,0.0,38.0,38.0,38.0,1.0,playground_22.jpg,playground_76.jpg,9.0,A3A7ZQXHKZQ71I
939,1.0,right,right,1.0,1.4776,0.0,39.0,39.0,39.0,1.0,mountain_138.jpg,mountain_57.jpg,9.0,A3A7ZQXHKZQ71I
940,0.0,right,right,1.0,4.1074,0.0,40.0,40.0,40.0,1.0,highway_389.jpg,highway_359.jpg,9.0,A3A7ZQXHKZQ71I
941,0.0,right,right,1.0,2.7955,0.0,41.0,41.0,41.0,1.0,highway_204.jpg,highway_394.jpg,9.0,A3A7ZQXHKZQ71I
942,0.0,right,right,1.0,1.6039,0.0,42.0,42.0,42.0,1.0,golf_course_157.jpg,golf_course_188.jpg,4.0,A3A7ZQXHKZQ71I
943,0.0,left,right,0.0,1.5248,0.0,43.0,43.0,43.0,1.0,bridge_128.jpg,bridge_61.jpg,5.0,A3A7ZQXHKZQ71I
944,0.0,right,right,1.0,1.2231,0.0,44.0,44.0,44.0,1.0,playground_268.jpg,playground_60.jpg,9.0,A3A7ZQXHKZQ71I
945,0.0,left,right,0.0,1.745,0.0,45.0,45.0,45.0,1.0,mountain_101.jpg,mountain_171.jpg,6.0,A3A7ZQXHKZQ71I
946,1.0,right,right,1.0,1.231,0.0,46.0,46.0,46.0,1.0,bridge_75.jpg,bridge_191.jpg,5.0,A3A7ZQXHKZQ71I
947,0.0,left,right,0.0,2.5032,0.0,47.0,47.0,47.0,1.0,golf_course_331.jpg,golf_course_114.jpg,7.0,A3A7ZQXHKZQ71I
948,0.0,left,right,0.0,1.3789,0.0,48.0,48.0,48.0,1.0,badlands_23.jpg,badlands_114.jpg,8.0,A3A7ZQXHKZQ71I
949,1.0,right,right,1.0,1.004,0.0,49.0,49.0,49.0,1.0,bridge_82.jpg,bridge_91.jpg,3.0,A3A7ZQXHKZQ71I
