,index,test_encoding_response.keys,test_encoding_response.corr,trials.thisTrialN,target,category,correct,test_encoding_response.rt,key_resp_end.keys,subject
0,20,,1.0,0.0,bridge_108.jpg,bridge,,,,AC5PVOOS79W2B
1,21,,1.0,1.0,playground_257.jpg,playground,,,,AC5PVOOS79W2B
2,22,,1.0,2.0,highway_359.jpg,highway,,,,AC5PVOOS79W2B
3,23,,1.0,3.0,badlands_222.jpg,badlands,,,,AC5PVOOS79W2B
4,24,,1.0,4.0,playground_10.jpg,playground,,,,AC5PVOOS79W2B
5,25,,1.0,5.0,bridge_128.jpg,bridge,,,,AC5PVOOS79W2B
6,26,,1.0,6.0,bridge_172.jpg,bridge,,,,AC5PVOOS79W2B
7,27,,1.0,7.0,bridge_91.jpg,bridge,,,,AC5PVOOS79W2B
8,28,,1.0,8.0,mountain_57.jpg,mountain,,,,AC5PVOOS79W2B
9,29,,1.0,9.0,badlands_137.jpg,badlands,,,,AC5PVOOS79W2B
10,30,left,1.0,10.0,left.jpg,,left,0.6097,,AC5PVOOS79W2B
11,31,,1.0,11.0,badlands_52.jpg,badlands,,,,AC5PVOOS79W2B
12,32,,1.0,12.0,badlands_113.jpg,badlands,,,,AC5PVOOS79W2B
13,33,,1.0,13.0,playground_76.jpg,playground,,,,AC5PVOOS79W2B
14,34,,1.0,14.0,bridge_202.jpg,bridge,,,,AC5PVOOS79W2B
15,35,,1.0,15.0,badlands_221.jpg,badlands,,,,AC5PVOOS79W2B
16,36,,1.0,16.0,mountain_101.jpg,mountain,,,,AC5PVOOS79W2B
17,37,,1.0,17.0,playground_60.jpg,playground,,,,AC5PVOOS79W2B
18,38,,1.0,18.0,mountain_154.jpg,mountain,,,,AC5PVOOS79W2B
19,39,,1.0,19.0,badlands_24.jpg,badlands,,,,AC5PVOOS79W2B
20,40,,1.0,20.0,mountain_293.jpg,mountain,,,,AC5PVOOS79W2B
21,41,,1.0,21.0,highway_177.jpg,highway,,,,AC5PVOOS79W2B
22,42,,1.0,22.0,mountain_110.jpg,mountain,,,,AC5PVOOS79W2B
23,43,right,1.0,23.0,right.jpg,,right,1.2363,,AC5PVOOS79W2B
24,44,,1.0,24.0,playground_240.jpg,playground,,,,AC5PVOOS79W2B
25,45,,1.0,25.0,highway_415.jpg,highway,,,,AC5PVOOS79W2B
26,46,right,1.0,26.0,right.jpg,,right,0.5298,,AC5PVOOS79W2B
27,47,,1.0,27.0,highway_394.jpg,highway,,,,AC5PVOOS79W2B
28,48,,1.0,28.0,golf_course_78.jpg,golf,,,,AC5PVOOS79W2B
29,49,,1.0,29.0,golf_course_331.jpg,golf,,,,AC5PVOOS79W2B
30,50,,1.0,30.0,bridge_146.jpg,bridge,,,,AC5PVOOS79W2B
31,51,,1.0,31.0,highway_156.jpg,highway,,,,AC5PVOOS79W2B
32,52,,1.0,32.0,golf_course_217.jpg,golf,,,,AC5PVOOS79W2B
33,53,,1.0,33.0,badlands_70.jpg,badlands,,,,AC5PVOOS79W2B
34,54,,1.0,34.0,golf_course_87.jpg,golf,,,,AC5PVOOS79W2B
35,55,,1.0,35.0,highway_209.jpg,highway,,,,AC5PVOOS79W2B
36,56,,1.0,36.0,playground_117.jpg,playground,,,,AC5PVOOS79W2B
37,57,,1.0,37.0,badlands_21.jpg,badlands,,,,AC5PVOOS79W2B
38,58,,1.0,38.0,bridge_256.jpg,bridge,,,,AC5PVOOS79W2B
39,59,,1.0,39.0,bridge_250.jpg,bridge,,,,AC5PVOOS79W2B
40,60,,1.0,40.0,golf_course_193.jpg,golf,,,,AC5PVOOS79W2B
41,61,left,1.0,41.0,left.jpg,,left,0.5772,,AC5PVOOS79W2B
42,62,,1.0,42.0,bridge_65.jpg,bridge,,,,AC5PVOOS79W2B
43,63,,1.0,43.0,highway_245.jpg,highway,,,,AC5PVOOS79W2B
44,64,,1.0,44.0,playground_131.jpg,playground,,,,AC5PVOOS79W2B
45,65,,1.0,45.0,golf_course_195.jpg,golf,,,,AC5PVOOS79W2B
46,66,,1.0,46.0,bridge_191.jpg,bridge,,,,AC5PVOOS79W2B
47,67,,1.0,47.0,mountain_123.jpg,mountain,,,,AC5PVOOS79W2B
48,68,,1.0,48.0,mountain_230.jpg,mountain,,,,AC5PVOOS79W2B
49,69,,1.0,49.0,highway_93.jpg,highway,,,,AC5PVOOS79W2B
50,70,,1.0,50.0,badlands_23.jpg,badlands,,,,AC5PVOOS79W2B
51,71,left,1.0,51.0,left.jpg,,left,1.0795,,AC5PVOOS79W2B
52,72,,1.0,52.0,mountain_156.jpg,mountain,,,,AC5PVOOS79W2B
53,73,,1.0,53.0,highway_273.jpg,highway,,,,AC5PVOOS79W2B
54,74,,1.0,54.0,badlands_184.jpg,badlands,,,,AC5PVOOS79W2B
55,75,,1.0,55.0,highway_294.jpg,highway,,,,AC5PVOOS79W2B
56,76,,1.0,56.0,golf_course_309.jpg,golf,,,,AC5PVOOS79W2B
57,77,,1.0,57.0,mountain_232.jpg,mountain,,,,AC5PVOOS79W2B
58,78,,1.0,58.0,playground_145.jpg,playground,,,,AC5PVOOS79W2B
59,79,,1.0,59.0,golf_course_214.jpg,golf,,,,AC5PVOOS79W2B
60,80,,1.0,60.0,playground_219.jpg,playground,,,,AC5PVOOS79W2B
61,81,,1.0,61.0,golf_course_188.jpg,golf,,,,AC5PVOOS79W2B
62,82,,1.0,62.0,mountain_222.jpg,mountain,,,,AC5PVOOS79W2B
63,83,,1.0,63.0,golf_course_15.jpg,golf,,,,AC5PVOOS79W2B
64,84,,1.0,64.0,playground_144.jpg,playground,,,,AC5PVOOS79W2B
65,20,,1.0,0.0,highway_273.jpg,highway,,,,A1KRXY4629AK58
66,21,,1.0,1.0,mountain_123.jpg,mountain,,,,A1KRXY4629AK58
67,22,,1.0,2.0,highway_294.jpg,highway,,,,A1KRXY4629AK58
68,23,,1.0,3.0,mountain_101.jpg,mountain,,,,A1KRXY4629AK58
69,24,,1.0,4.0,mountain_222.jpg,mountain,,,,A1KRXY4629AK58
70,25,,1.0,5.0,highway_415.jpg,highway,,,,A1KRXY4629AK58
71,26,right,1.0,6.0,right.jpg,,right,1.506,,A1KRXY4629AK58
72,27,,1.0,7.0,bridge_128.jpg,bridge,,,,A1KRXY4629AK58
73,28,,1.0,8.0,highway_245.jpg,highway,,,,A1KRXY4629AK58
74,29,,1.0,9.0,playground_117.jpg,playground,,,,A1KRXY4629AK58
75,30,,1.0,10.0,golf_course_214.jpg,golf,,,,A1KRXY4629AK58
76,31,,1.0,11.0,golf_course_331.jpg,golf,,,,A1KRXY4629AK58
77,32,,1.0,12.0,badlands_24.jpg,badlands,,,,A1KRXY4629AK58
78,33,,1.0,13.0,bridge_202.jpg,bridge,,,,A1KRXY4629AK58
79,34,,1.0,14.0,golf_course_87.jpg,golf,,,,A1KRXY4629AK58
80,35,,1.0,15.0,bridge_250.jpg,bridge,,,,A1KRXY4629AK58
81,36,,1.0,16.0,badlands_21.jpg,badlands,,,,A1KRXY4629AK58
82,37,,1.0,17.0,playground_131.jpg,playground,,,,A1KRXY4629AK58
83,38,,1.0,18.0,golf_course_195.jpg,golf,,,,A1KRXY4629AK58
84,39,,1.0,19.0,bridge_146.jpg,bridge,,,,A1KRXY4629AK58
85,40,,1.0,20.0,highway_156.jpg,highway,,,,A1KRXY4629AK58
86,41,,1.0,21.0,golf_course_193.jpg,golf,,,,A1KRXY4629AK58
87,42,left,1.0,22.0,left.jpg,,left,1.091,,A1KRXY4629AK58
88,43,,1.0,23.0,playground_257.jpg,playground,,,,A1KRXY4629AK58
89,44,,1.0,24.0,golf_course_15.jpg,golf,,,,A1KRXY4629AK58
90,45,,1.0,25.0,badlands_113.jpg,badlands,,,,A1KRXY4629AK58
91,46,,1.0,26.0,bridge_172.jpg,bridge,,,,A1KRXY4629AK58
92,47,,1.0,27.0,mountain_230.jpg,mountain,,,,A1KRXY4629AK58
93,48,,1.0,28.0,bridge_108.jpg,bridge,,,,A1KRXY4629AK58
94,49,left,1.0,29.0,left.jpg,,left,1.091,,A1KRXY4629AK58
95,50,,1.0,30.0,golf_course_217.jpg,golf,,,,A1KRXY4629AK58
96,51,,1.0,31.0,highway_93.jpg,highway,,,,A1KRXY4629AK58
97,52,,1.0,32.0,bridge_65.jpg,bridge,,,,A1KRXY4629AK58
98,53,,1.0,33.0,mountain_154.jpg,mountain,,,,A1KRXY4629AK58
99,54,,1.0,34.0,mountain_293.jpg,mountain,,,,A1KRXY4629AK58
100,55,,1.0,35.0,mountain_232.jpg,mountain,,,,A1KRXY4629AK58
101,56,,1.0,36.0,playground_10.jpg,playground,,,,A1KRXY4629AK58
102,57,,1.0,37.0,mountain_57.jpg,mountain,,,,A1KRXY4629AK58
103,58,,1.0,38.0,badlands_184.jpg,badlands,,,,A1KRXY4629AK58
104,59,,1.0,39.0,golf_course_78.jpg,golf,,,,A1KRXY4629AK58
105,60,,1.0,40.0,mountain_110.jpg,mountain,,,,A1KRXY4629AK58
106,61,,1.0,41.0,badlands_52.jpg,badlands,,,,A1KRXY4629AK58
107,62,,1.0,42.0,playground_60.jpg,playground,,,,A1KRXY4629AK58
108,63,,1.0,43.0,highway_394.jpg,highway,,,,A1KRXY4629AK58
109,64,right,1.0,44.0,right.jpg,,right,1.147,,A1KRXY4629AK58
110,65,,1.0,45.0,badlands_70.jpg,badlands,,,,A1KRXY4629AK58
111,66,,1.0,46.0,badlands_222.jpg,badlands,,,,A1KRXY4629AK58
112,67,,1.0,47.0,bridge_91.jpg,bridge,,,,A1KRXY4629AK58
113,68,,1.0,48.0,playground_219.jpg,playground,,,,A1KRXY4629AK58
114,69,,1.0,49.0,playground_240.jpg,playground,,,,A1KRXY4629AK58
115,70,,1.0,50.0,playground_144.jpg,playground,,,,A1KRXY4629AK58
116,71,,1.0,51.0,badlands_221.jpg,badlands,,,,A1KRXY4629AK58
117,72,,1.0,52.0,highway_177.jpg,highway,,,,A1KRXY4629AK58
118,73,,1.0,53.0,highway_359.jpg,highway,,,,A1KRXY4629AK58
119,74,right,1.0,54.0,right.jpg,,right,1.282,,A1KRXY4629AK58
120,75,,1.0,55.0,mountain_156.jpg,mountain,,,,A1KRXY4629AK58
121,76,,1.0,56.0,badlands_137.jpg,badlands,,,,A1KRXY4629AK58
122,77,,1.0,57.0,playground_145.jpg,playground,,,,A1KRXY4629AK58
123,78,,1.0,58.0,playground_76.jpg,playground,,,,A1KRXY4629AK58
124,79,,1.0,59.0,golf_course_188.jpg,golf,,,,A1KRXY4629AK58
125,80,,1.0,60.0,golf_course_309.jpg,golf,,,,A1KRXY4629AK58
126,81,,1.0,61.0,bridge_191.jpg,bridge,,,,A1KRXY4629AK58
127,82,,1.0,62.0,bridge_256.jpg,bridge,,,,A1KRXY4629AK58
128,83,,1.0,63.0,badlands_23.jpg,badlands,,,,A1KRXY4629AK58
129,84,,1.0,64.0,highway_209.jpg,highway,,,,A1KRXY4629AK58
130,20,,1.0,0.0,badlands_222.jpg,badlands,,,,A3C5TMQP0L94K4
131,21,,1.0,1.0,playground_257.jpg,playground,,,,A3C5TMQP0L94K4
132,22,,1.0,2.0,badlands_113.jpg,badlands,,,,A3C5TMQP0L94K4
133,23,,1.0,3.0,golf_course_195.jpg,golf,,,,A3C5TMQP0L94K4
134,24,,1.0,4.0,badlands_52.jpg,badlands,,,,A3C5TMQP0L94K4
135,25,,1.0,5.0,bridge_65.jpg,bridge,,,,A3C5TMQP0L94K4
136,26,,1.0,6.0,badlands_21.jpg,badlands,,,,A3C5TMQP0L94K4
137,27,,1.0,7.0,golf_course_78.jpg,golf,,,,A3C5TMQP0L94K4
138,28,,1.0,8.0,golf_course_309.jpg,golf,,,,A3C5TMQP0L94K4
139,29,right,1.0,9.0,right.jpg,,right,1.0297,,A3C5TMQP0L94K4
140,30,,1.0,10.0,highway_294.jpg,highway,,,,A3C5TMQP0L94K4
141,31,,1.0,11.0,badlands_221.jpg,badlands,,,,A3C5TMQP0L94K4
142,32,,1.0,12.0,bridge_146.jpg,bridge,,,,A3C5TMQP0L94K4
143,33,,1.0,13.0,mountain_293.jpg,mountain,,,,A3C5TMQP0L94K4
144,34,,1.0,14.0,bridge_172.jpg,bridge,,,,A3C5TMQP0L94K4
145,35,,1.0,15.0,bridge_91.jpg,bridge,,,,A3C5TMQP0L94K4
146,36,,1.0,16.0,mountain_101.jpg,mountain,,,,A3C5TMQP0L94K4
147,37,,1.0,17.0,playground_131.jpg,playground,,,,A3C5TMQP0L94K4
148,38,,1.0,18.0,golf_course_214.jpg,golf,,,,A3C5TMQP0L94K4
149,39,,1.0,19.0,playground_60.jpg,playground,,,,A3C5TMQP0L94K4
150,40,,1.0,20.0,golf_course_193.jpg,golf,,,,A3C5TMQP0L94K4
151,41,left,1.0,21.0,left.jpg,,left,1.0945,,A3C5TMQP0L94K4
152,42,,1.0,22.0,mountain_154.jpg,mountain,,,,A3C5TMQP0L94K4
153,43,,1.0,23.0,badlands_24.jpg,badlands,,,,A3C5TMQP0L94K4
154,44,,1.0,24.0,playground_145.jpg,playground,,,,A3C5TMQP0L94K4
155,45,,1.0,25.0,mountain_110.jpg,mountain,,,,A3C5TMQP0L94K4
156,46,,1.0,26.0,mountain_222.jpg,mountain,,,,A3C5TMQP0L94K4
157,47,,1.0,27.0,highway_245.jpg,highway,,,,A3C5TMQP0L94K4
158,48,,1.0,28.0,golf_course_15.jpg,golf,,,,A3C5TMQP0L94K4
159,49,,1.0,29.0,golf_course_331.jpg,golf,,,,A3C5TMQP0L94K4
160,50,,1.0,30.0,badlands_23.jpg,badlands,,,,A3C5TMQP0L94K4
161,51,,1.0,31.0,highway_415.jpg,highway,,,,A3C5TMQP0L94K4
162,52,left,1.0,32.0,left.jpg,,left,1.0885,,A3C5TMQP0L94K4
163,53,,1.0,33.0,bridge_108.jpg,bridge,,,,A3C5TMQP0L94K4
164,54,,1.0,34.0,playground_240.jpg,playground,,,,A3C5TMQP0L94K4
165,55,,1.0,35.0,golf_course_87.jpg,golf,,,,A3C5TMQP0L94K4
166,56,,1.0,36.0,highway_177.jpg,highway,,,,A3C5TMQP0L94K4
167,57,,1.0,37.0,bridge_128.jpg,bridge,,,,A3C5TMQP0L94K4
168,58,,1.0,38.0,mountain_156.jpg,mountain,,,,A3C5TMQP0L94K4
169,59,,1.0,39.0,highway_93.jpg,highway,,,,A3C5TMQP0L94K4
170,60,,1.0,40.0,bridge_191.jpg,bridge,,,,A3C5TMQP0L94K4
171,61,,1.0,41.0,highway_156.jpg,highway,,,,A3C5TMQP0L94K4
172,62,,1.0,42.0,playground_10.jpg,playground,,,,A3C5TMQP0L94K4
173,63,right,1.0,43.0,right.jpg,,right,1.0971,,A3C5TMQP0L94K4
174,64,,1.0,44.0,highway_273.jpg,highway,,,,A3C5TMQP0L94K4
175,65,,1.0,45.0,golf_course_188.jpg,golf,,,,A3C5TMQP0L94K4
176,66,,1.0,46.0,playground_219.jpg,playground,,,,A3C5TMQP0L94K4
177,67,,1.0,47.0,bridge_256.jpg,bridge,,,,A3C5TMQP0L94K4
178,68,,1.0,48.0,highway_209.jpg,highway,,,,A3C5TMQP0L94K4
179,69,,1.0,49.0,mountain_232.jpg,mountain,,,,A3C5TMQP0L94K4
180,70,,1.0,50.0,playground_76.jpg,playground,,,,A3C5TMQP0L94K4
181,71,,1.0,51.0,playground_117.jpg,playground,,,,A3C5TMQP0L94K4
182,72,right,1.0,52.0,right.jpg,,right,1.0785,,A3C5TMQP0L94K4
183,73,,1.0,53.0,badlands_70.jpg,badlands,,,,A3C5TMQP0L94K4
184,74,,1.0,54.0,highway_394.jpg,highway,,,,A3C5TMQP0L94K4
185,75,,1.0,55.0,badlands_184.jpg,badlands,,,,A3C5TMQP0L94K4
186,76,,1.0,56.0,playground_144.jpg,playground,,,,A3C5TMQP0L94K4
187,77,,1.0,57.0,mountain_57.jpg,mountain,,,,A3C5TMQP0L94K4
188,78,,1.0,58.0,highway_359.jpg,highway,,,,A3C5TMQP0L94K4
189,79,,1.0,59.0,mountain_123.jpg,mountain,,,,A3C5TMQP0L94K4
190,80,,1.0,60.0,mountain_230.jpg,mountain,,,,A3C5TMQP0L94K4
191,81,,1.0,61.0,badlands_137.jpg,badlands,,,,A3C5TMQP0L94K4
192,82,,1.0,62.0,bridge_202.jpg,bridge,,,,A3C5TMQP0L94K4
193,83,,1.0,63.0,golf_course_217.jpg,golf,,,,A3C5TMQP0L94K4
194,84,,1.0,64.0,bridge_250.jpg,bridge,,,,A3C5TMQP0L94K4
195,20,,1.0,0.0,bridge_256.jpg,bridge,,,,A1I7H6RDJS4EKN
196,21,,1.0,1.0,highway_359.jpg,highway,,,,A1I7H6RDJS4EKN
197,22,,1.0,2.0,badlands_70.jpg,badlands,,,,A1I7H6RDJS4EKN
198,23,,1.0,3.0,mountain_222.jpg,mountain,,,,A1I7H6RDJS4EKN
199,24,,1.0,4.0,playground_76.jpg,playground,,,,A1I7H6RDJS4EKN
200,25,,1.0,5.0,bridge_250.jpg,bridge,,,,A1I7H6RDJS4EKN
201,26,,1.0,6.0,mountain_232.jpg,mountain,,,,A1I7H6RDJS4EKN
202,27,,1.0,7.0,badlands_21.jpg,badlands,,,,A1I7H6RDJS4EKN
203,28,,1.0,8.0,golf_course_309.jpg,golf,,,,A1I7H6RDJS4EKN
204,29,,1.0,9.0,highway_415.jpg,highway,,,,A1I7H6RDJS4EKN
205,30,,1.0,10.0,mountain_154.jpg,mountain,,,,A1I7H6RDJS4EKN
206,31,,1.0,11.0,bridge_128.jpg,bridge,,,,A1I7H6RDJS4EKN
207,32,,1.0,12.0,highway_273.jpg,highway,,,,A1I7H6RDJS4EKN
208,33,,1.0,13.0,bridge_202.jpg,bridge,,,,A1I7H6RDJS4EKN
209,34,right,1.0,14.0,right.jpg,,right,0.922,,A1I7H6RDJS4EKN
210,35,,1.0,15.0,mountain_110.jpg,mountain,,,,A1I7H6RDJS4EKN
211,36,,1.0,16.0,bridge_191.jpg,bridge,,,,A1I7H6RDJS4EKN
212,37,,1.0,17.0,badlands_113.jpg,badlands,,,,A1I7H6RDJS4EKN
213,38,left,1.0,18.0,left.jpg,,left,0.771,,A1I7H6RDJS4EKN
214,39,,1.0,19.0,golf_course_195.jpg,golf,,,,A1I7H6RDJS4EKN
215,40,,1.0,20.0,playground_60.jpg,playground,,,,A1I7H6RDJS4EKN
216,41,,1.0,21.0,mountain_101.jpg,mountain,,,,A1I7H6RDJS4EKN
217,42,,1.0,22.0,golf_course_217.jpg,golf,,,,A1I7H6RDJS4EKN
218,43,,1.0,23.0,golf_course_331.jpg,golf,,,,A1I7H6RDJS4EKN
219,44,,1.0,24.0,mountain_123.jpg,mountain,,,,A1I7H6RDJS4EKN
220,45,,1.0,25.0,playground_145.jpg,playground,,,,A1I7H6RDJS4EKN
221,46,,1.0,26.0,highway_245.jpg,highway,,,,A1I7H6RDJS4EKN
222,47,,1.0,27.0,mountain_57.jpg,mountain,,,,A1I7H6RDJS4EKN
223,48,,1.0,28.0,playground_131.jpg,playground,,,,A1I7H6RDJS4EKN
224,49,,1.0,29.0,highway_177.jpg,highway,,,,A1I7H6RDJS4EKN
225,50,right,1.0,30.0,right.jpg,,right,0.782,,A1I7H6RDJS4EKN
226,51,,1.0,31.0,badlands_23.jpg,badlands,,,,A1I7H6RDJS4EKN
227,52,,1.0,32.0,highway_294.jpg,highway,,,,A1I7H6RDJS4EKN
228,53,,1.0,33.0,highway_156.jpg,highway,,,,A1I7H6RDJS4EKN
229,54,,1.0,34.0,highway_394.jpg,highway,,,,A1I7H6RDJS4EKN
230,55,,1.0,35.0,bridge_91.jpg,bridge,,,,A1I7H6RDJS4EKN
231,56,left,1.0,36.0,left.jpg,,left,0.819,,A1I7H6RDJS4EKN
232,57,,1.0,37.0,bridge_172.jpg,bridge,,,,A1I7H6RDJS4EKN
233,58,,1.0,38.0,golf_course_78.jpg,golf,,,,A1I7H6RDJS4EKN
234,59,,1.0,39.0,mountain_293.jpg,mountain,,,,A1I7H6RDJS4EKN
235,60,,1.0,40.0,playground_144.jpg,playground,,,,A1I7H6RDJS4EKN
236,61,,1.0,41.0,bridge_65.jpg,bridge,,,,A1I7H6RDJS4EKN
237,62,,1.0,42.0,badlands_52.jpg,badlands,,,,A1I7H6RDJS4EKN
238,63,,1.0,43.0,highway_209.jpg,highway,,,,A1I7H6RDJS4EKN
239,64,,1.0,44.0,golf_course_188.jpg,golf,,,,A1I7H6RDJS4EKN
240,65,,1.0,45.0,golf_course_214.jpg,golf,,,,A1I7H6RDJS4EKN
241,66,,1.0,46.0,bridge_108.jpg,bridge,,,,A1I7H6RDJS4EKN
242,67,,1.0,47.0,mountain_230.jpg,mountain,,,,A1I7H6RDJS4EKN
243,68,,1.0,48.0,playground_219.jpg,playground,,,,A1I7H6RDJS4EKN
244,69,,1.0,49.0,bridge_146.jpg,bridge,,,,A1I7H6RDJS4EKN
245,70,,1.0,50.0,badlands_137.jpg,badlands,,,,A1I7H6RDJS4EKN
246,71,,1.0,51.0,playground_257.jpg,playground,,,,A1I7H6RDJS4EKN
247,72,,1.0,52.0,mountain_156.jpg,mountain,,,,A1I7H6RDJS4EKN
248,73,,1.0,53.0,golf_course_15.jpg,golf,,,,A1I7H6RDJS4EKN
249,74,right,1.0,54.0,right.jpg,,right,0.729,,A1I7H6RDJS4EKN
250,75,,1.0,55.0,badlands_184.jpg,badlands,,,,A1I7H6RDJS4EKN
251,76,,1.0,56.0,badlands_24.jpg,badlands,,,,A1I7H6RDJS4EKN
252,77,,1.0,57.0,badlands_221.jpg,badlands,,,,A1I7H6RDJS4EKN
253,78,,1.0,58.0,highway_93.jpg,highway,,,,A1I7H6RDJS4EKN
254,79,,1.0,59.0,playground_117.jpg,playground,,,,A1I7H6RDJS4EKN
255,80,,1.0,60.0,playground_10.jpg,playground,,,,A1I7H6RDJS4EKN
256,81,,1.0,61.0,badlands_222.jpg,badlands,,,,A1I7H6RDJS4EKN
257,82,,1.0,62.0,golf_course_87.jpg,golf,,,,A1I7H6RDJS4EKN
258,83,,1.0,63.0,playground_240.jpg,playground,,,,A1I7H6RDJS4EKN
259,84,,1.0,64.0,golf_course_193.jpg,golf,,,,A1I7H6RDJS4EKN
260,20,,1.0,0.0,golf_course_217.jpg,golf,,,,A2PBFKNWWIIAO8
261,21,,1.0,1.0,mountain_154.jpg,mountain,,,,A2PBFKNWWIIAO8
262,22,,1.0,2.0,badlands_21.jpg,badlands,,,,A2PBFKNWWIIAO8
263,23,,1.0,3.0,badlands_24.jpg,badlands,,,,A2PBFKNWWIIAO8
264,24,,1.0,4.0,highway_156.jpg,highway,,,,A2PBFKNWWIIAO8
265,25,,1.0,5.0,badlands_137.jpg,badlands,,,,A2PBFKNWWIIAO8
266,26,,1.0,6.0,bridge_191.jpg,bridge,,,,A2PBFKNWWIIAO8
267,27,,1.0,7.0,mountain_222.jpg,mountain,,,,A2PBFKNWWIIAO8
268,28,,1.0,8.0,playground_257.jpg,playground,,,,A2PBFKNWWIIAO8
269,29,,1.0,9.0,badlands_221.jpg,badlands,,,,A2PBFKNWWIIAO8
270,30,,1.0,10.0,playground_10.jpg,playground,,,,A2PBFKNWWIIAO8
271,31,,1.0,11.0,bridge_108.jpg,bridge,,,,A2PBFKNWWIIAO8
272,32,left,1.0,12.0,left.jpg,,left,2.1677,,A2PBFKNWWIIAO8
273,33,,1.0,13.0,golf_course_15.jpg,golf,,,,A2PBFKNWWIIAO8
274,34,,1.0,14.0,bridge_202.jpg,bridge,,,,A2PBFKNWWIIAO8
275,35,,1.0,15.0,bridge_256.jpg,bridge,,,,A2PBFKNWWIIAO8
276,36,right,1.0,16.0,right.jpg,,right,1.5725,,A2PBFKNWWIIAO8
277,37,,1.0,17.0,golf_course_309.jpg,golf,,,,A2PBFKNWWIIAO8
278,38,,1.0,18.0,highway_177.jpg,highway,,,,A2PBFKNWWIIAO8
279,39,,1.0,19.0,highway_394.jpg,highway,,,,A2PBFKNWWIIAO8
280,40,,1.0,20.0,bridge_146.jpg,bridge,,,,A2PBFKNWWIIAO8
281,41,,1.0,21.0,golf_course_195.jpg,golf,,,,A2PBFKNWWIIAO8
282,42,,1.0,22.0,highway_294.jpg,highway,,,,A2PBFKNWWIIAO8
283,43,,1.0,23.0,mountain_230.jpg,mountain,,,,A2PBFKNWWIIAO8
284,44,,1.0,24.0,badlands_70.jpg,badlands,,,,A2PBFKNWWIIAO8
285,45,,1.0,25.0,playground_240.jpg,playground,,,,A2PBFKNWWIIAO8
286,46,,1.0,26.0,golf_course_188.jpg,golf,,,,A2PBFKNWWIIAO8
287,47,,1.0,27.0,badlands_222.jpg,badlands,,,,A2PBFKNWWIIAO8
288,48,,1.0,28.0,badlands_184.jpg,badlands,,,,A2PBFKNWWIIAO8
289,49,left,1.0,29.0,left.jpg,,left,2.0836,,A2PBFKNWWIIAO8
290,50,,1.0,30.0,highway_209.jpg,highway,,,,A2PBFKNWWIIAO8
291,51,,1.0,31.0,badlands_52.jpg,badlands,,,,A2PBFKNWWIIAO8
292,52,,1.0,32.0,mountain_232.jpg,mountain,,,,A2PBFKNWWIIAO8
293,53,,1.0,33.0,bridge_250.jpg,bridge,,,,A2PBFKNWWIIAO8
294,54,,1.0,34.0,playground_145.jpg,playground,,,,A2PBFKNWWIIAO8
295,55,,1.0,35.0,mountain_293.jpg,mountain,,,,A2PBFKNWWIIAO8
296,56,left,1.0,36.0,left.jpg,,left,1.5466,,A2PBFKNWWIIAO8
297,57,,1.0,37.0,playground_131.jpg,playground,,,,A2PBFKNWWIIAO8
298,58,,1.0,38.0,badlands_113.jpg,badlands,,,,A2PBFKNWWIIAO8
299,59,,1.0,39.0,mountain_110.jpg,mountain,,,,A2PBFKNWWIIAO8
300,60,,1.0,40.0,bridge_65.jpg,bridge,,,,A2PBFKNWWIIAO8
301,61,,1.0,41.0,playground_219.jpg,playground,,,,A2PBFKNWWIIAO8
302,62,,1.0,42.0,playground_144.jpg,playground,,,,A2PBFKNWWIIAO8
303,63,,1.0,43.0,highway_273.jpg,highway,,,,A2PBFKNWWIIAO8
304,64,,1.0,44.0,playground_76.jpg,playground,,,,A2PBFKNWWIIAO8
305,65,,1.0,45.0,badlands_23.jpg,badlands,,,,A2PBFKNWWIIAO8
306,66,,1.0,46.0,mountain_156.jpg,mountain,,,,A2PBFKNWWIIAO8
307,67,,1.0,47.0,highway_93.jpg,highway,,,,A2PBFKNWWIIAO8
308,68,,1.0,48.0,mountain_123.jpg,mountain,,,,A2PBFKNWWIIAO8
309,69,,1.0,49.0,highway_359.jpg,highway,,,,A2PBFKNWWIIAO8
310,70,,1.0,50.0,golf_course_193.jpg,golf,,,,A2PBFKNWWIIAO8
311,71,right,1.0,51.0,right.jpg,,right,1.593,,A2PBFKNWWIIAO8
312,72,,1.0,52.0,golf_course_214.jpg,golf,,,,A2PBFKNWWIIAO8
313,73,,1.0,53.0,mountain_57.jpg,mountain,,,,A2PBFKNWWIIAO8
314,74,,1.0,54.0,bridge_172.jpg,bridge,,,,A2PBFKNWWIIAO8
315,75,,1.0,55.0,bridge_91.jpg,bridge,,,,A2PBFKNWWIIAO8
316,76,,1.0,56.0,golf_course_331.jpg,golf,,,,A2PBFKNWWIIAO8
317,77,,1.0,57.0,highway_415.jpg,highway,,,,A2PBFKNWWIIAO8
318,78,,1.0,58.0,mountain_101.jpg,mountain,,,,A2PBFKNWWIIAO8
319,79,,1.0,59.0,playground_117.jpg,playground,,,,A2PBFKNWWIIAO8
320,80,,1.0,60.0,highway_245.jpg,highway,,,,A2PBFKNWWIIAO8
321,81,,1.0,61.0,golf_course_87.jpg,golf,,,,A2PBFKNWWIIAO8
322,82,,1.0,62.0,golf_course_78.jpg,golf,,,,A2PBFKNWWIIAO8
323,83,,1.0,63.0,bridge_128.jpg,bridge,,,,A2PBFKNWWIIAO8
324,84,,1.0,64.0,playground_60.jpg,playground,,,,A2PBFKNWWIIAO8
325,20,,1.0,0.0,mountain_57.jpg,mountain,,,,A3V2XCDF45VN9X
326,21,,1.0,1.0,highway_359.jpg,highway,,,,A3V2XCDF45VN9X
327,22,,1.0,2.0,highway_415.jpg,highway,,,,A3V2XCDF45VN9X
328,23,,1.0,3.0,bridge_172.jpg,bridge,,,,A3V2XCDF45VN9X
329,24,,1.0,4.0,playground_117.jpg,playground,,,,A3V2XCDF45VN9X
330,25,,1.0,5.0,golf_course_195.jpg,golf,,,,A3V2XCDF45VN9X
331,26,,1.0,6.0,bridge_65.jpg,bridge,,,,A3V2XCDF45VN9X
332,27,,1.0,7.0,bridge_146.jpg,bridge,,,,A3V2XCDF45VN9X
333,28,,1.0,8.0,mountain_230.jpg,mountain,,,,A3V2XCDF45VN9X
334,29,,1.0,9.0,badlands_23.jpg,badlands,,,,A3V2XCDF45VN9X
335,30,,1.0,10.0,bridge_202.jpg,bridge,,,,A3V2XCDF45VN9X
336,31,,1.0,11.0,playground_145.jpg,playground,,,,A3V2XCDF45VN9X
337,32,,1.0,12.0,mountain_123.jpg,mountain,,,,A3V2XCDF45VN9X
338,33,,1.0,13.0,golf_course_15.jpg,golf,,,,A3V2XCDF45VN9X
339,34,left,1.0,14.0,left.jpg,,left,1.0499,,A3V2XCDF45VN9X
340,35,,1.0,15.0,mountain_101.jpg,mountain,,,,A3V2XCDF45VN9X
341,36,,1.0,16.0,badlands_184.jpg,badlands,,,,A3V2XCDF45VN9X
342,37,,1.0,17.0,playground_76.jpg,playground,,,,A3V2XCDF45VN9X
343,38,,1.0,18.0,badlands_70.jpg,badlands,,,,A3V2XCDF45VN9X
344,39,,1.0,19.0,highway_177.jpg,highway,,,,A3V2XCDF45VN9X
345,40,,1.0,20.0,playground_131.jpg,playground,,,,A3V2XCDF45VN9X
346,41,,1.0,21.0,badlands_113.jpg,badlands,,,,A3V2XCDF45VN9X
347,42,,1.0,22.0,playground_219.jpg,playground,,,,A3V2XCDF45VN9X
348,43,,1.0,23.0,highway_245.jpg,highway,,,,A3V2XCDF45VN9X
349,44,right,1.0,24.0,right.jpg,,right,0.8505,,A3V2XCDF45VN9X
350,45,,1.0,25.0,golf_course_309.jpg,golf,,,,A3V2XCDF45VN9X
351,46,,1.0,26.0,playground_60.jpg,playground,,,,A3V2XCDF45VN9X
352,47,left,1.0,27.0,left.jpg,,left,1.1308,,A3V2XCDF45VN9X
353,48,,1.0,28.0,bridge_91.jpg,bridge,,,,A3V2XCDF45VN9X
354,49,,1.0,29.0,golf_course_331.jpg,golf,,,,A3V2XCDF45VN9X
355,50,,1.0,30.0,golf_course_193.jpg,golf,,,,A3V2XCDF45VN9X
356,51,,1.0,31.0,golf_course_188.jpg,golf,,,,A3V2XCDF45VN9X
357,52,,1.0,32.0,highway_394.jpg,highway,,,,A3V2XCDF45VN9X
358,53,,1.0,33.0,golf_course_87.jpg,golf,,,,A3V2XCDF45VN9X
359,54,,1.0,34.0,badlands_222.jpg,badlands,,,,A3V2XCDF45VN9X
360,55,,1.0,35.0,mountain_232.jpg,mountain,,,,A3V2XCDF45VN9X
361,56,,1.0,36.0,mountain_110.jpg,mountain,,,,A3V2XCDF45VN9X
362,57,,1.0,37.0,highway_294.jpg,highway,,,,A3V2XCDF45VN9X
363,58,,1.0,38.0,mountain_154.jpg,mountain,,,,A3V2XCDF45VN9X
364,59,,1.0,39.0,badlands_21.jpg,badlands,,,,A3V2XCDF45VN9X
365,60,,1.0,40.0,badlands_24.jpg,badlands,,,,A3V2XCDF45VN9X
366,61,,1.0,41.0,golf_course_78.jpg,golf,,,,A3V2XCDF45VN9X
367,62,,1.0,42.0,badlands_137.jpg,badlands,,,,A3V2XCDF45VN9X
368,63,,1.0,43.0,bridge_191.jpg,bridge,,,,A3V2XCDF45VN9X
369,64,right,1.0,44.0,right.jpg,,right,0.8645,,A3V2XCDF45VN9X
370,65,,1.0,45.0,badlands_221.jpg,badlands,,,,A3V2XCDF45VN9X
371,66,,1.0,46.0,mountain_222.jpg,mountain,,,,A3V2XCDF45VN9X
372,67,,1.0,47.0,mountain_293.jpg,mountain,,,,A3V2XCDF45VN9X
373,68,,1.0,48.0,bridge_256.jpg,bridge,,,,A3V2XCDF45VN9X
374,69,,1.0,49.0,bridge_108.jpg,bridge,,,,A3V2XCDF45VN9X
375,70,,1.0,50.0,golf_course_217.jpg,golf,,,,A3V2XCDF45VN9X
376,71,,1.0,51.0,highway_273.jpg,highway,,,,A3V2XCDF45VN9X
377,72,left,1.0,52.0,left.jpg,,left,1.3169,,A3V2XCDF45VN9X
378,73,,1.0,53.0,bridge_250.jpg,bridge,,,,A3V2XCDF45VN9X
379,74,,1.0,54.0,bridge_128.jpg,bridge,,,,A3V2XCDF45VN9X
380,75,,1.0,55.0,highway_156.jpg,highway,,,,A3V2XCDF45VN9X
381,76,,1.0,56.0,highway_93.jpg,highway,,,,A3V2XCDF45VN9X
382,77,,1.0,57.0,highway_209.jpg,highway,,,,A3V2XCDF45VN9X
383,78,,1.0,58.0,playground_257.jpg,playground,,,,A3V2XCDF45VN9X
384,79,,1.0,59.0,badlands_52.jpg,badlands,,,,A3V2XCDF45VN9X
385,80,,1.0,60.0,golf_course_214.jpg,golf,,,,A3V2XCDF45VN9X
386,81,,1.0,61.0,playground_240.jpg,playground,,,,A3V2XCDF45VN9X
387,82,,1.0,62.0,playground_10.jpg,playground,,,,A3V2XCDF45VN9X
388,83,,1.0,63.0,mountain_156.jpg,mountain,,,,A3V2XCDF45VN9X
389,84,,1.0,64.0,playground_144.jpg,playground,,,,A3V2XCDF45VN9X
390,20,,1.0,0.0,playground_60.jpg,playground,,,,ADP3FQJ88ATS0
391,21,,1.0,1.0,golf_course_214.jpg,golf,,,,ADP3FQJ88ATS0
392,22,,1.0,2.0,mountain_232.jpg,mountain,,,,ADP3FQJ88ATS0
393,23,,1.0,3.0,mountain_222.jpg,mountain,,,,ADP3FQJ88ATS0
394,24,,1.0,4.0,playground_240.jpg,playground,,,,ADP3FQJ88ATS0
395,25,,1.0,5.0,bridge_202.jpg,bridge,,,,ADP3FQJ88ATS0
396,26,,1.0,6.0,badlands_52.jpg,badlands,,,,ADP3FQJ88ATS0
397,27,,1.0,7.0,mountain_101.jpg,mountain,,,,ADP3FQJ88ATS0
398,28,,1.0,8.0,golf_course_331.jpg,golf,,,,ADP3FQJ88ATS0
399,29,,1.0,9.0,badlands_222.jpg,badlands,,,,ADP3FQJ88ATS0
400,30,,1.0,10.0,golf_course_193.jpg,golf,,,,ADP3FQJ88ATS0
401,31,right,1.0,11.0,right.jpg,,right,1.701,,ADP3FQJ88ATS0
402,32,,1.0,12.0,playground_131.jpg,playground,,,,ADP3FQJ88ATS0
403,33,,1.0,13.0,golf_course_309.jpg,golf,,,,ADP3FQJ88ATS0
404,34,,1.0,14.0,highway_245.jpg,highway,,,,ADP3FQJ88ATS0
405,35,,1.0,15.0,mountain_123.jpg,mountain,,,,ADP3FQJ88ATS0
406,36,,1.0,16.0,highway_209.jpg,highway,,,,ADP3FQJ88ATS0
407,37,,1.0,17.0,bridge_128.jpg,bridge,,,,ADP3FQJ88ATS0
408,38,,1.0,18.0,badlands_70.jpg,badlands,,,,ADP3FQJ88ATS0
409,39,,1.0,19.0,mountain_154.jpg,mountain,,,,ADP3FQJ88ATS0
410,40,,1.0,20.0,golf_course_15.jpg,golf,,,,ADP3FQJ88ATS0
411,41,,1.0,21.0,bridge_91.jpg,bridge,,,,ADP3FQJ88ATS0
412,42,,1.0,22.0,badlands_184.jpg,badlands,,,,ADP3FQJ88ATS0
413,43,left,0.0,23.0,right.jpg,,right,0.007,,ADP3FQJ88ATS0
414,44,,1.0,24.0,highway_415.jpg,highway,,,,ADP3FQJ88ATS0
415,45,,1.0,25.0,bridge_250.jpg,bridge,,,,ADP3FQJ88ATS0
416,46,,1.0,26.0,badlands_113.jpg,badlands,,,,ADP3FQJ88ATS0
417,47,,1.0,27.0,mountain_293.jpg,mountain,,,,ADP3FQJ88ATS0
418,48,,1.0,28.0,highway_93.jpg,highway,,,,ADP3FQJ88ATS0
419,49,,1.0,29.0,highway_156.jpg,highway,,,,ADP3FQJ88ATS0
420,50,left,0.0,30.0,right.jpg,,right,0.232,,ADP3FQJ88ATS0
421,51,,1.0,31.0,mountain_110.jpg,mountain,,,,ADP3FQJ88ATS0
422,52,,1.0,32.0,bridge_108.jpg,bridge,,,,ADP3FQJ88ATS0
423,53,,1.0,33.0,playground_117.jpg,playground,,,,ADP3FQJ88ATS0
424,54,,1.0,34.0,mountain_57.jpg,mountain,,,,ADP3FQJ88ATS0
425,55,,1.0,35.0,bridge_172.jpg,bridge,,,,ADP3FQJ88ATS0
426,56,left,1.0,36.0,left.jpg,,left,0.49,,ADP3FQJ88ATS0
427,57,,1.0,37.0,playground_257.jpg,playground,,,,ADP3FQJ88ATS0
428,58,,1.0,38.0,mountain_156.jpg,mountain,,,,ADP3FQJ88ATS0
429,59,,1.0,39.0,playground_76.jpg,playground,,,,ADP3FQJ88ATS0
430,60,,1.0,40.0,highway_394.jpg,highway,,,,ADP3FQJ88ATS0
431,61,,1.0,41.0,highway_177.jpg,highway,,,,ADP3FQJ88ATS0
432,62,,1.0,42.0,badlands_23.jpg,badlands,,,,ADP3FQJ88ATS0
433,63,,1.0,43.0,bridge_191.jpg,bridge,,,,ADP3FQJ88ATS0
434,64,,1.0,44.0,playground_10.jpg,playground,,,,ADP3FQJ88ATS0
435,65,,1.0,45.0,badlands_21.jpg,badlands,,,,ADP3FQJ88ATS0
436,66,,1.0,46.0,highway_359.jpg,highway,,,,ADP3FQJ88ATS0
437,67,,1.0,47.0,playground_144.jpg,playground,,,,ADP3FQJ88ATS0
438,68,,1.0,48.0,golf_course_195.jpg,golf,,,,ADP3FQJ88ATS0
439,69,,1.0,49.0,playground_145.jpg,playground,,,,ADP3FQJ88ATS0
440,70,,1.0,50.0,badlands_221.jpg,badlands,,,,ADP3FQJ88ATS0
441,71,,1.0,51.0,highway_294.jpg,highway,,,,ADP3FQJ88ATS0
442,72,right,1.0,52.0,right.jpg,,right,1.219,,ADP3FQJ88ATS0
443,73,,1.0,53.0,bridge_146.jpg,bridge,,,,ADP3FQJ88ATS0
444,74,,1.0,54.0,golf_course_217.jpg,golf,,,,ADP3FQJ88ATS0
445,75,,1.0,55.0,golf_course_78.jpg,golf,,,,ADP3FQJ88ATS0
446,76,,1.0,56.0,badlands_137.jpg,badlands,,,,ADP3FQJ88ATS0
447,77,,1.0,57.0,playground_219.jpg,playground,,,,ADP3FQJ88ATS0
448,78,,1.0,58.0,golf_course_87.jpg,golf,,,,ADP3FQJ88ATS0
449,79,,1.0,59.0,bridge_256.jpg,bridge,,,,ADP3FQJ88ATS0
450,80,,1.0,60.0,mountain_230.jpg,mountain,,,,ADP3FQJ88ATS0
451,81,,1.0,61.0,bridge_65.jpg,bridge,,,,ADP3FQJ88ATS0
452,82,,1.0,62.0,highway_273.jpg,highway,,,,ADP3FQJ88ATS0
453,83,,1.0,63.0,golf_course_188.jpg,golf,,,,ADP3FQJ88ATS0
454,84,,1.0,64.0,badlands_24.jpg,badlands,,,,ADP3FQJ88ATS0
455,20,,1.0,0.0,bridge_91.jpg,bridge,,,,A34A8MQJ7X1LCS
456,21,,1.0,1.0,playground_219.jpg,playground,,,,A34A8MQJ7X1LCS
457,22,,1.0,2.0,mountain_110.jpg,mountain,,,,A34A8MQJ7X1LCS
458,23,,1.0,3.0,golf_course_78.jpg,golf,,,,A34A8MQJ7X1LCS
459,24,,1.0,4.0,golf_course_217.jpg,golf,,,,A34A8MQJ7X1LCS
460,25,,1.0,5.0,playground_60.jpg,playground,,,,A34A8MQJ7X1LCS
461,26,,1.0,6.0,golf_course_15.jpg,golf,,,,A34A8MQJ7X1LCS
462,27,,1.0,7.0,mountain_154.jpg,mountain,,,,A34A8MQJ7X1LCS
463,28,,0.0,8.0,left.jpg,,left,,,A34A8MQJ7X1LCS
464,29,,1.0,9.0,golf_course_309.jpg,golf,,,,A34A8MQJ7X1LCS
465,30,,1.0,10.0,badlands_23.jpg,badlands,,,,A34A8MQJ7X1LCS
466,31,,1.0,11.0,golf_course_87.jpg,golf,,,,A34A8MQJ7X1LCS
467,32,,1.0,12.0,playground_144.jpg,playground,,,,A34A8MQJ7X1LCS
468,33,,1.0,13.0,bridge_108.jpg,bridge,,,,A34A8MQJ7X1LCS
469,34,,1.0,14.0,bridge_65.jpg,bridge,,,,A34A8MQJ7X1LCS
470,35,,1.0,15.0,bridge_128.jpg,bridge,,,,A34A8MQJ7X1LCS
471,36,,1.0,16.0,mountain_123.jpg,mountain,,,,A34A8MQJ7X1LCS
472,37,,1.0,17.0,badlands_222.jpg,badlands,,,,A34A8MQJ7X1LCS
473,38,,1.0,18.0,mountain_222.jpg,mountain,,,,A34A8MQJ7X1LCS
474,39,,1.0,19.0,highway_394.jpg,highway,,,,A34A8MQJ7X1LCS
475,40,,1.0,20.0,golf_course_195.jpg,golf,,,,A34A8MQJ7X1LCS
476,41,,1.0,21.0,highway_245.jpg,highway,,,,A34A8MQJ7X1LCS
477,42,,1.0,22.0,highway_359.jpg,highway,,,,A34A8MQJ7X1LCS
478,43,,1.0,23.0,bridge_146.jpg,bridge,,,,A34A8MQJ7X1LCS
479,44,,0.0,24.0,right.jpg,,right,,,A34A8MQJ7X1LCS
480,45,,1.0,25.0,mountain_232.jpg,mountain,,,,A34A8MQJ7X1LCS
481,46,,1.0,26.0,badlands_184.jpg,badlands,,,,A34A8MQJ7X1LCS
482,47,,1.0,27.0,badlands_52.jpg,badlands,,,,A34A8MQJ7X1LCS
483,48,,1.0,28.0,bridge_250.jpg,bridge,,,,A34A8MQJ7X1LCS
484,49,,1.0,29.0,mountain_57.jpg,mountain,,,,A34A8MQJ7X1LCS
485,50,,1.0,30.0,golf_course_331.jpg,golf,,,,A34A8MQJ7X1LCS
486,51,,1.0,31.0,bridge_256.jpg,bridge,,,,A34A8MQJ7X1LCS
487,52,,0.0,32.0,right.jpg,,right,,,A34A8MQJ7X1LCS
488,53,,1.0,33.0,bridge_191.jpg,bridge,,,,A34A8MQJ7X1LCS
489,54,,1.0,34.0,playground_117.jpg,playground,,,,A34A8MQJ7X1LCS
490,55,,1.0,35.0,badlands_70.jpg,badlands,,,,A34A8MQJ7X1LCS
491,56,,1.0,36.0,golf_course_193.jpg,golf,,,,A34A8MQJ7X1LCS
492,57,,1.0,37.0,highway_93.jpg,highway,,,,A34A8MQJ7X1LCS
493,58,,1.0,38.0,mountain_293.jpg,mountain,,,,A34A8MQJ7X1LCS
494,59,,1.0,39.0,highway_177.jpg,highway,,,,A34A8MQJ7X1LCS
495,60,,1.0,40.0,bridge_202.jpg,bridge,,,,A34A8MQJ7X1LCS
496,61,,1.0,41.0,golf_course_214.jpg,golf,,,,A34A8MQJ7X1LCS
497,62,,1.0,42.0,highway_415.jpg,highway,,,,A34A8MQJ7X1LCS
498,63,,1.0,43.0,mountain_156.jpg,mountain,,,,A34A8MQJ7X1LCS
499,64,,0.0,44.0,right.jpg,,right,,,A34A8MQJ7X1LCS
500,65,,1.0,45.0,playground_10.jpg,playground,,,,A34A8MQJ7X1LCS
501,66,,1.0,46.0,playground_131.jpg,playground,,,,A34A8MQJ7X1LCS
502,67,right,1.0,47.0,right.jpg,,right,2.3753,,A34A8MQJ7X1LCS
503,68,,1.0,48.0,playground_240.jpg,playground,,,,A34A8MQJ7X1LCS
504,69,,1.0,49.0,mountain_230.jpg,mountain,,,,A34A8MQJ7X1LCS
505,70,,1.0,50.0,badlands_113.jpg,badlands,,,,A34A8MQJ7X1LCS
506,71,,1.0,51.0,playground_145.jpg,playground,,,,A34A8MQJ7X1LCS
507,72,,1.0,52.0,highway_156.jpg,highway,,,,A34A8MQJ7X1LCS
508,73,,1.0,53.0,playground_257.jpg,playground,,,,A34A8MQJ7X1LCS
509,74,,1.0,54.0,golf_course_188.jpg,golf,,,,A34A8MQJ7X1LCS
510,75,,1.0,55.0,badlands_137.jpg,badlands,,,,A34A8MQJ7X1LCS
511,76,,1.0,56.0,bridge_172.jpg,bridge,,,,A34A8MQJ7X1LCS
512,77,,1.0,57.0,highway_209.jpg,highway,,,,A34A8MQJ7X1LCS
513,78,,1.0,58.0,badlands_24.jpg,badlands,,,,A34A8MQJ7X1LCS
514,79,,1.0,59.0,highway_273.jpg,highway,,,,A34A8MQJ7X1LCS
515,80,,1.0,60.0,badlands_21.jpg,badlands,,,,A34A8MQJ7X1LCS
516,81,,1.0,61.0,playground_76.jpg,playground,,,,A34A8MQJ7X1LCS
517,82,,1.0,62.0,badlands_221.jpg,badlands,,,,A34A8MQJ7X1LCS
518,83,,1.0,63.0,mountain_101.jpg,mountain,,,,A34A8MQJ7X1LCS
519,84,,1.0,64.0,highway_294.jpg,highway,,,,A34A8MQJ7X1LCS
520,20,,1.0,0.0,mountain_293.jpg,mountain,,,,A2U5OFMW8H30PC
521,21,,1.0,1.0,highway_245.jpg,highway,,,,A2U5OFMW8H30PC
522,22,,1.0,2.0,highway_359.jpg,highway,,,,A2U5OFMW8H30PC
523,23,,1.0,3.0,bridge_202.jpg,bridge,,,,A2U5OFMW8H30PC
524,24,,1.0,4.0,highway_273.jpg,highway,,,,A2U5OFMW8H30PC
525,25,,1.0,5.0,bridge_250.jpg,bridge,,,,A2U5OFMW8H30PC
526,26,,1.0,6.0,golf_course_15.jpg,golf,,,,A2U5OFMW8H30PC
527,27,right,1.0,7.0,right.jpg,,right,0.9939,,A2U5OFMW8H30PC
528,28,,1.0,8.0,playground_76.jpg,playground,,,,A2U5OFMW8H30PC
529,29,,1.0,9.0,golf_course_331.jpg,golf,,,,A2U5OFMW8H30PC
530,30,,1.0,10.0,badlands_221.jpg,badlands,,,,A2U5OFMW8H30PC
531,31,,1.0,11.0,highway_209.jpg,highway,,,,A2U5OFMW8H30PC
532,32,,1.0,12.0,badlands_23.jpg,badlands,,,,A2U5OFMW8H30PC
533,33,,1.0,13.0,mountain_232.jpg,mountain,,,,A2U5OFMW8H30PC
534,34,,1.0,14.0,mountain_110.jpg,mountain,,,,A2U5OFMW8H30PC
535,35,,1.0,15.0,bridge_256.jpg,bridge,,,,A2U5OFMW8H30PC
536,36,,1.0,16.0,badlands_113.jpg,badlands,,,,A2U5OFMW8H30PC
537,37,,1.0,17.0,bridge_128.jpg,bridge,,,,A2U5OFMW8H30PC
538,38,,1.0,18.0,highway_156.jpg,highway,,,,A2U5OFMW8H30PC
539,39,,1.0,19.0,highway_177.jpg,highway,,,,A2U5OFMW8H30PC
540,40,,1.0,20.0,bridge_191.jpg,bridge,,,,A2U5OFMW8H30PC
541,41,right,1.0,21.0,right.jpg,,right,1.1178,,A2U5OFMW8H30PC
542,42,,1.0,22.0,highway_415.jpg,highway,,,,A2U5OFMW8H30PC
543,43,,1.0,23.0,badlands_222.jpg,badlands,,,,A2U5OFMW8H30PC
544,44,,1.0,24.0,bridge_91.jpg,bridge,,,,A2U5OFMW8H30PC
545,45,,1.0,25.0,golf_course_188.jpg,golf,,,,A2U5OFMW8H30PC
546,46,right,1.0,26.0,right.jpg,,right,1.07,,A2U5OFMW8H30PC
547,47,,1.0,27.0,badlands_24.jpg,badlands,,,,A2U5OFMW8H30PC
548,48,,1.0,28.0,playground_10.jpg,playground,,,,A2U5OFMW8H30PC
549,49,,1.0,29.0,playground_240.jpg,playground,,,,A2U5OFMW8H30PC
550,50,,1.0,30.0,golf_course_217.jpg,golf,,,,A2U5OFMW8H30PC
551,51,,1.0,31.0,golf_course_87.jpg,golf,,,,A2U5OFMW8H30PC
552,52,,1.0,32.0,mountain_57.jpg,mountain,,,,A2U5OFMW8H30PC
553,53,,1.0,33.0,bridge_65.jpg,bridge,,,,A2U5OFMW8H30PC
554,54,,1.0,34.0,bridge_146.jpg,bridge,,,,A2U5OFMW8H30PC
555,55,,1.0,35.0,bridge_172.jpg,bridge,,,,A2U5OFMW8H30PC
556,56,,1.0,36.0,playground_144.jpg,playground,,,,A2U5OFMW8H30PC
557,57,,1.0,37.0,golf_course_195.jpg,golf,,,,A2U5OFMW8H30PC
558,58,,1.0,38.0,highway_294.jpg,highway,,,,A2U5OFMW8H30PC
559,59,,1.0,39.0,golf_course_78.jpg,golf,,,,A2U5OFMW8H30PC
560,60,right,1.0,40.0,right.jpg,,right,1.1327,,A2U5OFMW8H30PC
561,61,,1.0,41.0,playground_131.jpg,playground,,,,A2U5OFMW8H30PC
562,62,,1.0,42.0,badlands_21.jpg,badlands,,,,A2U5OFMW8H30PC
563,63,,1.0,43.0,mountain_154.jpg,mountain,,,,A2U5OFMW8H30PC
564,64,,1.0,44.0,golf_course_193.jpg,golf,,,,A2U5OFMW8H30PC
565,65,,1.0,45.0,highway_394.jpg,highway,,,,A2U5OFMW8H30PC
566,66,,1.0,46.0,badlands_70.jpg,badlands,,,,A2U5OFMW8H30PC
567,67,,1.0,47.0,playground_257.jpg,playground,,,,A2U5OFMW8H30PC
568,68,,1.0,48.0,golf_course_214.jpg,golf,,,,A2U5OFMW8H30PC
569,69,,1.0,49.0,golf_course_309.jpg,golf,,,,A2U5OFMW8H30PC
570,70,,1.0,50.0,highway_93.jpg,highway,,,,A2U5OFMW8H30PC
571,71,,1.0,51.0,mountain_156.jpg,mountain,,,,A2U5OFMW8H30PC
572,72,,1.0,52.0,badlands_137.jpg,badlands,,,,A2U5OFMW8H30PC
573,73,right,1.0,53.0,right.jpg,,right,1.0744,,A2U5OFMW8H30PC
574,74,,1.0,54.0,mountain_230.jpg,mountain,,,,A2U5OFMW8H30PC
575,75,,1.0,55.0,badlands_184.jpg,badlands,,,,A2U5OFMW8H30PC
576,76,,1.0,56.0,playground_145.jpg,playground,,,,A2U5OFMW8H30PC
577,77,,1.0,57.0,mountain_123.jpg,mountain,,,,A2U5OFMW8H30PC
578,78,,1.0,58.0,playground_117.jpg,playground,,,,A2U5OFMW8H30PC
579,79,,1.0,59.0,badlands_52.jpg,badlands,,,,A2U5OFMW8H30PC
580,80,,1.0,60.0,playground_219.jpg,playground,,,,A2U5OFMW8H30PC
581,81,,1.0,61.0,bridge_108.jpg,bridge,,,,A2U5OFMW8H30PC
582,82,,1.0,62.0,mountain_101.jpg,mountain,,,,A2U5OFMW8H30PC
583,83,,1.0,63.0,mountain_222.jpg,mountain,,,,A2U5OFMW8H30PC
584,84,,1.0,64.0,playground_60.jpg,playground,,,,A2U5OFMW8H30PC
585,20,,1.0,0.0,golf_course_188.jpg,golf,,,,A1RC4Y575PV6EG
586,21,,1.0,1.0,golf_course_193.jpg,golf,,,,A1RC4Y575PV6EG
587,22,,1.0,2.0,playground_145.jpg,playground,,,,A1RC4Y575PV6EG
588,23,,1.0,3.0,highway_156.jpg,highway,,,,A1RC4Y575PV6EG
589,24,,1.0,4.0,bridge_108.jpg,bridge,,,,A1RC4Y575PV6EG
590,25,,1.0,5.0,mountain_154.jpg,mountain,,,,A1RC4Y575PV6EG
591,26,,1.0,6.0,badlands_137.jpg,badlands,,,,A1RC4Y575PV6EG
592,27,,1.0,7.0,bridge_65.jpg,bridge,,,,A1RC4Y575PV6EG
593,28,,0.0,8.0,left.jpg,,left,,,A1RC4Y575PV6EG
594,29,,1.0,9.0,mountain_57.jpg,mountain,,,,A1RC4Y575PV6EG
595,30,,1.0,10.0,bridge_250.jpg,bridge,,,,A1RC4Y575PV6EG
596,31,,1.0,11.0,golf_course_15.jpg,golf,,,,A1RC4Y575PV6EG
597,32,,1.0,12.0,mountain_110.jpg,mountain,,,,A1RC4Y575PV6EG
598,33,,1.0,13.0,highway_359.jpg,highway,,,,A1RC4Y575PV6EG
599,34,,1.0,14.0,highway_93.jpg,highway,,,,A1RC4Y575PV6EG
600,35,,1.0,15.0,bridge_128.jpg,bridge,,,,A1RC4Y575PV6EG
601,36,,1.0,16.0,bridge_191.jpg,bridge,,,,A1RC4Y575PV6EG
602,37,,0.0,17.0,right.jpg,,right,,,A1RC4Y575PV6EG
603,38,,1.0,18.0,mountain_232.jpg,mountain,,,,A1RC4Y575PV6EG
604,39,,1.0,19.0,highway_209.jpg,highway,,,,A1RC4Y575PV6EG
605,40,,1.0,20.0,badlands_52.jpg,badlands,,,,A1RC4Y575PV6EG
606,41,,1.0,21.0,badlands_21.jpg,badlands,,,,A1RC4Y575PV6EG
607,42,,1.0,22.0,playground_131.jpg,playground,,,,A1RC4Y575PV6EG
608,43,,1.0,23.0,badlands_113.jpg,badlands,,,,A1RC4Y575PV6EG
609,44,,1.0,24.0,mountain_222.jpg,mountain,,,,A1RC4Y575PV6EG
610,45,,1.0,25.0,bridge_91.jpg,bridge,,,,A1RC4Y575PV6EG
611,46,,1.0,26.0,playground_257.jpg,playground,,,,A1RC4Y575PV6EG
612,47,,1.0,27.0,playground_144.jpg,playground,,,,A1RC4Y575PV6EG
613,48,,1.0,28.0,highway_245.jpg,highway,,,,A1RC4Y575PV6EG
614,49,,1.0,29.0,badlands_221.jpg,badlands,,,,A1RC4Y575PV6EG
615,50,right,1.0,30.0,right.jpg,,right,2.104,,A1RC4Y575PV6EG
616,51,,1.0,31.0,playground_10.jpg,playground,,,,A1RC4Y575PV6EG
617,52,,1.0,32.0,badlands_70.jpg,badlands,,,,A1RC4Y575PV6EG
618,53,,1.0,33.0,golf_course_309.jpg,golf,,,,A1RC4Y575PV6EG
619,54,,1.0,34.0,golf_course_87.jpg,golf,,,,A1RC4Y575PV6EG
620,55,,1.0,35.0,golf_course_195.jpg,golf,,,,A1RC4Y575PV6EG
621,56,,1.0,36.0,highway_415.jpg,highway,,,,A1RC4Y575PV6EG
622,57,,1.0,37.0,badlands_23.jpg,badlands,,,,A1RC4Y575PV6EG
623,58,,1.0,38.0,highway_394.jpg,highway,,,,A1RC4Y575PV6EG
624,59,,1.0,39.0,playground_219.jpg,playground,,,,A1RC4Y575PV6EG
625,60,,1.0,40.0,golf_course_217.jpg,golf,,,,A1RC4Y575PV6EG
626,61,,1.0,41.0,badlands_222.jpg,badlands,,,,A1RC4Y575PV6EG
627,62,,1.0,42.0,highway_294.jpg,highway,,,,A1RC4Y575PV6EG
628,63,,0.0,43.0,left.jpg,,left,,,A1RC4Y575PV6EG
629,64,,1.0,44.0,golf_course_78.jpg,golf,,,,A1RC4Y575PV6EG
630,65,,1.0,45.0,bridge_146.jpg,bridge,,,,A1RC4Y575PV6EG
631,66,,1.0,46.0,mountain_293.jpg,mountain,,,,A1RC4Y575PV6EG
632,67,,1.0,47.0,playground_117.jpg,playground,,,,A1RC4Y575PV6EG
633,68,,1.0,48.0,highway_273.jpg,highway,,,,A1RC4Y575PV6EG
634,69,,1.0,49.0,badlands_184.jpg,badlands,,,,A1RC4Y575PV6EG
635,70,,1.0,50.0,mountain_230.jpg,mountain,,,,A1RC4Y575PV6EG
636,71,left,1.0,51.0,left.jpg,,left,1.423,,A1RC4Y575PV6EG
637,72,,1.0,52.0,highway_177.jpg,highway,,,,A1RC4Y575PV6EG
638,73,,1.0,53.0,badlands_24.jpg,badlands,,,,A1RC4Y575PV6EG
639,74,,1.0,54.0,bridge_202.jpg,bridge,,,,A1RC4Y575PV6EG
640,75,,1.0,55.0,bridge_256.jpg,bridge,,,,A1RC4Y575PV6EG
641,76,,1.0,56.0,playground_60.jpg,playground,,,,A1RC4Y575PV6EG
642,77,,1.0,57.0,golf_course_331.jpg,golf,,,,A1RC4Y575PV6EG
643,78,,1.0,58.0,golf_course_214.jpg,golf,,,,A1RC4Y575PV6EG
644,79,,1.0,59.0,playground_240.jpg,playground,,,,A1RC4Y575PV6EG
645,80,,1.0,60.0,mountain_156.jpg,mountain,,,,A1RC4Y575PV6EG
646,81,,1.0,61.0,mountain_123.jpg,mountain,,,,A1RC4Y575PV6EG
647,82,,1.0,62.0,playground_76.jpg,playground,,,,A1RC4Y575PV6EG
648,83,,1.0,63.0,bridge_172.jpg,bridge,,,,A1RC4Y575PV6EG
649,84,,1.0,64.0,mountain_101.jpg,mountain,,,,A1RC4Y575PV6EG
650,20,,1.0,0.0,badlands_113.jpg,badlands,,,,A19CS96QCO32RT
651,21,,1.0,1.0,bridge_108.jpg,bridge,,,,A19CS96QCO32RT
652,22,,1.0,2.0,mountain_232.jpg,mountain,,,,A19CS96QCO32RT
653,23,,1.0,3.0,playground_10.jpg,playground,,,,A19CS96QCO32RT
654,24,,1.0,4.0,highway_415.jpg,highway,,,,A19CS96QCO32RT
655,25,,1.0,5.0,mountain_110.jpg,mountain,,,,A19CS96QCO32RT
656,26,,1.0,6.0,bridge_65.jpg,bridge,,,,A19CS96QCO32RT
657,27,,1.0,7.0,bridge_146.jpg,bridge,,,,A19CS96QCO32RT
658,28,,1.0,8.0,highway_359.jpg,highway,,,,A19CS96QCO32RT
659,29,,1.0,9.0,highway_177.jpg,highway,,,,A19CS96QCO32RT
660,30,,1.0,10.0,golf_course_15.jpg,golf,,,,A19CS96QCO32RT
661,31,,1.0,11.0,bridge_202.jpg,bridge,,,,A19CS96QCO32RT
662,32,right,1.0,12.0,right.jpg,,right,1.1258,,A19CS96QCO32RT
663,33,,1.0,13.0,playground_131.jpg,playground,,,,A19CS96QCO32RT
664,34,,1.0,14.0,bridge_191.jpg,bridge,,,,A19CS96QCO32RT
665,35,,1.0,15.0,badlands_70.jpg,badlands,,,,A19CS96QCO32RT
666,36,,1.0,16.0,bridge_250.jpg,bridge,,,,A19CS96QCO32RT
667,37,,1.0,17.0,bridge_256.jpg,bridge,,,,A19CS96QCO32RT
668,38,,1.0,18.0,playground_60.jpg,playground,,,,A19CS96QCO32RT
669,39,,1.0,19.0,playground_219.jpg,playground,,,,A19CS96QCO32RT
670,40,,1.0,20.0,playground_117.jpg,playground,,,,A19CS96QCO32RT
671,41,,1.0,21.0,highway_273.jpg,highway,,,,A19CS96QCO32RT
672,42,,1.0,22.0,mountain_101.jpg,mountain,,,,A19CS96QCO32RT
673,43,right,1.0,23.0,right.jpg,,right,1.1214,,A19CS96QCO32RT
674,44,,1.0,24.0,golf_course_331.jpg,golf,,,,A19CS96QCO32RT
675,45,,1.0,25.0,mountain_293.jpg,mountain,,,,A19CS96QCO32RT
676,46,,1.0,26.0,badlands_221.jpg,badlands,,,,A19CS96QCO32RT
677,47,,1.0,27.0,playground_76.jpg,playground,,,,A19CS96QCO32RT
678,48,,1.0,28.0,bridge_91.jpg,bridge,,,,A19CS96QCO32RT
679,49,,1.0,29.0,golf_course_195.jpg,golf,,,,A19CS96QCO32RT
680,50,right,1.0,30.0,right.jpg,,right,1.1271,,A19CS96QCO32RT
681,51,,1.0,31.0,highway_156.jpg,highway,,,,A19CS96QCO32RT
682,52,,1.0,32.0,playground_240.jpg,playground,,,,A19CS96QCO32RT
683,53,,1.0,33.0,mountain_222.jpg,mountain,,,,A19CS96QCO32RT
684,54,,1.0,34.0,badlands_137.jpg,badlands,,,,A19CS96QCO32RT
685,55,,1.0,35.0,highway_245.jpg,highway,,,,A19CS96QCO32RT
686,56,,1.0,36.0,highway_93.jpg,highway,,,,A19CS96QCO32RT
687,57,,1.0,37.0,playground_145.jpg,playground,,,,A19CS96QCO32RT
688,58,,1.0,38.0,golf_course_214.jpg,golf,,,,A19CS96QCO32RT
689,59,,1.0,39.0,mountain_123.jpg,mountain,,,,A19CS96QCO32RT
690,60,,1.0,40.0,badlands_24.jpg,badlands,,,,A19CS96QCO32RT
691,61,right,1.0,41.0,right.jpg,,right,0.9372,,A19CS96QCO32RT
692,62,,1.0,42.0,golf_course_217.jpg,golf,,,,A19CS96QCO32RT
693,63,,1.0,43.0,mountain_156.jpg,mountain,,,,A19CS96QCO32RT
694,64,,1.0,44.0,badlands_184.jpg,badlands,,,,A19CS96QCO32RT
695,65,,1.0,45.0,badlands_52.jpg,badlands,,,,A19CS96QCO32RT
696,66,,1.0,46.0,badlands_23.jpg,badlands,,,,A19CS96QCO32RT
697,67,,1.0,47.0,golf_course_78.jpg,golf,,,,A19CS96QCO32RT
698,68,,1.0,48.0,badlands_21.jpg,badlands,,,,A19CS96QCO32RT
699,69,,1.0,49.0,mountain_57.jpg,mountain,,,,A19CS96QCO32RT
700,70,,1.0,50.0,playground_144.jpg,playground,,,,A19CS96QCO32RT
701,71,,1.0,51.0,golf_course_188.jpg,golf,,,,A19CS96QCO32RT
702,72,,1.0,52.0,golf_course_193.jpg,golf,,,,A19CS96QCO32RT
703,73,left,1.0,53.0,left.jpg,,left,0.9433,,A19CS96QCO32RT
704,74,,1.0,54.0,highway_294.jpg,highway,,,,A19CS96QCO32RT
705,75,,1.0,55.0,mountain_154.jpg,mountain,,,,A19CS96QCO32RT
706,76,,1.0,56.0,bridge_128.jpg,bridge,,,,A19CS96QCO32RT
707,77,,1.0,57.0,badlands_222.jpg,badlands,,,,A19CS96QCO32RT
708,78,,1.0,58.0,highway_394.jpg,highway,,,,A19CS96QCO32RT
709,79,,1.0,59.0,golf_course_309.jpg,golf,,,,A19CS96QCO32RT
710,80,,1.0,60.0,playground_257.jpg,playground,,,,A19CS96QCO32RT
711,81,,1.0,61.0,mountain_230.jpg,mountain,,,,A19CS96QCO32RT
712,82,,1.0,62.0,bridge_172.jpg,bridge,,,,A19CS96QCO32RT
713,83,,1.0,63.0,highway_209.jpg,highway,,,,A19CS96QCO32RT
714,84,,1.0,64.0,golf_course_87.jpg,golf,,,,A19CS96QCO32RT
715,20,,1.0,0.0,playground_117.jpg,playground,,,,AEK2SAEL9GG39
716,21,,1.0,1.0,golf_course_15.jpg,golf,,,,AEK2SAEL9GG39
717,22,,1.0,2.0,highway_156.jpg,highway,,,,AEK2SAEL9GG39
718,23,,1.0,3.0,badlands_21.jpg,badlands,,,,AEK2SAEL9GG39
719,24,,1.0,4.0,mountain_156.jpg,mountain,,,,AEK2SAEL9GG39
720,25,,1.0,5.0,playground_131.jpg,playground,,,,AEK2SAEL9GG39
721,26,left,1.0,6.0,left.jpg,,left,0.4701,,AEK2SAEL9GG39
722,27,,1.0,7.0,mountain_222.jpg,mountain,,,,AEK2SAEL9GG39
723,28,,1.0,8.0,badlands_70.jpg,badlands,,,,AEK2SAEL9GG39
724,29,,1.0,9.0,playground_219.jpg,playground,,,,AEK2SAEL9GG39
725,30,,1.0,10.0,mountain_230.jpg,mountain,,,,AEK2SAEL9GG39
726,31,,1.0,11.0,mountain_123.jpg,mountain,,,,AEK2SAEL9GG39
727,32,,1.0,12.0,bridge_91.jpg,bridge,,,,AEK2SAEL9GG39
728,33,,1.0,13.0,bridge_108.jpg,bridge,,,,AEK2SAEL9GG39
729,34,,1.0,14.0,bridge_256.jpg,bridge,,,,AEK2SAEL9GG39
730,35,,1.0,15.0,highway_294.jpg,highway,,,,AEK2SAEL9GG39
731,36,,1.0,16.0,golf_course_309.jpg,golf,,,,AEK2SAEL9GG39
732,37,left,1.0,17.0,left.jpg,,left,0.5772,,AEK2SAEL9GG39
733,38,,1.0,18.0,highway_394.jpg,highway,,,,AEK2SAEL9GG39
734,39,,1.0,19.0,golf_course_188.jpg,golf,,,,AEK2SAEL9GG39
735,40,,1.0,20.0,golf_course_214.jpg,golf,,,,AEK2SAEL9GG39
736,41,,1.0,21.0,golf_course_217.jpg,golf,,,,AEK2SAEL9GG39
737,42,,1.0,22.0,mountain_232.jpg,mountain,,,,AEK2SAEL9GG39
738,43,,1.0,23.0,bridge_191.jpg,bridge,,,,AEK2SAEL9GG39
739,44,,1.0,24.0,mountain_57.jpg,mountain,,,,AEK2SAEL9GG39
740,45,,1.0,25.0,playground_145.jpg,playground,,,,AEK2SAEL9GG39
741,46,,1.0,26.0,badlands_184.jpg,badlands,,,,AEK2SAEL9GG39
742,47,,1.0,27.0,badlands_222.jpg,badlands,,,,AEK2SAEL9GG39
743,48,,1.0,28.0,badlands_24.jpg,badlands,,,,AEK2SAEL9GG39
744,49,,1.0,29.0,playground_60.jpg,playground,,,,AEK2SAEL9GG39
745,50,,1.0,30.0,bridge_250.jpg,bridge,,,,AEK2SAEL9GG39
746,51,,1.0,31.0,bridge_172.jpg,bridge,,,,AEK2SAEL9GG39
747,52,left,1.0,32.0,left.jpg,,left,0.549,,AEK2SAEL9GG39
748,53,,1.0,33.0,highway_359.jpg,highway,,,,AEK2SAEL9GG39
749,54,,1.0,34.0,golf_course_195.jpg,golf,,,,AEK2SAEL9GG39
750,55,,1.0,35.0,mountain_154.jpg,mountain,,,,AEK2SAEL9GG39
751,56,,1.0,36.0,golf_course_193.jpg,golf,,,,AEK2SAEL9GG39
752,57,right,1.0,37.0,right.jpg,,right,0.5769,,AEK2SAEL9GG39
753,58,,1.0,38.0,playground_257.jpg,playground,,,,AEK2SAEL9GG39
754,59,,1.0,39.0,mountain_110.jpg,mountain,,,,AEK2SAEL9GG39
755,60,,1.0,40.0,playground_10.jpg,playground,,,,AEK2SAEL9GG39
756,61,,1.0,41.0,golf_course_87.jpg,golf,,,,AEK2SAEL9GG39
757,62,,1.0,42.0,highway_273.jpg,highway,,,,AEK2SAEL9GG39
758,63,,1.0,43.0,mountain_293.jpg,mountain,,,,AEK2SAEL9GG39
759,64,,1.0,44.0,golf_course_78.jpg,golf,,,,AEK2SAEL9GG39
760,65,,1.0,45.0,badlands_221.jpg,badlands,,,,AEK2SAEL9GG39
761,66,right,1.0,46.0,right.jpg,,right,0.6434,,AEK2SAEL9GG39
762,67,,1.0,47.0,highway_177.jpg,highway,,,,AEK2SAEL9GG39
763,68,,1.0,48.0,badlands_113.jpg,badlands,,,,AEK2SAEL9GG39
764,69,,1.0,49.0,highway_93.jpg,highway,,,,AEK2SAEL9GG39
765,70,,1.0,50.0,badlands_137.jpg,badlands,,,,AEK2SAEL9GG39
766,71,,1.0,51.0,playground_240.jpg,playground,,,,AEK2SAEL9GG39
767,72,,1.0,52.0,bridge_202.jpg,bridge,,,,AEK2SAEL9GG39
768,73,,1.0,53.0,playground_144.jpg,playground,,,,AEK2SAEL9GG39
769,74,,1.0,54.0,mountain_101.jpg,mountain,,,,AEK2SAEL9GG39
770,75,,1.0,55.0,bridge_65.jpg,bridge,,,,AEK2SAEL9GG39
771,76,,1.0,56.0,highway_415.jpg,highway,,,,AEK2SAEL9GG39
772,77,,1.0,57.0,playground_76.jpg,playground,,,,AEK2SAEL9GG39
773,78,,1.0,58.0,bridge_146.jpg,bridge,,,,AEK2SAEL9GG39
774,79,,1.0,59.0,highway_209.jpg,highway,,,,AEK2SAEL9GG39
775,80,,1.0,60.0,badlands_23.jpg,badlands,,,,AEK2SAEL9GG39
776,81,,1.0,61.0,golf_course_331.jpg,golf,,,,AEK2SAEL9GG39
777,82,,1.0,62.0,badlands_52.jpg,badlands,,,,AEK2SAEL9GG39
778,83,,1.0,63.0,highway_245.jpg,highway,,,,AEK2SAEL9GG39
779,84,,1.0,64.0,bridge_128.jpg,bridge,,,,AEK2SAEL9GG39
780,20,,1.0,0.0,golf_course_309.jpg,golf,,,,A3CSATWFK13YUG
781,21,,1.0,1.0,playground_144.jpg,playground,,,,A3CSATWFK13YUG
782,22,,1.0,2.0,bridge_256.jpg,bridge,,,,A3CSATWFK13YUG
783,23,,1.0,3.0,badlands_52.jpg,badlands,,,,A3CSATWFK13YUG
784,24,,1.0,4.0,mountain_57.jpg,mountain,,,,A3CSATWFK13YUG
785,25,,1.0,5.0,badlands_113.jpg,badlands,,,,A3CSATWFK13YUG
786,26,,1.0,6.0,highway_93.jpg,highway,,,,A3CSATWFK13YUG
787,27,,1.0,7.0,badlands_70.jpg,badlands,,,,A3CSATWFK13YUG
788,28,,1.0,8.0,badlands_24.jpg,badlands,,,,A3CSATWFK13YUG
789,29,,1.0,9.0,playground_257.jpg,playground,,,,A3CSATWFK13YUG
790,30,,1.0,10.0,highway_294.jpg,highway,,,,A3CSATWFK13YUG
791,31,,1.0,11.0,golf_course_87.jpg,golf,,,,A3CSATWFK13YUG
792,32,,1.0,12.0,playground_131.jpg,playground,,,,A3CSATWFK13YUG
793,33,right,1.0,13.0,right.jpg,,right,1.5908,,A3CSATWFK13YUG
794,34,,1.0,14.0,highway_273.jpg,highway,,,,A3CSATWFK13YUG
795,35,,1.0,15.0,highway_359.jpg,highway,,,,A3CSATWFK13YUG
796,36,,1.0,16.0,playground_240.jpg,playground,,,,A3CSATWFK13YUG
797,37,,1.0,17.0,bridge_128.jpg,bridge,,,,A3CSATWFK13YUG
798,38,,1.0,18.0,golf_course_217.jpg,golf,,,,A3CSATWFK13YUG
799,39,,1.0,19.0,bridge_191.jpg,bridge,,,,A3CSATWFK13YUG
800,40,right,0.0,20.0,left.jpg,,left,0.7867,,A3CSATWFK13YUG
801,41,,1.0,21.0,highway_156.jpg,highway,,,,A3CSATWFK13YUG
802,42,,1.0,22.0,bridge_146.jpg,bridge,,,,A3CSATWFK13YUG
803,43,,1.0,23.0,playground_219.jpg,playground,,,,A3CSATWFK13YUG
804,44,,1.0,24.0,mountain_154.jpg,mountain,,,,A3CSATWFK13YUG
805,45,,1.0,25.0,playground_60.jpg,playground,,,,A3CSATWFK13YUG
806,46,,1.0,26.0,golf_course_195.jpg,golf,,,,A3CSATWFK13YUG
807,47,,1.0,27.0,bridge_172.jpg,bridge,,,,A3CSATWFK13YUG
808,48,,1.0,28.0,mountain_230.jpg,mountain,,,,A3CSATWFK13YUG
809,49,,1.0,29.0,golf_course_193.jpg,golf,,,,A3CSATWFK13YUG
810,50,,1.0,30.0,bridge_91.jpg,bridge,,,,A3CSATWFK13YUG
811,51,,1.0,31.0,badlands_137.jpg,badlands,,,,A3CSATWFK13YUG
812,52,,1.0,32.0,highway_394.jpg,highway,,,,A3CSATWFK13YUG
813,53,,1.0,33.0,highway_209.jpg,highway,,,,A3CSATWFK13YUG
814,54,left,0.0,34.0,right.jpg,,right,0.2709,,A3CSATWFK13YUG
815,55,,1.0,35.0,bridge_108.jpg,bridge,,,,A3CSATWFK13YUG
816,56,,1.0,36.0,mountain_293.jpg,mountain,,,,A3CSATWFK13YUG
817,57,,1.0,37.0,badlands_21.jpg,badlands,,,,A3CSATWFK13YUG
818,58,,1.0,38.0,playground_117.jpg,playground,,,,A3CSATWFK13YUG
819,59,,1.0,39.0,bridge_202.jpg,bridge,,,,A3CSATWFK13YUG
820,60,,1.0,40.0,golf_course_15.jpg,golf,,,,A3CSATWFK13YUG
821,61,left,0.0,41.0,right.jpg,,right,0.5281,,A3CSATWFK13YUG
822,62,,1.0,42.0,badlands_23.jpg,badlands,,,,A3CSATWFK13YUG
823,63,,1.0,43.0,golf_course_188.jpg,golf,,,,A3CSATWFK13YUG
824,64,,1.0,44.0,badlands_184.jpg,badlands,,,,A3CSATWFK13YUG
825,65,,1.0,45.0,golf_course_331.jpg,golf,,,,A3CSATWFK13YUG
826,66,,1.0,46.0,mountain_222.jpg,mountain,,,,A3CSATWFK13YUG
827,67,,1.0,47.0,highway_415.jpg,highway,,,,A3CSATWFK13YUG
828,68,,1.0,48.0,golf_course_214.jpg,golf,,,,A3CSATWFK13YUG
829,69,,1.0,49.0,mountain_110.jpg,mountain,,,,A3CSATWFK13YUG
830,70,,1.0,50.0,bridge_65.jpg,bridge,,,,A3CSATWFK13YUG
831,71,,1.0,51.0,mountain_232.jpg,mountain,,,,A3CSATWFK13YUG
832,72,,1.0,52.0,mountain_101.jpg,mountain,,,,A3CSATWFK13YUG
833,73,right,0.0,53.0,left.jpg,,left,0.7522,,A3CSATWFK13YUG
834,74,,1.0,54.0,bridge_250.jpg,bridge,,,,A3CSATWFK13YUG
835,75,,1.0,55.0,badlands_221.jpg,badlands,,,,A3CSATWFK13YUG
836,76,,1.0,56.0,playground_10.jpg,playground,,,,A3CSATWFK13YUG
837,77,,1.0,57.0,golf_course_78.jpg,golf,,,,A3CSATWFK13YUG
838,78,,1.0,58.0,playground_76.jpg,playground,,,,A3CSATWFK13YUG
839,79,,1.0,59.0,playground_145.jpg,playground,,,,A3CSATWFK13YUG
840,80,,1.0,60.0,highway_177.jpg,highway,,,,A3CSATWFK13YUG
841,81,,1.0,61.0,highway_245.jpg,highway,,,,A3CSATWFK13YUG
842,82,,1.0,62.0,mountain_123.jpg,mountain,,,,A3CSATWFK13YUG
843,83,,1.0,63.0,badlands_222.jpg,badlands,,,,A3CSATWFK13YUG
844,84,,1.0,64.0,mountain_156.jpg,mountain,,,,A3CSATWFK13YUG
845,20,,1.0,0.0,golf_course_331.jpg,golf,,,,A1Y6CQ2AJ882MO
846,21,,1.0,1.0,mountain_232.jpg,mountain,,,,A1Y6CQ2AJ882MO
847,22,,1.0,2.0,golf_course_193.jpg,golf,,,,A1Y6CQ2AJ882MO
848,23,,1.0,3.0,playground_117.jpg,playground,,,,A1Y6CQ2AJ882MO
849,24,,1.0,4.0,golf_course_87.jpg,golf,,,,A1Y6CQ2AJ882MO
850,25,,1.0,5.0,bridge_108.jpg,bridge,,,,A1Y6CQ2AJ882MO
851,26,,1.0,6.0,highway_177.jpg,highway,,,,A1Y6CQ2AJ882MO
852,27,,1.0,7.0,bridge_128.jpg,bridge,,,,A1Y6CQ2AJ882MO
853,28,,1.0,8.0,mountain_230.jpg,mountain,,,,A1Y6CQ2AJ882MO
854,29,,1.0,9.0,mountain_293.jpg,mountain,,,,A1Y6CQ2AJ882MO
855,30,,1.0,10.0,mountain_110.jpg,mountain,,,,A1Y6CQ2AJ882MO
856,31,,1.0,11.0,badlands_113.jpg,badlands,,,,A1Y6CQ2AJ882MO
857,32,,1.0,12.0,golf_course_195.jpg,golf,,,,A1Y6CQ2AJ882MO
858,33,right,1.0,13.0,right.jpg,,right,1.3087,,A1Y6CQ2AJ882MO
859,34,,1.0,14.0,highway_415.jpg,highway,,,,A1Y6CQ2AJ882MO
860,35,,1.0,15.0,golf_course_214.jpg,golf,,,,A1Y6CQ2AJ882MO
861,36,,1.0,16.0,playground_257.jpg,playground,,,,A1Y6CQ2AJ882MO
862,37,,1.0,17.0,golf_course_188.jpg,golf,,,,A1Y6CQ2AJ882MO
863,38,,1.0,18.0,highway_209.jpg,highway,,,,A1Y6CQ2AJ882MO
864,39,,1.0,19.0,bridge_202.jpg,bridge,,,,A1Y6CQ2AJ882MO
865,40,right,1.0,20.0,right.jpg,,right,1.1772,,A1Y6CQ2AJ882MO
866,41,,1.0,21.0,bridge_91.jpg,bridge,,,,A1Y6CQ2AJ882MO
867,42,,1.0,22.0,highway_273.jpg,highway,,,,A1Y6CQ2AJ882MO
868,43,,1.0,23.0,mountain_222.jpg,mountain,,,,A1Y6CQ2AJ882MO
869,44,,1.0,24.0,bridge_256.jpg,bridge,,,,A1Y6CQ2AJ882MO
870,45,,1.0,25.0,badlands_137.jpg,badlands,,,,A1Y6CQ2AJ882MO
871,46,,1.0,26.0,badlands_21.jpg,badlands,,,,A1Y6CQ2AJ882MO
872,47,,1.0,27.0,playground_219.jpg,playground,,,,A1Y6CQ2AJ882MO
873,48,,1.0,28.0,golf_course_309.jpg,golf,,,,A1Y6CQ2AJ882MO
874,49,right,1.0,29.0,right.jpg,,right,1.3013,,A1Y6CQ2AJ882MO
875,50,,1.0,30.0,bridge_65.jpg,bridge,,,,A1Y6CQ2AJ882MO
876,51,,1.0,31.0,playground_144.jpg,playground,,,,A1Y6CQ2AJ882MO
877,52,,1.0,32.0,badlands_23.jpg,badlands,,,,A1Y6CQ2AJ882MO
878,53,,1.0,33.0,highway_394.jpg,highway,,,,A1Y6CQ2AJ882MO
879,54,,1.0,34.0,playground_145.jpg,playground,,,,A1Y6CQ2AJ882MO
880,55,,1.0,35.0,golf_course_15.jpg,golf,,,,A1Y6CQ2AJ882MO
881,56,right,1.0,36.0,right.jpg,,right,1.4914,,A1Y6CQ2AJ882MO
882,57,,1.0,37.0,mountain_123.jpg,mountain,,,,A1Y6CQ2AJ882MO
883,58,,1.0,38.0,highway_93.jpg,highway,,,,A1Y6CQ2AJ882MO
884,59,,1.0,39.0,bridge_146.jpg,bridge,,,,A1Y6CQ2AJ882MO
885,60,,1.0,40.0,golf_course_217.jpg,golf,,,,A1Y6CQ2AJ882MO
886,61,,1.0,41.0,golf_course_78.jpg,golf,,,,A1Y6CQ2AJ882MO
887,62,,1.0,42.0,playground_60.jpg,playground,,,,A1Y6CQ2AJ882MO
888,63,,1.0,43.0,highway_156.jpg,highway,,,,A1Y6CQ2AJ882MO
889,64,,1.0,44.0,playground_131.jpg,playground,,,,A1Y6CQ2AJ882MO
890,65,,1.0,45.0,mountain_101.jpg,mountain,,,,A1Y6CQ2AJ882MO
891,66,,1.0,46.0,mountain_156.jpg,mountain,,,,A1Y6CQ2AJ882MO
892,67,,1.0,47.0,bridge_191.jpg,bridge,,,,A1Y6CQ2AJ882MO
893,68,,1.0,48.0,playground_10.jpg,playground,,,,A1Y6CQ2AJ882MO
894,69,,1.0,49.0,badlands_222.jpg,badlands,,,,A1Y6CQ2AJ882MO
895,70,,1.0,50.0,badlands_184.jpg,badlands,,,,A1Y6CQ2AJ882MO
896,71,,1.0,51.0,bridge_250.jpg,bridge,,,,A1Y6CQ2AJ882MO
897,72,,1.0,52.0,highway_245.jpg,highway,,,,A1Y6CQ2AJ882MO
898,73,,1.0,53.0,bridge_172.jpg,bridge,,,,A1Y6CQ2AJ882MO
899,74,right,1.0,54.0,right.jpg,,right,1.5901,,A1Y6CQ2AJ882MO
900,75,,1.0,55.0,playground_76.jpg,playground,,,,A1Y6CQ2AJ882MO
901,76,,1.0,56.0,badlands_52.jpg,badlands,,,,A1Y6CQ2AJ882MO
902,77,,1.0,57.0,playground_240.jpg,playground,,,,A1Y6CQ2AJ882MO
903,78,,1.0,58.0,highway_294.jpg,highway,,,,A1Y6CQ2AJ882MO
904,79,,1.0,59.0,highway_359.jpg,highway,,,,A1Y6CQ2AJ882MO
905,80,,1.0,60.0,badlands_70.jpg,badlands,,,,A1Y6CQ2AJ882MO
906,81,,1.0,61.0,badlands_221.jpg,badlands,,,,A1Y6CQ2AJ882MO
907,82,,1.0,62.0,mountain_154.jpg,mountain,,,,A1Y6CQ2AJ882MO
908,83,,1.0,63.0,mountain_57.jpg,mountain,,,,A1Y6CQ2AJ882MO
909,84,,1.0,64.0,badlands_24.jpg,badlands,,,,A1Y6CQ2AJ882MO
910,20,,1.0,0.0,playground_76.jpg,playground,,,,A1SRSP0X39CGRW
911,21,,1.0,1.0,highway_177.jpg,highway,,,,A1SRSP0X39CGRW
912,22,,1.0,2.0,golf_course_78.jpg,golf,,,,A1SRSP0X39CGRW
913,23,,1.0,3.0,bridge_108.jpg,bridge,,,,A1SRSP0X39CGRW
914,24,,1.0,4.0,badlands_113.jpg,badlands,,,,A1SRSP0X39CGRW
915,25,,1.0,5.0,playground_240.jpg,playground,,,,A1SRSP0X39CGRW
916,26,,1.0,6.0,bridge_256.jpg,bridge,,,,A1SRSP0X39CGRW
917,27,,1.0,7.0,bridge_128.jpg,bridge,,,,A1SRSP0X39CGRW
918,28,,1.0,8.0,mountain_293.jpg,mountain,,,,A1SRSP0X39CGRW
919,29,,1.0,9.0,badlands_222.jpg,badlands,,,,A1SRSP0X39CGRW
920,30,,1.0,10.0,mountain_123.jpg,mountain,,,,A1SRSP0X39CGRW
921,31,,1.0,11.0,mountain_110.jpg,mountain,,,,A1SRSP0X39CGRW
922,32,,1.0,12.0,badlands_137.jpg,badlands,,,,A1SRSP0X39CGRW
923,33,right,1.0,13.0,right.jpg,,right,2.6067,,A1SRSP0X39CGRW
924,34,,1.0,14.0,playground_145.jpg,playground,,,,A1SRSP0X39CGRW
925,35,,1.0,15.0,golf_course_15.jpg,golf,,,,A1SRSP0X39CGRW
926,36,,1.0,16.0,bridge_250.jpg,bridge,,,,A1SRSP0X39CGRW
927,37,,1.0,17.0,bridge_91.jpg,bridge,,,,A1SRSP0X39CGRW
928,38,,1.0,18.0,badlands_24.jpg,badlands,,,,A1SRSP0X39CGRW
929,39,,1.0,19.0,mountain_57.jpg,mountain,,,,A1SRSP0X39CGRW
930,40,,1.0,20.0,badlands_23.jpg,badlands,,,,A1SRSP0X39CGRW
931,41,,1.0,21.0,mountain_156.jpg,mountain,,,,A1SRSP0X39CGRW
932,42,,1.0,22.0,golf_course_188.jpg,golf,,,,A1SRSP0X39CGRW
933,43,right,1.0,23.0,right.jpg,,right,0.1224,,A1SRSP0X39CGRW
934,44,,1.0,24.0,highway_93.jpg,highway,,,,A1SRSP0X39CGRW
935,45,,1.0,25.0,golf_course_195.jpg,golf,,,,A1SRSP0X39CGRW
936,46,,1.0,26.0,mountain_101.jpg,mountain,,,,A1SRSP0X39CGRW
937,47,,1.0,27.0,highway_209.jpg,highway,,,,A1SRSP0X39CGRW
938,48,,1.0,28.0,golf_course_87.jpg,golf,,,,A1SRSP0X39CGRW
939,49,,1.0,29.0,mountain_154.jpg,mountain,,,,A1SRSP0X39CGRW
940,50,right,1.0,30.0,right.jpg,,right,0.0098,,A1SRSP0X39CGRW
941,51,,1.0,31.0,playground_257.jpg,playground,,,,A1SRSP0X39CGRW
942,52,,1.0,32.0,golf_course_309.jpg,golf,,,,A1SRSP0X39CGRW
943,53,,1.0,33.0,golf_course_331.jpg,golf,,,,A1SRSP0X39CGRW
944,54,,1.0,34.0,mountain_230.jpg,mountain,,,,A1SRSP0X39CGRW
945,55,,1.0,35.0,highway_294.jpg,highway,,,,A1SRSP0X39CGRW
946,56,,1.0,36.0,bridge_65.jpg,bridge,,,,A1SRSP0X39CGRW
947,57,,1.0,37.0,highway_359.jpg,highway,,,,A1SRSP0X39CGRW
948,58,right,0.0,38.0,left.jpg,,left,0.0107,,A1SRSP0X39CGRW
949,59,,1.0,39.0,bridge_172.jpg,bridge,,,,A1SRSP0X39CGRW
950,60,,1.0,40.0,playground_144.jpg,playground,,,,A1SRSP0X39CGRW
951,61,,1.0,41.0,mountain_232.jpg,mountain,,,,A1SRSP0X39CGRW
952,62,,1.0,42.0,golf_course_193.jpg,golf,,,,A1SRSP0X39CGRW
953,63,,1.0,43.0,golf_course_217.jpg,golf,,,,A1SRSP0X39CGRW
954,64,,1.0,44.0,badlands_221.jpg,badlands,,,,A1SRSP0X39CGRW
955,65,,1.0,45.0,mountain_222.jpg,mountain,,,,A1SRSP0X39CGRW
956,66,,1.0,46.0,highway_415.jpg,highway,,,,A1SRSP0X39CGRW
957,67,,1.0,47.0,bridge_191.jpg,bridge,,,,A1SRSP0X39CGRW
958,68,right,0.0,48.0,left.jpg,,left,1.9036,,A1SRSP0X39CGRW
959,69,,1.0,49.0,badlands_52.jpg,badlands,,,,A1SRSP0X39CGRW
960,70,,1.0,50.0,badlands_21.jpg,badlands,,,,A1SRSP0X39CGRW
961,71,,1.0,51.0,golf_course_214.jpg,golf,,,,A1SRSP0X39CGRW
962,72,,1.0,52.0,playground_117.jpg,playground,,,,A1SRSP0X39CGRW
963,73,,1.0,53.0,playground_60.jpg,playground,,,,A1SRSP0X39CGRW
964,74,,1.0,54.0,bridge_146.jpg,bridge,,,,A1SRSP0X39CGRW
965,75,,1.0,55.0,highway_156.jpg,highway,,,,A1SRSP0X39CGRW
966,76,,1.0,56.0,bridge_202.jpg,bridge,,,,A1SRSP0X39CGRW
967,77,,1.0,57.0,badlands_70.jpg,badlands,,,,A1SRSP0X39CGRW
968,78,,1.0,58.0,playground_131.jpg,playground,,,,A1SRSP0X39CGRW
969,79,,1.0,59.0,playground_219.jpg,playground,,,,A1SRSP0X39CGRW
970,80,,1.0,60.0,playground_10.jpg,playground,,,,A1SRSP0X39CGRW
971,81,,1.0,61.0,highway_394.jpg,highway,,,,A1SRSP0X39CGRW
972,82,,1.0,62.0,highway_245.jpg,highway,,,,A1SRSP0X39CGRW
973,83,,1.0,63.0,badlands_184.jpg,badlands,,,,A1SRSP0X39CGRW
974,84,,1.0,64.0,highway_273.jpg,highway,,,,A1SRSP0X39CGRW
975,20,,1.0,0.0,golf_course_15.jpg,golf,,,,A3A7ZQXHKZQ71I
976,21,,1.0,1.0,bridge_191.jpg,bridge,,,,A3A7ZQXHKZQ71I
977,22,,1.0,2.0,badlands_70.jpg,badlands,,,,A3A7ZQXHKZQ71I
978,23,,1.0,3.0,badlands_113.jpg,badlands,,,,A3A7ZQXHKZQ71I
979,24,,1.0,4.0,highway_394.jpg,highway,,,,A3A7ZQXHKZQ71I
980,25,,1.0,5.0,mountain_57.jpg,mountain,,,,A3A7ZQXHKZQ71I
981,26,,1.0,6.0,playground_257.jpg,playground,,,,A3A7ZQXHKZQ71I
982,27,,1.0,7.0,golf_course_78.jpg,golf,,,,A3A7ZQXHKZQ71I
983,28,,1.0,8.0,highway_359.jpg,highway,,,,A3A7ZQXHKZQ71I
984,29,,1.0,9.0,golf_course_195.jpg,golf,,,,A3A7ZQXHKZQ71I
985,30,,1.0,10.0,playground_144.jpg,playground,,,,A3A7ZQXHKZQ71I
986,31,,1.0,11.0,badlands_52.jpg,badlands,,,,A3A7ZQXHKZQ71I
987,32,,1.0,12.0,badlands_221.jpg,badlands,,,,A3A7ZQXHKZQ71I
988,33,,1.0,13.0,bridge_202.jpg,bridge,,,,A3A7ZQXHKZQ71I
989,34,left,1.0,14.0,left.jpg,,left,1.0539,,A3A7ZQXHKZQ71I
990,35,,1.0,15.0,playground_117.jpg,playground,,,,A3A7ZQXHKZQ71I
991,36,,1.0,16.0,bridge_65.jpg,bridge,,,,A3A7ZQXHKZQ71I
992,37,right,1.0,17.0,right.jpg,,right,1.5554,,A3A7ZQXHKZQ71I
993,38,,1.0,18.0,bridge_256.jpg,bridge,,,,A3A7ZQXHKZQ71I
994,39,,1.0,19.0,mountain_154.jpg,mountain,,,,A3A7ZQXHKZQ71I
995,40,,1.0,20.0,golf_course_87.jpg,golf,,,,A3A7ZQXHKZQ71I
996,41,,1.0,21.0,mountain_293.jpg,mountain,,,,A3A7ZQXHKZQ71I
997,42,,1.0,22.0,playground_240.jpg,playground,,,,A3A7ZQXHKZQ71I
998,43,,1.0,23.0,mountain_123.jpg,mountain,,,,A3A7ZQXHKZQ71I
999,44,,1.0,24.0,mountain_110.jpg,mountain,,,,A3A7ZQXHKZQ71I
1000,45,,1.0,25.0,highway_93.jpg,highway,,,,A3A7ZQXHKZQ71I
1001,46,,1.0,26.0,mountain_222.jpg,mountain,,,,A3A7ZQXHKZQ71I
1002,47,,1.0,27.0,golf_course_217.jpg,golf,,,,A3A7ZQXHKZQ71I
1003,48,,1.0,28.0,badlands_137.jpg,badlands,,,,A3A7ZQXHKZQ71I
1004,49,,1.0,29.0,mountain_232.jpg,mountain,,,,A3A7ZQXHKZQ71I
1005,50,left,1.0,30.0,left.jpg,,left,2.158,,A3A7ZQXHKZQ71I
1006,51,,1.0,31.0,badlands_23.jpg,badlands,,,,A3A7ZQXHKZQ71I
1007,52,,1.0,32.0,playground_60.jpg,playground,,,,A3A7ZQXHKZQ71I
1008,53,,1.0,33.0,mountain_230.jpg,mountain,,,,A3A7ZQXHKZQ71I
1009,54,,1.0,34.0,playground_76.jpg,playground,,,,A3A7ZQXHKZQ71I
1010,55,,1.0,35.0,bridge_91.jpg,bridge,,,,A3A7ZQXHKZQ71I
1011,56,,1.0,36.0,highway_156.jpg,highway,,,,A3A7ZQXHKZQ71I
1012,57,,1.0,37.0,bridge_250.jpg,bridge,,,,A3A7ZQXHKZQ71I
1013,58,left,1.0,38.0,left.jpg,,left,0.9108,,A3A7ZQXHKZQ71I
1014,59,,1.0,39.0,golf_course_193.jpg,golf,,,,A3A7ZQXHKZQ71I
1015,60,,1.0,40.0,mountain_101.jpg,mountain,,,,A3A7ZQXHKZQ71I
1016,61,,1.0,41.0,playground_10.jpg,playground,,,,A3A7ZQXHKZQ71I
1017,62,,1.0,42.0,highway_245.jpg,highway,,,,A3A7ZQXHKZQ71I
1018,63,,1.0,43.0,playground_219.jpg,playground,,,,A3A7ZQXHKZQ71I
1019,64,,1.0,44.0,badlands_21.jpg,badlands,,,,A3A7ZQXHKZQ71I
1020,65,,1.0,45.0,bridge_108.jpg,bridge,,,,A3A7ZQXHKZQ71I
1021,66,,1.0,46.0,bridge_146.jpg,bridge,,,,A3A7ZQXHKZQ71I
1022,67,,1.0,47.0,badlands_24.jpg,badlands,,,,A3A7ZQXHKZQ71I
1023,68,,1.0,48.0,golf_course_188.jpg,golf,,,,A3A7ZQXHKZQ71I
1024,69,,1.0,49.0,playground_145.jpg,playground,,,,A3A7ZQXHKZQ71I
1025,70,,1.0,50.0,highway_415.jpg,highway,,,,A3A7ZQXHKZQ71I
1026,71,,1.0,51.0,playground_131.jpg,playground,,,,A3A7ZQXHKZQ71I
1027,72,,1.0,52.0,badlands_222.jpg,badlands,,,,A3A7ZQXHKZQ71I
1028,73,,1.0,53.0,golf_course_309.jpg,golf,,,,A3A7ZQXHKZQ71I
1029,74,right,1.0,54.0,right.jpg,,right,0.8436,,A3A7ZQXHKZQ71I
1030,75,,1.0,55.0,golf_course_331.jpg,golf,,,,A3A7ZQXHKZQ71I
1031,76,,1.0,56.0,badlands_184.jpg,badlands,,,,A3A7ZQXHKZQ71I
1032,77,,1.0,57.0,golf_course_214.jpg,golf,,,,A3A7ZQXHKZQ71I
1033,78,,1.0,58.0,bridge_128.jpg,bridge,,,,A3A7ZQXHKZQ71I
1034,79,,1.0,59.0,bridge_172.jpg,bridge,,,,A3A7ZQXHKZQ71I
1035,80,,1.0,60.0,highway_273.jpg,highway,,,,A3A7ZQXHKZQ71I
1036,81,,1.0,61.0,highway_209.jpg,highway,,,,A3A7ZQXHKZQ71I
1037,82,,1.0,62.0,mountain_156.jpg,mountain,,,,A3A7ZQXHKZQ71I
1038,83,,1.0,63.0,highway_294.jpg,highway,,,,A3A7ZQXHKZQ71I
1039,84,,1.0,64.0,highway_177.jpg,highway,,,,A3A7ZQXHKZQ71I
1040,20,,1.0,0.0,mountain_293.jpg,mountain,,,,AGAF4OJP26B53
1041,21,,1.0,1.0,golf_course_15.jpg,golf,,,,AGAF4OJP26B53
1042,22,,1.0,2.0,bridge_172.jpg,bridge,,,,AGAF4OJP26B53
1043,23,,1.0,3.0,playground_76.jpg,playground,,,,AGAF4OJP26B53
1044,24,,1.0,4.0,highway_415.jpg,highway,,,,AGAF4OJP26B53
1045,25,,1.0,5.0,bridge_146.jpg,bridge,,,,AGAF4OJP26B53
1046,26,,1.0,6.0,mountain_101.jpg,mountain,,,,AGAF4OJP26B53
1047,27,left,1.0,7.0,left.jpg,,left,1.093,,AGAF4OJP26B53
1048,28,,1.0,8.0,highway_177.jpg,highway,,,,AGAF4OJP26B53
1049,29,,1.0,9.0,bridge_191.jpg,bridge,,,,AGAF4OJP26B53
1050,30,,1.0,10.0,golf_course_309.jpg,golf,,,,AGAF4OJP26B53
1051,31,,1.0,11.0,golf_course_188.jpg,golf,,,,AGAF4OJP26B53
1052,32,,1.0,12.0,highway_273.jpg,highway,,,,AGAF4OJP26B53
1053,33,,1.0,13.0,bridge_91.jpg,bridge,,,,AGAF4OJP26B53
1054,34,,1.0,14.0,highway_156.jpg,highway,,,,AGAF4OJP26B53
1055,35,,1.0,15.0,golf_course_214.jpg,golf,,,,AGAF4OJP26B53
1056,36,,1.0,16.0,mountain_230.jpg,mountain,,,,AGAF4OJP26B53
1057,37,,1.0,17.0,badlands_222.jpg,badlands,,,,AGAF4OJP26B53
1058,38,,1.0,18.0,bridge_128.jpg,bridge,,,,AGAF4OJP26B53
1059,39,right,1.0,19.0,right.jpg,,right,1.708,,AGAF4OJP26B53
1060,40,,1.0,20.0,highway_209.jpg,highway,,,,AGAF4OJP26B53
1061,41,,1.0,21.0,badlands_221.jpg,badlands,,,,AGAF4OJP26B53
1062,42,,1.0,22.0,highway_394.jpg,highway,,,,AGAF4OJP26B53
1063,43,,1.0,23.0,playground_131.jpg,playground,,,,AGAF4OJP26B53
1064,44,,1.0,24.0,badlands_70.jpg,badlands,,,,AGAF4OJP26B53
1065,45,,1.0,25.0,badlands_184.jpg,badlands,,,,AGAF4OJP26B53
1066,46,,1.0,26.0,golf_course_87.jpg,golf,,,,AGAF4OJP26B53
1067,47,,1.0,27.0,golf_course_217.jpg,golf,,,,AGAF4OJP26B53
1068,48,,1.0,28.0,playground_145.jpg,playground,,,,AGAF4OJP26B53
1069,49,,1.0,29.0,badlands_24.jpg,badlands,,,,AGAF4OJP26B53
1070,50,,1.0,30.0,badlands_52.jpg,badlands,,,,AGAF4OJP26B53
1071,51,left,1.0,31.0,left.jpg,,left,1.193,,AGAF4OJP26B53
1072,52,,1.0,32.0,highway_294.jpg,highway,,,,AGAF4OJP26B53
1073,53,,1.0,33.0,mountain_110.jpg,mountain,,,,AGAF4OJP26B53
1074,54,,1.0,34.0,golf_course_331.jpg,golf,,,,AGAF4OJP26B53
1075,55,,1.0,35.0,badlands_137.jpg,badlands,,,,AGAF4OJP26B53
1076,56,,1.0,36.0,mountain_156.jpg,mountain,,,,AGAF4OJP26B53
1077,57,,1.0,37.0,highway_93.jpg,highway,,,,AGAF4OJP26B53
1078,58,left,1.0,38.0,left.jpg,,left,1.505,,AGAF4OJP26B53
1079,59,,1.0,39.0,playground_257.jpg,playground,,,,AGAF4OJP26B53
1080,60,,1.0,40.0,bridge_250.jpg,bridge,,,,AGAF4OJP26B53
1081,61,,1.0,41.0,golf_course_195.jpg,golf,,,,AGAF4OJP26B53
1082,62,,1.0,42.0,bridge_256.jpg,bridge,,,,AGAF4OJP26B53
1083,63,,1.0,43.0,mountain_232.jpg,mountain,,,,AGAF4OJP26B53
1084,64,,1.0,44.0,badlands_113.jpg,badlands,,,,AGAF4OJP26B53
1085,65,,1.0,45.0,bridge_108.jpg,bridge,,,,AGAF4OJP26B53
1086,66,,1.0,46.0,badlands_23.jpg,badlands,,,,AGAF4OJP26B53
1087,67,,1.0,47.0,mountain_57.jpg,mountain,,,,AGAF4OJP26B53
1088,68,right,1.0,48.0,right.jpg,,right,1.507,,AGAF4OJP26B53
1089,69,,1.0,49.0,playground_219.jpg,playground,,,,AGAF4OJP26B53
1090,70,,1.0,50.0,playground_60.jpg,playground,,,,AGAF4OJP26B53
1091,71,,1.0,51.0,playground_10.jpg,playground,,,,AGAF4OJP26B53
1092,72,,1.0,52.0,playground_240.jpg,playground,,,,AGAF4OJP26B53
1093,73,,1.0,53.0,highway_359.jpg,highway,,,,AGAF4OJP26B53
1094,74,,1.0,54.0,playground_144.jpg,playground,,,,AGAF4OJP26B53
1095,75,,1.0,55.0,mountain_222.jpg,mountain,,,,AGAF4OJP26B53
1096,76,,1.0,56.0,highway_245.jpg,highway,,,,AGAF4OJP26B53
1097,77,,1.0,57.0,badlands_21.jpg,badlands,,,,AGAF4OJP26B53
1098,78,,1.0,58.0,mountain_123.jpg,mountain,,,,AGAF4OJP26B53
1099,79,,1.0,59.0,bridge_202.jpg,bridge,,,,AGAF4OJP26B53
1100,80,,1.0,60.0,golf_course_78.jpg,golf,,,,AGAF4OJP26B53
1101,81,,1.0,61.0,golf_course_193.jpg,golf,,,,AGAF4OJP26B53
1102,82,,1.0,62.0,bridge_65.jpg,bridge,,,,AGAF4OJP26B53
1103,83,,1.0,63.0,playground_117.jpg,playground,,,,AGAF4OJP26B53
1104,84,,1.0,64.0,mountain_154.jpg,mountain,,,,AGAF4OJP26B53
1105,20,,1.0,0.0,highway_93.jpg,highway,,,,A3DW6KSQPG6GVQ
1106,21,,1.0,1.0,mountain_101.jpg,mountain,,,,A3DW6KSQPG6GVQ
1107,22,,1.0,2.0,playground_76.jpg,playground,,,,A3DW6KSQPG6GVQ
1108,23,,1.0,3.0,badlands_113.jpg,badlands,,,,A3DW6KSQPG6GVQ
1109,24,,1.0,4.0,playground_117.jpg,playground,,,,A3DW6KSQPG6GVQ
1110,25,,1.0,5.0,golf_course_188.jpg,golf,,,,A3DW6KSQPG6GVQ
1111,26,right,1.0,6.0,right.jpg,,right,0.7606,,A3DW6KSQPG6GVQ
1112,27,,1.0,7.0,highway_294.jpg,highway,,,,A3DW6KSQPG6GVQ
1113,28,,1.0,8.0,bridge_191.jpg,bridge,,,,A3DW6KSQPG6GVQ
1114,29,,1.0,9.0,playground_219.jpg,playground,,,,A3DW6KSQPG6GVQ
1115,30,,1.0,10.0,golf_course_214.jpg,golf,,,,A3DW6KSQPG6GVQ
1116,31,,1.0,11.0,mountain_154.jpg,mountain,,,,A3DW6KSQPG6GVQ
1117,32,,1.0,12.0,highway_394.jpg,highway,,,,A3DW6KSQPG6GVQ
1118,33,,1.0,13.0,golf_course_193.jpg,golf,,,,A3DW6KSQPG6GVQ
1119,34,,1.0,14.0,mountain_57.jpg,mountain,,,,A3DW6KSQPG6GVQ
1120,35,,1.0,15.0,golf_course_15.jpg,golf,,,,A3DW6KSQPG6GVQ
1121,36,,1.0,16.0,bridge_108.jpg,bridge,,,,A3DW6KSQPG6GVQ
1122,37,,1.0,17.0,golf_course_309.jpg,golf,,,,A3DW6KSQPG6GVQ
1123,38,,1.0,18.0,bridge_128.jpg,bridge,,,,A3DW6KSQPG6GVQ
1124,39,,1.0,19.0,mountain_232.jpg,mountain,,,,A3DW6KSQPG6GVQ
1125,40,,1.0,20.0,playground_144.jpg,playground,,,,A3DW6KSQPG6GVQ
1126,41,,1.0,21.0,bridge_146.jpg,bridge,,,,A3DW6KSQPG6GVQ
1127,42,right,1.0,22.0,right.jpg,,right,0.7079,,A3DW6KSQPG6GVQ
1128,43,,1.0,23.0,bridge_91.jpg,bridge,,,,A3DW6KSQPG6GVQ
1129,44,,1.0,24.0,mountain_222.jpg,mountain,,,,A3DW6KSQPG6GVQ
1130,45,,1.0,25.0,golf_course_195.jpg,golf,,,,A3DW6KSQPG6GVQ
1131,46,,1.0,26.0,badlands_137.jpg,badlands,,,,A3DW6KSQPG6GVQ
1132,47,,1.0,27.0,highway_415.jpg,highway,,,,A3DW6KSQPG6GVQ
1133,48,,1.0,28.0,mountain_110.jpg,mountain,,,,A3DW6KSQPG6GVQ
1134,49,,1.0,29.0,bridge_256.jpg,bridge,,,,A3DW6KSQPG6GVQ
1135,50,,1.0,30.0,golf_course_78.jpg,golf,,,,A3DW6KSQPG6GVQ
1136,51,left,1.0,31.0,left.jpg,,left,0.9058,,A3DW6KSQPG6GVQ
1137,52,,1.0,32.0,badlands_24.jpg,badlands,,,,A3DW6KSQPG6GVQ
1138,53,,1.0,33.0,badlands_23.jpg,badlands,,,,A3DW6KSQPG6GVQ
1139,54,,1.0,34.0,playground_131.jpg,playground,,,,A3DW6KSQPG6GVQ
1140,55,,1.0,35.0,badlands_21.jpg,badlands,,,,A3DW6KSQPG6GVQ
1141,56,left,1.0,36.0,left.jpg,,left,1.1569,,A3DW6KSQPG6GVQ
1142,57,,1.0,37.0,playground_240.jpg,playground,,,,A3DW6KSQPG6GVQ
1143,58,,1.0,38.0,highway_177.jpg,highway,,,,A3DW6KSQPG6GVQ
1144,59,,1.0,39.0,golf_course_331.jpg,golf,,,,A3DW6KSQPG6GVQ
1145,60,,1.0,40.0,playground_145.jpg,playground,,,,A3DW6KSQPG6GVQ
1146,61,,1.0,41.0,playground_257.jpg,playground,,,,A3DW6KSQPG6GVQ
1147,62,,1.0,42.0,mountain_230.jpg,mountain,,,,A3DW6KSQPG6GVQ
1148,63,,1.0,43.0,highway_156.jpg,highway,,,,A3DW6KSQPG6GVQ
1149,64,,1.0,44.0,highway_245.jpg,highway,,,,A3DW6KSQPG6GVQ
1150,65,,1.0,45.0,golf_course_217.jpg,golf,,,,A3DW6KSQPG6GVQ
1151,66,left,1.0,46.0,left.jpg,,left,0.8176,,A3DW6KSQPG6GVQ
1152,67,,1.0,47.0,mountain_123.jpg,mountain,,,,A3DW6KSQPG6GVQ
1153,68,,1.0,48.0,badlands_52.jpg,badlands,,,,A3DW6KSQPG6GVQ
1154,69,,1.0,49.0,mountain_156.jpg,mountain,,,,A3DW6KSQPG6GVQ
1155,70,,1.0,50.0,bridge_65.jpg,bridge,,,,A3DW6KSQPG6GVQ
1156,71,,1.0,51.0,golf_course_87.jpg,golf,,,,A3DW6KSQPG6GVQ
1157,72,,1.0,52.0,bridge_202.jpg,bridge,,,,A3DW6KSQPG6GVQ
1158,73,,1.0,53.0,bridge_250.jpg,bridge,,,,A3DW6KSQPG6GVQ
1159,74,,1.0,54.0,playground_10.jpg,playground,,,,A3DW6KSQPG6GVQ
1160,75,,1.0,55.0,playground_60.jpg,playground,,,,A3DW6KSQPG6GVQ
1161,76,,1.0,56.0,badlands_222.jpg,badlands,,,,A3DW6KSQPG6GVQ
1162,77,,1.0,57.0,badlands_70.jpg,badlands,,,,A3DW6KSQPG6GVQ
1163,78,,1.0,58.0,highway_359.jpg,highway,,,,A3DW6KSQPG6GVQ
1164,79,,1.0,59.0,highway_209.jpg,highway,,,,A3DW6KSQPG6GVQ
1165,80,,1.0,60.0,bridge_172.jpg,bridge,,,,A3DW6KSQPG6GVQ
1166,81,,1.0,61.0,mountain_293.jpg,mountain,,,,A3DW6KSQPG6GVQ
1167,82,,1.0,62.0,highway_273.jpg,highway,,,,A3DW6KSQPG6GVQ
1168,83,,1.0,63.0,badlands_184.jpg,badlands,,,,A3DW6KSQPG6GVQ
1169,84,,1.0,64.0,badlands_221.jpg,badlands,,,,A3DW6KSQPG6GVQ
1170,20,,1.0,0.0,highway_245.jpg,highway,,,,A2615YW1YERQBO
1171,21,,1.0,1.0,badlands_222.jpg,badlands,,,,A2615YW1YERQBO
1172,22,,1.0,2.0,highway_209.jpg,highway,,,,A2615YW1YERQBO
1173,23,,1.0,3.0,badlands_23.jpg,badlands,,,,A2615YW1YERQBO
1174,24,,1.0,4.0,badlands_70.jpg,badlands,,,,A2615YW1YERQBO
1175,25,,1.0,5.0,bridge_65.jpg,bridge,,,,A2615YW1YERQBO
1176,26,,1.0,6.0,golf_course_214.jpg,golf,,,,A2615YW1YERQBO
1177,27,,1.0,7.0,mountain_232.jpg,mountain,,,,A2615YW1YERQBO
1178,28,,1.0,8.0,playground_144.jpg,playground,,,,A2615YW1YERQBO
1179,29,,1.0,9.0,golf_course_309.jpg,golf,,,,A2615YW1YERQBO
1180,30,,1.0,10.0,mountain_57.jpg,mountain,,,,A2615YW1YERQBO
1181,31,,1.0,11.0,mountain_101.jpg,mountain,,,,A2615YW1YERQBO
1182,32,,1.0,12.0,highway_294.jpg,highway,,,,A2615YW1YERQBO
1183,33,left,1.0,13.0,left.jpg,,left,1.6508,,A2615YW1YERQBO
1184,34,,1.0,14.0,golf_course_331.jpg,golf,,,,A2615YW1YERQBO
1185,35,,1.0,15.0,bridge_202.jpg,bridge,,,,A2615YW1YERQBO
1186,36,,1.0,16.0,golf_course_188.jpg,golf,,,,A2615YW1YERQBO
1187,37,,1.0,17.0,bridge_108.jpg,bridge,,,,A2615YW1YERQBO
1188,38,,1.0,18.0,golf_course_217.jpg,golf,,,,A2615YW1YERQBO
1189,39,,1.0,19.0,playground_10.jpg,playground,,,,A2615YW1YERQBO
1190,40,,1.0,20.0,mountain_154.jpg,mountain,,,,A2615YW1YERQBO
1191,41,,1.0,21.0,highway_156.jpg,highway,,,,A2615YW1YERQBO
1192,42,,1.0,22.0,mountain_110.jpg,mountain,,,,A2615YW1YERQBO
1193,43,left,1.0,23.0,left.jpg,,left,0.8437,,A2615YW1YERQBO
1194,44,,1.0,24.0,badlands_113.jpg,badlands,,,,A2615YW1YERQBO
1195,45,,1.0,25.0,badlands_221.jpg,badlands,,,,A2615YW1YERQBO
1196,46,,1.0,26.0,mountain_156.jpg,mountain,,,,A2615YW1YERQBO
1197,47,,1.0,27.0,mountain_123.jpg,mountain,,,,A2615YW1YERQBO
1198,48,,1.0,28.0,bridge_91.jpg,bridge,,,,A2615YW1YERQBO
1199,49,,1.0,29.0,bridge_191.jpg,bridge,,,,A2615YW1YERQBO
1200,50,,1.0,30.0,mountain_222.jpg,mountain,,,,A2615YW1YERQBO
1201,51,,1.0,31.0,badlands_52.jpg,badlands,,,,A2615YW1YERQBO
1202,52,left,1.0,32.0,left.jpg,,left,1.0161,,A2615YW1YERQBO
1203,53,,1.0,33.0,golf_course_195.jpg,golf,,,,A2615YW1YERQBO
1204,54,,1.0,34.0,highway_415.jpg,highway,,,,A2615YW1YERQBO
1205,55,,1.0,35.0,playground_145.jpg,playground,,,,A2615YW1YERQBO
1206,56,right,1.0,36.0,right.jpg,,right,0.8301,,A2615YW1YERQBO
1207,57,,1.0,37.0,badlands_137.jpg,badlands,,,,A2615YW1YERQBO
1208,58,,1.0,38.0,bridge_250.jpg,bridge,,,,A2615YW1YERQBO
1209,59,,1.0,39.0,mountain_230.jpg,mountain,,,,A2615YW1YERQBO
1210,60,,1.0,40.0,playground_76.jpg,playground,,,,A2615YW1YERQBO
1211,61,,1.0,41.0,bridge_146.jpg,bridge,,,,A2615YW1YERQBO
1212,62,,1.0,42.0,golf_course_193.jpg,golf,,,,A2615YW1YERQBO
1213,63,,1.0,43.0,badlands_184.jpg,badlands,,,,A2615YW1YERQBO
1214,64,,1.0,44.0,bridge_256.jpg,bridge,,,,A2615YW1YERQBO
1215,65,,1.0,45.0,highway_359.jpg,highway,,,,A2615YW1YERQBO
1216,66,,1.0,46.0,highway_273.jpg,highway,,,,A2615YW1YERQBO
1217,67,,1.0,47.0,playground_240.jpg,playground,,,,A2615YW1YERQBO
1218,68,,1.0,48.0,playground_219.jpg,playground,,,,A2615YW1YERQBO
1219,69,right,1.0,49.0,right.jpg,,right,0.8197,,A2615YW1YERQBO
1220,70,,1.0,50.0,highway_394.jpg,highway,,,,A2615YW1YERQBO
1221,71,,1.0,51.0,badlands_24.jpg,badlands,,,,A2615YW1YERQBO
1222,72,,1.0,52.0,mountain_293.jpg,mountain,,,,A2615YW1YERQBO
1223,73,,1.0,53.0,badlands_21.jpg,badlands,,,,A2615YW1YERQBO
1224,74,,1.0,54.0,golf_course_87.jpg,golf,,,,A2615YW1YERQBO
1225,75,,1.0,55.0,highway_177.jpg,highway,,,,A2615YW1YERQBO
1226,76,,1.0,56.0,playground_257.jpg,playground,,,,A2615YW1YERQBO
1227,77,,1.0,57.0,playground_60.jpg,playground,,,,A2615YW1YERQBO
1228,78,,1.0,58.0,highway_93.jpg,highway,,,,A2615YW1YERQBO
1229,79,,1.0,59.0,playground_131.jpg,playground,,,,A2615YW1YERQBO
1230,80,,1.0,60.0,playground_117.jpg,playground,,,,A2615YW1YERQBO
1231,81,,1.0,61.0,bridge_172.jpg,bridge,,,,A2615YW1YERQBO
1232,82,,1.0,62.0,golf_course_15.jpg,golf,,,,A2615YW1YERQBO
1233,83,,1.0,63.0,golf_course_78.jpg,golf,,,,A2615YW1YERQBO
1234,84,,1.0,64.0,bridge_128.jpg,bridge,,,,A2615YW1YERQBO
1235,20,,1.0,0.0,highway_245.jpg,highway,,,,A2AAS1LLCLM1R7
1236,21,,1.0,1.0,highway_415.jpg,highway,,,,A2AAS1LLCLM1R7
1237,22,,1.0,2.0,playground_76.jpg,playground,,,,A2AAS1LLCLM1R7
1238,23,,1.0,3.0,badlands_221.jpg,badlands,,,,A2AAS1LLCLM1R7
1239,24,,1.0,4.0,badlands_113.jpg,badlands,,,,A2AAS1LLCLM1R7
1240,25,,1.0,5.0,highway_273.jpg,highway,,,,A2AAS1LLCLM1R7
1241,26,,1.0,6.0,highway_209.jpg,highway,,,,A2AAS1LLCLM1R7
1242,27,,1.0,7.0,bridge_256.jpg,bridge,,,,A2AAS1LLCLM1R7
1243,28,,1.0,8.0,badlands_52.jpg,badlands,,,,A2AAS1LLCLM1R7
1244,29,,1.0,9.0,bridge_191.jpg,bridge,,,,A2AAS1LLCLM1R7
1245,30,,1.0,10.0,mountain_222.jpg,mountain,,,,A2AAS1LLCLM1R7
1246,31,,1.0,11.0,mountain_57.jpg,mountain,,,,A2AAS1LLCLM1R7
1247,32,,0.0,12.0,right.jpg,,right,,,A2AAS1LLCLM1R7
1248,33,,1.0,13.0,highway_177.jpg,highway,,,,A2AAS1LLCLM1R7
1249,34,,1.0,14.0,bridge_202.jpg,bridge,,,,A2AAS1LLCLM1R7
1250,35,,1.0,15.0,highway_359.jpg,highway,,,,A2AAS1LLCLM1R7
1251,36,,1.0,16.0,badlands_70.jpg,badlands,,,,A2AAS1LLCLM1R7
1252,37,,1.0,17.0,badlands_24.jpg,badlands,,,,A2AAS1LLCLM1R7
1253,38,,1.0,18.0,golf_course_87.jpg,golf,,,,A2AAS1LLCLM1R7
1254,39,right,1.0,19.0,right.jpg,,right,1.8763,,A2AAS1LLCLM1R7
1255,40,,1.0,20.0,bridge_108.jpg,bridge,,,,A2AAS1LLCLM1R7
1256,41,,1.0,21.0,golf_course_193.jpg,golf,,,,A2AAS1LLCLM1R7
1257,42,,1.0,22.0,highway_294.jpg,highway,,,,A2AAS1LLCLM1R7
1258,43,,1.0,23.0,mountain_154.jpg,mountain,,,,A2AAS1LLCLM1R7
1259,44,,1.0,24.0,mountain_123.jpg,mountain,,,,A2AAS1LLCLM1R7
1260,45,,1.0,25.0,golf_course_78.jpg,golf,,,,A2AAS1LLCLM1R7
1261,46,,1.0,26.0,golf_course_15.jpg,golf,,,,A2AAS1LLCLM1R7
1262,47,,1.0,27.0,golf_course_195.jpg,golf,,,,A2AAS1LLCLM1R7
1263,48,,1.0,28.0,playground_10.jpg,playground,,,,A2AAS1LLCLM1R7
1264,49,,1.0,29.0,badlands_137.jpg,badlands,,,,A2AAS1LLCLM1R7
1265,50,,1.0,30.0,mountain_101.jpg,mountain,,,,A2AAS1LLCLM1R7
1266,51,,1.0,31.0,badlands_23.jpg,badlands,,,,A2AAS1LLCLM1R7
1267,52,right,1.0,32.0,right.jpg,,right,1.0755,,A2AAS1LLCLM1R7
1268,53,,1.0,33.0,mountain_293.jpg,mountain,,,,A2AAS1LLCLM1R7
1269,54,,1.0,34.0,playground_117.jpg,playground,,,,A2AAS1LLCLM1R7
1270,55,,1.0,35.0,badlands_21.jpg,badlands,,,,A2AAS1LLCLM1R7
1271,56,,1.0,36.0,badlands_222.jpg,badlands,,,,A2AAS1LLCLM1R7
1272,57,,1.0,37.0,golf_course_309.jpg,golf,,,,A2AAS1LLCLM1R7
1273,58,,0.0,38.0,left.jpg,,left,,,A2AAS1LLCLM1R7
1274,59,,1.0,39.0,golf_course_188.jpg,golf,,,,A2AAS1LLCLM1R7
1275,60,,1.0,40.0,playground_219.jpg,playground,,,,A2AAS1LLCLM1R7
1276,61,,1.0,41.0,highway_394.jpg,highway,,,,A2AAS1LLCLM1R7
1277,62,,1.0,42.0,highway_156.jpg,highway,,,,A2AAS1LLCLM1R7
1278,63,,1.0,43.0,highway_93.jpg,highway,,,,A2AAS1LLCLM1R7
1279,64,,1.0,44.0,mountain_156.jpg,mountain,,,,A2AAS1LLCLM1R7
1280,65,,1.0,45.0,playground_240.jpg,playground,,,,A2AAS1LLCLM1R7
1281,66,,1.0,46.0,golf_course_217.jpg,golf,,,,A2AAS1LLCLM1R7
1282,67,,1.0,47.0,bridge_65.jpg,bridge,,,,A2AAS1LLCLM1R7
1283,68,,1.0,48.0,mountain_110.jpg,mountain,,,,A2AAS1LLCLM1R7
1284,69,,1.0,49.0,bridge_91.jpg,bridge,,,,A2AAS1LLCLM1R7
1285,70,,1.0,50.0,bridge_172.jpg,bridge,,,,A2AAS1LLCLM1R7
1286,71,,1.0,51.0,playground_60.jpg,playground,,,,A2AAS1LLCLM1R7
1287,72,,1.0,52.0,playground_144.jpg,playground,,,,A2AAS1LLCLM1R7
1288,73,,1.0,53.0,golf_course_214.jpg,golf,,,,A2AAS1LLCLM1R7
1289,74,left,1.0,54.0,left.jpg,,left,1.2012,,A2AAS1LLCLM1R7
1290,75,,1.0,55.0,mountain_230.jpg,mountain,,,,A2AAS1LLCLM1R7
1291,76,,1.0,56.0,bridge_146.jpg,bridge,,,,A2AAS1LLCLM1R7
1292,77,,1.0,57.0,bridge_128.jpg,bridge,,,,A2AAS1LLCLM1R7
1293,78,,1.0,58.0,badlands_184.jpg,badlands,,,,A2AAS1LLCLM1R7
1294,79,,1.0,59.0,playground_145.jpg,playground,,,,A2AAS1LLCLM1R7
1295,80,,1.0,60.0,playground_131.jpg,playground,,,,A2AAS1LLCLM1R7
1296,81,,1.0,61.0,playground_257.jpg,playground,,,,A2AAS1LLCLM1R7
1297,82,,1.0,62.0,mountain_232.jpg,mountain,,,,A2AAS1LLCLM1R7
1298,83,,1.0,63.0,bridge_250.jpg,bridge,,,,A2AAS1LLCLM1R7
1299,84,,1.0,64.0,golf_course_331.jpg,golf,,,,A2AAS1LLCLM1R7
1300,20,,1.0,0.0,playground_10.jpg,playground,,,,A3SYYXAP9G317O
1301,21,,1.0,1.0,bridge_256.jpg,bridge,,,,A3SYYXAP9G317O
1302,22,,1.0,2.0,mountain_156.jpg,mountain,,,,A3SYYXAP9G317O
1303,23,,1.0,3.0,golf_course_214.jpg,golf,,,,A3SYYXAP9G317O
1304,24,,1.0,4.0,highway_93.jpg,highway,,,,A3SYYXAP9G317O
1305,25,,1.0,5.0,playground_240.jpg,playground,,,,A3SYYXAP9G317O
1306,26,,1.0,6.0,mountain_57.jpg,mountain,,,,A3SYYXAP9G317O
1307,27,,0.0,7.0,right.jpg,,right,,,A3SYYXAP9G317O
1308,28,,1.0,8.0,highway_245.jpg,highway,,,,A3SYYXAP9G317O
1309,29,,1.0,9.0,highway_359.jpg,highway,,,,A3SYYXAP9G317O
1310,30,,1.0,10.0,badlands_221.jpg,badlands,,,,A3SYYXAP9G317O
1311,31,,1.0,11.0,golf_course_15.jpg,golf,,,,A3SYYXAP9G317O
1312,32,,1.0,12.0,highway_177.jpg,highway,,,,A3SYYXAP9G317O
1313,33,,1.0,13.0,badlands_222.jpg,badlands,,,,A3SYYXAP9G317O
1314,34,,1.0,14.0,bridge_91.jpg,bridge,,,,A3SYYXAP9G317O
1315,35,,1.0,15.0,mountain_230.jpg,mountain,,,,A3SYYXAP9G317O
1316,36,,1.0,16.0,highway_415.jpg,highway,,,,A3SYYXAP9G317O
1317,37,,1.0,17.0,mountain_232.jpg,mountain,,,,A3SYYXAP9G317O
1318,38,,1.0,18.0,mountain_123.jpg,mountain,,,,A3SYYXAP9G317O
1319,39,,1.0,19.0,badlands_70.jpg,badlands,,,,A3SYYXAP9G317O
1320,40,,1.0,20.0,bridge_108.jpg,bridge,,,,A3SYYXAP9G317O
1321,41,,1.0,21.0,bridge_128.jpg,bridge,,,,A3SYYXAP9G317O
1322,42,,0.0,22.0,right.jpg,,right,,,A3SYYXAP9G317O
1323,43,,1.0,23.0,playground_144.jpg,playground,,,,A3SYYXAP9G317O
1324,44,,1.0,24.0,mountain_154.jpg,mountain,,,,A3SYYXAP9G317O
1325,45,,1.0,25.0,playground_131.jpg,playground,,,,A3SYYXAP9G317O
1326,46,,1.0,26.0,mountain_222.jpg,mountain,,,,A3SYYXAP9G317O
1327,47,,1.0,27.0,golf_course_331.jpg,golf,,,,A3SYYXAP9G317O
1328,48,,1.0,28.0,golf_course_217.jpg,golf,,,,A3SYYXAP9G317O
1329,49,,1.0,29.0,golf_course_309.jpg,golf,,,,A3SYYXAP9G317O
1330,50,,1.0,30.0,golf_course_78.jpg,golf,,,,A3SYYXAP9G317O
1331,51,,1.0,31.0,playground_257.jpg,playground,,,,A3SYYXAP9G317O
1332,52,,1.0,32.0,bridge_172.jpg,bridge,,,,A3SYYXAP9G317O
1333,53,,0.0,33.0,left.jpg,,left,,,A3SYYXAP9G317O
1334,54,,1.0,34.0,badlands_21.jpg,badlands,,,,A3SYYXAP9G317O
1335,55,,1.0,35.0,bridge_250.jpg,bridge,,,,A3SYYXAP9G317O
1336,56,,1.0,36.0,highway_273.jpg,highway,,,,A3SYYXAP9G317O
1337,57,,1.0,37.0,bridge_191.jpg,bridge,,,,A3SYYXAP9G317O
1338,58,,1.0,38.0,badlands_24.jpg,badlands,,,,A3SYYXAP9G317O
1339,59,,1.0,39.0,badlands_184.jpg,badlands,,,,A3SYYXAP9G317O
1340,60,,1.0,40.0,golf_course_195.jpg,golf,,,,A3SYYXAP9G317O
1341,61,,0.0,41.0,right.jpg,,right,,,A3SYYXAP9G317O
1342,62,,1.0,42.0,badlands_52.jpg,badlands,,,,A3SYYXAP9G317O
1343,63,,1.0,43.0,badlands_23.jpg,badlands,,,,A3SYYXAP9G317O
1344,64,,1.0,44.0,playground_117.jpg,playground,,,,A3SYYXAP9G317O
1345,65,,1.0,45.0,golf_course_188.jpg,golf,,,,A3SYYXAP9G317O
1346,66,,1.0,46.0,highway_394.jpg,highway,,,,A3SYYXAP9G317O
1347,67,,1.0,47.0,badlands_113.jpg,badlands,,,,A3SYYXAP9G317O
1348,68,,1.0,48.0,mountain_293.jpg,mountain,,,,A3SYYXAP9G317O
1349,69,,1.0,49.0,mountain_110.jpg,mountain,,,,A3SYYXAP9G317O
1350,70,,1.0,50.0,bridge_146.jpg,bridge,,,,A3SYYXAP9G317O
1351,71,right,1.0,51.0,right.jpg,,right,1.7891,,A3SYYXAP9G317O
1352,72,,1.0,52.0,playground_60.jpg,playground,,,,A3SYYXAP9G317O
1353,73,,1.0,53.0,playground_219.jpg,playground,,,,A3SYYXAP9G317O
1354,74,,1.0,54.0,highway_209.jpg,highway,,,,A3SYYXAP9G317O
1355,75,,1.0,55.0,badlands_137.jpg,badlands,,,,A3SYYXAP9G317O
1356,76,,1.0,56.0,playground_145.jpg,playground,,,,A3SYYXAP9G317O
1357,77,,1.0,57.0,mountain_101.jpg,mountain,,,,A3SYYXAP9G317O
1358,78,,1.0,58.0,playground_76.jpg,playground,,,,A3SYYXAP9G317O
1359,79,,1.0,59.0,golf_course_193.jpg,golf,,,,A3SYYXAP9G317O
1360,80,,1.0,60.0,golf_course_87.jpg,golf,,,,A3SYYXAP9G317O
1361,81,,1.0,61.0,bridge_65.jpg,bridge,,,,A3SYYXAP9G317O
1362,82,,1.0,62.0,bridge_202.jpg,bridge,,,,A3SYYXAP9G317O
1363,83,,1.0,63.0,highway_294.jpg,highway,,,,A3SYYXAP9G317O
1364,84,,1.0,64.0,highway_156.jpg,highway,,,,A3SYYXAP9G317O
1365,20,,1.0,0.0,golf_course_331.jpg,golf,,,,AO32GL5867YY7
1366,21,,1.0,1.0,golf_course_188.jpg,golf,,,,AO32GL5867YY7
1367,22,,1.0,2.0,playground_10.jpg,playground,,,,AO32GL5867YY7
1368,23,,1.0,3.0,highway_177.jpg,highway,,,,AO32GL5867YY7
1369,24,,1.0,4.0,mountain_101.jpg,mountain,,,,AO32GL5867YY7
1370,25,,1.0,5.0,bridge_202.jpg,bridge,,,,AO32GL5867YY7
1371,26,,1.0,6.0,playground_257.jpg,playground,,,,AO32GL5867YY7
1372,27,,1.0,7.0,highway_209.jpg,highway,,,,AO32GL5867YY7
1373,28,,1.0,8.0,highway_156.jpg,highway,,,,AO32GL5867YY7
1374,29,,1.0,9.0,highway_394.jpg,highway,,,,AO32GL5867YY7
1375,30,right,1.0,10.0,right.jpg,,right,1.5693,,AO32GL5867YY7
1376,31,,1.0,11.0,bridge_250.jpg,bridge,,,,AO32GL5867YY7
1377,32,,1.0,12.0,playground_117.jpg,playground,,,,AO32GL5867YY7
1378,33,,1.0,13.0,badlands_137.jpg,badlands,,,,AO32GL5867YY7
1379,34,,1.0,14.0,highway_415.jpg,highway,,,,AO32GL5867YY7
1380,35,,1.0,15.0,bridge_91.jpg,bridge,,,,AO32GL5867YY7
1381,36,,1.0,16.0,playground_60.jpg,playground,,,,AO32GL5867YY7
1382,37,,1.0,17.0,mountain_293.jpg,mountain,,,,AO32GL5867YY7
1383,38,,1.0,18.0,bridge_172.jpg,bridge,,,,AO32GL5867YY7
1384,39,,1.0,19.0,highway_273.jpg,highway,,,,AO32GL5867YY7
1385,40,right,1.0,20.0,right.jpg,,right,1.0113,,AO32GL5867YY7
1386,41,,1.0,21.0,badlands_23.jpg,badlands,,,,AO32GL5867YY7
1387,42,,1.0,22.0,mountain_230.jpg,mountain,,,,AO32GL5867YY7
1388,43,,1.0,23.0,mountain_154.jpg,mountain,,,,AO32GL5867YY7
1389,44,,1.0,24.0,badlands_221.jpg,badlands,,,,AO32GL5867YY7
1390,45,,1.0,25.0,mountain_57.jpg,mountain,,,,AO32GL5867YY7
1391,46,,1.0,26.0,bridge_146.jpg,bridge,,,,AO32GL5867YY7
1392,47,,1.0,27.0,badlands_70.jpg,badlands,,,,AO32GL5867YY7
1393,48,right,1.0,28.0,right.jpg,,right,0.8636,,AO32GL5867YY7
1394,49,,1.0,29.0,playground_145.jpg,playground,,,,AO32GL5867YY7
1395,50,,1.0,30.0,bridge_128.jpg,bridge,,,,AO32GL5867YY7
1396,51,,1.0,31.0,golf_course_78.jpg,golf,,,,AO32GL5867YY7
1397,52,,1.0,32.0,highway_93.jpg,highway,,,,AO32GL5867YY7
1398,53,,1.0,33.0,badlands_184.jpg,badlands,,,,AO32GL5867YY7
1399,54,,1.0,34.0,golf_course_87.jpg,golf,,,,AO32GL5867YY7
1400,55,,1.0,35.0,mountain_222.jpg,mountain,,,,AO32GL5867YY7
1401,56,,1.0,36.0,mountain_110.jpg,mountain,,,,AO32GL5867YY7
1402,57,right,1.0,37.0,right.jpg,,right,0.6932,,AO32GL5867YY7
1403,58,,1.0,38.0,badlands_21.jpg,badlands,,,,AO32GL5867YY7
1404,59,,1.0,39.0,playground_131.jpg,playground,,,,AO32GL5867YY7
1405,60,,1.0,40.0,bridge_108.jpg,bridge,,,,AO32GL5867YY7
1406,61,,1.0,41.0,mountain_232.jpg,mountain,,,,AO32GL5867YY7
1407,62,,1.0,42.0,badlands_222.jpg,badlands,,,,AO32GL5867YY7
1408,63,,1.0,43.0,playground_76.jpg,playground,,,,AO32GL5867YY7
1409,64,,1.0,44.0,golf_course_217.jpg,golf,,,,AO32GL5867YY7
1410,65,,1.0,45.0,playground_219.jpg,playground,,,,AO32GL5867YY7
1411,66,,1.0,46.0,highway_359.jpg,highway,,,,AO32GL5867YY7
1412,67,,1.0,47.0,golf_course_214.jpg,golf,,,,AO32GL5867YY7
1413,68,,1.0,48.0,golf_course_15.jpg,golf,,,,AO32GL5867YY7
1414,69,right,1.0,49.0,right.jpg,,right,0.7242,,AO32GL5867YY7
1415,70,,1.0,50.0,badlands_113.jpg,badlands,,,,AO32GL5867YY7
1416,71,,1.0,51.0,bridge_65.jpg,bridge,,,,AO32GL5867YY7
1417,72,,1.0,52.0,golf_course_193.jpg,golf,,,,AO32GL5867YY7
1418,73,,1.0,53.0,mountain_123.jpg,mountain,,,,AO32GL5867YY7
1419,74,,1.0,54.0,badlands_52.jpg,badlands,,,,AO32GL5867YY7
1420,75,,1.0,55.0,highway_245.jpg,highway,,,,AO32GL5867YY7
1421,76,,1.0,56.0,badlands_24.jpg,badlands,,,,AO32GL5867YY7
1422,77,,1.0,57.0,golf_course_309.jpg,golf,,,,AO32GL5867YY7
1423,78,,1.0,58.0,bridge_256.jpg,bridge,,,,AO32GL5867YY7
1424,79,,1.0,59.0,playground_240.jpg,playground,,,,AO32GL5867YY7
1425,80,,1.0,60.0,playground_144.jpg,playground,,,,AO32GL5867YY7
1426,81,,1.0,61.0,golf_course_195.jpg,golf,,,,AO32GL5867YY7
1427,82,,1.0,62.0,highway_294.jpg,highway,,,,AO32GL5867YY7
1428,83,,1.0,63.0,bridge_191.jpg,bridge,,,,AO32GL5867YY7
1429,84,,1.0,64.0,mountain_156.jpg,mountain,,,,AO32GL5867YY7
1430,20,,1.0,0.0,golf_course_309.jpg,golf,,,,A22U72IVX6D0PC
1431,21,,1.0,1.0,mountain_154.jpg,mountain,,,,A22U72IVX6D0PC
1432,22,,1.0,2.0,playground_10.jpg,playground,,,,A22U72IVX6D0PC
1433,23,,1.0,3.0,playground_145.jpg,playground,,,,A22U72IVX6D0PC
1434,24,,1.0,4.0,badlands_24.jpg,badlands,,,,A22U72IVX6D0PC
1435,25,,1.0,5.0,highway_177.jpg,highway,,,,A22U72IVX6D0PC
1436,26,left,1.0,6.0,left.jpg,,left,0.9067,,A22U72IVX6D0PC
1437,27,,1.0,7.0,golf_course_331.jpg,golf,,,,A22U72IVX6D0PC
1438,28,,1.0,8.0,playground_131.jpg,playground,,,,A22U72IVX6D0PC
1439,29,,1.0,9.0,mountain_222.jpg,mountain,,,,A22U72IVX6D0PC
1440,30,,1.0,10.0,highway_294.jpg,highway,,,,A22U72IVX6D0PC
1441,31,,1.0,11.0,badlands_21.jpg,badlands,,,,A22U72IVX6D0PC
1442,32,,1.0,12.0,badlands_184.jpg,badlands,,,,A22U72IVX6D0PC
1443,33,,1.0,13.0,playground_144.jpg,playground,,,,A22U72IVX6D0PC
1444,34,,1.0,14.0,mountain_123.jpg,mountain,,,,A22U72IVX6D0PC
1445,35,,1.0,15.0,bridge_191.jpg,bridge,,,,A22U72IVX6D0PC
1446,36,,1.0,16.0,badlands_222.jpg,badlands,,,,A22U72IVX6D0PC
1447,37,,1.0,17.0,badlands_137.jpg,badlands,,,,A22U72IVX6D0PC
1448,38,,1.0,18.0,mountain_101.jpg,mountain,,,,A22U72IVX6D0PC
1449,39,,1.0,19.0,bridge_146.jpg,bridge,,,,A22U72IVX6D0PC
1450,40,,1.0,20.0,playground_240.jpg,playground,,,,A22U72IVX6D0PC
1451,41,right,1.0,21.0,right.jpg,,right,1.1616,,A22U72IVX6D0PC
1452,42,,1.0,22.0,highway_273.jpg,highway,,,,A22U72IVX6D0PC
1453,43,,1.0,23.0,badlands_70.jpg,badlands,,,,A22U72IVX6D0PC
1454,44,,1.0,24.0,mountain_57.jpg,mountain,,,,A22U72IVX6D0PC
1455,45,,1.0,25.0,badlands_113.jpg,badlands,,,,A22U72IVX6D0PC
1456,46,,1.0,26.0,highway_245.jpg,highway,,,,A22U72IVX6D0PC
1457,47,,1.0,27.0,golf_course_217.jpg,golf,,,,A22U72IVX6D0PC
1458,48,,1.0,28.0,bridge_108.jpg,bridge,,,,A22U72IVX6D0PC
1459,49,,1.0,29.0,bridge_65.jpg,bridge,,,,A22U72IVX6D0PC
1460,50,right,1.0,30.0,right.jpg,,right,1.895,,A22U72IVX6D0PC
1461,51,,1.0,31.0,playground_257.jpg,playground,,,,A22U72IVX6D0PC
1462,52,,1.0,32.0,bridge_172.jpg,bridge,,,,A22U72IVX6D0PC
1463,53,,1.0,33.0,bridge_256.jpg,bridge,,,,A22U72IVX6D0PC
1464,54,,1.0,34.0,mountain_156.jpg,mountain,,,,A22U72IVX6D0PC
1465,55,,1.0,35.0,bridge_128.jpg,bridge,,,,A22U72IVX6D0PC
1466,56,,1.0,36.0,playground_60.jpg,playground,,,,A22U72IVX6D0PC
1467,57,,1.0,37.0,playground_76.jpg,playground,,,,A22U72IVX6D0PC
1468,58,,1.0,38.0,mountain_230.jpg,mountain,,,,A22U72IVX6D0PC
1469,59,,1.0,39.0,golf_course_214.jpg,golf,,,,A22U72IVX6D0PC
1470,60,left,1.0,40.0,left.jpg,,left,0.9252,,A22U72IVX6D0PC
1471,61,,1.0,41.0,golf_course_195.jpg,golf,,,,A22U72IVX6D0PC
1472,62,,1.0,42.0,highway_359.jpg,highway,,,,A22U72IVX6D0PC
1473,63,,1.0,43.0,highway_156.jpg,highway,,,,A22U72IVX6D0PC
1474,64,,1.0,44.0,bridge_202.jpg,bridge,,,,A22U72IVX6D0PC
1475,65,,1.0,45.0,golf_course_78.jpg,golf,,,,A22U72IVX6D0PC
1476,66,,1.0,46.0,badlands_221.jpg,badlands,,,,A22U72IVX6D0PC
1477,67,,1.0,47.0,badlands_23.jpg,badlands,,,,A22U72IVX6D0PC
1478,68,,1.0,48.0,bridge_91.jpg,bridge,,,,A22U72IVX6D0PC
1479,69,,1.0,49.0,golf_course_193.jpg,golf,,,,A22U72IVX6D0PC
1480,70,,1.0,50.0,golf_course_188.jpg,golf,,,,A22U72IVX6D0PC
1481,71,,1.0,51.0,highway_93.jpg,highway,,,,A22U72IVX6D0PC
1482,72,left,1.0,52.0,left.jpg,,left,0.9346,,A22U72IVX6D0PC
1483,73,,1.0,53.0,highway_415.jpg,highway,,,,A22U72IVX6D0PC
1484,74,,1.0,54.0,highway_209.jpg,highway,,,,A22U72IVX6D0PC
1485,75,,1.0,55.0,mountain_293.jpg,mountain,,,,A22U72IVX6D0PC
1486,76,,1.0,56.0,playground_219.jpg,playground,,,,A22U72IVX6D0PC
1487,77,,1.0,57.0,highway_394.jpg,highway,,,,A22U72IVX6D0PC
1488,78,,1.0,58.0,mountain_232.jpg,mountain,,,,A22U72IVX6D0PC
1489,79,,1.0,59.0,golf_course_15.jpg,golf,,,,A22U72IVX6D0PC
1490,80,,1.0,60.0,playground_117.jpg,playground,,,,A22U72IVX6D0PC
1491,81,,1.0,61.0,mountain_110.jpg,mountain,,,,A22U72IVX6D0PC
1492,82,,1.0,62.0,bridge_250.jpg,bridge,,,,A22U72IVX6D0PC
1493,83,,1.0,63.0,badlands_52.jpg,badlands,,,,A22U72IVX6D0PC
1494,84,,1.0,64.0,golf_course_87.jpg,golf,,,,A22U72IVX6D0PC
1495,20,,1.0,0.0,bridge_250.jpg,bridge,,,,ACXPNVY0QDNHR
1496,21,,1.0,1.0,mountain_110.jpg,mountain,,,,ACXPNVY0QDNHR
1497,22,,1.0,2.0,highway_359.jpg,highway,,,,ACXPNVY0QDNHR
1498,23,,1.0,3.0,bridge_146.jpg,bridge,,,,ACXPNVY0QDNHR
1499,24,,1.0,4.0,playground_240.jpg,playground,,,,ACXPNVY0QDNHR
1500,25,,1.0,5.0,playground_257.jpg,playground,,,,ACXPNVY0QDNHR
1501,26,,1.0,6.0,playground_60.jpg,playground,,,,ACXPNVY0QDNHR
1502,27,,1.0,7.0,golf_course_193.jpg,golf,,,,ACXPNVY0QDNHR
1503,28,,1.0,8.0,mountain_232.jpg,mountain,,,,ACXPNVY0QDNHR
1504,29,,1.0,9.0,badlands_21.jpg,badlands,,,,ACXPNVY0QDNHR
1505,30,,1.0,10.0,golf_course_15.jpg,golf,,,,ACXPNVY0QDNHR
1506,31,,1.0,11.0,mountain_123.jpg,mountain,,,,ACXPNVY0QDNHR
1507,32,,1.0,12.0,golf_course_87.jpg,golf,,,,ACXPNVY0QDNHR
1508,33,,1.0,13.0,bridge_256.jpg,bridge,,,,ACXPNVY0QDNHR
1509,34,left,1.0,14.0,left.jpg,,left,0.637,,ACXPNVY0QDNHR
1510,35,,1.0,15.0,badlands_137.jpg,badlands,,,,ACXPNVY0QDNHR
1511,36,,1.0,16.0,highway_177.jpg,highway,,,,ACXPNVY0QDNHR
1512,37,,1.0,17.0,badlands_113.jpg,badlands,,,,ACXPNVY0QDNHR
1513,38,,1.0,18.0,bridge_128.jpg,bridge,,,,ACXPNVY0QDNHR
1514,39,,1.0,19.0,golf_course_195.jpg,golf,,,,ACXPNVY0QDNHR
1515,40,,1.0,20.0,badlands_24.jpg,badlands,,,,ACXPNVY0QDNHR
1516,41,,1.0,21.0,highway_273.jpg,highway,,,,ACXPNVY0QDNHR
1517,42,,1.0,22.0,playground_219.jpg,playground,,,,ACXPNVY0QDNHR
1518,43,,1.0,23.0,highway_415.jpg,highway,,,,ACXPNVY0QDNHR
1519,44,left,1.0,24.0,left.jpg,,left,0.516,,ACXPNVY0QDNHR
1520,45,,1.0,25.0,golf_course_188.jpg,golf,,,,ACXPNVY0QDNHR
1521,46,,1.0,26.0,mountain_57.jpg,mountain,,,,ACXPNVY0QDNHR
1522,47,,1.0,27.0,mountain_101.jpg,mountain,,,,ACXPNVY0QDNHR
1523,48,,1.0,28.0,badlands_23.jpg,badlands,,,,ACXPNVY0QDNHR
1524,49,,1.0,29.0,playground_145.jpg,playground,,,,ACXPNVY0QDNHR
1525,50,left,1.0,30.0,left.jpg,,left,0.453,,ACXPNVY0QDNHR
1526,51,,1.0,31.0,bridge_91.jpg,bridge,,,,ACXPNVY0QDNHR
1527,52,,1.0,32.0,highway_156.jpg,highway,,,,ACXPNVY0QDNHR
1528,53,,1.0,33.0,mountain_222.jpg,mountain,,,,ACXPNVY0QDNHR
1529,54,,1.0,34.0,mountain_293.jpg,mountain,,,,ACXPNVY0QDNHR
1530,55,,1.0,35.0,highway_209.jpg,highway,,,,ACXPNVY0QDNHR
1531,56,,1.0,36.0,bridge_65.jpg,bridge,,,,ACXPNVY0QDNHR
1532,57,,1.0,37.0,highway_245.jpg,highway,,,,ACXPNVY0QDNHR
1533,58,,1.0,38.0,golf_course_214.jpg,golf,,,,ACXPNVY0QDNHR
1534,59,,1.0,39.0,playground_144.jpg,playground,,,,ACXPNVY0QDNHR
1535,60,,1.0,40.0,playground_76.jpg,playground,,,,ACXPNVY0QDNHR
1536,61,right,1.0,41.0,right.jpg,,right,0.585,,ACXPNVY0QDNHR
1537,62,,1.0,42.0,bridge_191.jpg,bridge,,,,ACXPNVY0QDNHR
1538,63,,1.0,43.0,badlands_70.jpg,badlands,,,,ACXPNVY0QDNHR
1539,64,,1.0,44.0,highway_294.jpg,highway,,,,ACXPNVY0QDNHR
1540,65,,1.0,45.0,bridge_108.jpg,bridge,,,,ACXPNVY0QDNHR
1541,66,,1.0,46.0,highway_93.jpg,highway,,,,ACXPNVY0QDNHR
1542,67,,1.0,47.0,golf_course_309.jpg,golf,,,,ACXPNVY0QDNHR
1543,68,,1.0,48.0,playground_131.jpg,playground,,,,ACXPNVY0QDNHR
1544,69,right,1.0,49.0,right.jpg,,right,0.534,,ACXPNVY0QDNHR
1545,70,,1.0,50.0,mountain_156.jpg,mountain,,,,ACXPNVY0QDNHR
1546,71,,1.0,51.0,badlands_222.jpg,badlands,,,,ACXPNVY0QDNHR
1547,72,,1.0,52.0,bridge_172.jpg,bridge,,,,ACXPNVY0QDNHR
1548,73,,1.0,53.0,mountain_230.jpg,mountain,,,,ACXPNVY0QDNHR
1549,74,,1.0,54.0,golf_course_331.jpg,golf,,,,ACXPNVY0QDNHR
1550,75,,1.0,55.0,highway_394.jpg,highway,,,,ACXPNVY0QDNHR
1551,76,,1.0,56.0,mountain_154.jpg,mountain,,,,ACXPNVY0QDNHR
1552,77,,1.0,57.0,playground_117.jpg,playground,,,,ACXPNVY0QDNHR
1553,78,,1.0,58.0,badlands_221.jpg,badlands,,,,ACXPNVY0QDNHR
1554,79,,1.0,59.0,badlands_52.jpg,badlands,,,,ACXPNVY0QDNHR
1555,80,,1.0,60.0,playground_10.jpg,playground,,,,ACXPNVY0QDNHR
1556,81,,1.0,61.0,badlands_184.jpg,badlands,,,,ACXPNVY0QDNHR
1557,82,,1.0,62.0,bridge_202.jpg,bridge,,,,ACXPNVY0QDNHR
1558,83,,1.0,63.0,golf_course_78.jpg,golf,,,,ACXPNVY0QDNHR
1559,84,,1.0,64.0,golf_course_217.jpg,golf,,,,ACXPNVY0QDNHR
1560,20,,1.0,0.0,badlands_222.jpg,badlands,,,,AXO7SR3X4HY5H
1561,21,,1.0,1.0,bridge_65.jpg,bridge,,,,AXO7SR3X4HY5H
1562,22,,1.0,2.0,mountain_101.jpg,mountain,,,,AXO7SR3X4HY5H
1563,23,,1.0,3.0,badlands_221.jpg,badlands,,,,AXO7SR3X4HY5H
1564,24,,1.0,4.0,mountain_156.jpg,mountain,,,,AXO7SR3X4HY5H
1565,25,,1.0,5.0,golf_course_15.jpg,golf,,,,AXO7SR3X4HY5H
1566,26,,1.0,6.0,badlands_137.jpg,badlands,,,,AXO7SR3X4HY5H
1567,27,,1.0,7.0,highway_294.jpg,highway,,,,AXO7SR3X4HY5H
1568,28,,1.0,8.0,bridge_256.jpg,bridge,,,,AXO7SR3X4HY5H
1569,29,,1.0,9.0,playground_219.jpg,playground,,,,AXO7SR3X4HY5H
1570,30,,1.0,10.0,highway_359.jpg,highway,,,,AXO7SR3X4HY5H
1571,31,,1.0,11.0,mountain_293.jpg,mountain,,,,AXO7SR3X4HY5H
1572,32,,1.0,12.0,badlands_52.jpg,badlands,,,,AXO7SR3X4HY5H
1573,33,right,1.0,13.0,right.jpg,,right,0.936,,AXO7SR3X4HY5H
1574,34,,1.0,14.0,highway_415.jpg,highway,,,,AXO7SR3X4HY5H
1575,35,,1.0,15.0,mountain_110.jpg,mountain,,,,AXO7SR3X4HY5H
1576,36,,1.0,16.0,golf_course_87.jpg,golf,,,,AXO7SR3X4HY5H
1577,37,,1.0,17.0,playground_131.jpg,playground,,,,AXO7SR3X4HY5H
1578,38,,1.0,18.0,golf_course_78.jpg,golf,,,,AXO7SR3X4HY5H
1579,39,,1.0,19.0,bridge_108.jpg,bridge,,,,AXO7SR3X4HY5H
1580,40,left,1.0,20.0,left.jpg,,left,1.026,,AXO7SR3X4HY5H
1581,41,,1.0,21.0,highway_245.jpg,highway,,,,AXO7SR3X4HY5H
1582,42,,1.0,22.0,bridge_128.jpg,bridge,,,,AXO7SR3X4HY5H
1583,43,,1.0,23.0,bridge_191.jpg,bridge,,,,AXO7SR3X4HY5H
1584,44,,1.0,24.0,highway_394.jpg,highway,,,,AXO7SR3X4HY5H
1585,45,,1.0,25.0,golf_course_217.jpg,golf,,,,AXO7SR3X4HY5H
1586,46,,1.0,26.0,mountain_222.jpg,mountain,,,,AXO7SR3X4HY5H
1587,47,,1.0,27.0,mountain_57.jpg,mountain,,,,AXO7SR3X4HY5H
1588,48,,1.0,28.0,badlands_23.jpg,badlands,,,,AXO7SR3X4HY5H
1589,49,,1.0,29.0,badlands_24.jpg,badlands,,,,AXO7SR3X4HY5H
1590,50,right,0.0,30.0,left.jpg,,left,0.005,,AXO7SR3X4HY5H
1591,51,,1.0,31.0,playground_240.jpg,playground,,,,AXO7SR3X4HY5H
1592,52,,1.0,32.0,golf_course_195.jpg,golf,,,,AXO7SR3X4HY5H
1593,53,,1.0,33.0,mountain_230.jpg,mountain,,,,AXO7SR3X4HY5H
1594,54,,1.0,34.0,playground_257.jpg,playground,,,,AXO7SR3X4HY5H
1595,55,,1.0,35.0,playground_76.jpg,playground,,,,AXO7SR3X4HY5H
1596,56,left,1.0,36.0,left.jpg,,left,0.762,,AXO7SR3X4HY5H
1597,57,,1.0,37.0,golf_course_309.jpg,golf,,,,AXO7SR3X4HY5H
1598,58,,1.0,38.0,mountain_154.jpg,mountain,,,,AXO7SR3X4HY5H
1599,59,,1.0,39.0,playground_117.jpg,playground,,,,AXO7SR3X4HY5H
1600,60,,1.0,40.0,golf_course_188.jpg,golf,,,,AXO7SR3X4HY5H
1601,61,,1.0,41.0,bridge_250.jpg,bridge,,,,AXO7SR3X4HY5H
1602,62,,1.0,42.0,highway_177.jpg,highway,,,,AXO7SR3X4HY5H
1603,63,,1.0,43.0,playground_10.jpg,playground,,,,AXO7SR3X4HY5H
1604,64,,1.0,44.0,highway_93.jpg,highway,,,,AXO7SR3X4HY5H
1605,65,,1.0,45.0,bridge_202.jpg,bridge,,,,AXO7SR3X4HY5H
1606,66,,1.0,46.0,mountain_232.jpg,mountain,,,,AXO7SR3X4HY5H
1607,67,,1.0,47.0,playground_144.jpg,playground,,,,AXO7SR3X4HY5H
1608,68,right,1.0,48.0,right.jpg,,right,0.73,,AXO7SR3X4HY5H
1609,69,,1.0,49.0,badlands_184.jpg,badlands,,,,AXO7SR3X4HY5H
1610,70,,1.0,50.0,playground_60.jpg,playground,,,,AXO7SR3X4HY5H
1611,71,,1.0,51.0,mountain_123.jpg,mountain,,,,AXO7SR3X4HY5H
1612,72,,1.0,52.0,highway_273.jpg,highway,,,,AXO7SR3X4HY5H
1613,73,,1.0,53.0,golf_course_214.jpg,golf,,,,AXO7SR3X4HY5H
1614,74,,1.0,54.0,bridge_172.jpg,bridge,,,,AXO7SR3X4HY5H
1615,75,,1.0,55.0,bridge_91.jpg,bridge,,,,AXO7SR3X4HY5H
1616,76,,1.0,56.0,highway_209.jpg,highway,,,,AXO7SR3X4HY5H
1617,77,,1.0,57.0,badlands_70.jpg,badlands,,,,AXO7SR3X4HY5H
1618,78,,1.0,58.0,playground_145.jpg,playground,,,,AXO7SR3X4HY5H
1619,79,,1.0,59.0,badlands_113.jpg,badlands,,,,AXO7SR3X4HY5H
1620,80,,1.0,60.0,highway_156.jpg,highway,,,,AXO7SR3X4HY5H
1621,81,,1.0,61.0,badlands_21.jpg,badlands,,,,AXO7SR3X4HY5H
1622,82,,1.0,62.0,golf_course_331.jpg,golf,,,,AXO7SR3X4HY5H
1623,83,,1.0,63.0,bridge_146.jpg,bridge,,,,AXO7SR3X4HY5H
1624,84,,1.0,64.0,golf_course_193.jpg,golf,,,,AXO7SR3X4HY5H
1625,20,,1.0,0.0,badlands_70.jpg,badlands,,,,A2XB75IN5BADG5
1626,21,,1.0,1.0,golf_course_78.jpg,golf,,,,A2XB75IN5BADG5
1627,22,,1.0,2.0,bridge_91.jpg,bridge,,,,A2XB75IN5BADG5
1628,23,,1.0,3.0,badlands_21.jpg,badlands,,,,A2XB75IN5BADG5
1629,24,,1.0,4.0,playground_257.jpg,playground,,,,A2XB75IN5BADG5
1630,25,,1.0,5.0,playground_60.jpg,playground,,,,A2XB75IN5BADG5
1631,26,,1.0,6.0,mountain_293.jpg,mountain,,,,A2XB75IN5BADG5
1632,27,,1.0,7.0,badlands_137.jpg,badlands,,,,A2XB75IN5BADG5
1633,28,,1.0,8.0,mountain_123.jpg,mountain,,,,A2XB75IN5BADG5
1634,29,,1.0,9.0,bridge_256.jpg,bridge,,,,A2XB75IN5BADG5
1635,30,right,1.0,10.0,right.jpg,,right,1.965,,A2XB75IN5BADG5
1636,31,,1.0,11.0,mountain_232.jpg,mountain,,,,A2XB75IN5BADG5
1637,32,,1.0,12.0,golf_course_214.jpg,golf,,,,A2XB75IN5BADG5
1638,33,,1.0,13.0,bridge_250.jpg,bridge,,,,A2XB75IN5BADG5
1639,34,,1.0,14.0,badlands_52.jpg,badlands,,,,A2XB75IN5BADG5
1640,35,,1.0,15.0,playground_145.jpg,playground,,,,A2XB75IN5BADG5
1641,36,,1.0,16.0,mountain_156.jpg,mountain,,,,A2XB75IN5BADG5
1642,37,,1.0,17.0,playground_10.jpg,playground,,,,A2XB75IN5BADG5
1643,38,left,1.0,18.0,left.jpg,,left,1.8556,,A2XB75IN5BADG5
1644,39,,1.0,19.0,golf_course_15.jpg,golf,,,,A2XB75IN5BADG5
1645,40,,1.0,20.0,badlands_113.jpg,badlands,,,,A2XB75IN5BADG5
1646,41,,1.0,21.0,highway_359.jpg,highway,,,,A2XB75IN5BADG5
1647,42,,1.0,22.0,highway_177.jpg,highway,,,,A2XB75IN5BADG5
1648,43,,1.0,23.0,highway_273.jpg,highway,,,,A2XB75IN5BADG5
1649,44,,1.0,24.0,mountain_154.jpg,mountain,,,,A2XB75IN5BADG5
1650,45,,1.0,25.0,golf_course_193.jpg,golf,,,,A2XB75IN5BADG5
1651,46,,1.0,26.0,bridge_146.jpg,bridge,,,,A2XB75IN5BADG5
1652,47,,1.0,27.0,mountain_230.jpg,mountain,,,,A2XB75IN5BADG5
1653,48,,1.0,28.0,badlands_184.jpg,badlands,,,,A2XB75IN5BADG5
1654,49,,1.0,29.0,golf_course_195.jpg,golf,,,,A2XB75IN5BADG5
1655,50,,1.0,30.0,mountain_57.jpg,mountain,,,,A2XB75IN5BADG5
1656,51,,1.0,31.0,playground_219.jpg,playground,,,,A2XB75IN5BADG5
1657,52,,1.0,32.0,playground_131.jpg,playground,,,,A2XB75IN5BADG5
1658,53,,1.0,33.0,bridge_172.jpg,bridge,,,,A2XB75IN5BADG5
1659,54,left,1.0,34.0,left.jpg,,left,1.3275,,A2XB75IN5BADG5
1660,55,,1.0,35.0,bridge_128.jpg,bridge,,,,A2XB75IN5BADG5
