,index,demo_encoding_loop.thisTrialN,DemoImage,DemoCorrect,demo_encoding_response.rt,demo_encoding_response.keys,index,demo_test_response.keys,demo_test_response.corr,demo_test_response.rt,demo_test_loop.thisTrialN,DemoImage1,DemoImage2,DemoCorrectTest,demo_bar_2.response,subject
0,4,0.0,flower1.jpg,,,,12.0,left,1.0,3.4449,0.0,flower1.jpg,flower1_pair.jpg,left,6.0,AC5PVOOS79W2B
1,5,1.0,flower2.jpg,,,,13.0,left,0.0,4.3817,1.0,flower2_pair.jpg,flower2.jpg,right,4.0,AC5PVOOS79W2B
2,6,2.0,left.jpg,left,0.4256,left,14.0,left,1.0,2.3502,2.0,flower3.jpg,flower3_pair.jpg,left,7.0,AC5PVOOS79W2B
3,7,3.0,flower3.jpg,,,,15.0,left,1.0,1.1779,3.0,flower4.jpg,flower4_pair.jpg,left,3.0,AC5PVOOS79W2B
4,8,4.0,flower4.jpg,,,,16.0,left,0.0,1.5932,4.0,flower5_pair.jpg,flower5.jpg,right,6.0,AC5PVOOS79W2B
5,9,5.0,flower5.jpg,,,,17.0,left,1.0,1.0149,5.0,flower6.jpg,flower6_pair.jpg,left,2.0,AC5PVOOS79W2B
6,10,6.0,flower6.jpg,,,,,,,,,,,,,AC5PVOOS79W2B
7,4,0.0,flower1.jpg,,,,12.0,left,1.0,2.392,0.0,flower1.jpg,flower1_pair.jpg,left,8.0,A1KRXY4629AK58
8,5,1.0,flower2.jpg,,,,13.0,left,0.0,4.169,1.0,flower2_pair.jpg,flower2.jpg,right,8.0,A1KRXY4629AK58
9,6,2.0,left.jpg,left,1.789,left,14.0,left,1.0,2.402,2.0,flower3.jpg,flower3_pair.jpg,left,9.0,A1KRXY4629AK58
10,7,3.0,flower3.jpg,,,,15.0,left,1.0,2.415,3.0,flower4.jpg,flower4_pair.jpg,left,9.0,A1KRXY4629AK58
11,8,4.0,flower4.jpg,,,,16.0,right,1.0,1.938,4.0,flower5_pair.jpg,flower5.jpg,right,9.0,A1KRXY4629AK58
12,9,5.0,flower5.jpg,,,,17.0,right,0.0,3.187,5.0,flower6.jpg,flower6_pair.jpg,left,8.0,A1KRXY4629AK58
13,10,6.0,flower6.jpg,,,,,,,,,,,,,A1KRXY4629AK58
14,4,0.0,flower1.jpg,,,,12.0,right,0.0,470.2811,0.0,flower1.jpg,flower1_pair.jpg,left,3.0,A3C5TMQP0L94K4
15,5,1.0,flower2.jpg,,,,13.0,right,1.0,2.3383,1.0,flower2_pair.jpg,flower2.jpg,right,3.0,A3C5TMQP0L94K4
16,6,2.0,left.jpg,left,0.859,left,14.0,right,0.0,2.3094,2.0,flower3.jpg,flower3_pair.jpg,left,4.0,A3C5TMQP0L94K4
17,7,3.0,flower3.jpg,,,,15.0,left,1.0,2.1737,3.0,flower4.jpg,flower4_pair.jpg,left,4.0,A3C5TMQP0L94K4
18,8,4.0,flower4.jpg,,,,16.0,right,1.0,2.0976,4.0,flower5_pair.jpg,flower5.jpg,right,5.0,A3C5TMQP0L94K4
19,9,5.0,flower5.jpg,,,,17.0,left,1.0,2.2224,5.0,flower6.jpg,flower6_pair.jpg,left,3.0,A3C5TMQP0L94K4
20,10,6.0,flower6.jpg,,,,,,,,,,,,,A3C5TMQP0L94K4
21,4,0.0,flower1.jpg,,,,12.0,left,1.0,3.522,0.0,flower1.jpg,flower1_pair.jpg,left,9.0,A1I7H6RDJS4EKN
22,5,1.0,flower2.jpg,,,,13.0,left,0.0,10.205,1.0,flower2_pair.jpg,flower2.jpg,right,8.0,A1I7H6RDJS4EKN
23,6,2.0,left.jpg,left,0.86,left,14.0,left,1.0,5.51,2.0,flower3.jpg,flower3_pair.jpg,left,6.0,A1I7H6RDJS4EKN
24,7,3.0,flower3.jpg,,,,15.0,right,0.0,6.151,3.0,flower4.jpg,flower4_pair.jpg,left,7.0,A1I7H6RDJS4EKN
25,8,4.0,flower4.jpg,,,,16.0,right,1.0,4.411,4.0,flower5_pair.jpg,flower5.jpg,right,7.0,A1I7H6RDJS4EKN
26,9,5.0,flower5.jpg,,,,17.0,right,0.0,6.511,5.0,flower6.jpg,flower6_pair.jpg,left,7.0,A1I7H6RDJS4EKN
27,10,6.0,flower6.jpg,,,,,,,,,,,,,A1I7H6RDJS4EKN
28,4,0.0,flower1.jpg,,,,12.0,left,1.0,5.9023,0.0,flower1.jpg,flower1_pair.jpg,left,7.0,A2PBFKNWWIIAO8
29,5,1.0,flower2.jpg,,,,13.0,right,1.0,4.0309,1.0,flower2_pair.jpg,flower2.jpg,right,8.0,A2PBFKNWWIIAO8
30,6,2.0,left.jpg,left,2.8358,left,14.0,left,1.0,3.4815,2.0,flower3.jpg,flower3_pair.jpg,left,6.0,A2PBFKNWWIIAO8
31,7,3.0,flower3.jpg,,,,15.0,left,1.0,2.8859,3.0,flower4.jpg,flower4_pair.jpg,left,7.0,A2PBFKNWWIIAO8
32,8,4.0,flower4.jpg,,,,16.0,right,1.0,2.6487,4.0,flower5_pair.jpg,flower5.jpg,right,8.0,A2PBFKNWWIIAO8
33,9,5.0,flower5.jpg,,,,17.0,left,1.0,2.8061,5.0,flower6.jpg,flower6_pair.jpg,left,5.0,A2PBFKNWWIIAO8
34,10,6.0,flower6.jpg,,,,,,,,,,,,,A2PBFKNWWIIAO8
35,4,0.0,flower1.jpg,,,,12.0,right,0.0,2.101,0.0,flower1.jpg,flower1_pair.jpg,left,5.0,A3V2XCDF45VN9X
36,5,1.0,flower2.jpg,,,,13.0,left,0.0,2.7359,1.0,flower2_pair.jpg,flower2.jpg,right,4.0,A3V2XCDF45VN9X
37,6,2.0,left.jpg,left,0.8996,left,14.0,left,1.0,1.7326,2.0,flower3.jpg,flower3_pair.jpg,left,2.0,A3V2XCDF45VN9X
38,7,3.0,flower3.jpg,,,,15.0,right,0.0,2.5646,3.0,flower4.jpg,flower4_pair.jpg,left,5.0,A3V2XCDF45VN9X
39,8,4.0,flower4.jpg,,,,16.0,right,1.0,2.1344,4.0,flower5_pair.jpg,flower5.jpg,right,4.0,A3V2XCDF45VN9X
40,9,5.0,flower5.jpg,,,,17.0,right,0.0,1.3651,5.0,flower6.jpg,flower6_pair.jpg,left,4.0,A3V2XCDF45VN9X
41,10,6.0,flower6.jpg,,,,,,,,,,,,,A3V2XCDF45VN9X
42,4,0.0,flower1.jpg,,,,12.0,right,0.0,5.577,0.0,flower1.jpg,flower1_pair.jpg,left,8.0,ADP3FQJ88ATS0
43,5,1.0,flower2.jpg,,,,13.0,right,1.0,3.411,1.0,flower2_pair.jpg,flower2.jpg,right,8.0,ADP3FQJ88ATS0
44,6,2.0,left.jpg,left,1.453,left,14.0,right,0.0,2.913,2.0,flower3.jpg,flower3_pair.jpg,left,8.0,ADP3FQJ88ATS0
45,7,3.0,flower3.jpg,,,,15.0,right,0.0,2.626,3.0,flower4.jpg,flower4_pair.jpg,left,8.0,ADP3FQJ88ATS0
46,8,4.0,flower4.jpg,,,,16.0,right,1.0,2.121,4.0,flower5_pair.jpg,flower5.jpg,right,7.0,ADP3FQJ88ATS0
47,9,5.0,flower5.jpg,,,,17.0,left,1.0,2.224,5.0,flower6.jpg,flower6_pair.jpg,left,6.0,ADP3FQJ88ATS0
48,10,6.0,flower6.jpg,,,,,,,,,,,,,ADP3FQJ88ATS0
49,4,0.0,flower1.jpg,,,,12.0,left,1.0,64.8006,0.0,flower1.jpg,flower1_pair.jpg,left,8.0,A34A8MQJ7X1LCS
50,5,1.0,flower2.jpg,,,,13.0,left,0.0,8.9664,1.0,flower2_pair.jpg,flower2.jpg,right,8.0,A34A8MQJ7X1LCS
51,6,2.0,left.jpg,left,0.8289,left,14.0,left,1.0,3.6672,2.0,flower3.jpg,flower3_pair.jpg,left,7.0,A34A8MQJ7X1LCS
52,7,3.0,flower3.jpg,,,,15.0,left,1.0,7.7485,3.0,flower4.jpg,flower4_pair.jpg,left,6.0,A34A8MQJ7X1LCS
53,8,4.0,flower4.jpg,,,,16.0,left,0.0,2.7142,4.0,flower5_pair.jpg,flower5.jpg,right,6.0,A34A8MQJ7X1LCS
54,9,5.0,flower5.jpg,,,,17.0,right,0.0,3.6418,5.0,flower6.jpg,flower6_pair.jpg,left,4.0,A34A8MQJ7X1LCS
55,10,6.0,flower6.jpg,,,,,,,,,,,,,A34A8MQJ7X1LCS
56,4,0.0,flower1.jpg,,,,12.0,right,0.0,1.6909,0.0,flower1.jpg,flower1_pair.jpg,left,6.0,A2U5OFMW8H30PC
57,5,1.0,flower2.jpg,,,,13.0,left,0.0,3.0332,1.0,flower2_pair.jpg,flower2.jpg,right,4.0,A2U5OFMW8H30PC
58,6,2.0,left.jpg,left,0.8345,left,14.0,left,1.0,5.1134,2.0,flower3.jpg,flower3_pair.jpg,left,2.0,A2U5OFMW8H30PC
59,7,3.0,flower3.jpg,,,,15.0,left,1.0,13.7263,3.0,flower4.jpg,flower4_pair.jpg,left,4.0,A2U5OFMW8H30PC
60,8,4.0,flower4.jpg,,,,16.0,right,1.0,4.016,4.0,flower5_pair.jpg,flower5.jpg,right,6.0,A2U5OFMW8H30PC
61,9,5.0,flower5.jpg,,,,17.0,left,1.0,3.2306,5.0,flower6.jpg,flower6_pair.jpg,left,4.0,A2U5OFMW8H30PC
62,10,6.0,flower6.jpg,,,,,,,,,,,,,A2U5OFMW8H30PC
63,4,0.0,flower1.jpg,,,,12.0,right,0.0,3.675,0.0,flower1.jpg,flower1_pair.jpg,left,6.0,A1RC4Y575PV6EG
64,5,1.0,flower2.jpg,,,,13.0,left,0.0,29.833,1.0,flower2_pair.jpg,flower2.jpg,right,8.0,A1RC4Y575PV6EG
65,6,2.0,left.jpg,left,2.424,left,14.0,left,1.0,6.553,2.0,flower3.jpg,flower3_pair.jpg,left,5.0,A1RC4Y575PV6EG
66,7,3.0,flower3.jpg,,,,15.0,left,1.0,2.614,3.0,flower4.jpg,flower4_pair.jpg,left,7.0,A1RC4Y575PV6EG
67,8,4.0,flower4.jpg,,,,16.0,right,1.0,5.067,4.0,flower5_pair.jpg,flower5.jpg,right,8.0,A1RC4Y575PV6EG
68,9,5.0,flower5.jpg,,,,17.0,left,1.0,6.798,5.0,flower6.jpg,flower6_pair.jpg,left,7.0,A1RC4Y575PV6EG
69,10,6.0,flower6.jpg,,,,,,,,,,,,,A1RC4Y575PV6EG
70,4,0.0,flower1.jpg,,,,12.0,left,1.0,2.072,0.0,flower1.jpg,flower1_pair.jpg,left,6.0,A19CS96QCO32RT
71,5,1.0,flower2.jpg,,,,13.0,right,1.0,1.6742,1.0,flower2_pair.jpg,flower2.jpg,right,6.0,A19CS96QCO32RT
72,6,2.0,left.jpg,left,0.957,left,14.0,left,1.0,1.8695,2.0,flower3.jpg,flower3_pair.jpg,left,5.0,A19CS96QCO32RT
73,7,3.0,flower3.jpg,,,,15.0,right,0.0,1.0405,3.0,flower4.jpg,flower4_pair.jpg,left,7.0,A19CS96QCO32RT
74,8,4.0,flower4.jpg,,,,16.0,left,0.0,1.4595,4.0,flower5_pair.jpg,flower5.jpg,right,8.0,A19CS96QCO32RT
75,9,5.0,flower5.jpg,,,,17.0,left,1.0,1.8445,5.0,flower6.jpg,flower6_pair.jpg,left,7.0,A19CS96QCO32RT
76,10,6.0,flower6.jpg,,,,,,,,,,,,,A19CS96QCO32RT
77,4,0.0,flower1.jpg,,,,12.0,right,0.0,4.6201,0.0,flower1.jpg,flower1_pair.jpg,left,4.0,AEK2SAEL9GG39
78,5,1.0,flower2.jpg,,,,13.0,left,0.0,2.7454,1.0,flower2_pair.jpg,flower2.jpg,right,4.0,AEK2SAEL9GG39
79,6,2.0,left.jpg,left,0.6833,left,14.0,left,1.0,2.1732,2.0,flower3.jpg,flower3_pair.jpg,left,1.0,AEK2SAEL9GG39
80,7,3.0,flower3.jpg,,,,15.0,right,0.0,2.8992,3.0,flower4.jpg,flower4_pair.jpg,left,6.0,AEK2SAEL9GG39
81,8,4.0,flower4.jpg,,,,16.0,right,1.0,2.4124,4.0,flower5_pair.jpg,flower5.jpg,right,4.0,AEK2SAEL9GG39
82,9,5.0,flower5.jpg,,,,17.0,left,1.0,1.313,5.0,flower6.jpg,flower6_pair.jpg,left,3.0,AEK2SAEL9GG39
83,10,6.0,flower6.jpg,,,,,,,,,,,,,AEK2SAEL9GG39
84,4,0.0,flower1.jpg,,,,12.0,right,0.0,2.4637,0.0,flower1.jpg,flower1_pair.jpg,left,6.0,A3CSATWFK13YUG
85,5,1.0,flower2.jpg,,,,13.0,left,0.0,2.5758,1.0,flower2_pair.jpg,flower2.jpg,right,6.0,A3CSATWFK13YUG
86,6,2.0,left.jpg,left,0.2595,left,14.0,right,0.0,5.8491,2.0,flower3.jpg,flower3_pair.jpg,left,5.0,A3CSATWFK13YUG
87,7,3.0,flower3.jpg,,,,15.0,left,1.0,4.1172,3.0,flower4.jpg,flower4_pair.jpg,left,6.0,A3CSATWFK13YUG
88,8,4.0,flower4.jpg,,,,16.0,right,1.0,14.0147,4.0,flower5_pair.jpg,flower5.jpg,right,6.0,A3CSATWFK13YUG
89,9,5.0,flower5.jpg,,,,17.0,left,1.0,3.7729,5.0,flower6.jpg,flower6_pair.jpg,left,6.0,A3CSATWFK13YUG
90,10,6.0,flower6.jpg,,,,,,,,,,,,,A3CSATWFK13YUG
91,4,0.0,flower1.jpg,,,,12.0,left,1.0,1.4549,0.0,flower1.jpg,flower1_pair.jpg,left,7.0,A1Y6CQ2AJ882MO
92,5,1.0,flower2.jpg,,,,13.0,right,1.0,2.234,1.0,flower2_pair.jpg,flower2.jpg,right,9.0,A1Y6CQ2AJ882MO
93,6,2.0,left.jpg,left,1.016,left,14.0,right,0.0,1.4627,2.0,flower3.jpg,flower3_pair.jpg,left,8.0,A1Y6CQ2AJ882MO
94,7,3.0,flower3.jpg,,,,15.0,right,0.0,1.3002,3.0,flower4.jpg,flower4_pair.jpg,left,8.0,A1Y6CQ2AJ882MO
95,8,4.0,flower4.jpg,,,,16.0,left,0.0,1.9109,4.0,flower5_pair.jpg,flower5.jpg,right,7.0,A1Y6CQ2AJ882MO
96,9,5.0,flower5.jpg,,,,17.0,right,0.0,1.0466,5.0,flower6.jpg,flower6_pair.jpg,left,7.0,A1Y6CQ2AJ882MO
97,10,6.0,flower6.jpg,,,,,,,,,,,,,A1Y6CQ2AJ882MO
98,4,0.0,flower1.jpg,,,,12.0,right,0.0,2.2004,0.0,flower1.jpg,flower1_pair.jpg,left,6.0,A1SRSP0X39CGRW
99,5,1.0,flower2.jpg,,,,13.0,right,1.0,3.0831,1.0,flower2_pair.jpg,flower2.jpg,right,7.0,A1SRSP0X39CGRW
100,6,2.0,left.jpg,left,0.0093,left,14.0,left,1.0,2.2084,2.0,flower3.jpg,flower3_pair.jpg,left,7.0,A1SRSP0X39CGRW
101,7,3.0,flower3.jpg,,,,15.0,right,0.0,14.135,3.0,flower4.jpg,flower4_pair.jpg,left,8.0,A1SRSP0X39CGRW
102,8,4.0,flower4.jpg,,,,16.0,left,0.0,9.7958,4.0,flower5_pair.jpg,flower5.jpg,right,8.0,A1SRSP0X39CGRW
103,9,5.0,flower5.jpg,,,,17.0,left,1.0,11.2559,5.0,flower6.jpg,flower6_pair.jpg,left,8.0,A1SRSP0X39CGRW
104,10,6.0,flower6.jpg,,,,,,,,,,,,,A1SRSP0X39CGRW
105,4,0.0,flower1.jpg,,,,12.0,left,1.0,15.6665,0.0,flower1.jpg,flower1_pair.jpg,left,8.0,A3A7ZQXHKZQ71I
106,5,1.0,flower2.jpg,,,,13.0,left,0.0,3.2889,1.0,flower2_pair.jpg,flower2.jpg,right,8.0,A3A7ZQXHKZQ71I
107,6,2.0,left.jpg,left,1.7149,left,14.0,right,0.0,1.8687,2.0,flower3.jpg,flower3_pair.jpg,left,6.0,A3A7ZQXHKZQ71I
108,7,3.0,flower3.jpg,,,,15.0,right,0.0,1.8489,3.0,flower4.jpg,flower4_pair.jpg,left,7.0,A3A7ZQXHKZQ71I
109,8,4.0,flower4.jpg,,,,16.0,right,1.0,1.4458,4.0,flower5_pair.jpg,flower5.jpg,right,6.0,A3A7ZQXHKZQ71I
110,9,5.0,flower5.jpg,,,,17.0,right,0.0,0.2311,5.0,flower6.jpg,flower6_pair.jpg,left,8.0,A3A7ZQXHKZQ71I
111,10,6.0,flower6.jpg,,,,,,,,,,,,,A3A7ZQXHKZQ71I
112,4,0.0,flower1.jpg,,,,12.0,left,1.0,6.853,0.0,flower1.jpg,flower1_pair.jpg,left,3.0,AGAF4OJP26B53
113,5,1.0,flower2.jpg,,,,13.0,left,0.0,22.992,1.0,flower2_pair.jpg,flower2.jpg,right,5.0,AGAF4OJP26B53
114,6,2.0,left.jpg,left,1.255,left,14.0,right,0.0,10.911,2.0,flower3.jpg,flower3_pair.jpg,left,7.0,AGAF4OJP26B53
115,7,3.0,flower3.jpg,,,,15.0,right,0.0,5.361,3.0,flower4.jpg,flower4_pair.jpg,left,4.0,AGAF4OJP26B53
116,8,4.0,flower4.jpg,,,,16.0,left,0.0,4.548,4.0,flower5_pair.jpg,flower5.jpg,right,6.0,AGAF4OJP26B53
117,9,5.0,flower5.jpg,,,,17.0,right,0.0,2.934,5.0,flower6.jpg,flower6_pair.jpg,left,3.0,AGAF4OJP26B53
118,10,6.0,flower6.jpg,,,,,,,,,,,,,AGAF4OJP26B53
119,4,0.0,flower1.jpg,,,,12.0,left,1.0,2.8954,0.0,flower1.jpg,flower1_pair.jpg,left,4.0,A3DW6KSQPG6GVQ
120,5,1.0,flower2.jpg,,,,13.0,right,1.0,4.3218,1.0,flower2_pair.jpg,flower2.jpg,right,3.0,A3DW6KSQPG6GVQ
121,6,2.0,left.jpg,left,0.8592,left,14.0,left,1.0,4.0728,2.0,flower3.jpg,flower3_pair.jpg,left,3.0,A3DW6KSQPG6GVQ
122,7,3.0,flower3.jpg,,,,15.0,left,1.0,2.1888,3.0,flower4.jpg,flower4_pair.jpg,left,4.0,A3DW6KSQPG6GVQ
123,8,4.0,flower4.jpg,,,,16.0,right,1.0,4.1046,4.0,flower5_pair.jpg,flower5.jpg,right,3.0,A3DW6KSQPG6GVQ
124,9,5.0,flower5.jpg,,,,17.0,left,1.0,2.3217,5.0,flower6.jpg,flower6_pair.jpg,left,4.0,A3DW6KSQPG6GVQ
125,10,6.0,flower6.jpg,,,,,,,,,,,,,A3DW6KSQPG6GVQ
126,4,0.0,flower1.jpg,,,,12.0,right,0.0,2.6057,0.0,flower1.jpg,flower1_pair.jpg,left,8.0,A2615YW1YERQBO
127,5,1.0,flower2.jpg,,,,13.0,left,0.0,2.8199,1.0,flower2_pair.jpg,flower2.jpg,right,8.0,A2615YW1YERQBO
128,6,2.0,left.jpg,left,1.0171,left,14.0,left,1.0,4.179,2.0,flower3.jpg,flower3_pair.jpg,left,8.0,A2615YW1YERQBO
129,7,3.0,flower3.jpg,,,,15.0,left,1.0,2.64,3.0,flower4.jpg,flower4_pair.jpg,left,8.0,A2615YW1YERQBO
130,8,4.0,flower4.jpg,,,,16.0,right,1.0,2.5133,4.0,flower5_pair.jpg,flower5.jpg,right,8.0,A2615YW1YERQBO
131,9,5.0,flower5.jpg,,,,17.0,left,1.0,1.5352,5.0,flower6.jpg,flower6_pair.jpg,left,8.0,A2615YW1YERQBO
132,10,6.0,flower6.jpg,,,,,,,,,,,,,A2615YW1YERQBO
133,4,0.0,flower1.jpg,,,,12.0,left,1.0,3.2305,0.0,flower1.jpg,flower1_pair.jpg,left,6.0,A2AAS1LLCLM1R7
134,5,1.0,flower2.jpg,,,,13.0,left,0.0,1.8778,1.0,flower2_pair.jpg,flower2.jpg,right,7.0,A2AAS1LLCLM1R7
135,6,2.0,left.jpg,left,0.0186,left,14.0,left,1.0,1.794,2.0,flower3.jpg,flower3_pair.jpg,left,6.0,A2AAS1LLCLM1R7
136,7,3.0,flower3.jpg,,,,15.0,left,1.0,2.301,3.0,flower4.jpg,flower4_pair.jpg,left,7.0,A2AAS1LLCLM1R7
137,8,4.0,flower4.jpg,,,,16.0,left,0.0,2.1796,4.0,flower5_pair.jpg,flower5.jpg,right,7.0,A2AAS1LLCLM1R7
138,9,5.0,flower5.jpg,,,,17.0,left,1.0,1.0748,5.0,flower6.jpg,flower6_pair.jpg,left,1.0,A2AAS1LLCLM1R7
139,10,6.0,flower6.jpg,,,,,,,,,,,,,A2AAS1LLCLM1R7
140,4,0.0,flower1.jpg,,,,12.0,left,1.0,2.7495,0.0,flower1.jpg,flower1_pair.jpg,left,8.0,A3SYYXAP9G317O
141,5,1.0,flower2.jpg,,,,13.0,left,0.0,1.6124,1.0,flower2_pair.jpg,flower2.jpg,right,8.0,A3SYYXAP9G317O
142,6,2.0,left.jpg,left,1.008699999,left,14.0,left,1.0,1.597799999,2.0,flower3.jpg,flower3_pair.jpg,left,8.0,A3SYYXAP9G317O
143,7,3.0,flower3.jpg,,,,15.0,left,1.0,1.5871,3.0,flower4.jpg,flower4_pair.jpg,left,8.0,A3SYYXAP9G317O
144,8,4.0,flower4.jpg,,,,16.0,left,0.0,1.4635,4.0,flower5_pair.jpg,flower5.jpg,right,8.0,A3SYYXAP9G317O
145,9,5.0,flower5.jpg,,,,17.0,left,1.0,1.242200001,5.0,flower6.jpg,flower6_pair.jpg,left,8.0,A3SYYXAP9G317O
146,10,6.0,flower6.jpg,,,,,,,,,,,,,A3SYYXAP9G317O
147,4,0.0,flower1.jpg,,,,12.0,left,1.0,9.3519,0.0,flower1.jpg,flower1_pair.jpg,left,3.0,AO32GL5867YY7
148,5,1.0,flower2.jpg,,,,13.0,left,0.0,5.7834,1.0,flower2_pair.jpg,flower2.jpg,right,4.0,AO32GL5867YY7
149,6,2.0,left.jpg,left,0.855,left,14.0,left,1.0,3.2504,2.0,flower3.jpg,flower3_pair.jpg,left,5.0,AO32GL5867YY7
150,7,3.0,flower3.jpg,,,,15.0,right,0.0,2.8464,3.0,flower4.jpg,flower4_pair.jpg,left,5.0,AO32GL5867YY7
151,8,4.0,flower4.jpg,,,,16.0,left,0.0,2.4294,4.0,flower5_pair.jpg,flower5.jpg,right,5.0,AO32GL5867YY7
152,9,5.0,flower5.jpg,,,,17.0,right,0.0,3.6562,5.0,flower6.jpg,flower6_pair.jpg,left,2.0,AO32GL5867YY7
153,10,6.0,flower6.jpg,,,,,,,,,,,,,AO32GL5867YY7
154,4,0.0,flower1.jpg,,,,12.0,right,0.0,2.5021,0.0,flower1.jpg,flower1_pair.jpg,left,6.0,A22U72IVX6D0PC
155,5,1.0,flower2.jpg,,,,13.0,left,0.0,1.5868,1.0,flower2_pair.jpg,flower2.jpg,right,8.0,A22U72IVX6D0PC
156,6,2.0,left.jpg,left,0.7512,left,14.0,left,1.0,1.4248,2.0,flower3.jpg,flower3_pair.jpg,left,6.0,A22U72IVX6D0PC
157,7,3.0,flower3.jpg,,,,15.0,right,0.0,2.4115,3.0,flower4.jpg,flower4_pair.jpg,left,5.0,A22U72IVX6D0PC
158,8,4.0,flower4.jpg,,,,16.0,right,1.0,1.647,4.0,flower5_pair.jpg,flower5.jpg,right,6.0,A22U72IVX6D0PC
159,9,5.0,flower5.jpg,,,,17.0,left,1.0,1.6321,5.0,flower6.jpg,flower6_pair.jpg,left,6.0,A22U72IVX6D0PC
160,10,6.0,flower6.jpg,,,,,,,,,,,,,A22U72IVX6D0PC
161,4,0.0,flower1.jpg,,,,12.0,left,1.0,1.969,0.0,flower1.jpg,flower1_pair.jpg,left,4.0,ACXPNVY0QDNHR
162,5,1.0,flower2.jpg,,,,13.0,right,1.0,3.629,1.0,flower2_pair.jpg,flower2.jpg,right,5.0,ACXPNVY0QDNHR
163,6,2.0,left.jpg,left,0.665,left,14.0,left,1.0,2.38,2.0,flower3.jpg,flower3_pair.jpg,left,6.0,ACXPNVY0QDNHR
164,7,3.0,flower3.jpg,,,,15.0,left,1.0,2.063,3.0,flower4.jpg,flower4_pair.jpg,left,6.0,ACXPNVY0QDNHR
165,8,4.0,flower4.jpg,,,,16.0,right,1.0,2.664,4.0,flower5_pair.jpg,flower5.jpg,right,3.0,ACXPNVY0QDNHR
166,9,5.0,flower5.jpg,,,,17.0,left,1.0,2.411,5.0,flower6.jpg,flower6_pair.jpg,left,3.0,ACXPNVY0QDNHR
167,10,6.0,flower6.jpg,,,,,,,,,,,,,ACXPNVY0QDNHR
168,4,0.0,flower1.jpg,,,,12.0,right,0.0,2.692,0.0,flower1.jpg,flower1_pair.jpg,left,6.0,AXO7SR3X4HY5H
169,5,1.0,flower2.jpg,,,,13.0,left,0.0,2.613,1.0,flower2_pair.jpg,flower2.jpg,right,7.0,AXO7SR3X4HY5H
170,6,2.0,left.jpg,left,1.111,left,14.0,left,1.0,2.937,2.0,flower3.jpg,flower3_pair.jpg,left,5.0,AXO7SR3X4HY5H
171,7,3.0,flower3.jpg,,,,15.0,left,1.0,4.514,3.0,flower4.jpg,flower4_pair.jpg,left,6.0,AXO7SR3X4HY5H
172,8,4.0,flower4.jpg,,,,16.0,right,1.0,2.128,4.0,flower5_pair.jpg,flower5.jpg,right,6.0,AXO7SR3X4HY5H
173,9,5.0,flower5.jpg,,,,17.0,left,1.0,2.087,5.0,flower6.jpg,flower6_pair.jpg,left,6.0,AXO7SR3X4HY5H
174,10,6.0,flower6.jpg,,,,,,,,,,,,,AXO7SR3X4HY5H
175,4,0.0,flower1.jpg,,,,12.0,left,1.0,2.4798,0.0,flower1.jpg,flower1_pair.jpg,left,3.0,A2XB75IN5BADG5
176,5,1.0,flower2.jpg,,,,13.0,right,1.0,3.2976,1.0,flower2_pair.jpg,flower2.jpg,right,7.0,A2XB75IN5BADG5
177,6,2.0,left.jpg,left,1.7432,left,14.0,left,1.0,2.8713,2.0,flower3.jpg,flower3_pair.jpg,left,3.0,A2XB75IN5BADG5
178,7,3.0,flower3.jpg,,,,15.0,left,1.0,3.455,3.0,flower4.jpg,flower4_pair.jpg,left,3.0,A2XB75IN5BADG5
179,8,4.0,flower4.jpg,,,,16.0,right,1.0,2.1335,4.0,flower5_pair.jpg,flower5.jpg,right,7.0,A2XB75IN5BADG5
180,9,5.0,flower5.jpg,,,,17.0,left,1.0,2.8544,5.0,flower6.jpg,flower6_pair.jpg,left,3.0,A2XB75IN5BADG5
181,10,6.0,flower6.jpg,,,,,,,,,,,,,A2XB75IN5BADG5
182,4,0.0,flower1.jpg,,,,12.0,left,1.0,7.9976,0.0,flower1.jpg,flower1_pair.jpg,left,7.0,A3S10MQO4RXHM8
183,5,1.0,flower2.jpg,,,,13.0,left,0.0,5.0018,1.0,flower2_pair.jpg,flower2.jpg,right,7.0,A3S10MQO4RXHM8
184,6,2.0,left.jpg,left,0.9618,left,14.0,left,1.0,3.045,2.0,flower3.jpg,flower3_pair.jpg,left,6.0,A3S10MQO4RXHM8
185,7,3.0,flower3.jpg,,,,15.0,left,1.0,3.2048,3.0,flower4.jpg,flower4_pair.jpg,left,7.0,A3S10MQO4RXHM8
186,8,4.0,flower4.jpg,,,,16.0,right,1.0,2.4657,4.0,flower5_pair.jpg,flower5.jpg,right,8.0,A3S10MQO4RXHM8
187,9,5.0,flower5.jpg,,,,17.0,left,1.0,1.9162,5.0,flower6.jpg,flower6_pair.jpg,left,8.0,A3S10MQO4RXHM8
188,10,6.0,flower6.jpg,,,,,,,,,,,,,A3S10MQO4RXHM8
189,4,0.0,flower1.jpg,,,,12.0,left,1.0,39.1672,0.0,flower1.jpg,flower1_pair.jpg,left,6.0,A140CEAA0194YY
190,5,1.0,flower2.jpg,,,,13.0,right,1.0,4.0187,1.0,flower2_pair.jpg,flower2.jpg,right,6.0,A140CEAA0194YY
191,6,2.0,left.jpg,left,2.3213,left,14.0,left,1.0,3.3519,2.0,flower3.jpg,flower3_pair.jpg,left,6.0,A140CEAA0194YY
192,7,3.0,flower3.jpg,,,,15.0,right,0.0,2.6561,3.0,flower4.jpg,flower4_pair.jpg,left,5.0,A140CEAA0194YY
193,8,4.0,flower4.jpg,,,,16.0,right,1.0,2.2992,4.0,flower5_pair.jpg,flower5.jpg,right,5.0,A140CEAA0194YY
194,9,5.0,flower5.jpg,,,,17.0,right,0.0,1.9812,5.0,flower6.jpg,flower6_pair.jpg,left,5.0,A140CEAA0194YY
195,10,6.0,flower6.jpg,,,,,,,,,,,,,A140CEAA0194YY
196,4,0.0,flower1.jpg,,,,12.0,right,0.0,8.954,0.0,flower1.jpg,flower1_pair.jpg,left,6.0,A1UJWR5MS1ASQV
197,5,1.0,flower2.jpg,,,,13.0,right,1.0,6.388,1.0,flower2_pair.jpg,flower2.jpg,right,5.0,A1UJWR5MS1ASQV
198,6,2.0,left.jpg,left,1.245,left,14.0,right,0.0,4.939,2.0,flower3.jpg,flower3_pair.jpg,left,7.0,A1UJWR5MS1ASQV
199,7,3.0,flower3.jpg,,,,15.0,right,0.0,3.598,3.0,flower4.jpg,flower4_pair.jpg,left,4.0,A1UJWR5MS1ASQV
200,8,4.0,flower4.jpg,,,,16.0,right,1.0,2.736,4.0,flower5_pair.jpg,flower5.jpg,right,6.0,A1UJWR5MS1ASQV
201,9,5.0,flower5.jpg,,,,17.0,right,0.0,5.195,5.0,flower6.jpg,flower6_pair.jpg,left,3.0,A1UJWR5MS1ASQV
202,10,6.0,flower6.jpg,,,,,,,,,,,,,A1UJWR5MS1ASQV
203,4,0.0,flower1.jpg,,,,12.0,right,0.0,26.7149,0.0,flower1.jpg,flower1_pair.jpg,left,7.0,A1F0VEHWK3IAF4
204,5,1.0,flower2.jpg,,,,13.0,left,0.0,2.8786,1.0,flower2_pair.jpg,flower2.jpg,right,5.0,A1F0VEHWK3IAF4
205,6,2.0,left.jpg,left,2.1986,left,14.0,right,0.0,2.0188,2.0,flower3.jpg,flower3_pair.jpg,left,5.0,A1F0VEHWK3IAF4
206,7,3.0,flower3.jpg,,,,15.0,right,0.0,1.611,3.0,flower4.jpg,flower4_pair.jpg,left,7.0,A1F0VEHWK3IAF4
207,8,4.0,flower4.jpg,,,,16.0,left,0.0,1.9757,4.0,flower5_pair.jpg,flower5.jpg,right,5.0,A1F0VEHWK3IAF4
208,9,5.0,flower5.jpg,,,,17.0,left,1.0,1.6152,5.0,flower6.jpg,flower6_pair.jpg,left,4.0,A1F0VEHWK3IAF4
209,10,6.0,flower6.jpg,,,,,,,,,,,,,A1F0VEHWK3IAF4
210,4,0.0,flower1.jpg,,,,12.0,left,1.0,1.7655,0.0,flower1.jpg,flower1_pair.jpg,left,8.0,A367K74P9QF27V
211,5,1.0,flower2.jpg,,,,13.0,right,1.0,2.0996,1.0,flower2_pair.jpg,flower2.jpg,right,9.0,A367K74P9QF27V
212,6,2.0,left.jpg,left,0.9809,left,14.0,left,1.0,1.6439,2.0,flower3.jpg,flower3_pair.jpg,left,9.0,A367K74P9QF27V
213,7,3.0,flower3.jpg,,,,15.0,left,1.0,1.324,3.0,flower4.jpg,flower4_pair.jpg,left,9.0,A367K74P9QF27V
214,8,4.0,flower4.jpg,,,,16.0,right,1.0,2.6903,4.0,flower5_pair.jpg,flower5.jpg,right,9.0,A367K74P9QF27V
215,9,5.0,flower5.jpg,,,,17.0,left,1.0,1.3249,5.0,flower6.jpg,flower6_pair.jpg,left,9.0,A367K74P9QF27V
216,10,6.0,flower6.jpg,,,,,,,,,,,,,A367K74P9QF27V
217,4,0.0,flower1.jpg,,,,12.0,right,0.0,8.651,0.0,flower1.jpg,flower1_pair.jpg,left,7.0,A37JC45Y9GLSA7
218,5,1.0,flower2.jpg,,,,13.0,right,1.0,0.8902,1.0,flower2_pair.jpg,flower2.jpg,right,7.0,A37JC45Y9GLSA7
219,6,2.0,left.jpg,left,0.492,left,14.0,left,1.0,1.4951,2.0,flower3.jpg,flower3_pair.jpg,left,6.0,A37JC45Y9GLSA7
220,7,3.0,flower3.jpg,,,,15.0,right,0.0,2.121,3.0,flower4.jpg,flower4_pair.jpg,left,6.0,A37JC45Y9GLSA7
221,8,4.0,flower4.jpg,,,,16.0,right,1.0,0.5143,4.0,flower5_pair.jpg,flower5.jpg,right,5.0,A37JC45Y9GLSA7
222,9,5.0,flower5.jpg,,,,17.0,right,0.0,0.4848,5.0,flower6.jpg,flower6_pair.jpg,left,6.0,A37JC45Y9GLSA7
223,10,6.0,flower6.jpg,,,,,,,,,,,,,A37JC45Y9GLSA7
224,4,0.0,flower1.jpg,,,,12.0,left,1.0,1.427,0.0,flower1.jpg,flower1_pair.jpg,left,3.0,A1J7C4V2AZSHQX
225,5,1.0,flower2.jpg,,,,13.0,right,1.0,2.345,1.0,flower2_pair.jpg,flower2.jpg,right,5.0,A1J7C4V2AZSHQX
226,6,2.0,left.jpg,left,0.661,left,14.0,left,1.0,2.372,2.0,flower3.jpg,flower3_pair.jpg,left,3.0,A1J7C4V2AZSHQX
227,7,3.0,flower3.jpg,,,,15.0,left,1.0,2.051,3.0,flower4.jpg,flower4_pair.jpg,left,4.0,A1J7C4V2AZSHQX
228,8,4.0,flower4.jpg,,,,16.0,right,1.0,1.612,4.0,flower5_pair.jpg,flower5.jpg,right,6.0,A1J7C4V2AZSHQX
229,9,5.0,flower5.jpg,,,,17.0,left,1.0,3.177,5.0,flower6.jpg,flower6_pair.jpg,left,4.0,A1J7C4V2AZSHQX
230,10,6.0,flower6.jpg,,,,,,,,,,,,,A1J7C4V2AZSHQX
231,4,0.0,flower1.jpg,,,,12.0,left,1.0,2.59,0.0,flower1.jpg,flower1_pair.jpg,left,6.0,A23KAJRDVCVGOE
232,5,1.0,flower2.jpg,,,,13.0,left,0.0,1.9935,1.0,flower2_pair.jpg,flower2.jpg,right,5.0,A23KAJRDVCVGOE
233,6,2.0,left.jpg,left,0.9341,left,14.0,left,1.0,1.3045,2.0,flower3.jpg,flower3_pair.jpg,left,7.0,A23KAJRDVCVGOE
234,7,3.0,flower3.jpg,,,,15.0,left,1.0,0.987,3.0,flower4.jpg,flower4_pair.jpg,left,6.0,A23KAJRDVCVGOE
235,8,4.0,flower4.jpg,,,,16.0,right,1.0,1.3019,4.0,flower5_pair.jpg,flower5.jpg,right,4.0,A23KAJRDVCVGOE
236,9,5.0,flower5.jpg,,,,17.0,right,0.0,0.2249,5.0,flower6.jpg,flower6_pair.jpg,left,3.0,A23KAJRDVCVGOE
237,10,6.0,flower6.jpg,,,,,,,,,,,,,A23KAJRDVCVGOE
238,4,0.0,flower1.jpg,,,,12.0,right,0.0,19.7987,0.0,flower1.jpg,flower1_pair.jpg,left,3.0,A1QUQ0TV9KVD4C
239,5,1.0,flower2.jpg,,,,13.0,right,1.0,3.5435,1.0,flower2_pair.jpg,flower2.jpg,right,4.0,A1QUQ0TV9KVD4C
240,6,2.0,left.jpg,left,0.4455,left,14.0,right,0.0,1.7174,2.0,flower3.jpg,flower3_pair.jpg,left,1.0,A1QUQ0TV9KVD4C
241,7,3.0,flower3.jpg,,,,15.0,right,0.0,1.6201,3.0,flower4.jpg,flower4_pair.jpg,left,2.0,A1QUQ0TV9KVD4C
242,8,4.0,flower4.jpg,,,,16.0,right,1.0,0.9493,4.0,flower5_pair.jpg,flower5.jpg,right,3.0,A1QUQ0TV9KVD4C
243,9,5.0,flower5.jpg,,,,17.0,right,0.0,1.7179,5.0,flower6.jpg,flower6_pair.jpg,left,5.0,A1QUQ0TV9KVD4C
244,10,6.0,flower6.jpg,,,,,,,,,,,,,A1QUQ0TV9KVD4C
245,4,0.0,flower1.jpg,,,,12.0,right,0.0,1.9795,0.0,flower1.jpg,flower1_pair.jpg,left,4.0,A3CGQOJC28OVGN
246,5,1.0,flower2.jpg,,,,13.0,left,0.0,3.1001,1.0,flower2_pair.jpg,flower2.jpg,right,6.0,A3CGQOJC28OVGN
247,6,2.0,left.jpg,left,0.5722,left,14.0,left,1.0,1.8671,2.0,flower3.jpg,flower3_pair.jpg,left,4.0,A3CGQOJC28OVGN
248,7,3.0,flower3.jpg,,,,15.0,left,1.0,1.0166,3.0,flower4.jpg,flower4_pair.jpg,left,5.0,A3CGQOJC28OVGN
249,8,4.0,flower4.jpg,,,,16.0,right,1.0,2.0359,4.0,flower5_pair.jpg,flower5.jpg,right,6.0,A3CGQOJC28OVGN
250,9,5.0,flower5.jpg,,,,17.0,left,1.0,1.1835,5.0,flower6.jpg,flower6_pair.jpg,left,4.0,A3CGQOJC28OVGN
251,10,6.0,flower6.jpg,,,,,,,,,,,,,A3CGQOJC28OVGN
252,4,0.0,flower1.jpg,,,,12.0,left,1.0,74.518,0.0,flower1.jpg,flower1_pair.jpg,left,8.0,A1VXAJIELTYK0
253,5,1.0,flower2.jpg,,,,13.0,right,1.0,5.1957,1.0,flower2_pair.jpg,flower2.jpg,right,7.0,A1VXAJIELTYK0
254,6,2.0,left.jpg,left,1.3737,left,14.0,left,1.0,3.6863,2.0,flower3.jpg,flower3_pair.jpg,left,7.0,A1VXAJIELTYK0
255,7,3.0,flower3.jpg,,,,15.0,right,0.0,2.8488,3.0,flower4.jpg,flower4_pair.jpg,left,7.0,A1VXAJIELTYK0
256,8,4.0,flower4.jpg,,,,16.0,right,1.0,1.9808,4.0,flower5_pair.jpg,flower5.jpg,right,7.0,A1VXAJIELTYK0
257,9,5.0,flower5.jpg,,,,17.0,right,0.0,2.4896,5.0,flower6.jpg,flower6_pair.jpg,left,7.0,A1VXAJIELTYK0
258,10,6.0,flower6.jpg,,,,,,,,,,,,,A1VXAJIELTYK0
259,4,0.0,flower1.jpg,,,,12.0,left,1.0,2.162,0.0,flower1.jpg,flower1_pair.jpg,left,5.0,AZNIEFUIVB2H0
260,5,1.0,flower2.jpg,,,,13.0,right,1.0,2.38,1.0,flower2_pair.jpg,flower2.jpg,right,4.0,AZNIEFUIVB2H0
261,6,2.0,left.jpg,left,0.74,left,14.0,left,1.0,2.168,2.0,flower3.jpg,flower3_pair.jpg,left,4.0,AZNIEFUIVB2H0
262,7,3.0,flower3.jpg,,,,15.0,left,1.0,1.78,3.0,flower4.jpg,flower4_pair.jpg,left,5.0,AZNIEFUIVB2H0
263,8,4.0,flower4.jpg,,,,16.0,right,1.0,2.263,4.0,flower5_pair.jpg,flower5.jpg,right,6.0,AZNIEFUIVB2H0
264,9,5.0,flower5.jpg,,,,17.0,right,0.0,2.783,5.0,flower6.jpg,flower6_pair.jpg,left,4.0,AZNIEFUIVB2H0
265,10,6.0,flower6.jpg,,,,,,,,,,,,,AZNIEFUIVB2H0
266,4,0.0,flower1.jpg,,,,12.0,right,0.0,4.809,0.0,flower1.jpg,flower1_pair.jpg,left,7.0,A102RSV009OCUW
267,5,1.0,flower2.jpg,,,,13.0,left,0.0,4.464,1.0,flower2_pair.jpg,flower2.jpg,right,8.0,A102RSV009OCUW
268,6,2.0,left.jpg,left,1.843,left,14.0,left,1.0,4.114,2.0,flower3.jpg,flower3_pair.jpg,left,7.0,A102RSV009OCUW
269,7,3.0,flower3.jpg,,,,15.0,right,0.0,4.484,3.0,flower4.jpg,flower4_pair.jpg,left,7.0,A102RSV009OCUW
270,8,4.0,flower4.jpg,,,,16.0,right,1.0,4.14,4.0,flower5_pair.jpg,flower5.jpg,right,7.0,A102RSV009OCUW
271,9,5.0,flower5.jpg,,,,17.0,left,1.0,6.397,5.0,flower6.jpg,flower6_pair.jpg,left,7.0,A102RSV009OCUW
272,10,6.0,flower6.jpg,,,,,,,,,,,,,A102RSV009OCUW
273,4,0.0,flower1.jpg,,,,12.0,left,1.0,1.6862,0.0,flower1.jpg,flower1_pair.jpg,left,9.0,A394S7JSNUA3TS
274,5,1.0,flower2.jpg,,,,13.0,left,0.0,3.1572,1.0,flower2_pair.jpg,flower2.jpg,right,8.0,A394S7JSNUA3TS
275,6,2.0,left.jpg,left,0.4574,left,14.0,left,1.0,1.4053,2.0,flower3.jpg,flower3_pair.jpg,left,9.0,A394S7JSNUA3TS
276,7,3.0,flower3.jpg,,,,15.0,left,1.0,1.7734,3.0,flower4.jpg,flower4_pair.jpg,left,9.0,A394S7JSNUA3TS
277,8,4.0,flower4.jpg,,,,16.0,right,1.0,1.2338,4.0,flower5_pair.jpg,flower5.jpg,right,8.0,A394S7JSNUA3TS
278,9,5.0,flower5.jpg,,,,17.0,left,1.0,2.2444,5.0,flower6.jpg,flower6_pair.jpg,left,8.0,A394S7JSNUA3TS
279,10,6.0,flower6.jpg,,,,,,,,,,,,,A394S7JSNUA3TS
280,4,0.0,flower1.jpg,,,,12.0,left,1.0,3.65,0.0,flower1.jpg,flower1_pair.jpg,left,4.0,A2AQDPK2JTLLO2
281,5,1.0,flower2.jpg,,,,13.0,left,0.0,2.4837,1.0,flower2_pair.jpg,flower2.jpg,right,3.0,A2AQDPK2JTLLO2
282,6,2.0,left.jpg,left,1.0627,left,14.0,left,1.0,3.0072,2.0,flower3.jpg,flower3_pair.jpg,left,5.0,A2AQDPK2JTLLO2
283,7,3.0,flower3.jpg,,,,15.0,left,1.0,2.0844,3.0,flower4.jpg,flower4_pair.jpg,left,5.0,A2AQDPK2JTLLO2
284,8,4.0,flower4.jpg,,,,16.0,right,1.0,1.83,4.0,flower5_pair.jpg,flower5.jpg,right,2.0,A2AQDPK2JTLLO2
285,9,5.0,flower5.jpg,,,,17.0,left,1.0,1.9045,5.0,flower6.jpg,flower6_pair.jpg,left,5.0,A2AQDPK2JTLLO2
286,10,6.0,flower6.jpg,,,,,,,,,,,,,A2AQDPK2JTLLO2
287,4,0.0,flower1.jpg,,,,12.0,right,0.0,1.3156,0.0,flower1.jpg,flower1_pair.jpg,left,9.0,A3E8SXH0BAYG85
288,5,1.0,flower2.jpg,,,,13.0,left,0.0,3.1368,1.0,flower2_pair.jpg,flower2.jpg,right,8.0,A3E8SXH0BAYG85
289,6,2.0,left.jpg,left,0.7131,left,14.0,left,1.0,2.6435,2.0,flower3.jpg,flower3_pair.jpg,left,7.0,A3E8SXH0BAYG85
290,7,3.0,flower3.jpg,,,,15.0,left,1.0,2.0869,3.0,flower4.jpg,flower4_pair.jpg,left,7.0,A3E8SXH0BAYG85
291,8,4.0,flower4.jpg,,,,16.0,right,1.0,3.5397,4.0,flower5_pair.jpg,flower5.jpg,right,8.0,A3E8SXH0BAYG85
292,9,5.0,flower5.jpg,,,,17.0,left,1.0,2.4202,5.0,flower6.jpg,flower6_pair.jpg,left,7.0,A3E8SXH0BAYG85
293,10,6.0,flower6.jpg,,,,,,,,,,,,,A3E8SXH0BAYG85
294,4,0.0,flower1.jpg,,,,12.0,left,1.0,3.519,0.0,flower1.jpg,flower1_pair.jpg,left,8.0,A1AD2BDQYTTJIL
295,5,1.0,flower2.jpg,,,,13.0,left,0.0,2.401,1.0,flower2_pair.jpg,flower2.jpg,right,8.0,A1AD2BDQYTTJIL
296,6,2.0,left.jpg,left,2.521,left,14.0,left,1.0,4.04,2.0,flower3.jpg,flower3_pair.jpg,left,8.0,A1AD2BDQYTTJIL
297,7,3.0,flower3.jpg,,,,15.0,left,1.0,2.375,3.0,flower4.jpg,flower4_pair.jpg,left,9.0,A1AD2BDQYTTJIL
298,8,4.0,flower4.jpg,,,,16.0,right,1.0,2.229,4.0,flower5_pair.jpg,flower5.jpg,right,9.0,A1AD2BDQYTTJIL
299,9,5.0,flower5.jpg,,,,17.0,right,0.0,2.199,5.0,flower6.jpg,flower6_pair.jpg,left,7.0,A1AD2BDQYTTJIL
300,10,6.0,flower6.jpg,,,,,,,,,,,,,A1AD2BDQYTTJIL
301,4,0.0,flower1.jpg,,,,12.0,left,1.0,1.019,0.0,flower1.jpg,flower1_pair.jpg,left,8.0,A2541C8MY0BYV3
302,5,1.0,flower2.jpg,,,,13.0,right,1.0,2.475,1.0,flower2_pair.jpg,flower2.jpg,right,9.0,A2541C8MY0BYV3
303,6,2.0,left.jpg,left,0.443,left,14.0,left,1.0,1.675,2.0,flower3.jpg,flower3_pair.jpg,left,4.0,A2541C8MY0BYV3
304,7,3.0,flower3.jpg,,,,15.0,right,0.0,1.879,3.0,flower4.jpg,flower4_pair.jpg,left,3.0,A2541C8MY0BYV3
305,8,4.0,flower4.jpg,,,,16.0,right,1.0,0.998,4.0,flower5_pair.jpg,flower5.jpg,right,6.0,A2541C8MY0BYV3
306,9,5.0,flower5.jpg,,,,17.0,right,0.0,2.962,5.0,flower6.jpg,flower6_pair.jpg,left,5.0,A2541C8MY0BYV3
307,10,6.0,flower6.jpg,,,,,,,,,,,,,A2541C8MY0BYV3
308,4,0.0,flower1.jpg,,,,12.0,right,0.0,9.1202,0.0,flower1.jpg,flower1_pair.jpg,left,8.0,A13WTEQ06V3B6D
309,5,1.0,flower2.jpg,,,,13.0,right,1.0,1.7219,1.0,flower2_pair.jpg,flower2.jpg,right,6.0,A13WTEQ06V3B6D
310,6,2.0,left.jpg,left,0.9256,left,14.0,left,1.0,2.4919,2.0,flower3.jpg,flower3_pair.jpg,left,3.0,A13WTEQ06V3B6D
311,7,3.0,flower3.jpg,,,,15.0,left,1.0,2.1409,3.0,flower4.jpg,flower4_pair.jpg,left,3.0,A13WTEQ06V3B6D
312,8,4.0,flower4.jpg,,,,16.0,left,0.0,2.4792,4.0,flower5_pair.jpg,flower5.jpg,right,4.0,A13WTEQ06V3B6D
313,9,5.0,flower5.jpg,,,,17.0,left,1.0,1.0948,5.0,flower6.jpg,flower6_pair.jpg,left,1.0,A13WTEQ06V3B6D
314,10,6.0,flower6.jpg,,,,,,,,,,,,,A13WTEQ06V3B6D
315,4,0.0,flower1.jpg,,,,12.0,right,0.0,30.9113,0.0,flower1.jpg,flower1_pair.jpg,left,9.0,A12KEVAHN5P4WU
316,5,1.0,flower2.jpg,,,,13.0,right,1.0,4.0159,1.0,flower2_pair.jpg,flower2.jpg,right,9.0,A12KEVAHN5P4WU
317,6,2.0,left.jpg,left,1.5824,left,14.0,left,1.0,5.4303,2.0,flower3.jpg,flower3_pair.jpg,left,8.0,A12KEVAHN5P4WU
318,7,3.0,flower3.jpg,,,,15.0,right,0.0,2.4031,3.0,flower4.jpg,flower4_pair.jpg,left,9.0,A12KEVAHN5P4WU
319,8,4.0,flower4.jpg,,,,16.0,right,1.0,3.4156,4.0,flower5_pair.jpg,flower5.jpg,right,8.0,A12KEVAHN5P4WU
320,9,5.0,flower5.jpg,,,,17.0,right,0.0,2.7752,5.0,flower6.jpg,flower6_pair.jpg,left,5.0,A12KEVAHN5P4WU
321,10,6.0,flower6.jpg,,,,,,,,,,,,,A12KEVAHN5P4WU
322,4,0.0,flower1.jpg,,,,12.0,left,1.0,5.5756,0.0,flower1.jpg,flower1_pair.jpg,left,4.0,A39KMTFHRJJASK
323,5,1.0,flower2.jpg,,,,13.0,left,0.0,2.0229,1.0,flower2_pair.jpg,flower2.jpg,right,3.0,A39KMTFHRJJASK
324,6,2.0,left.jpg,left,1.1464,left,14.0,left,1.0,2.0818,2.0,flower3.jpg,flower3_pair.jpg,left,4.0,A39KMTFHRJJASK
325,7,3.0,flower3.jpg,,,,15.0,left,1.0,1.9811,3.0,flower4.jpg,flower4_pair.jpg,left,5.0,A39KMTFHRJJASK
326,8,4.0,flower4.jpg,,,,16.0,right,1.0,2.5767,4.0,flower5_pair.jpg,flower5.jpg,right,3.0,A39KMTFHRJJASK
327,9,5.0,flower5.jpg,,,,17.0,left,1.0,1.9018,5.0,flower6.jpg,flower6_pair.jpg,left,3.0,A39KMTFHRJJASK
328,10,6.0,flower6.jpg,,,,,,,,,,,,,A39KMTFHRJJASK
329,4,0.0,flower1.jpg,,,,12.0,left,1.0,6.5133,0.0,flower1.jpg,flower1_pair.jpg,left,7.0,A2GE831IS8US6K
330,5,1.0,flower2.jpg,,,,13.0,left,0.0,2.8373,1.0,flower2_pair.jpg,flower2.jpg,right,7.0,A2GE831IS8US6K
331,6,2.0,left.jpg,left,0.7407,left,14.0,left,1.0,3.8943,2.0,flower3.jpg,flower3_pair.jpg,left,6.0,A2GE831IS8US6K
332,7,3.0,flower3.jpg,,,,15.0,left,1.0,3.0616,3.0,flower4.jpg,flower4_pair.jpg,left,5.0,A2GE831IS8US6K
333,8,4.0,flower4.jpg,,,,16.0,right,1.0,1.9143,4.0,flower5_pair.jpg,flower5.jpg,right,4.0,A2GE831IS8US6K
334,9,5.0,flower5.jpg,,,,17.0,left,1.0,1.9938,5.0,flower6.jpg,flower6_pair.jpg,left,4.0,A2GE831IS8US6K
335,10,6.0,flower6.jpg,,,,,,,,,,,,,A2GE831IS8US6K
336,4,0.0,flower1.jpg,,,,12.0,num_6,0.0,3.3151,0.0,flower1.jpg,flower1_pair.jpg,left,5.0,A3TMVAECAVF9X5
337,5,1.0,flower2.jpg,,,,13.0,num_4,0.0,3.1413,1.0,flower2_pair.jpg,flower2.jpg,right,4.0,A3TMVAECAVF9X5
338,6,2.0,left.jpg,left,1.7329,left,14.0,num_4,0.0,2.3678,2.0,flower3.jpg,flower3_pair.jpg,left,3.0,A3TMVAECAVF9X5
339,7,3.0,flower3.jpg,,,,15.0,num_4,0.0,2.8859,3.0,flower4.jpg,flower4_pair.jpg,left,3.0,A3TMVAECAVF9X5
340,8,4.0,flower4.jpg,,,,16.0,num_6,0.0,3.7205,4.0,flower5_pair.jpg,flower5.jpg,right,3.0,A3TMVAECAVF9X5
341,9,5.0,flower5.jpg,,,,17.0,num_4,0.0,2.9034,5.0,flower6.jpg,flower6_pair.jpg,left,3.0,A3TMVAECAVF9X5
342,10,6.0,flower6.jpg,,,,,,,,,,,,,A3TMVAECAVF9X5
343,4,0.0,flower1.jpg,,,,12.0,right,0.0,2.1496,0.0,flower1.jpg,flower1_pair.jpg,left,7.0,A28HB7240OFGEW
344,5,1.0,flower2.jpg,,,,13.0,left,0.0,2.7411,1.0,flower2_pair.jpg,flower2.jpg,right,7.0,A28HB7240OFGEW
345,6,2.0,left.jpg,left,0.4559,left,14.0,right,0.0,2.2378,2.0,flower3.jpg,flower3_pair.jpg,left,2.0,A28HB7240OFGEW
346,7,3.0,flower3.jpg,,,,15.0,left,1.0,1.2889,3.0,flower4.jpg,flower4_pair.jpg,left,6.0,A28HB7240OFGEW
347,8,4.0,flower4.jpg,,,,16.0,right,1.0,1.1316,4.0,flower5_pair.jpg,flower5.jpg,right,6.0,A28HB7240OFGEW
348,9,5.0,flower5.jpg,,,,17.0,left,1.0,0.6633,5.0,flower6.jpg,flower6_pair.jpg,left,3.0,A28HB7240OFGEW
349,10,6.0,flower6.jpg,,,,,,,,,,,,,A28HB7240OFGEW
350,4,0.0,flower1.jpg,,,,12.0,left,1.0,2.8502,0.0,flower1.jpg,flower1_pair.jpg,left,8.0,A2VR9O234UCT9T
351,5,1.0,flower2.jpg,,,,13.0,right,1.0,3.338,1.0,flower2_pair.jpg,flower2.jpg,right,5.0,A2VR9O234UCT9T
352,6,2.0,left.jpg,left,0.6537,left,14.0,left,1.0,2.5874,2.0,flower3.jpg,flower3_pair.jpg,left,8.0,A2VR9O234UCT9T
353,7,3.0,flower3.jpg,,,,15.0,left,1.0,2.6328,3.0,flower4.jpg,flower4_pair.jpg,left,5.0,A2VR9O234UCT9T
354,8,4.0,flower4.jpg,,,,16.0,right,1.0,2.3623,4.0,flower5_pair.jpg,flower5.jpg,right,4.0,A2VR9O234UCT9T
355,9,5.0,flower5.jpg,,,,17.0,left,1.0,2.1095,5.0,flower6.jpg,flower6_pair.jpg,left,4.0,A2VR9O234UCT9T
356,10,6.0,flower6.jpg,,,,,,,,,,,,,A2VR9O234UCT9T
357,4,0.0,flower1.jpg,,,,12.0,right,0.0,2.356,0.0,flower1.jpg,flower1_pair.jpg,left,8.0,A1Z8JSNPBUBCJX
358,5,1.0,flower2.jpg,,,,13.0,right,1.0,2.103,1.0,flower2_pair.jpg,flower2.jpg,right,6.0,A1Z8JSNPBUBCJX
359,6,2.0,left.jpg,left,2.75,left,14.0,left,1.0,3.035,2.0,flower3.jpg,flower3_pair.jpg,left,6.0,A1Z8JSNPBUBCJX
360,7,3.0,flower3.jpg,,,,15.0,right,0.0,1.948,3.0,flower4.jpg,flower4_pair.jpg,left,7.0,A1Z8JSNPBUBCJX
361,8,4.0,flower4.jpg,,,,16.0,right,1.0,1.97,4.0,flower5_pair.jpg,flower5.jpg,right,6.0,A1Z8JSNPBUBCJX
362,9,5.0,flower5.jpg,,,,17.0,right,0.0,2.171,5.0,flower6.jpg,flower6_pair.jpg,left,7.0,A1Z8JSNPBUBCJX
363,10,6.0,flower6.jpg,,,,,,,,,,,,,A1Z8JSNPBUBCJX
364,4,0.0,flower1.jpg,,,,12.0,left,1.0,2.457,0.0,flower1.jpg,flower1_pair.jpg,left,8.0,A2RE8G7FOGBR3W
365,5,1.0,flower2.jpg,,,,13.0,right,1.0,1.797,1.0,flower2_pair.jpg,flower2.jpg,right,8.0,A2RE8G7FOGBR3W
366,6,2.0,left.jpg,left,0.903,left,14.0,left,1.0,1.334,2.0,flower3.jpg,flower3_pair.jpg,left,8.0,A2RE8G7FOGBR3W
367,7,3.0,flower3.jpg,,,,15.0,right,0.0,1.52,3.0,flower4.jpg,flower4_pair.jpg,left,8.0,A2RE8G7FOGBR3W
368,8,4.0,flower4.jpg,,,,16.0,left,0.0,1.649,4.0,flower5_pair.jpg,flower5.jpg,right,8.0,A2RE8G7FOGBR3W
369,9,5.0,flower5.jpg,,,,17.0,right,0.0,1.191,5.0,flower6.jpg,flower6_pair.jpg,left,8.0,A2RE8G7FOGBR3W
370,10,6.0,flower6.jpg,,,,,,,,,,,,,A2RE8G7FOGBR3W
371,4,0.0,flower1.jpg,,,,12.0,left,1.0,12.7585,0.0,flower1.jpg,flower1_pair.jpg,left,8.0,A1I1IMZ2ROJY3I
372,5,1.0,flower2.jpg,,,,13.0,left,0.0,5.3937,1.0,flower2_pair.jpg,flower2.jpg,right,8.0,A1I1IMZ2ROJY3I
373,6,2.0,left.jpg,left,1.9563,left,14.0,left,1.0,7.9428,2.0,flower3.jpg,flower3_pair.jpg,left,8.0,A1I1IMZ2ROJY3I
374,7,3.0,flower3.jpg,,,,15.0,left,1.0,1.9639,3.0,flower4.jpg,flower4_pair.jpg,left,7.0,A1I1IMZ2ROJY3I
375,8,4.0,flower4.jpg,,,,16.0,left,0.0,0.5351,4.0,flower5_pair.jpg,flower5.jpg,right,7.0,A1I1IMZ2ROJY3I
376,9,5.0,flower5.jpg,,,,17.0,left,1.0,0.6332,5.0,flower6.jpg,flower6_pair.jpg,left,7.0,A1I1IMZ2ROJY3I
377,10,6.0,flower6.jpg,,,,,,,,,,,,,A1I1IMZ2ROJY3I
378,4,0.0,flower1.jpg,,,,12.0,num_6,0.0,76.817,0.0,flower1.jpg,flower1_pair.jpg,left,7.0,A1CX7EWQ6PBWLF
379,5,1.0,flower2.jpg,,,,13.0,num_6,0.0,46.571,1.0,flower2_pair.jpg,flower2.jpg,right,8.0,A1CX7EWQ6PBWLF
380,6,2.0,left.jpg,left,1.936,left,14.0,right,0.0,7.255,2.0,flower3.jpg,flower3_pair.jpg,left,9.0,A1CX7EWQ6PBWLF
381,7,3.0,flower3.jpg,,,,15.0,left,1.0,3.764,3.0,flower4.jpg,flower4_pair.jpg,left,6.0,A1CX7EWQ6PBWLF
382,8,4.0,flower4.jpg,,,,16.0,right,1.0,4.319,4.0,flower5_pair.jpg,flower5.jpg,right,7.0,A1CX7EWQ6PBWLF
383,9,5.0,flower5.jpg,,,,17.0,left,1.0,2.897,5.0,flower6.jpg,flower6_pair.jpg,left,7.0,A1CX7EWQ6PBWLF
384,10,6.0,flower6.jpg,,,,,,,,,,,,,A1CX7EWQ6PBWLF
385,4,0.0,flower1.jpg,,,,12.0,right,0.0,1.709,0.0,flower1.jpg,flower1_pair.jpg,left,7.0,ABVSR4GA6S3U3
386,5,1.0,flower2.jpg,,,,13.0,left,0.0,2.6381,1.0,flower2_pair.jpg,flower2.jpg,right,7.0,ABVSR4GA6S3U3
387,6,2.0,left.jpg,left,0.939,left,14.0,right,0.0,3.3541,2.0,flower3.jpg,flower3_pair.jpg,left,6.0,ABVSR4GA6S3U3
388,7,3.0,flower3.jpg,,,,15.0,right,0.0,0.8604,3.0,flower4.jpg,flower4_pair.jpg,left,6.0,ABVSR4GA6S3U3
389,8,4.0,flower4.jpg,,,,16.0,right,1.0,1.4817,4.0,flower5_pair.jpg,flower5.jpg,right,6.0,ABVSR4GA6S3U3
390,9,5.0,flower5.jpg,,,,17.0,left,1.0,1.7272,5.0,flower6.jpg,flower6_pair.jpg,left,4.0,ABVSR4GA6S3U3
391,10,6.0,flower6.jpg,,,,,,,,,,,,,ABVSR4GA6S3U3
392,4,0.0,flower1.jpg,,,,12.0,left,1.0,10.9711,0.0,flower1.jpg,flower1_pair.jpg,left,8.0,A1PZIN8H1VI6SY
393,5,1.0,flower2.jpg,,,,13.0,right,1.0,4.9788,1.0,flower2_pair.jpg,flower2.jpg,right,7.0,A1PZIN8H1VI6SY
394,6,2.0,left.jpg,left,2.8886,left,14.0,right,0.0,4.0957,2.0,flower3.jpg,flower3_pair.jpg,left,8.0,A1PZIN8H1VI6SY
395,7,3.0,flower3.jpg,,,,15.0,right,0.0,3.0266,3.0,flower4.jpg,flower4_pair.jpg,left,7.0,A1PZIN8H1VI6SY
396,8,4.0,flower4.jpg,,,,16.0,right,1.0,1.0688,4.0,flower5_pair.jpg,flower5.jpg,right,7.0,A1PZIN8H1VI6SY
397,9,5.0,flower5.jpg,,,,17.0,right,0.0,0.6333,5.0,flower6.jpg,flower6_pair.jpg,left,5.0,A1PZIN8H1VI6SY
398,10,6.0,flower6.jpg,,,,,,,,,,,,,A1PZIN8H1VI6SY
399,4,0.0,flower1.jpg,,,,12.0,right,0.0,3.7316,0.0,flower1.jpg,flower1_pair.jpg,left,8.0,A2INGGZW5GH6RM
400,5,1.0,flower2.jpg,,,,13.0,right,1.0,4.3759,1.0,flower2_pair.jpg,flower2.jpg,right,6.0,A2INGGZW5GH6RM
401,6,2.0,left.jpg,left,1.1976,left,14.0,left,1.0,1.7356,2.0,flower3.jpg,flower3_pair.jpg,left,7.0,A2INGGZW5GH6RM
402,7,3.0,flower3.jpg,,,,15.0,left,1.0,2.5309,3.0,flower4.jpg,flower4_pair.jpg,left,5.0,A2INGGZW5GH6RM
403,8,4.0,flower4.jpg,,,,16.0,right,1.0,1.7888,4.0,flower5_pair.jpg,flower5.jpg,right,5.0,A2INGGZW5GH6RM
404,9,5.0,flower5.jpg,,,,17.0,left,1.0,2.4733,5.0,flower6.jpg,flower6_pair.jpg,left,4.0,A2INGGZW5GH6RM
405,10,6.0,flower6.jpg,,,,,,,,,,,,,A2INGGZW5GH6RM
406,4,0.0,flower1.jpg,,,,12.0,left,1.0,3.6331,0.0,flower1.jpg,flower1_pair.jpg,left,9.0,A2OXC3ZQNFML9G
407,5,1.0,flower2.jpg,,,,13.0,right,1.0,4.2189,1.0,flower2_pair.jpg,flower2.jpg,right,7.0,A2OXC3ZQNFML9G
408,6,2.0,left.jpg,left,0.1761,left,14.0,left,1.0,2.1331,2.0,flower3.jpg,flower3_pair.jpg,left,9.0,A2OXC3ZQNFML9G
409,7,3.0,flower3.jpg,,,,15.0,left,1.0,2.2687,3.0,flower4.jpg,flower4_pair.jpg,left,9.0,A2OXC3ZQNFML9G
410,8,4.0,flower4.jpg,,,,16.0,right,1.0,2.7147,4.0,flower5_pair.jpg,flower5.jpg,right,9.0,A2OXC3ZQNFML9G
411,9,5.0,flower5.jpg,,,,17.0,left,1.0,2.7563,5.0,flower6.jpg,flower6_pair.jpg,left,9.0,A2OXC3ZQNFML9G
412,10,6.0,flower6.jpg,,,,,,,,,,,,,A2OXC3ZQNFML9G
413,4,0.0,flower1.jpg,,,,12.0,right,0.0,1.96,0.0,flower1.jpg,flower1_pair.jpg,left,7.0,A2M9Q0S025XT75
414,5,1.0,flower2.jpg,,,,13.0,right,1.0,1.4464,1.0,flower2_pair.jpg,flower2.jpg,right,7.0,A2M9Q0S025XT75
415,6,2.0,left.jpg,left,1.0501,left,14.0,left,1.0,1.0171,2.0,flower3.jpg,flower3_pair.jpg,left,8.0,A2M9Q0S025XT75
416,7,3.0,flower3.jpg,,,,15.0,right,0.0,3.7041,3.0,flower4.jpg,flower4_pair.jpg,left,8.0,A2M9Q0S025XT75
417,8,4.0,flower4.jpg,,,,16.0,right,1.0,7.5166,4.0,flower5_pair.jpg,flower5.jpg,right,7.0,A2M9Q0S025XT75
418,9,5.0,flower5.jpg,,,,17.0,right,0.0,0.9964,5.0,flower6.jpg,flower6_pair.jpg,left,8.0,A2M9Q0S025XT75
419,10,6.0,flower6.jpg,,,,,,,,,,,,,A2M9Q0S025XT75
420,4,0.0,flower1.jpg,,,,12.0,left,1.0,5.3638,0.0,flower1.jpg,flower1_pair.jpg,left,5.0,A1B8QUOSZEH4S1
421,5,1.0,flower2.jpg,,,,13.0,left,0.0,0.9744,1.0,flower2_pair.jpg,flower2.jpg,right,5.0,A1B8QUOSZEH4S1
422,6,2.0,left.jpg,left,1.5971,left,14.0,right,0.0,1.0568,2.0,flower3.jpg,flower3_pair.jpg,left,5.0,A1B8QUOSZEH4S1
423,7,3.0,flower3.jpg,,,,15.0,left,1.0,0.8413,3.0,flower4.jpg,flower4_pair.jpg,left,5.0,A1B8QUOSZEH4S1
424,8,4.0,flower4.jpg,,,,16.0,left,0.0,0.4971,4.0,flower5_pair.jpg,flower5.jpg,right,5.0,A1B8QUOSZEH4S1
425,9,5.0,flower5.jpg,,,,17.0,right,0.0,0.5905,5.0,flower6.jpg,flower6_pair.jpg,left,5.0,A1B8QUOSZEH4S1
426,10,6.0,flower6.jpg,,,,,,,,,,,,,A1B8QUOSZEH4S1
427,4,0.0,flower1.jpg,,,,12.0,left,1.0,2.324,0.0,flower1.jpg,flower1_pair.jpg,left,5.0,A2NWPE0L3EOEMV
428,5,1.0,flower2.jpg,,,,13.0,right,1.0,6.839,1.0,flower2_pair.jpg,flower2.jpg,right,5.0,A2NWPE0L3EOEMV
429,6,2.0,left.jpg,left,0.911,left,14.0,left,1.0,2.119,2.0,flower3.jpg,flower3_pair.jpg,left,5.0,A2NWPE0L3EOEMV
430,7,3.0,flower3.jpg,,,,15.0,right,0.0,1.578,3.0,flower4.jpg,flower4_pair.jpg,left,5.0,A2NWPE0L3EOEMV
431,8,4.0,flower4.jpg,,,,16.0,left,0.0,2.125,4.0,flower5_pair.jpg,flower5.jpg,right,6.0,A2NWPE0L3EOEMV
432,9,5.0,flower5.jpg,,,,17.0,left,1.0,6.717,5.0,flower6.jpg,flower6_pair.jpg,left,5.0,A2NWPE0L3EOEMV
433,10,6.0,flower6.jpg,,,,,,,,,,,,,A2NWPE0L3EOEMV
434,4,0.0,flower1.jpg,,,,12.0,right,0.0,3.8273,0.0,flower1.jpg,flower1_pair.jpg,left,1.0,A1643DGXP62OPM
435,5,1.0,flower2.jpg,,,,13.0,right,1.0,7.7275,1.0,flower2_pair.jpg,flower2.jpg,right,3.0,A1643DGXP62OPM
436,6,2.0,left.jpg,left,2.8059,left,14.0,right,0.0,10.4085,2.0,flower3.jpg,flower3_pair.jpg,left,5.0,A1643DGXP62OPM
437,7,3.0,flower3.jpg,,,,15.0,right,0.0,9.5719,3.0,flower4.jpg,flower4_pair.jpg,left,3.0,A1643DGXP62OPM
438,8,4.0,flower4.jpg,,,,16.0,right,1.0,0.7363,4.0,flower5_pair.jpg,flower5.jpg,right,1.0,A1643DGXP62OPM
439,9,5.0,flower5.jpg,,,,17.0,right,0.0,0.8962,5.0,flower6.jpg,flower6_pair.jpg,left,2.0,A1643DGXP62OPM
440,10,6.0,flower6.jpg,,,,,,,,,,,,,A1643DGXP62OPM
441,4,0.0,flower1.jpg,,,,12.0,right,0.0,11.7167,0.0,flower1.jpg,flower1_pair.jpg,left,5.0,A2FFCQ9WU6R764
442,5,1.0,flower2.jpg,,,,13.0,left,0.0,5.4675,1.0,flower2_pair.jpg,flower2.jpg,right,5.0,A2FFCQ9WU6R764
443,6,2.0,left.jpg,left,1.0989,left,14.0,right,0.0,2.1945,2.0,flower3.jpg,flower3_pair.jpg,left,6.0,A2FFCQ9WU6R764
444,7,3.0,flower3.jpg,,,,15.0,right,0.0,1.4398,3.0,flower4.jpg,flower4_pair.jpg,left,4.0,A2FFCQ9WU6R764
445,8,4.0,flower4.jpg,,,,16.0,right,1.0,1.5757,4.0,flower5_pair.jpg,flower5.jpg,right,6.0,A2FFCQ9WU6R764
446,9,5.0,flower5.jpg,,,,17.0,right,0.0,1.9828,5.0,flower6.jpg,flower6_pair.jpg,left,7.0,A2FFCQ9WU6R764
447,10,6.0,flower6.jpg,,,,,,,,,,,,,A2FFCQ9WU6R764
448,4,0.0,flower1.jpg,,,,12.0,right,0.0,3.8727,0.0,flower1.jpg,flower1_pair.jpg,left,6.0,A2QNZ93BA5JWKS
449,5,1.0,flower2.jpg,,,,13.0,left,0.0,4.2254,1.0,flower2_pair.jpg,flower2.jpg,right,7.0,A2QNZ93BA5JWKS
450,6,2.0,left.jpg,left,1.4521,left,14.0,right,0.0,1.205,2.0,flower3.jpg,flower3_pair.jpg,left,5.0,A2QNZ93BA5JWKS
451,7,3.0,flower3.jpg,,,,15.0,right,0.0,2.6742,3.0,flower4.jpg,flower4_pair.jpg,left,8.0,A2QNZ93BA5JWKS
452,8,4.0,flower4.jpg,,,,16.0,left,0.0,3.7202,4.0,flower5_pair.jpg,flower5.jpg,right,6.0,A2QNZ93BA5JWKS
453,9,5.0,flower5.jpg,,,,17.0,right,0.0,1.2704,5.0,flower6.jpg,flower6_pair.jpg,left,6.0,A2QNZ93BA5JWKS
454,10,6.0,flower6.jpg,,,,,,,,,,,,,A2QNZ93BA5JWKS
455,4,0.0,flower1.jpg,,,,12.0,left,1.0,2.7637,0.0,flower1.jpg,flower1_pair.jpg,left,8.0,A2QCW55A6KZG92
456,5,1.0,flower2.jpg,,,,13.0,left,0.0,2.8923,1.0,flower2_pair.jpg,flower2.jpg,right,8.0,A2QCW55A6KZG92
457,6,2.0,left.jpg,left,2.373,left,14.0,left,1.0,1.0508,2.0,flower3.jpg,flower3_pair.jpg,left,8.0,A2QCW55A6KZG92
458,7,3.0,flower3.jpg,,,,15.0,left,1.0,0.8498,3.0,flower4.jpg,flower4_pair.jpg,left,8.0,A2QCW55A6KZG92
459,8,4.0,flower4.jpg,,,,16.0,right,1.0,2.0226,4.0,flower5_pair.jpg,flower5.jpg,right,8.0,A2QCW55A6KZG92
460,9,5.0,flower5.jpg,,,,17.0,left,1.0,2.4029,5.0,flower6.jpg,flower6_pair.jpg,left,8.0,A2QCW55A6KZG92
461,10,6.0,flower6.jpg,,,,,,,,,,,,,A2QCW55A6KZG92
462,4,0.0,flower1.jpg,,,,12.0,right,0.0,2.7172,0.0,flower1.jpg,flower1_pair.jpg,left,7.0,AR2K3RMWXFXWX
463,5,1.0,flower2.jpg,,,,13.0,left,0.0,4.4417,1.0,flower2_pair.jpg,flower2.jpg,right,6.0,AR2K3RMWXFXWX
464,6,2.0,left.jpg,left,0.2461,left,14.0,right,0.0,0.9112,2.0,flower3.jpg,flower3_pair.jpg,left,7.0,AR2K3RMWXFXWX
465,7,3.0,flower3.jpg,,,,15.0,right,0.0,3.0359,3.0,flower4.jpg,flower4_pair.jpg,left,8.0,AR2K3RMWXFXWX
466,8,4.0,flower4.jpg,,,,16.0,right,1.0,0.0082,4.0,flower5_pair.jpg,flower5.jpg,right,7.0,AR2K3RMWXFXWX
467,9,5.0,flower5.jpg,,,,17.0,right,0.0,1.6038,5.0,flower6.jpg,flower6_pair.jpg,left,6.0,AR2K3RMWXFXWX
468,10,6.0,flower6.jpg,,,,,,,,,,,,,AR2K3RMWXFXWX
469,4,0.0,flower1.jpg,,,,12.0,left,1.0,2.1855,0.0,flower1.jpg,flower1_pair.jpg,left,6.0,A2VO8C41JJIQY9
470,5,1.0,flower2.jpg,,,,13.0,left,0.0,2.749,1.0,flower2_pair.jpg,flower2.jpg,right,7.0,A2VO8C41JJIQY9
471,6,2.0,left.jpg,left,1.1766,left,14.0,left,1.0,3.1471,2.0,flower3.jpg,flower3_pair.jpg,left,7.0,A2VO8C41JJIQY9
472,7,3.0,flower3.jpg,,,,15.0,left,1.0,2.0821,3.0,flower4.jpg,flower4_pair.jpg,left,6.0,A2VO8C41JJIQY9
473,8,4.0,flower4.jpg,,,,16.0,right,1.0,2.6974,4.0,flower5_pair.jpg,flower5.jpg,right,5.0,A2VO8C41JJIQY9
474,9,5.0,flower5.jpg,,,,17.0,right,0.0,2.2322,5.0,flower6.jpg,flower6_pair.jpg,left,6.0,A2VO8C41JJIQY9
475,10,6.0,flower6.jpg,,,,,,,,,,,,,A2VO8C41JJIQY9
476,4,0.0,flower1.jpg,,,,12.0,left,1.0,3.729,0.0,flower1.jpg,flower1_pair.jpg,left,4.0,A1ZXOJMKOXB2PP
477,5,1.0,flower2.jpg,,,,13.0,left,0.0,12.571,1.0,flower2_pair.jpg,flower2.jpg,right,8.0,A1ZXOJMKOXB2PP
478,6,2.0,left.jpg,left,1.093,left,14.0,left,1.0,5.078,2.0,flower3.jpg,flower3_pair.jpg,left,7.0,A1ZXOJMKOXB2PP
479,7,3.0,flower3.jpg,,,,15.0,right,0.0,2.334,3.0,flower4.jpg,flower4_pair.jpg,left,8.0,A1ZXOJMKOXB2PP
480,8,4.0,flower4.jpg,,,,16.0,right,1.0,122.893,4.0,flower5_pair.jpg,flower5.jpg,right,8.0,A1ZXOJMKOXB2PP
481,9,5.0,flower5.jpg,,,,17.0,left,1.0,3.61,5.0,flower6.jpg,flower6_pair.jpg,left,7.0,A1ZXOJMKOXB2PP
482,10,6.0,flower6.jpg,,,,,,,,,,,,,A1ZXOJMKOXB2PP
483,4,0.0,flower1.jpg,,,,12.0,left,1.0,9.2719,0.0,flower1.jpg,flower1_pair.jpg,left,7.0,A1HTR3THFK84RM
484,5,1.0,flower2.jpg,,,,13.0,right,1.0,5.1246,1.0,flower2_pair.jpg,flower2.jpg,right,7.0,A1HTR3THFK84RM
485,6,2.0,left.jpg,left,1.1378,left,14.0,left,1.0,2.7384,2.0,flower3.jpg,flower3_pair.jpg,left,6.0,A1HTR3THFK84RM
486,7,3.0,flower3.jpg,,,,15.0,right,0.0,1.8853,3.0,flower4.jpg,flower4_pair.jpg,left,7.0,A1HTR3THFK84RM
487,8,4.0,flower4.jpg,,,,16.0,left,0.0,2.0683,4.0,flower5_pair.jpg,flower5.jpg,right,7.0,A1HTR3THFK84RM
488,9,5.0,flower5.jpg,,,,17.0,left,1.0,1.7952,5.0,flower6.jpg,flower6_pair.jpg,left,8.0,A1HTR3THFK84RM
489,10,6.0,flower6.jpg,,,,,,,,,,,,,A1HTR3THFK84RM
490,4,0.0,flower1.jpg,,,,12.0,left,1.0,7.498,0.0,flower1.jpg,flower1_pair.jpg,left,8.0,A3U0XSWNQF054N
491,5,1.0,flower2.jpg,,,,13.0,left,0.0,10.255,1.0,flower2_pair.jpg,flower2.jpg,right,7.0,A3U0XSWNQF054N
492,6,2.0,left.jpg,left,1.016,left,14.0,right,0.0,4.302,2.0,flower3.jpg,flower3_pair.jpg,left,5.0,A3U0XSWNQF054N
493,7,3.0,flower3.jpg,,,,15.0,right,0.0,4.51,3.0,flower4.jpg,flower4_pair.jpg,left,3.0,A3U0XSWNQF054N
494,8,4.0,flower4.jpg,,,,16.0,left,0.0,5.253,4.0,flower5_pair.jpg,flower5.jpg,right,7.0,A3U0XSWNQF054N
495,9,5.0,flower5.jpg,,,,17.0,right,0.0,2.852,5.0,flower6.jpg,flower6_pair.jpg,left,4.0,A3U0XSWNQF054N
496,10,6.0,flower6.jpg,,,,,,,,,,,,,A3U0XSWNQF054N
497,4,0.0,flower1.jpg,,,,12.0,right,0.0,7.077,0.0,flower1.jpg,flower1_pair.jpg,left,6.0,AGILQEFEPEK7N
498,5,1.0,flower2.jpg,,,,13.0,right,1.0,3.7038,1.0,flower2_pair.jpg,flower2.jpg,right,6.0,AGILQEFEPEK7N
499,6,2.0,left.jpg,left,0.8088,left,14.0,left,1.0,2.5046,2.0,flower3.jpg,flower3_pair.jpg,left,5.0,AGILQEFEPEK7N
500,7,3.0,flower3.jpg,,,,15.0,left,1.0,2.6634,3.0,flower4.jpg,flower4_pair.jpg,left,7.0,AGILQEFEPEK7N
501,8,4.0,flower4.jpg,,,,16.0,right,1.0,2.6238,4.0,flower5_pair.jpg,flower5.jpg,right,5.0,AGILQEFEPEK7N
502,9,5.0,flower5.jpg,,,,17.0,left,1.0,3.9878,5.0,flower6.jpg,flower6_pair.jpg,left,3.0,AGILQEFEPEK7N
503,10,6.0,flower6.jpg,,,,,,,,,,,,,AGILQEFEPEK7N
504,4,0.0,flower1.jpg,,,,12.0,right,0.0,3.8961,0.0,flower1.jpg,flower1_pair.jpg,left,7.0,A2V6E7SGEU0EFD
505,5,1.0,flower2.jpg,,,,13.0,left,0.0,5.895,1.0,flower2_pair.jpg,flower2.jpg,right,7.0,A2V6E7SGEU0EFD
506,6,2.0,left.jpg,left,0.5508,left,14.0,left,1.0,3.8477,2.0,flower3.jpg,flower3_pair.jpg,left,6.0,A2V6E7SGEU0EFD
507,7,3.0,flower3.jpg,,,,15.0,left,1.0,2.5297,3.0,flower4.jpg,flower4_pair.jpg,left,8.0,A2V6E7SGEU0EFD
508,8,4.0,flower4.jpg,,,,16.0,right,1.0,5.0826,4.0,flower5_pair.jpg,flower5.jpg,right,8.0,A2V6E7SGEU0EFD
509,9,5.0,flower5.jpg,,,,17.0,left,1.0,2.6154,5.0,flower6.jpg,flower6_pair.jpg,left,8.0,A2V6E7SGEU0EFD
510,10,6.0,flower6.jpg,,,,,,,,,,,,,A2V6E7SGEU0EFD
511,4,0.0,flower1.jpg,,,,12.0,right,0.0,15.6133,0.0,flower1.jpg,flower1_pair.jpg,left,5.0,A2TXZVXQU5FQZ9
512,5,1.0,flower2.jpg,,,,13.0,left,0.0,6.0196,1.0,flower2_pair.jpg,flower2.jpg,right,5.0,A2TXZVXQU5FQZ9
513,6,2.0,left.jpg,left,0.4765,left,14.0,left,1.0,2.8267,2.0,flower3.jpg,flower3_pair.jpg,left,5.0,A2TXZVXQU5FQZ9
514,7,3.0,flower3.jpg,,,,15.0,left,1.0,2.353,3.0,flower4.jpg,flower4_pair.jpg,left,5.0,A2TXZVXQU5FQZ9
515,8,4.0,flower4.jpg,,,,16.0,right,1.0,1.5745,4.0,flower5_pair.jpg,flower5.jpg,right,5.0,A2TXZVXQU5FQZ9
516,9,5.0,flower5.jpg,,,,17.0,right,0.0,3.3584,5.0,flower6.jpg,flower6_pair.jpg,left,5.0,A2TXZVXQU5FQZ9
517,10,6.0,flower6.jpg,,,,,,,,,,,,,A2TXZVXQU5FQZ9
518,4,0.0,flower1.jpg,,,,12.0,right,0.0,2.7275,0.0,flower1.jpg,flower1_pair.jpg,left,7.0,A12YK5TFLVVM0K
519,5,1.0,flower2.jpg,,,,13.0,right,1.0,5.5119,1.0,flower2_pair.jpg,flower2.jpg,right,6.0,A12YK5TFLVVM0K
520,6,2.0,left.jpg,left,1.9246,left,14.0,left,1.0,7.1026,2.0,flower3.jpg,flower3_pair.jpg,left,5.0,A12YK5TFLVVM0K
521,7,3.0,flower3.jpg,,,,15.0,right,0.0,11.2103,3.0,flower4.jpg,flower4_pair.jpg,left,4.0,A12YK5TFLVVM0K
522,8,4.0,flower4.jpg,,,,16.0,right,1.0,5.0264,4.0,flower5_pair.jpg,flower5.jpg,right,4.0,A12YK5TFLVVM0K
523,9,5.0,flower5.jpg,,,,17.0,right,0.0,2.8344,5.0,flower6.jpg,flower6_pair.jpg,left,6.0,A12YK5TFLVVM0K
524,10,6.0,flower6.jpg,,,,,,,,,,,,,A12YK5TFLVVM0K
525,4,0.0,flower1.jpg,,,,12.0,left,1.0,3.685,0.0,flower1.jpg,flower1_pair.jpg,left,9.0,A92EMN1CW9PD7
526,5,1.0,flower2.jpg,,,,13.0,right,1.0,4.764,1.0,flower2_pair.jpg,flower2.jpg,right,2.0,A92EMN1CW9PD7
527,6,2.0,left.jpg,left,1.359,left,14.0,right,0.0,0.886,2.0,flower3.jpg,flower3_pair.jpg,left,6.0,A92EMN1CW9PD7
528,7,3.0,flower3.jpg,,,,15.0,right,0.0,1.671,3.0,flower4.jpg,flower4_pair.jpg,left,3.0,A92EMN1CW9PD7
529,8,4.0,flower4.jpg,,,,16.0,right,1.0,2.181,4.0,flower5_pair.jpg,flower5.jpg,right,1.0,A92EMN1CW9PD7
530,9,5.0,flower5.jpg,,,,17.0,right,0.0,1.14,5.0,flower6.jpg,flower6_pair.jpg,left,1.0,A92EMN1CW9PD7
531,10,6.0,flower6.jpg,,,,,,,,,,,,,A92EMN1CW9PD7
532,4,0.0,flower1.jpg,,,,12.0,left,1.0,2.8332,0.0,flower1.jpg,flower1_pair.jpg,left,4.0,A2J4GCDXLDHYXX
533,5,1.0,flower2.jpg,,,,13.0,right,1.0,2.819,1.0,flower2_pair.jpg,flower2.jpg,right,6.0,A2J4GCDXLDHYXX
534,6,2.0,left.jpg,left,0.9918,left,14.0,left,1.0,2.3806,2.0,flower3.jpg,flower3_pair.jpg,left,6.0,A2J4GCDXLDHYXX
535,7,3.0,flower3.jpg,,,,15.0,right,0.0,2.9403,3.0,flower4.jpg,flower4_pair.jpg,left,6.0,A2J4GCDXLDHYXX
536,8,4.0,flower4.jpg,,,,16.0,right,1.0,4.9258,4.0,flower5_pair.jpg,flower5.jpg,right,5.0,A2J4GCDXLDHYXX
537,9,5.0,flower5.jpg,,,,17.0,left,1.0,2.7412,5.0,flower6.jpg,flower6_pair.jpg,left,5.0,A2J4GCDXLDHYXX
538,10,6.0,flower6.jpg,,,,,,,,,,,,,A2J4GCDXLDHYXX
539,4,0.0,flower1.jpg,,,,12.0,left,1.0,5.1628,0.0,flower1.jpg,flower1_pair.jpg,left,4.0,A30O3RGJZZSMOE
540,5,1.0,flower2.jpg,,,,13.0,right,1.0,2.5464,1.0,flower2_pair.jpg,flower2.jpg,right,3.0,A30O3RGJZZSMOE
541,6,2.0,left.jpg,left,1.0535,left,14.0,left,1.0,5.2762,2.0,flower3.jpg,flower3_pair.jpg,left,3.0,A30O3RGJZZSMOE
542,7,3.0,flower3.jpg,,,,15.0,left,1.0,3.7375,3.0,flower4.jpg,flower4_pair.jpg,left,4.0,A30O3RGJZZSMOE
543,8,4.0,flower4.jpg,,,,16.0,right,1.0,3.0901,4.0,flower5_pair.jpg,flower5.jpg,right,3.0,A30O3RGJZZSMOE
544,9,5.0,flower5.jpg,,,,17.0,left,1.0,2.3535,5.0,flower6.jpg,flower6_pair.jpg,left,3.0,A30O3RGJZZSMOE
545,10,6.0,flower6.jpg,,,,,,,,,,,,,A30O3RGJZZSMOE
546,4,0.0,flower1.jpg,,,,12.0,right,0.0,3.0539,0.0,flower1.jpg,flower1_pair.jpg,left,7.0,A2PI9FQWMWE8J3
547,5,1.0,flower2.jpg,,,,13.0,left,0.0,3.0642,1.0,flower2_pair.jpg,flower2.jpg,right,7.0,A2PI9FQWMWE8J3
548,6,2.0,left.jpg,left,1.5309,left,14.0,left,1.0,2.4653,2.0,flower3.jpg,flower3_pair.jpg,left,8.0,A2PI9FQWMWE8J3
549,7,3.0,flower3.jpg,,,,15.0,right,0.0,2.0481,3.0,flower4.jpg,flower4_pair.jpg,left,8.0,A2PI9FQWMWE8J3
550,8,4.0,flower4.jpg,,,,16.0,right,1.0,3.3567,4.0,flower5_pair.jpg,flower5.jpg,right,8.0,A2PI9FQWMWE8J3
551,9,5.0,flower5.jpg,,,,17.0,left,1.0,3.7051,5.0,flower6.jpg,flower6_pair.jpg,left,7.0,A2PI9FQWMWE8J3
552,10,6.0,flower6.jpg,,,,,,,,,,,,,A2PI9FQWMWE8J3
553,4,0.0,flower1.jpg,,,,12.0,left,1.0,1.5778,0.0,flower1.jpg,flower1_pair.jpg,left,7.0,A24GX1OZE6AY04
554,5,1.0,flower2.jpg,,,,13.0,left,0.0,2.1733,1.0,flower2_pair.jpg,flower2.jpg,right,7.0,A24GX1OZE6AY04
555,6,2.0,left.jpg,left,0.6402,left,14.0,left,1.0,2.8171,2.0,flower3.jpg,flower3_pair.jpg,left,7.0,A24GX1OZE6AY04
556,7,3.0,flower3.jpg,,,,15.0,left,1.0,1.3566,3.0,flower4.jpg,flower4_pair.jpg,left,6.0,A24GX1OZE6AY04
557,8,4.0,flower4.jpg,,,,16.0,right,1.0,1.5456,4.0,flower5_pair.jpg,flower5.jpg,right,7.0,A24GX1OZE6AY04
558,9,5.0,flower5.jpg,,,,17.0,left,1.0,1.3146,5.0,flower6.jpg,flower6_pair.jpg,left,5.0,A24GX1OZE6AY04
559,10,6.0,flower6.jpg,,,,,,,,,,,,,A24GX1OZE6AY04
