,layer,correct,test_test_response.keys,test_test_response.corr,test_test_response.rt,trials_2.thisRepN,trials_2.thisTrialN,trials_2.thisN,trials_2.thisIndex,trials_2.ran,image1,image2,bar_2.response,subject
0,1.0,left,left,1.0,2.9503,0.0,0.0,0.0,0.0,1.0,mountain_101.jpg,mountain_221.jpg,6.0,A105M4JOZSR7E6
1,1.0,left,right,0.0,1.9766,0.0,1.0,1.0,1.0,1.0,mountain_57.jpg,mountain_138.jpg,6.0,A105M4JOZSR7E6
2,1.0,left,left,1.0,1.7092,0.0,2.0,2.0,2.0,1.0,badlands_221.jpg,badlands_207.jpg,5.0,A105M4JOZSR7E6
3,1.0,left,left,1.0,1.68,0.0,3.0,3.0,3.0,1.0,golf_course_193.jpg,golf_course_123.jpg,6.0,A105M4JOZSR7E6
4,0.0,left,right,0.0,2.2979,0.0,4.0,4.0,4.0,1.0,badlands_24.jpg,badlands_3.jpg,5.0,A105M4JOZSR7E6
5,0.0,left,right,0.0,1.8251,0.0,5.0,5.0,5.0,1.0,highway_156.jpg,highway_160.jpg,7.0,A105M4JOZSR7E6
6,1.0,right,left,0.0,1.9586,0.0,6.0,6.0,6.0,1.0,playground_242.jpg,playground_145.jpg,5.0,A105M4JOZSR7E6
7,0.0,right,left,0.0,20.7766,0.0,7.0,7.0,7.0,1.0,mountain_244.jpg,mountain_222.jpg,5.0,A105M4JOZSR7E6
8,1.0,right,right,1.0,2.1879,0.0,8.0,8.0,8.0,1.0,golf_course_97.jpg,golf_course_15.jpg,6.0,A105M4JOZSR7E6
9,1.0,left,left,1.0,1.962,0.0,9.0,9.0,9.0,1.0,golf_course_309.jpg,golf_course_209.jpg,7.0,A105M4JOZSR7E6
10,0.0,right,right,1.0,1.9805,0.0,10.0,10.0,10.0,1.0,bridge_184.jpg,bridge_191.jpg,6.0,A105M4JOZSR7E6
11,0.0,right,left,0.0,1.7909,0.0,11.0,11.0,11.0,1.0,golf_course_114.jpg,golf_course_331.jpg,5.0,A105M4JOZSR7E6
12,1.0,right,left,0.0,3.1947,0.0,12.0,12.0,12.0,1.0,mountain_95.jpg,mountain_154.jpg,3.0,A105M4JOZSR7E6
13,1.0,right,left,0.0,1.8266,0.0,13.0,13.0,13.0,1.0,badlands_101.jpg,badlands_23.jpg,2.0,A105M4JOZSR7E6
14,0.0,left,left,1.0,1.4999,0.0,14.0,14.0,14.0,1.0,golf_course_87.jpg,golf_course_130.jpg,4.0,A105M4JOZSR7E6
15,1.0,left,left,1.0,8.2992,0.0,15.0,15.0,15.0,1.0,badlands_52.jpg,badlands_63.jpg,4.0,A105M4JOZSR7E6
16,0.0,right,right,1.0,2.1982,0.0,16.0,16.0,16.0,1.0,badlands_228.jpg,badlands_184.jpg,4.0,A105M4JOZSR7E6
17,0.0,right,left,0.0,1.3578,0.0,17.0,17.0,17.0,1.0,bridge_31.jpg,bridge_202.jpg,4.0,A105M4JOZSR7E6
18,1.0,right,right,1.0,1.8536,0.0,18.0,18.0,18.0,1.0,bridge_205.jpg,bridge_250.jpg,5.0,A105M4JOZSR7E6
19,1.0,right,left,0.0,1.3922,0.0,19.0,19.0,19.0,1.0,bridge_82.jpg,bridge_91.jpg,5.0,A105M4JOZSR7E6
20,0.0,right,left,0.0,1.1789,0.0,20.0,20.0,20.0,1.0,highway_87.jpg,highway_177.jpg,5.0,A105M4JOZSR7E6
21,0.0,left,right,0.0,0.9579,0.0,21.0,21.0,21.0,1.0,golf_course_188.jpg,golf_course_157.jpg,5.0,A105M4JOZSR7E6
22,0.0,left,left,1.0,60.493,0.0,22.0,22.0,22.0,1.0,mountain_232.jpg,mountain_3.jpg,4.0,A105M4JOZSR7E6
23,1.0,left,right,0.0,2.9553,0.0,23.0,23.0,23.0,1.0,badlands_222.jpg,badlands_62.jpg,5.0,A105M4JOZSR7E6
24,0.0,left,left,1.0,1.1406,0.0,24.0,24.0,24.0,1.0,badlands_70.jpg,badlands_102.jpg,5.0,A105M4JOZSR7E6
25,1.0,right,right,1.0,1.4707,0.0,25.0,25.0,25.0,1.0,bridge_163.jpg,bridge_172.jpg,5.0,A105M4JOZSR7E6
26,0.0,left,left,1.0,5.5976,0.0,26.0,26.0,26.0,1.0,mountain_293.jpg,mountain_72.jpg,5.0,A105M4JOZSR7E6
27,1.0,left,right,0.0,0.7409,0.0,27.0,27.0,27.0,1.0,highway_93.jpg,highway_369.jpg,6.0,A105M4JOZSR7E6
28,0.0,right,left,0.0,1.1819,0.0,28.0,28.0,28.0,1.0,golf_course_312.jpg,golf_course_214.jpg,5.0,A105M4JOZSR7E6
29,0.0,left,right,0.0,5.2684,0.0,29.0,29.0,29.0,1.0,highway_294.jpg,highway_203.jpg,5.0,A105M4JOZSR7E6
30,1.0,right,left,0.0,1.3891,0.0,30.0,30.0,30.0,1.0,golf_course_101.jpg,golf_course_78.jpg,5.0,A105M4JOZSR7E6
31,1.0,right,right,1.0,1.2568,0.0,31.0,31.0,31.0,1.0,bridge_60.jpg,bridge_65.jpg,5.0,A105M4JOZSR7E6
32,0.0,left,left,1.0,1.1031,0.0,32.0,32.0,32.0,1.0,badlands_137.jpg,badlands_194.jpg,5.0,A105M4JOZSR7E6
33,0.0,left,right,0.0,1.61,0.0,33.0,33.0,33.0,1.0,playground_76.jpg,playground_22.jpg,5.0,A105M4JOZSR7E6
34,0.0,left,right,0.0,1.5175,0.0,34.0,34.0,34.0,1.0,bridge_108.jpg,bridge_116.jpg,4.0,A105M4JOZSR7E6
35,0.0,right,right,1.0,1.4219,0.0,35.0,35.0,35.0,1.0,golf_course_35.jpg,golf_course_217.jpg,4.0,A105M4JOZSR7E6
36,0.0,left,left,1.0,1.0117,0.0,36.0,36.0,36.0,1.0,badlands_21.jpg,badlands_1.jpg,4.0,A105M4JOZSR7E6
37,0.0,right,right,1.0,1.1723,0.0,37.0,37.0,37.0,1.0,bridge_54.jpg,bridge_256.jpg,5.0,A105M4JOZSR7E6
38,0.0,left,left,1.0,2.5092,0.0,38.0,38.0,38.0,1.0,mountain_156.jpg,mountain_128.jpg,5.0,A105M4JOZSR7E6
39,1.0,right,right,1.0,1.8482,0.0,39.0,39.0,39.0,1.0,mountain_223.jpg,mountain_110.jpg,5.0,A105M4JOZSR7E6
40,1.0,right,left,0.0,1.56,0.0,40.0,40.0,40.0,1.0,highway_122.jpg,highway_209.jpg,4.0,A105M4JOZSR7E6
41,1.0,right,left,0.0,1.1222,0.0,41.0,41.0,41.0,1.0,badlands_203.jpg,badlands_113.jpg,3.0,A105M4JOZSR7E6
42,0.0,right,right,1.0,1.4442,0.0,42.0,42.0,42.0,1.0,highway_134.jpg,highway_245.jpg,3.0,A105M4JOZSR7E6
43,0.0,right,left,0.0,1.5789,0.0,43.0,43.0,43.0,1.0,playground_122.jpg,playground_10.jpg,4.0,A105M4JOZSR7E6
44,1.0,right,left,0.0,2.3812,0.0,44.0,44.0,44.0,1.0,highway_406.jpg,highway_394.jpg,5.0,A105M4JOZSR7E6
45,1.0,right,right,1.0,1.5862,0.0,45.0,45.0,45.0,1.0,highway_174.jpg,highway_415.jpg,5.0,A105M4JOZSR7E6
46,1.0,right,right,1.0,3.6093,0.0,46.0,46.0,46.0,1.0,playground_215.jpg,playground_257.jpg,4.0,A105M4JOZSR7E6
47,1.0,right,right,1.0,0.9688,0.0,47.0,47.0,47.0,1.0,highway_379.jpg,highway_359.jpg,5.0,A105M4JOZSR7E6
48,1.0,right,left,0.0,0.9826,0.0,48.0,48.0,48.0,1.0,golf_course_2.jpg,golf_course_195.jpg,7.0,A105M4JOZSR7E6
49,1.0,right,right,1.0,1.2109,0.0,49.0,49.0,49.0,1.0,mountain_97.jpg,mountain_230.jpg,7.0,A105M4JOZSR7E6
50,1.0,right,left,0.0,1.097,0.0,50.0,50.0,50.0,1.0,playground_127.jpg,playground_117.jpg,8.0,A105M4JOZSR7E6
51,0.0,right,right,1.0,7.818,0.0,51.0,51.0,51.0,1.0,playground_2.jpg,playground_240.jpg,7.0,A105M4JOZSR7E6
52,0.0,left,left,1.0,12.3489,0.0,52.0,52.0,52.0,1.0,playground_131.jpg,playground_43.jpg,4.0,A105M4JOZSR7E6
53,1.0,left,right,0.0,2.8216,0.0,53.0,53.0,53.0,1.0,playground_219.jpg,playground_205.jpg,4.0,A105M4JOZSR7E6
54,1.0,left,right,0.0,1.5171,0.0,54.0,54.0,54.0,1.0,bridge_146.jpg,bridge_121.jpg,5.0,A105M4JOZSR7E6
55,0.0,left,left,1.0,1.7746,0.0,55.0,55.0,55.0,1.0,bridge_128.jpg,bridge_61.jpg,4.0,A105M4JOZSR7E6
56,0.0,left,right,0.0,1.1171,0.0,56.0,56.0,56.0,1.0,highway_273.jpg,highway_384.jpg,4.0,A105M4JOZSR7E6
57,0.0,left,left,1.0,2.7812,0.0,57.0,57.0,57.0,1.0,playground_60.jpg,playground_268.jpg,4.0,A105M4JOZSR7E6
58,0.0,left,right,0.0,1.2061,0.0,58.0,58.0,58.0,1.0,mountain_123.jpg,mountain_94.jpg,4.0,A105M4JOZSR7E6
59,1.0,right,right,1.0,1.6554,0.0,59.0,59.0,59.0,1.0,playground_65.jpg,playground_144.jpg,5.0,A105M4JOZSR7E6
60,1.0,left,right,0.0,8.107,0.0,0.0,0.0,0.0,1.0,highway_294.jpg,highway_368.jpg,7.0,A151XA53WYXVD7
61,0.0,left,left,1.0,9.659,0.0,1.0,1.0,1.0,1.0,bridge_172.jpg,bridge_17.jpg,4.0,A151XA53WYXVD7
62,0.0,left,right,0.0,3.31,0.0,2.0,2.0,2.0,1.0,badlands_184.jpg,badlands_228.jpg,8.0,A151XA53WYXVD7
63,0.0,left,left,1.0,2.831,0.0,3.0,3.0,3.0,1.0,golf_course_195.jpg,golf_course_25.jpg,3.0,A151XA53WYXVD7
64,0.0,right,right,1.0,2.965,0.0,4.0,4.0,4.0,1.0,golf_course_235.jpg,golf_course_193.jpg,7.0,A151XA53WYXVD7
65,0.0,left,left,1.0,2.757,0.0,5.0,5.0,5.0,1.0,highway_245.jpg,highway_134.jpg,5.0,A151XA53WYXVD7
66,0.0,right,right,1.0,2.731,0.0,6.0,6.0,6.0,1.0,playground_214.jpg,playground_257.jpg,8.0,A151XA53WYXVD7
67,1.0,left,left,1.0,3.249,0.0,7.0,7.0,7.0,1.0,golf_course_331.jpg,golf_course_26.jpg,6.0,A151XA53WYXVD7
68,1.0,left,left,1.0,6.066,0.0,8.0,8.0,8.0,1.0,playground_117.jpg,playground_127.jpg,6.0,A151XA53WYXVD7
69,0.0,left,left,1.0,2.274,0.0,9.0,9.0,9.0,1.0,highway_359.jpg,highway_389.jpg,4.0,A151XA53WYXVD7
70,0.0,left,left,1.0,2.319,0.0,10.0,10.0,10.0,1.0,playground_76.jpg,playground_22.jpg,7.0,A151XA53WYXVD7
71,0.0,right,left,0.0,3.641,0.0,11.0,11.0,11.0,1.0,golf_course_16.jpg,golf_course_309.jpg,3.0,A151XA53WYXVD7
72,0.0,left,right,0.0,2.645,0.0,12.0,12.0,12.0,1.0,mountain_222.jpg,mountain_244.jpg,6.0,A151XA53WYXVD7
73,0.0,left,left,1.0,2.853,0.0,13.0,13.0,13.0,1.0,playground_60.jpg,playground_268.jpg,5.0,A151XA53WYXVD7
74,1.0,left,left,1.0,2.755,0.0,14.0,14.0,14.0,1.0,golf_course_214.jpg,golf_course_317.jpg,7.0,A151XA53WYXVD7
75,1.0,left,left,1.0,3.543,0.0,15.0,15.0,15.0,1.0,bridge_65.jpg,bridge_60.jpg,3.0,A151XA53WYXVD7
76,1.0,left,left,1.0,2.352,0.0,16.0,16.0,16.0,1.0,bridge_256.jpg,bridge_211.jpg,7.0,A151XA53WYXVD7
77,0.0,right,right,1.0,2.167,0.0,17.0,17.0,17.0,1.0,golf_course_157.jpg,golf_course_188.jpg,7.0,A151XA53WYXVD7
78,0.0,right,right,1.0,4.017,0.0,18.0,18.0,18.0,1.0,bridge_134.jpg,bridge_250.jpg,2.0,A151XA53WYXVD7
79,1.0,right,left,0.0,2.475,0.0,19.0,19.0,19.0,1.0,badlands_101.jpg,badlands_23.jpg,7.0,A151XA53WYXVD7
80,1.0,right,right,1.0,2.924,0.0,20.0,20.0,20.0,1.0,bridge_148.jpg,bridge_108.jpg,8.0,A151XA53WYXVD7
81,0.0,right,right,1.0,2.676,0.0,21.0,21.0,21.0,1.0,highway_60.jpg,highway_415.jpg,7.0,A151XA53WYXVD7
82,1.0,right,right,1.0,2.354,0.0,22.0,22.0,22.0,1.0,playground_12.jpg,playground_10.jpg,7.0,A151XA53WYXVD7
83,1.0,right,right,1.0,3.363,0.0,23.0,23.0,23.0,1.0,bridge_38.jpg,bridge_202.jpg,5.0,A151XA53WYXVD7
84,0.0,left,left,1.0,1.978,0.0,24.0,24.0,24.0,1.0,bridge_128.jpg,bridge_61.jpg,1.0,A151XA53WYXVD7
85,1.0,left,right,0.0,1.989,0.0,25.0,25.0,25.0,1.0,badlands_70.jpg,badlands_119.jpg,6.0,A151XA53WYXVD7
86,0.0,right,right,1.0,2.044,0.0,26.0,26.0,26.0,1.0,playground_229.jpg,playground_145.jpg,4.0,A151XA53WYXVD7
87,1.0,right,right,1.0,3.206,0.0,27.0,27.0,27.0,1.0,golf_course_262.jpg,golf_course_217.jpg,4.0,A151XA53WYXVD7
88,1.0,right,right,1.0,2.461,0.0,28.0,28.0,28.0,1.0,highway_406.jpg,highway_394.jpg,6.0,A151XA53WYXVD7
89,0.0,left,left,1.0,3.271,0.0,29.0,29.0,29.0,1.0,badlands_221.jpg,badlands_115.jpg,7.0,A151XA53WYXVD7
90,1.0,left,left,1.0,2.388,0.0,30.0,30.0,30.0,1.0,playground_144.jpg,playground_65.jpg,7.0,A151XA53WYXVD7
91,0.0,right,right,1.0,2.432,0.0,31.0,31.0,31.0,1.0,bridge_253.jpg,bridge_91.jpg,2.0,A151XA53WYXVD7
92,0.0,right,left,0.0,2.922,0.0,32.0,32.0,32.0,1.0,mountain_184.jpg,mountain_230.jpg,3.0,A151XA53WYXVD7
93,1.0,right,right,1.0,1.668,0.0,33.0,33.0,33.0,1.0,badlands_98.jpg,badlands_21.jpg,3.0,A151XA53WYXVD7
94,1.0,right,right,1.0,1.807,0.0,34.0,34.0,34.0,1.0,highway_122.jpg,highway_209.jpg,6.0,A151XA53WYXVD7
95,1.0,right,left,0.0,1.902,0.0,35.0,35.0,35.0,1.0,badlands_53.jpg,badlands_24.jpg,7.0,A151XA53WYXVD7
96,1.0,right,right,1.0,2.654,0.0,36.0,36.0,36.0,1.0,badlands_63.jpg,badlands_52.jpg,8.0,A151XA53WYXVD7
97,1.0,left,left,1.0,10.329,0.0,37.0,37.0,37.0,1.0,golf_course_15.jpg,golf_course_97.jpg,9.0,A151XA53WYXVD7
98,1.0,right,right,1.0,17.788,0.0,38.0,38.0,38.0,1.0,mountain_223.jpg,mountain_110.jpg,7.0,A151XA53WYXVD7
99,1.0,left,left,1.0,1.835,0.0,39.0,39.0,39.0,1.0,mountain_293.jpg,mountain_47.jpg,8.0,A151XA53WYXVD7
100,1.0,left,right,0.0,2.168,0.0,40.0,40.0,40.0,1.0,golf_course_78.jpg,golf_course_101.jpg,7.0,A151XA53WYXVD7
101,1.0,left,right,0.0,2.13,0.0,41.0,41.0,41.0,1.0,playground_219.jpg,playground_205.jpg,6.0,A151XA53WYXVD7
102,0.0,right,left,0.0,2.718,0.0,42.0,42.0,42.0,1.0,playground_2.jpg,playground_240.jpg,5.0,A151XA53WYXVD7
103,1.0,left,right,0.0,2.814,0.0,43.0,43.0,43.0,1.0,mountain_101.jpg,mountain_221.jpg,6.0,A151XA53WYXVD7
104,0.0,left,left,1.0,2.231,0.0,44.0,44.0,44.0,1.0,mountain_123.jpg,mountain_94.jpg,2.0,A151XA53WYXVD7
105,1.0,left,right,0.0,2.892,0.0,45.0,45.0,45.0,1.0,highway_156.jpg,highway_293.jpg,7.0,A151XA53WYXVD7
106,0.0,right,left,0.0,2.753,0.0,46.0,46.0,46.0,1.0,mountain_131.jpg,mountain_154.jpg,3.0,A151XA53WYXVD7
107,0.0,left,left,1.0,1.566,0.0,47.0,47.0,47.0,1.0,highway_93.jpg,highway_85.jpg,5.0,A151XA53WYXVD7
108,1.0,right,left,0.0,1.809,0.0,48.0,48.0,48.0,1.0,highway_278.jpg,highway_177.jpg,6.0,A151XA53WYXVD7
109,0.0,left,left,1.0,2.032,0.0,49.0,49.0,49.0,1.0,mountain_57.jpg,mountain_193.jpg,3.0,A151XA53WYXVD7
110,0.0,left,left,1.0,2.077,0.0,50.0,50.0,50.0,1.0,badlands_113.jpg,badlands_225.jpg,9.0,A151XA53WYXVD7
111,0.0,right,right,1.0,1.873,0.0,51.0,51.0,51.0,1.0,badlands_34.jpg,badlands_222.jpg,8.0,A151XA53WYXVD7
112,0.0,left,right,0.0,1.892,0.0,52.0,52.0,52.0,1.0,badlands_137.jpg,badlands_194.jpg,7.0,A151XA53WYXVD7
113,1.0,right,right,1.0,1.789,0.0,53.0,53.0,53.0,1.0,playground_164.jpg,playground_131.jpg,6.0,A151XA53WYXVD7
114,1.0,left,right,0.0,2.161,0.0,54.0,54.0,54.0,1.0,mountain_156.jpg,mountain_295.jpg,7.0,A151XA53WYXVD7
115,1.0,left,right,0.0,2.287,0.0,55.0,55.0,55.0,1.0,mountain_232.jpg,mountain_54.jpg,6.0,A151XA53WYXVD7
116,0.0,right,right,1.0,2.961,0.0,56.0,56.0,56.0,1.0,highway_384.jpg,highway_273.jpg,6.0,A151XA53WYXVD7
117,0.0,right,right,1.0,2.551,0.0,57.0,57.0,57.0,1.0,golf_course_130.jpg,golf_course_87.jpg,8.0,A151XA53WYXVD7
118,1.0,right,right,1.0,2.022,0.0,58.0,58.0,58.0,1.0,bridge_75.jpg,bridge_191.jpg,7.0,A151XA53WYXVD7
119,0.0,left,left,1.0,2.642,0.0,59.0,59.0,59.0,1.0,bridge_146.jpg,bridge_27.jpg,3.0,A151XA53WYXVD7
120,0.0,left,left,1.0,3.2391,0.0,0.0,0.0,0.0,1.0,bridge_202.jpg,bridge_31.jpg,1.0,A1969Q0R4Y0E3J
121,1.0,left,right,0.0,2.4206,0.0,1.0,1.0,1.0,1.0,mountain_101.jpg,mountain_221.jpg,5.0,A1969Q0R4Y0E3J
122,1.0,left,left,1.0,1.8508,0.0,2.0,2.0,2.0,1.0,playground_144.jpg,playground_65.jpg,2.0,A1969Q0R4Y0E3J
123,1.0,right,right,1.0,1.4802,0.0,3.0,3.0,3.0,1.0,badlands_119.jpg,badlands_70.jpg,3.0,A1969Q0R4Y0E3J
124,0.0,left,left,1.0,1.7819,0.0,4.0,4.0,4.0,1.0,bridge_65.jpg,bridge_181.jpg,6.0,A1969Q0R4Y0E3J
125,1.0,left,left,1.0,1.8014,0.0,5.0,5.0,5.0,1.0,mountain_110.jpg,mountain_223.jpg,6.0,A1969Q0R4Y0E3J
126,0.0,left,right,0.0,3.1566,0.0,6.0,6.0,6.0,1.0,golf_course_309.jpg,golf_course_16.jpg,7.0,A1969Q0R4Y0E3J
127,0.0,right,right,1.0,1.7734,0.0,7.0,7.0,7.0,1.0,badlands_94.jpg,badlands_52.jpg,2.0,A1969Q0R4Y0E3J
128,0.0,left,left,1.0,3.3139,0.0,8.0,8.0,8.0,1.0,highway_415.jpg,highway_60.jpg,2.0,A1969Q0R4Y0E3J
129,1.0,left,left,1.0,2.1129,0.0,9.0,9.0,9.0,1.0,mountain_293.jpg,mountain_47.jpg,3.0,A1969Q0R4Y0E3J
130,0.0,left,right,0.0,5.375,0.0,10.0,10.0,10.0,1.0,playground_240.jpg,playground_2.jpg,1.0,A1969Q0R4Y0E3J
131,0.0,left,right,0.0,2.4646,0.0,11.0,11.0,11.0,1.0,mountain_222.jpg,mountain_244.jpg,1.0,A1969Q0R4Y0E3J
132,1.0,right,left,0.0,1.8753,0.0,12.0,12.0,12.0,1.0,badlands_203.jpg,badlands_113.jpg,8.0,A1969Q0R4Y0E3J
133,1.0,left,left,1.0,1.5795,0.0,13.0,13.0,13.0,1.0,playground_117.jpg,playground_127.jpg,2.0,A1969Q0R4Y0E3J
134,1.0,left,left,1.0,2.6722,0.0,14.0,14.0,14.0,1.0,bridge_172.jpg,bridge_163.jpg,2.0,A1969Q0R4Y0E3J
135,1.0,right,left,0.0,1.9645,0.0,15.0,15.0,15.0,1.0,golf_course_101.jpg,golf_course_78.jpg,3.0,A1969Q0R4Y0E3J
136,1.0,left,left,1.0,1.3966,0.0,16.0,16.0,16.0,1.0,golf_course_188.jpg,golf_course_160.jpg,5.0,A1969Q0R4Y0E3J
137,0.0,right,left,0.0,2.1564,0.0,17.0,17.0,17.0,1.0,badlands_228.jpg,badlands_184.jpg,7.0,A1969Q0R4Y0E3J
138,0.0,right,left,0.0,5.759,0.0,18.0,18.0,18.0,1.0,playground_214.jpg,playground_257.jpg,1.0,A1969Q0R4Y0E3J
139,0.0,left,left,1.0,1.2319,0.0,19.0,19.0,19.0,1.0,mountain_232.jpg,mountain_3.jpg,3.0,A1969Q0R4Y0E3J
140,0.0,right,right,1.0,2.1431,0.0,20.0,20.0,20.0,1.0,highway_204.jpg,highway_394.jpg,2.0,A1969Q0R4Y0E3J
141,0.0,left,left,1.0,3.2792,0.0,21.0,21.0,21.0,1.0,mountain_57.jpg,mountain_193.jpg,3.0,A1969Q0R4Y0E3J
142,0.0,right,right,1.0,1.7122,0.0,22.0,22.0,22.0,1.0,golf_course_35.jpg,golf_course_217.jpg,6.0,A1969Q0R4Y0E3J
143,0.0,right,right,1.0,1.0624,0.0,23.0,23.0,23.0,1.0,badlands_1.jpg,badlands_21.jpg,1.0,A1969Q0R4Y0E3J
144,1.0,right,right,1.0,5.2943,0.0,24.0,24.0,24.0,1.0,golf_course_161.jpg,golf_course_87.jpg,4.0,A1969Q0R4Y0E3J
145,0.0,left,left,1.0,1.1379,0.0,25.0,25.0,25.0,1.0,golf_course_331.jpg,golf_course_114.jpg,2.0,A1969Q0R4Y0E3J
146,0.0,right,right,1.0,1.6591,0.0,26.0,26.0,26.0,1.0,bridge_54.jpg,bridge_256.jpg,3.0,A1969Q0R4Y0E3J
147,0.0,right,left,0.0,1.421,0.0,27.0,27.0,27.0,1.0,bridge_253.jpg,bridge_91.jpg,1.0,A1969Q0R4Y0E3J
148,1.0,left,left,1.0,1.6303,0.0,28.0,28.0,28.0,1.0,highway_209.jpg,highway_122.jpg,7.0,A1969Q0R4Y0E3J
149,0.0,left,left,1.0,1.7805,0.0,29.0,29.0,29.0,1.0,mountain_154.jpg,mountain_131.jpg,5.0,A1969Q0R4Y0E3J
150,0.0,right,right,1.0,1.4469,0.0,30.0,30.0,30.0,1.0,bridge_184.jpg,bridge_191.jpg,1.0,A1969Q0R4Y0E3J
151,0.0,right,right,1.0,1.3454,0.0,31.0,31.0,31.0,1.0,playground_122.jpg,playground_10.jpg,1.0,A1969Q0R4Y0E3J
152,1.0,left,left,1.0,1.5663,0.0,32.0,32.0,32.0,1.0,badlands_137.jpg,badlands_139.jpg,3.0,A1969Q0R4Y0E3J
153,1.0,right,right,1.0,2.6635,0.0,33.0,33.0,33.0,1.0,playground_205.jpg,playground_219.jpg,7.0,A1969Q0R4Y0E3J
154,0.0,left,left,1.0,1.4641,0.0,34.0,34.0,34.0,1.0,mountain_230.jpg,mountain_184.jpg,2.0,A1969Q0R4Y0E3J
155,0.0,left,left,1.0,5.7087,0.0,35.0,35.0,35.0,1.0,playground_76.jpg,playground_22.jpg,3.0,A1969Q0R4Y0E3J
156,1.0,left,right,0.0,2.0199,0.0,36.0,36.0,36.0,1.0,mountain_156.jpg,mountain_295.jpg,4.0,A1969Q0R4Y0E3J
157,1.0,left,left,1.0,1.3959,0.0,37.0,37.0,37.0,1.0,highway_93.jpg,highway_369.jpg,6.0,A1969Q0R4Y0E3J
158,0.0,right,right,1.0,0.967,0.0,38.0,38.0,38.0,1.0,badlands_3.jpg,badlands_24.jpg,5.0,A1969Q0R4Y0E3J
159,1.0,right,right,1.0,3.4951,0.0,39.0,39.0,39.0,1.0,highway_171.jpg,highway_273.jpg,2.0,A1969Q0R4Y0E3J
160,1.0,right,right,1.0,1.4285,0.0,40.0,40.0,40.0,1.0,badlands_62.jpg,badlands_222.jpg,9.0,A1969Q0R4Y0E3J
161,0.0,left,left,1.0,1.5687,0.0,41.0,41.0,41.0,1.0,highway_177.jpg,highway_87.jpg,2.0,A1969Q0R4Y0E3J
162,1.0,right,right,1.0,2.7791,0.0,42.0,42.0,42.0,1.0,highway_368.jpg,highway_294.jpg,4.0,A1969Q0R4Y0E3J
163,1.0,right,right,1.0,5.5078,0.0,43.0,43.0,43.0,1.0,badlands_101.jpg,badlands_23.jpg,2.0,A1969Q0R4Y0E3J
164,1.0,right,right,1.0,1.2409,0.0,44.0,44.0,44.0,1.0,playground_164.jpg,playground_131.jpg,7.0,A1969Q0R4Y0E3J
165,0.0,left,left,1.0,1.3968,0.0,45.0,45.0,45.0,1.0,golf_course_214.jpg,golf_course_312.jpg,7.0,A1969Q0R4Y0E3J
166,1.0,right,right,1.0,1.7972,0.0,46.0,46.0,46.0,1.0,bridge_121.jpg,bridge_146.jpg,4.0,A1969Q0R4Y0E3J
167,1.0,right,right,1.0,1.4743,0.0,47.0,47.0,47.0,1.0,bridge_205.jpg,bridge_250.jpg,5.0,A1969Q0R4Y0E3J
168,1.0,left,right,0.0,3.861,0.0,48.0,48.0,48.0,1.0,playground_60.jpg,playground_244.jpg,5.0,A1969Q0R4Y0E3J
169,1.0,left,right,0.0,1.7133,0.0,49.0,49.0,49.0,1.0,bridge_108.jpg,bridge_148.jpg,7.0,A1969Q0R4Y0E3J
170,0.0,left,right,0.0,4.966,0.0,50.0,50.0,50.0,1.0,highway_156.jpg,highway_160.jpg,5.0,A1969Q0R4Y0E3J
171,0.0,left,left,1.0,2.2281,0.0,51.0,51.0,51.0,1.0,highway_359.jpg,highway_389.jpg,2.0,A1969Q0R4Y0E3J
172,1.0,left,right,0.0,3.0167,0.0,52.0,52.0,52.0,1.0,golf_course_195.jpg,golf_course_2.jpg,7.0,A1969Q0R4Y0E3J
173,1.0,right,left,0.0,5.5944,0.0,53.0,53.0,53.0,1.0,highway_206.jpg,highway_245.jpg,5.0,A1969Q0R4Y0E3J
174,0.0,right,left,0.0,2.2867,0.0,54.0,54.0,54.0,1.0,badlands_115.jpg,badlands_221.jpg,8.0,A1969Q0R4Y0E3J
175,1.0,left,left,1.0,4.0817,0.0,55.0,55.0,55.0,1.0,bridge_128.jpg,bridge_244.jpg,1.0,A1969Q0R4Y0E3J
176,1.0,left,left,1.0,4.0932,0.0,56.0,56.0,56.0,1.0,golf_course_193.jpg,golf_course_123.jpg,3.0,A1969Q0R4Y0E3J
177,0.0,left,left,1.0,1.5617,0.0,57.0,57.0,57.0,1.0,playground_145.jpg,playground_229.jpg,7.0,A1969Q0R4Y0E3J
178,1.0,left,right,0.0,5.3811,0.0,58.0,58.0,58.0,1.0,mountain_123.jpg,mountain_189.jpg,8.0,A1969Q0R4Y0E3J
179,0.0,left,left,1.0,11.4429,0.0,59.0,59.0,59.0,1.0,golf_course_15.jpg,golf_course_113.jpg,4.0,A1969Q0R4Y0E3J
180,0.0,right,right,1.0,1.3829,0.0,0.0,0.0,0.0,1.0,playground_229.jpg,playground_145.jpg,2.0,A1VJ4ZOXP9PUCP
181,0.0,right,right,1.0,2.9137,0.0,1.0,1.0,1.0,1.0,bridge_184.jpg,bridge_191.jpg,1.0,A1VJ4ZOXP9PUCP
182,0.0,left,left,1.0,1.5503,0.0,2.0,2.0,2.0,1.0,playground_117.jpg,playground_167.jpg,3.0,A1VJ4ZOXP9PUCP
183,1.0,left,right,0.0,3.0534,0.0,3.0,3.0,3.0,1.0,bridge_250.jpg,bridge_205.jpg,5.0,A1VJ4ZOXP9PUCP
184,0.0,right,left,0.0,2.4707,0.0,4.0,4.0,4.0,1.0,playground_214.jpg,playground_257.jpg,4.0,A1VJ4ZOXP9PUCP
185,1.0,right,right,1.0,3.7409,0.0,5.0,5.0,5.0,1.0,mountain_97.jpg,mountain_230.jpg,5.0,A1VJ4ZOXP9PUCP
186,1.0,left,left,1.0,4.244,0.0,6.0,6.0,6.0,1.0,playground_144.jpg,playground_65.jpg,4.0,A1VJ4ZOXP9PUCP
187,1.0,right,right,1.0,1.0967,0.0,7.0,7.0,7.0,1.0,golf_course_97.jpg,golf_course_15.jpg,7.0,A1VJ4ZOXP9PUCP
188,0.0,left,left,1.0,1.9632,0.0,8.0,8.0,8.0,1.0,golf_course_331.jpg,golf_course_114.jpg,2.0,A1VJ4ZOXP9PUCP
189,1.0,right,left,0.0,2.0782,0.0,9.0,9.0,9.0,1.0,playground_244.jpg,playground_60.jpg,4.0,A1VJ4ZOXP9PUCP
190,0.0,left,left,1.0,1.9828,0.0,10.0,10.0,10.0,1.0,playground_76.jpg,playground_22.jpg,5.0,A1VJ4ZOXP9PUCP
191,0.0,left,left,1.0,1.5335,0.0,11.0,11.0,11.0,1.0,mountain_232.jpg,mountain_3.jpg,2.0,A1VJ4ZOXP9PUCP
192,0.0,right,right,1.0,1.5879,0.0,12.0,12.0,12.0,1.0,highway_85.jpg,highway_93.jpg,3.0,A1VJ4ZOXP9PUCP
193,0.0,left,left,1.0,1.3654,0.0,13.0,13.0,13.0,1.0,golf_course_78.jpg,golf_course_134.jpg,5.0,A1VJ4ZOXP9PUCP
194,1.0,right,right,1.0,1.423,0.0,14.0,14.0,14.0,1.0,highway_406.jpg,highway_394.jpg,6.0,A1VJ4ZOXP9PUCP
195,0.0,left,left,1.0,2.8928,0.0,15.0,15.0,15.0,1.0,mountain_156.jpg,mountain_128.jpg,4.0,A1VJ4ZOXP9PUCP
196,1.0,right,right,1.0,1.8474,0.0,16.0,16.0,16.0,1.0,golf_course_209.jpg,golf_course_309.jpg,3.0,A1VJ4ZOXP9PUCP
197,1.0,left,left,1.0,3.2976,0.0,17.0,17.0,17.0,1.0,golf_course_214.jpg,golf_course_317.jpg,5.0,A1VJ4ZOXP9PUCP
198,1.0,right,left,0.0,3.9914,0.0,18.0,18.0,18.0,1.0,playground_12.jpg,playground_10.jpg,5.0,A1VJ4ZOXP9PUCP
199,1.0,right,right,1.0,0.9742,0.0,19.0,19.0,19.0,1.0,highway_122.jpg,highway_209.jpg,8.0,A1VJ4ZOXP9PUCP
200,1.0,right,left,0.0,2.6173,0.0,20.0,20.0,20.0,1.0,mountain_47.jpg,mountain_293.jpg,5.0,A1VJ4ZOXP9PUCP
201,0.0,right,right,1.0,1.3435,0.0,21.0,21.0,21.0,1.0,highway_87.jpg,highway_177.jpg,3.0,A1VJ4ZOXP9PUCP
202,1.0,right,right,1.0,1.0004,0.0,22.0,22.0,22.0,1.0,playground_164.jpg,playground_131.jpg,6.0,A1VJ4ZOXP9PUCP
203,1.0,right,right,1.0,3.2259,0.0,23.0,23.0,23.0,1.0,highway_379.jpg,highway_359.jpg,7.0,A1VJ4ZOXP9PUCP
204,1.0,right,left,0.0,1.4676,0.0,24.0,24.0,24.0,1.0,mountain_189.jpg,mountain_123.jpg,8.0,A1VJ4ZOXP9PUCP
205,0.0,left,left,1.0,1.6592,0.0,25.0,25.0,25.0,1.0,golf_course_87.jpg,golf_course_130.jpg,7.0,A1VJ4ZOXP9PUCP
206,1.0,left,left,1.0,1.2794,0.0,26.0,26.0,26.0,1.0,bridge_146.jpg,bridge_121.jpg,6.0,A1VJ4ZOXP9PUCP
207,0.0,left,right,0.0,1.0737,0.0,27.0,27.0,27.0,1.0,bridge_108.jpg,bridge_116.jpg,4.0,A1VJ4ZOXP9PUCP
208,0.0,right,right,1.0,2.3371,0.0,28.0,28.0,28.0,1.0,bridge_253.jpg,bridge_91.jpg,2.0,A1VJ4ZOXP9PUCP
209,1.0,right,left,0.0,1.5634,0.0,29.0,29.0,29.0,1.0,bridge_211.jpg,bridge_256.jpg,6.0,A1VJ4ZOXP9PUCP
210,0.0,right,right,1.0,1.8106,0.0,30.0,30.0,30.0,1.0,highway_160.jpg,highway_156.jpg,5.0,A1VJ4ZOXP9PUCP
211,0.0,right,right,1.0,2.1552,0.0,31.0,31.0,31.0,1.0,mountain_131.jpg,mountain_154.jpg,5.0,A1VJ4ZOXP9PUCP
212,0.0,left,right,0.0,1.4436,0.0,32.0,32.0,32.0,1.0,golf_course_195.jpg,golf_course_25.jpg,3.0,A1VJ4ZOXP9PUCP
213,0.0,right,left,0.0,3.6759,0.0,33.0,33.0,33.0,1.0,badlands_225.jpg,badlands_113.jpg,7.0,A1VJ4ZOXP9PUCP
214,0.0,left,left,1.0,2.4263,0.0,34.0,34.0,34.0,1.0,bridge_202.jpg,bridge_31.jpg,2.0,A1VJ4ZOXP9PUCP
215,0.0,left,left,1.0,1.1985,0.0,35.0,35.0,35.0,1.0,golf_course_188.jpg,golf_course_157.jpg,3.0,A1VJ4ZOXP9PUCP
216,1.0,left,left,1.0,1.6947,0.0,36.0,36.0,36.0,1.0,badlands_184.jpg,badlands_103.jpg,7.0,A1VJ4ZOXP9PUCP
217,1.0,right,left,0.0,3.2537,0.0,37.0,37.0,37.0,1.0,mountain_93.jpg,mountain_222.jpg,5.0,A1VJ4ZOXP9PUCP
218,1.0,right,right,1.0,1.1871,0.0,38.0,38.0,38.0,1.0,mountain_223.jpg,mountain_110.jpg,6.0,A1VJ4ZOXP9PUCP
219,0.0,right,left,0.0,2.0769,0.0,39.0,39.0,39.0,1.0,playground_2.jpg,playground_240.jpg,5.0,A1VJ4ZOXP9PUCP
220,0.0,right,left,0.0,1.1518,0.0,40.0,40.0,40.0,1.0,badlands_34.jpg,badlands_222.jpg,7.0,A1VJ4ZOXP9PUCP
221,1.0,left,left,1.0,1.5113,0.0,41.0,41.0,41.0,1.0,badlands_70.jpg,badlands_119.jpg,7.0,A1VJ4ZOXP9PUCP
222,1.0,right,right,1.0,3.7457,0.0,42.0,42.0,42.0,1.0,highway_368.jpg,highway_294.jpg,7.0,A1VJ4ZOXP9PUCP
223,0.0,left,left,1.0,1.5251,0.0,43.0,43.0,43.0,1.0,mountain_101.jpg,mountain_171.jpg,5.0,A1VJ4ZOXP9PUCP
224,0.0,right,left,0.0,1.3879,0.0,44.0,44.0,44.0,1.0,highway_384.jpg,highway_273.jpg,5.0,A1VJ4ZOXP9PUCP
225,1.0,left,right,0.0,2.0134,0.0,45.0,45.0,45.0,1.0,badlands_23.jpg,badlands_101.jpg,6.0,A1VJ4ZOXP9PUCP
226,0.0,left,left,1.0,1.3747,0.0,46.0,46.0,46.0,1.0,badlands_21.jpg,badlands_1.jpg,7.0,A1VJ4ZOXP9PUCP
227,0.0,right,right,1.0,2.8155,0.0,47.0,47.0,47.0,1.0,highway_134.jpg,highway_245.jpg,6.0,A1VJ4ZOXP9PUCP
228,1.0,left,left,1.0,1.6844,0.0,48.0,48.0,48.0,1.0,playground_219.jpg,playground_205.jpg,6.0,A1VJ4ZOXP9PUCP
229,0.0,left,left,1.0,2.0052,0.0,49.0,49.0,49.0,1.0,badlands_221.jpg,badlands_115.jpg,7.0,A1VJ4ZOXP9PUCP
230,1.0,right,left,0.0,1.6915,0.0,50.0,50.0,50.0,1.0,highway_174.jpg,highway_415.jpg,8.0,A1VJ4ZOXP9PUCP
231,1.0,left,right,0.0,2.3811,0.0,51.0,51.0,51.0,1.0,bridge_172.jpg,bridge_163.jpg,6.0,A1VJ4ZOXP9PUCP
232,1.0,right,right,1.0,2.5828,0.0,52.0,52.0,52.0,1.0,bridge_244.jpg,bridge_128.jpg,6.0,A1VJ4ZOXP9PUCP
233,0.0,right,right,1.0,1.4627,0.0,53.0,53.0,53.0,1.0,bridge_181.jpg,bridge_65.jpg,7.0,A1VJ4ZOXP9PUCP
234,1.0,right,left,0.0,1.9704,0.0,54.0,54.0,54.0,1.0,badlands_139.jpg,badlands_137.jpg,5.0,A1VJ4ZOXP9PUCP
235,1.0,left,right,0.0,2.4643,0.0,55.0,55.0,55.0,1.0,badlands_24.jpg,badlands_53.jpg,8.0,A1VJ4ZOXP9PUCP
236,1.0,right,right,1.0,1.0848,0.0,56.0,56.0,56.0,1.0,golf_course_123.jpg,golf_course_193.jpg,5.0,A1VJ4ZOXP9PUCP
237,0.0,right,right,1.0,0.7696,0.0,57.0,57.0,57.0,1.0,badlands_94.jpg,badlands_52.jpg,6.0,A1VJ4ZOXP9PUCP
238,1.0,right,right,1.0,1.9433,0.0,58.0,58.0,58.0,1.0,golf_course_262.jpg,golf_course_217.jpg,6.0,A1VJ4ZOXP9PUCP
239,0.0,left,left,1.0,1.9177,0.0,59.0,59.0,59.0,1.0,mountain_57.jpg,mountain_193.jpg,5.0,A1VJ4ZOXP9PUCP
240,0.0,right,left,0.0,3.7775,0.0,0.0,0.0,0.0,1.0,bridge_181.jpg,bridge_65.jpg,6.0,A20ZFQ93DF0WA
241,0.0,left,left,1.0,2.7028,0.0,1.0,1.0,1.0,1.0,golf_course_188.jpg,golf_course_157.jpg,6.0,A20ZFQ93DF0WA
242,0.0,right,right,1.0,1.4456,0.0,2.0,2.0,2.0,1.0,highway_134.jpg,highway_245.jpg,8.0,A20ZFQ93DF0WA
243,1.0,left,left,1.0,1.5099,0.0,3.0,3.0,3.0,1.0,mountain_123.jpg,mountain_189.jpg,6.0,A20ZFQ93DF0WA
244,1.0,right,left,0.0,1.3728,0.0,4.0,4.0,4.0,1.0,highway_174.jpg,highway_415.jpg,7.0,A20ZFQ93DF0WA
245,1.0,left,right,0.0,1.4981,0.0,5.0,5.0,5.0,1.0,golf_course_214.jpg,golf_course_317.jpg,6.0,A20ZFQ93DF0WA
246,1.0,right,left,0.0,1.5311,0.0,6.0,6.0,6.0,1.0,golf_course_2.jpg,golf_course_195.jpg,7.0,A20ZFQ93DF0WA
247,0.0,left,left,1.0,2.1856,0.0,7.0,7.0,7.0,1.0,bridge_202.jpg,bridge_31.jpg,6.0,A20ZFQ93DF0WA
248,0.0,right,right,1.0,1.3345,0.0,8.0,8.0,8.0,1.0,playground_268.jpg,playground_60.jpg,7.0,A20ZFQ93DF0WA
249,1.0,right,left,0.0,1.6966,0.0,9.0,9.0,9.0,1.0,bridge_148.jpg,bridge_108.jpg,6.0,A20ZFQ93DF0WA
250,1.0,left,right,0.0,1.3402,0.0,10.0,10.0,10.0,1.0,highway_156.jpg,highway_293.jpg,7.0,A20ZFQ93DF0WA
251,1.0,right,right,1.0,1.6343,0.0,11.0,11.0,11.0,1.0,mountain_95.jpg,mountain_154.jpg,7.0,A20ZFQ93DF0WA
252,0.0,left,left,1.0,1.8145,0.0,12.0,12.0,12.0,1.0,bridge_128.jpg,bridge_61.jpg,6.0,A20ZFQ93DF0WA
253,0.0,right,right,1.0,1.4429,0.0,13.0,13.0,13.0,1.0,highway_87.jpg,highway_177.jpg,7.0,A20ZFQ93DF0WA
254,1.0,left,right,0.0,1.3412,0.0,14.0,14.0,14.0,1.0,playground_145.jpg,playground_242.jpg,6.0,A20ZFQ93DF0WA
255,1.0,right,right,1.0,1.4565,0.0,15.0,15.0,15.0,1.0,bridge_163.jpg,bridge_172.jpg,7.0,A20ZFQ93DF0WA
256,0.0,right,right,1.0,1.7412,0.0,16.0,16.0,16.0,1.0,bridge_134.jpg,bridge_250.jpg,6.0,A20ZFQ93DF0WA
257,1.0,left,left,1.0,1.4978,0.0,17.0,17.0,17.0,1.0,badlands_24.jpg,badlands_53.jpg,5.0,A20ZFQ93DF0WA
258,0.0,right,right,1.0,1.8493,0.0,18.0,18.0,18.0,1.0,golf_course_134.jpg,golf_course_78.jpg,7.0,A20ZFQ93DF0WA
259,1.0,left,right,0.0,1.6706,0.0,19.0,19.0,19.0,1.0,bridge_191.jpg,bridge_75.jpg,6.0,A20ZFQ93DF0WA
260,0.0,right,right,1.0,2.1291,0.0,20.0,20.0,20.0,1.0,bridge_54.jpg,bridge_256.jpg,8.0,A20ZFQ93DF0WA
261,0.0,left,left,1.0,2.3944,0.0,21.0,21.0,21.0,1.0,golf_course_87.jpg,golf_course_130.jpg,6.0,A20ZFQ93DF0WA
262,1.0,left,right,0.0,1.4398,0.0,22.0,22.0,22.0,1.0,bridge_91.jpg,bridge_82.jpg,7.0,A20ZFQ93DF0WA
263,0.0,left,left,1.0,1.5019,0.0,23.0,23.0,23.0,1.0,badlands_222.jpg,badlands_34.jpg,6.0,A20ZFQ93DF0WA
264,0.0,left,left,1.0,1.9319,0.0,24.0,24.0,24.0,1.0,badlands_113.jpg,badlands_225.jpg,6.0,A20ZFQ93DF0WA
265,0.0,left,left,1.0,1.3506,0.0,25.0,25.0,25.0,1.0,golf_course_217.jpg,golf_course_35.jpg,7.0,A20ZFQ93DF0WA
266,1.0,left,left,1.0,1.2342,0.0,26.0,26.0,26.0,1.0,playground_257.jpg,playground_215.jpg,6.0,A20ZFQ93DF0WA
267,0.0,right,right,1.0,1.9991,0.0,27.0,27.0,27.0,1.0,mountain_157.jpg,mountain_110.jpg,7.0,A20ZFQ93DF0WA
268,1.0,left,left,1.0,1.4052,0.0,28.0,28.0,28.0,1.0,playground_131.jpg,playground_164.jpg,6.0,A20ZFQ93DF0WA
269,1.0,right,left,0.0,1.4253,0.0,29.0,29.0,29.0,1.0,highway_369.jpg,highway_93.jpg,7.0,A20ZFQ93DF0WA
270,1.0,left,left,1.0,1.4114,0.0,30.0,30.0,30.0,1.0,golf_course_15.jpg,golf_course_97.jpg,6.0,A20ZFQ93DF0WA
271,0.0,left,right,0.0,1.6648,0.0,31.0,31.0,31.0,1.0,mountain_101.jpg,mountain_171.jpg,8.0,A20ZFQ93DF0WA
272,0.0,right,left,0.0,1.1577,0.0,32.0,32.0,32.0,1.0,highway_203.jpg,highway_294.jpg,7.0,A20ZFQ93DF0WA
273,0.0,right,left,0.0,1.9355,0.0,33.0,33.0,33.0,1.0,badlands_228.jpg,badlands_184.jpg,7.0,A20ZFQ93DF0WA
274,1.0,right,right,1.0,1.7236,0.0,34.0,34.0,34.0,1.0,mountain_97.jpg,mountain_230.jpg,7.0,A20ZFQ93DF0WA
275,0.0,right,left,0.0,1.6616,0.0,35.0,35.0,35.0,1.0,playground_167.jpg,playground_117.jpg,7.0,A20ZFQ93DF0WA
276,1.0,left,left,1.0,1.6303,0.0,36.0,36.0,36.0,1.0,badlands_21.jpg,badlands_98.jpg,5.0,A20ZFQ93DF0WA
277,1.0,left,left,1.0,1.4295,0.0,37.0,37.0,37.0,1.0,mountain_57.jpg,mountain_138.jpg,6.0,A20ZFQ93DF0WA
278,0.0,left,left,1.0,1.3565,0.0,38.0,38.0,38.0,1.0,highway_394.jpg,highway_204.jpg,7.0,A20ZFQ93DF0WA
279,0.0,right,right,1.0,1.724,0.0,39.0,39.0,39.0,1.0,badlands_194.jpg,badlands_137.jpg,5.0,A20ZFQ93DF0WA
280,1.0,right,left,0.0,1.1709,0.0,40.0,40.0,40.0,1.0,mountain_93.jpg,mountain_222.jpg,7.0,A20ZFQ93DF0WA
281,0.0,right,right,1.0,1.4851,0.0,41.0,41.0,41.0,1.0,playground_137.jpg,playground_144.jpg,8.0,A20ZFQ93DF0WA
282,1.0,left,left,1.0,1.4763,0.0,42.0,42.0,42.0,1.0,playground_219.jpg,playground_205.jpg,7.0,A20ZFQ93DF0WA
283,0.0,left,right,0.0,1.42,0.0,43.0,43.0,43.0,1.0,badlands_52.jpg,badlands_94.jpg,8.0,A20ZFQ93DF0WA
284,1.0,right,left,0.0,1.5283,0.0,44.0,44.0,44.0,1.0,golf_course_209.jpg,golf_course_309.jpg,6.0,A20ZFQ93DF0WA
285,1.0,right,right,1.0,1.4031,0.0,45.0,45.0,45.0,1.0,bridge_121.jpg,bridge_146.jpg,7.0,A20ZFQ93DF0WA
286,1.0,right,right,1.0,1.1373,0.0,46.0,46.0,46.0,1.0,playground_40.jpg,playground_240.jpg,7.0,A20ZFQ93DF0WA
287,0.0,right,right,1.0,1.9157,0.0,47.0,47.0,47.0,1.0,mountain_128.jpg,mountain_156.jpg,8.0,A20ZFQ93DF0WA
288,1.0,right,right,1.0,1.1534,0.0,48.0,48.0,48.0,1.0,golf_course_123.jpg,golf_course_193.jpg,6.0,A20ZFQ93DF0WA
289,1.0,left,right,0.0,1.3418,0.0,49.0,49.0,49.0,1.0,highway_273.jpg,highway_171.jpg,7.0,A20ZFQ93DF0WA
290,1.0,right,right,1.0,1.4164,0.0,50.0,50.0,50.0,1.0,highway_122.jpg,highway_209.jpg,6.0,A20ZFQ93DF0WA
291,0.0,right,left,0.0,1.1893,0.0,51.0,51.0,51.0,1.0,mountain_72.jpg,mountain_293.jpg,7.0,A20ZFQ93DF0WA
292,0.0,left,right,0.0,1.4526,0.0,52.0,52.0,52.0,1.0,playground_76.jpg,playground_22.jpg,7.0,A20ZFQ93DF0WA
293,0.0,right,right,1.0,1.3406,0.0,53.0,53.0,53.0,1.0,highway_389.jpg,highway_359.jpg,7.0,A20ZFQ93DF0WA
294,1.0,right,right,1.0,1.5841,0.0,54.0,54.0,54.0,1.0,badlands_101.jpg,badlands_23.jpg,7.0,A20ZFQ93DF0WA
295,1.0,left,right,0.0,1.2168,0.0,55.0,55.0,55.0,1.0,badlands_221.jpg,badlands_207.jpg,6.0,A20ZFQ93DF0WA
296,0.0,right,right,1.0,1.248,0.0,56.0,56.0,56.0,1.0,playground_122.jpg,playground_10.jpg,7.0,A20ZFQ93DF0WA
297,1.0,right,right,1.0,1.4356,0.0,57.0,57.0,57.0,1.0,badlands_119.jpg,badlands_70.jpg,6.0,A20ZFQ93DF0WA
298,0.0,left,right,0.0,1.3113,0.0,58.0,58.0,58.0,1.0,mountain_232.jpg,mountain_3.jpg,6.0,A20ZFQ93DF0WA
299,0.0,right,left,0.0,1.2329,0.0,59.0,59.0,59.0,1.0,golf_course_114.jpg,golf_course_331.jpg,7.0,A20ZFQ93DF0WA
300,0.0,left,left,1.0,4.8902,0.0,0.0,0.0,0.0,1.0,playground_10.jpg,playground_122.jpg,7.0,A237PUN7791D62
301,0.0,right,right,1.0,5.6708,0.0,1.0,1.0,1.0,1.0,golf_course_157.jpg,golf_course_188.jpg,3.0,A237PUN7791D62
302,0.0,left,left,1.0,5.1568,0.0,2.0,2.0,2.0,1.0,highway_294.jpg,highway_203.jpg,8.0,A237PUN7791D62
303,1.0,right,right,1.0,3.6005,0.0,3.0,3.0,3.0,1.0,highway_379.jpg,highway_359.jpg,8.0,A237PUN7791D62
304,1.0,left,left,1.0,4.0812,0.0,4.0,4.0,4.0,1.0,playground_131.jpg,playground_164.jpg,7.0,A237PUN7791D62
305,0.0,right,right,1.0,3.4633,0.0,5.0,5.0,5.0,1.0,highway_85.jpg,highway_93.jpg,6.0,A237PUN7791D62
306,0.0,right,right,1.0,4.5719,0.0,6.0,6.0,6.0,1.0,golf_course_134.jpg,golf_course_78.jpg,8.0,A237PUN7791D62
307,1.0,left,right,0.0,5.0426,0.0,7.0,7.0,7.0,1.0,golf_course_15.jpg,golf_course_97.jpg,8.0,A237PUN7791D62
308,0.0,left,left,1.0,3.1808,0.0,8.0,8.0,8.0,1.0,mountain_230.jpg,mountain_184.jpg,7.0,A237PUN7791D62
309,0.0,right,right,1.0,6.0418,0.0,9.0,9.0,9.0,1.0,playground_229.jpg,playground_145.jpg,6.0,A237PUN7791D62
310,0.0,left,left,1.0,4.215,0.0,10.0,10.0,10.0,1.0,bridge_108.jpg,bridge_116.jpg,4.0,A237PUN7791D62
311,1.0,left,left,1.0,6.5774,0.0,11.0,11.0,11.0,1.0,highway_415.jpg,highway_174.jpg,8.0,A237PUN7791D62
312,0.0,right,right,1.0,2.6281,0.0,12.0,12.0,12.0,1.0,bridge_27.jpg,bridge_146.jpg,6.0,A237PUN7791D62
313,0.0,right,right,1.0,3.1419,0.0,13.0,13.0,13.0,1.0,highway_134.jpg,highway_245.jpg,6.0,A237PUN7791D62
314,1.0,right,right,1.0,2.6226,0.0,14.0,14.0,14.0,1.0,mountain_47.jpg,mountain_293.jpg,7.0,A237PUN7791D62
315,1.0,left,left,1.0,3.205,0.0,15.0,15.0,15.0,1.0,playground_240.jpg,playground_40.jpg,7.0,A237PUN7791D62
316,0.0,right,right,1.0,3.9584,0.0,16.0,16.0,16.0,1.0,playground_214.jpg,playground_257.jpg,6.0,A237PUN7791D62
317,1.0,left,left,1.0,5.9916,0.0,17.0,17.0,17.0,1.0,badlands_222.jpg,badlands_62.jpg,8.0,A237PUN7791D62
318,1.0,left,left,1.0,4.2812,0.0,18.0,18.0,18.0,1.0,bridge_202.jpg,bridge_38.jpg,4.0,A237PUN7791D62
319,0.0,right,right,1.0,3.0627,0.0,19.0,19.0,19.0,1.0,badlands_115.jpg,badlands_221.jpg,5.0,A237PUN7791D62
320,1.0,left,left,1.0,2.5714,0.0,20.0,20.0,20.0,1.0,badlands_70.jpg,badlands_119.jpg,4.0,A237PUN7791D62
321,0.0,left,right,0.0,3.0882,0.0,21.0,21.0,21.0,1.0,badlands_137.jpg,badlands_194.jpg,5.0,A237PUN7791D62
322,0.0,left,right,0.0,6.0981,0.0,22.0,22.0,22.0,1.0,playground_60.jpg,playground_268.jpg,6.0,A237PUN7791D62
323,0.0,right,left,0.0,5.4902,0.0,23.0,23.0,23.0,1.0,bridge_181.jpg,bridge_65.jpg,6.0,A237PUN7791D62
324,1.0,right,right,1.0,6.0749,0.0,24.0,24.0,24.0,1.0,highway_293.jpg,highway_156.jpg,8.0,A237PUN7791D62
325,0.0,left,right,0.0,5.0843,0.0,25.0,25.0,25.0,1.0,badlands_184.jpg,badlands_228.jpg,8.0,A237PUN7791D62
326,1.0,right,right,1.0,3.4782,0.0,26.0,26.0,26.0,1.0,badlands_63.jpg,badlands_52.jpg,5.0,A237PUN7791D62
327,1.0,right,right,1.0,6.0608,0.0,27.0,27.0,27.0,1.0,highway_278.jpg,highway_177.jpg,8.0,A237PUN7791D62
328,0.0,right,right,1.0,3.343,0.0,28.0,28.0,28.0,1.0,bridge_54.jpg,bridge_256.jpg,6.0,A237PUN7791D62
329,1.0,left,right,0.0,3.3361,0.0,29.0,29.0,29.0,1.0,bridge_91.jpg,bridge_82.jpg,6.0,A237PUN7791D62
330,0.0,left,left,1.0,3.1929,0.0,30.0,30.0,30.0,1.0,highway_394.jpg,highway_204.jpg,4.0,A237PUN7791D62
331,0.0,left,right,0.0,4.3413,0.0,31.0,31.0,31.0,1.0,golf_course_214.jpg,golf_course_312.jpg,7.0,A237PUN7791D62
332,1.0,right,right,1.0,3.6496,0.0,32.0,32.0,32.0,1.0,playground_127.jpg,playground_117.jpg,6.0,A237PUN7791D62
333,0.0,right,right,1.0,2.5402,0.0,33.0,33.0,33.0,1.0,bridge_61.jpg,bridge_128.jpg,1.0,A237PUN7791D62
334,0.0,left,left,1.0,3.3569,0.0,34.0,34.0,34.0,1.0,playground_144.jpg,playground_137.jpg,3.0,A237PUN7791D62
335,0.0,left,left,1.0,5.1287,0.0,35.0,35.0,35.0,1.0,highway_273.jpg,highway_384.jpg,6.0,A237PUN7791D62
336,0.0,right,right,1.0,3.4071,0.0,36.0,36.0,36.0,1.0,mountain_131.jpg,mountain_154.jpg,6.0,A237PUN7791D62
337,1.0,left,left,1.0,2.3799,0.0,37.0,37.0,37.0,1.0,mountain_57.jpg,mountain_138.jpg,3.0,A237PUN7791D62
338,1.0,left,right,0.0,3.4331,0.0,38.0,38.0,38.0,1.0,mountain_156.jpg,mountain_295.jpg,4.0,A237PUN7791D62
339,1.0,right,left,0.0,6.4603,0.0,39.0,39.0,39.0,1.0,highway_122.jpg,highway_209.jpg,8.0,A237PUN7791D62
340,1.0,left,left,1.0,2.2619,0.0,40.0,40.0,40.0,1.0,bridge_250.jpg,bridge_205.jpg,5.0,A237PUN7791D62
341,1.0,left,left,1.0,7.4429,0.0,41.0,41.0,41.0,1.0,golf_course_331.jpg,golf_course_26.jpg,6.0,A237PUN7791D62
342,0.0,left,left,1.0,3.1042,0.0,42.0,42.0,42.0,1.0,golf_course_87.jpg,golf_course_130.jpg,6.0,A237PUN7791D62
343,1.0,right,right,1.0,4.0575,0.0,43.0,43.0,43.0,1.0,playground_205.jpg,playground_219.jpg,7.0,A237PUN7791D62
344,0.0,left,left,1.0,2.6106,0.0,44.0,44.0,44.0,1.0,mountain_110.jpg,mountain_157.jpg,5.0,A237PUN7791D62
345,1.0,right,right,1.0,2.8578,0.0,45.0,45.0,45.0,1.0,badlands_101.jpg,badlands_23.jpg,4.0,A237PUN7791D62
346,1.0,left,left,1.0,4.0107,0.0,46.0,46.0,46.0,1.0,playground_76.jpg,playground_72.jpg,6.0,A237PUN7791D62
347,0.0,right,left,0.0,3.4719,0.0,47.0,47.0,47.0,1.0,mountain_171.jpg,mountain_101.jpg,3.0,A237PUN7791D62
348,1.0,right,right,1.0,2.9872,0.0,48.0,48.0,48.0,1.0,bridge_163.jpg,bridge_172.jpg,4.0,A237PUN7791D62
349,1.0,left,left,1.0,4.6121,0.0,49.0,49.0,49.0,1.0,mountain_232.jpg,mountain_54.jpg,6.0,A237PUN7791D62
350,0.0,left,right,0.0,6.1944,0.0,50.0,50.0,50.0,1.0,mountain_123.jpg,mountain_94.jpg,2.0,A237PUN7791D62
351,1.0,left,left,1.0,3.8181,0.0,51.0,51.0,51.0,1.0,bridge_191.jpg,bridge_75.jpg,5.0,A237PUN7791D62
352,1.0,right,right,1.0,3.3952,0.0,52.0,52.0,52.0,1.0,golf_course_123.jpg,golf_course_193.jpg,5.0,A237PUN7791D62
353,1.0,left,left,1.0,5.4637,0.0,53.0,53.0,53.0,1.0,golf_course_217.jpg,golf_course_262.jpg,6.0,A237PUN7791D62
354,1.0,left,right,0.0,4.1461,0.0,54.0,54.0,54.0,1.0,mountain_222.jpg,mountain_93.jpg,5.0,A237PUN7791D62
355,0.0,right,right,1.0,2.97,0.0,55.0,55.0,55.0,1.0,badlands_3.jpg,badlands_24.jpg,6.0,A237PUN7791D62
356,1.0,right,right,1.0,4.4576,0.0,56.0,56.0,56.0,1.0,golf_course_209.jpg,golf_course_309.jpg,3.0,A237PUN7791D62
357,0.0,right,right,1.0,6.1576,0.0,57.0,57.0,57.0,1.0,golf_course_25.jpg,golf_course_195.jpg,4.0,A237PUN7791D62
358,0.0,right,right,1.0,3.3262,0.0,58.0,58.0,58.0,1.0,badlands_225.jpg,badlands_113.jpg,6.0,A237PUN7791D62
359,1.0,right,right,1.0,2.8711,0.0,59.0,59.0,59.0,1.0,badlands_98.jpg,badlands_21.jpg,3.0,A237PUN7791D62
360,1.0,left,right,0.0,1.715,0.0,0.0,0.0,0.0,1.0,badlands_24.jpg,badlands_53.jpg,4.0,A2541C8MY0BYV3
361,1.0,left,right,0.0,2.212,0.0,1.0,1.0,1.0,1.0,playground_257.jpg,playground_215.jpg,3.0,A2541C8MY0BYV3
362,0.0,right,right,1.0,1.927,0.0,2.0,2.0,2.0,1.0,mountain_193.jpg,mountain_57.jpg,2.0,A2541C8MY0BYV3
363,0.0,right,right,1.0,1.994,0.0,3.0,3.0,3.0,1.0,highway_389.jpg,highway_359.jpg,2.0,A2541C8MY0BYV3
364,0.0,left,left,1.0,2.066,0.0,4.0,4.0,4.0,1.0,mountain_123.jpg,mountain_94.jpg,2.0,A2541C8MY0BYV3
365,0.0,left,left,1.0,1.667,0.0,5.0,5.0,5.0,1.0,badlands_21.jpg,badlands_1.jpg,1.0,A2541C8MY0BYV3
366,1.0,right,left,0.0,1.976,0.0,6.0,6.0,6.0,1.0,mountain_221.jpg,mountain_101.jpg,2.0,A2541C8MY0BYV3
367,0.0,left,right,0.0,1.484,0.0,7.0,7.0,7.0,1.0,mountain_293.jpg,mountain_72.jpg,4.0,A2541C8MY0BYV3
368,0.0,right,right,1.0,2.126,0.0,8.0,8.0,8.0,1.0,bridge_181.jpg,bridge_65.jpg,5.0,A2541C8MY0BYV3
369,0.0,left,left,1.0,3.059,0.0,9.0,9.0,9.0,1.0,golf_course_87.jpg,golf_course_130.jpg,5.0,A2541C8MY0BYV3
370,1.0,left,right,0.0,1.82,0.0,10.0,10.0,10.0,1.0,badlands_113.jpg,badlands_203.jpg,6.0,A2541C8MY0BYV3
371,1.0,left,left,1.0,1.957,0.0,11.0,11.0,11.0,1.0,golf_course_193.jpg,golf_course_123.jpg,4.0,A2541C8MY0BYV3
372,0.0,right,left,0.0,3.675,0.0,12.0,12.0,12.0,1.0,badlands_194.jpg,badlands_137.jpg,4.0,A2541C8MY0BYV3
373,1.0,left,left,1.0,1.518,0.0,13.0,13.0,13.0,1.0,badlands_221.jpg,badlands_207.jpg,2.0,A2541C8MY0BYV3
374,1.0,right,right,1.0,2.212,0.0,14.0,14.0,14.0,1.0,mountain_93.jpg,mountain_222.jpg,3.0,A2541C8MY0BYV3
375,0.0,left,left,1.0,1.769,0.0,15.0,15.0,15.0,1.0,playground_219.jpg,playground_21.jpg,6.0,A2541C8MY0BYV3
376,1.0,right,left,0.0,1.34,0.0,16.0,16.0,16.0,1.0,bridge_244.jpg,bridge_128.jpg,4.0,A2541C8MY0BYV3
377,1.0,right,left,0.0,1.159,0.0,17.0,17.0,17.0,1.0,playground_65.jpg,playground_144.jpg,6.0,A2541C8MY0BYV3
378,0.0,right,left,0.0,1.5,0.0,18.0,18.0,18.0,1.0,badlands_114.jpg,badlands_23.jpg,6.0,A2541C8MY0BYV3
379,1.0,left,left,1.0,2.152,0.0,19.0,19.0,19.0,1.0,bridge_202.jpg,bridge_38.jpg,5.0,A2541C8MY0BYV3
380,0.0,right,left,0.0,1.993,0.0,20.0,20.0,20.0,1.0,playground_268.jpg,playground_60.jpg,3.0,A2541C8MY0BYV3
381,1.0,left,right,0.0,1.458,0.0,21.0,21.0,21.0,1.0,highway_245.jpg,highway_206.jpg,4.0,A2541C8MY0BYV3
382,0.0,right,left,0.0,1.578,0.0,22.0,22.0,22.0,1.0,golf_course_134.jpg,golf_course_78.jpg,7.0,A2541C8MY0BYV3
383,1.0,right,left,0.0,1.341,0.0,23.0,23.0,23.0,1.0,bridge_211.jpg,bridge_256.jpg,2.0,A2541C8MY0BYV3
384,0.0,left,left,1.0,2.358,0.0,24.0,24.0,24.0,1.0,bridge_91.jpg,bridge_253.jpg,3.0,A2541C8MY0BYV3
385,0.0,left,right,0.0,3.077,0.0,25.0,25.0,25.0,1.0,bridge_250.jpg,bridge_134.jpg,3.0,A2541C8MY0BYV3
386,0.0,right,left,0.0,1.343,0.0,26.0,26.0,26.0,1.0,bridge_116.jpg,bridge_108.jpg,4.0,A2541C8MY0BYV3
387,0.0,left,right,0.0,1.712,0.0,27.0,27.0,27.0,1.0,highway_156.jpg,highway_160.jpg,3.0,A2541C8MY0BYV3
388,1.0,left,right,0.0,3.64,0.0,28.0,28.0,28.0,1.0,badlands_70.jpg,badlands_119.jpg,2.0,A2541C8MY0BYV3
389,1.0,right,right,1.0,1.39,0.0,29.0,29.0,29.0,1.0,bridge_121.jpg,bridge_146.jpg,3.0,A2541C8MY0BYV3
390,0.0,right,right,1.0,2.024,0.0,30.0,30.0,30.0,1.0,golf_course_35.jpg,golf_course_217.jpg,3.0,A2541C8MY0BYV3
391,0.0,left,right,0.0,2.158,0.0,31.0,31.0,31.0,1.0,playground_117.jpg,playground_167.jpg,7.0,A2541C8MY0BYV3
392,0.0,left,right,0.0,1.893,0.0,32.0,32.0,32.0,1.0,playground_76.jpg,playground_22.jpg,6.0,A2541C8MY0BYV3
393,0.0,left,left,1.0,2.328,0.0,33.0,33.0,33.0,1.0,highway_177.jpg,highway_87.jpg,3.0,A2541C8MY0BYV3
394,0.0,left,left,1.0,3.709,0.0,34.0,34.0,34.0,1.0,highway_93.jpg,highway_85.jpg,3.0,A2541C8MY0BYV3
395,1.0,left,left,1.0,2.692,0.0,35.0,35.0,35.0,1.0,playground_240.jpg,playground_40.jpg,5.0,A2541C8MY0BYV3
396,0.0,right,right,1.0,1.69,0.0,36.0,36.0,36.0,1.0,highway_204.jpg,highway_394.jpg,3.0,A2541C8MY0BYV3
397,1.0,right,right,1.0,1.562,0.0,37.0,37.0,37.0,1.0,highway_368.jpg,highway_294.jpg,3.0,A2541C8MY0BYV3
398,0.0,left,left,1.0,5.959,0.0,38.0,38.0,38.0,1.0,badlands_184.jpg,badlands_228.jpg,6.0,A2541C8MY0BYV3
399,1.0,left,left,1.0,3.166,0.0,39.0,39.0,39.0,1.0,playground_131.jpg,playground_164.jpg,6.0,A2541C8MY0BYV3
400,1.0,left,right,0.0,4.843,0.0,40.0,40.0,40.0,1.0,highway_273.jpg,highway_171.jpg,3.0,A2541C8MY0BYV3
401,0.0,left,left,1.0,1.128,0.0,41.0,41.0,41.0,1.0,badlands_52.jpg,badlands_94.jpg,4.0,A2541C8MY0BYV3
402,0.0,right,left,0.0,1.559,0.0,42.0,42.0,42.0,1.0,golf_course_312.jpg,golf_course_214.jpg,3.0,A2541C8MY0BYV3
403,1.0,right,left,0.0,2.273,0.0,43.0,43.0,43.0,1.0,bridge_75.jpg,bridge_191.jpg,3.0,A2541C8MY0BYV3
404,1.0,right,right,1.0,1.08,0.0,44.0,44.0,44.0,1.0,highway_122.jpg,highway_209.jpg,7.0,A2541C8MY0BYV3
405,0.0,right,right,1.0,1.348,0.0,45.0,45.0,45.0,1.0,golf_course_157.jpg,golf_course_188.jpg,6.0,A2541C8MY0BYV3
406,1.0,right,right,1.0,1.24,0.0,46.0,46.0,46.0,1.0,highway_174.jpg,highway_415.jpg,6.0,A2541C8MY0BYV3
407,1.0,right,right,1.0,2.312,0.0,47.0,47.0,47.0,1.0,mountain_95.jpg,mountain_154.jpg,2.0,A2541C8MY0BYV3
408,1.0,left,left,1.0,3.738,0.0,48.0,48.0,48.0,1.0,golf_course_309.jpg,golf_course_209.jpg,5.0,A2541C8MY0BYV3
409,1.0,left,right,0.0,1.719,0.0,49.0,49.0,49.0,1.0,mountain_156.jpg,mountain_295.jpg,2.0,A2541C8MY0BYV3
410,1.0,left,right,0.0,2.146,0.0,50.0,50.0,50.0,1.0,mountain_110.jpg,mountain_223.jpg,4.0,A2541C8MY0BYV3
411,1.0,right,right,1.0,2.535,0.0,51.0,51.0,51.0,1.0,badlands_62.jpg,badlands_222.jpg,6.0,A2541C8MY0BYV3
412,1.0,right,right,1.0,2.521,0.0,52.0,52.0,52.0,1.0,golf_course_2.jpg,golf_course_195.jpg,5.0,A2541C8MY0BYV3
413,1.0,left,right,0.0,2.122,0.0,53.0,53.0,53.0,1.0,playground_145.jpg,playground_242.jpg,5.0,A2541C8MY0BYV3
414,0.0,left,right,0.0,4.312,0.0,54.0,54.0,54.0,1.0,playground_10.jpg,playground_122.jpg,3.0,A2541C8MY0BYV3
415,0.0,left,left,1.0,1.651,0.0,55.0,55.0,55.0,1.0,mountain_232.jpg,mountain_3.jpg,5.0,A2541C8MY0BYV3
416,1.0,right,right,1.0,5.043,0.0,56.0,56.0,56.0,1.0,golf_course_97.jpg,golf_course_15.jpg,3.0,A2541C8MY0BYV3
417,1.0,right,right,1.0,4.191,0.0,57.0,57.0,57.0,1.0,golf_course_26.jpg,golf_course_331.jpg,6.0,A2541C8MY0BYV3
418,0.0,right,right,1.0,1.732,0.0,58.0,58.0,58.0,1.0,bridge_17.jpg,bridge_172.jpg,4.0,A2541C8MY0BYV3
419,0.0,left,left,1.0,1.325,0.0,59.0,59.0,59.0,1.0,mountain_230.jpg,mountain_184.jpg,3.0,A2541C8MY0BYV3
420,0.0,left,right,0.0,3.228,0.0,0.0,0.0,0.0,1.0,badlands_137.jpg,badlands_194.jpg,2.0,A25PFSORDO3SWQ
421,0.0,right,right,1.0,3.087,0.0,1.0,1.0,1.0,1.0,bridge_17.jpg,bridge_172.jpg,1.0,A25PFSORDO3SWQ
422,0.0,right,right,1.0,6.461,0.0,2.0,2.0,2.0,1.0,mountain_193.jpg,mountain_57.jpg,2.0,A25PFSORDO3SWQ
423,1.0,left,left,1.0,7.33,0.0,3.0,3.0,3.0,1.0,highway_93.jpg,highway_369.jpg,4.0,A25PFSORDO3SWQ
424,1.0,right,right,1.0,3.393,0.0,4.0,4.0,4.0,1.0,golf_course_262.jpg,golf_course_217.jpg,3.0,A25PFSORDO3SWQ
425,1.0,right,right,1.0,2.642,0.0,5.0,5.0,5.0,1.0,golf_course_97.jpg,golf_course_15.jpg,6.0,A25PFSORDO3SWQ
426,0.0,right,right,1.0,5.499,0.0,6.0,6.0,6.0,1.0,highway_60.jpg,highway_415.jpg,4.0,A25PFSORDO3SWQ
427,1.0,left,left,1.0,3.49,0.0,7.0,7.0,7.0,1.0,highway_394.jpg,highway_406.jpg,4.0,A25PFSORDO3SWQ
428,1.0,right,right,1.0,2.717,0.0,8.0,8.0,8.0,1.0,playground_205.jpg,playground_219.jpg,3.0,A25PFSORDO3SWQ
429,0.0,right,left,0.0,12.123,0.0,9.0,9.0,9.0,1.0,bridge_134.jpg,bridge_250.jpg,2.0,A25PFSORDO3SWQ
430,1.0,right,right,1.0,2.409,0.0,10.0,10.0,10.0,1.0,playground_215.jpg,playground_257.jpg,2.0,A25PFSORDO3SWQ
431,0.0,right,right,1.0,3.274,0.0,11.0,11.0,11.0,1.0,bridge_181.jpg,bridge_65.jpg,2.0,A25PFSORDO3SWQ
432,1.0,left,right,0.0,7.19,0.0,12.0,12.0,12.0,1.0,golf_course_214.jpg,golf_course_317.jpg,5.0,A25PFSORDO3SWQ
433,0.0,right,right,1.0,5.556,0.0,13.0,13.0,13.0,1.0,playground_2.jpg,playground_240.jpg,4.0,A25PFSORDO3SWQ
434,1.0,left,left,1.0,6.123,0.0,14.0,14.0,14.0,1.0,badlands_52.jpg,badlands_63.jpg,3.0,A25PFSORDO3SWQ
435,1.0,left,left,1.0,2.585,0.0,15.0,15.0,15.0,1.0,highway_273.jpg,highway_171.jpg,2.0,A25PFSORDO3SWQ
436,1.0,left,right,0.0,6.776,0.0,16.0,16.0,16.0,1.0,golf_course_331.jpg,golf_course_26.jpg,2.0,A25PFSORDO3SWQ
437,0.0,left,left,1.0,2.225,0.0,17.0,17.0,17.0,1.0,golf_course_87.jpg,golf_course_130.jpg,4.0,A25PFSORDO3SWQ
438,1.0,left,left,1.0,2.29,0.0,18.0,18.0,18.0,1.0,bridge_108.jpg,bridge_148.jpg,1.0,A25PFSORDO3SWQ
439,0.0,left,left,1.0,2.079,0.0,19.0,19.0,19.0,1.0,highway_245.jpg,highway_134.jpg,2.0,A25PFSORDO3SWQ
440,0.0,left,left,1.0,2.979,0.0,20.0,20.0,20.0,1.0,playground_131.jpg,playground_43.jpg,3.0,A25PFSORDO3SWQ
441,1.0,left,left,1.0,8.424,0.0,21.0,21.0,21.0,1.0,mountain_156.jpg,mountain_295.jpg,4.0,A25PFSORDO3SWQ
442,1.0,right,right,1.0,4.808,0.0,22.0,22.0,22.0,1.0,playground_242.jpg,playground_145.jpg,5.0,A25PFSORDO3SWQ
443,0.0,left,left,1.0,12.104,0.0,23.0,23.0,23.0,1.0,badlands_222.jpg,badlands_34.jpg,3.0,A25PFSORDO3SWQ
444,0.0,left,left,1.0,5.54,0.0,24.0,24.0,24.0,1.0,golf_course_193.jpg,golf_course_235.jpg,2.0,A25PFSORDO3SWQ
445,0.0,right,right,1.0,4.828,0.0,25.0,25.0,25.0,1.0,golf_course_157.jpg,golf_course_188.jpg,1.0,A25PFSORDO3SWQ
446,1.0,right,right,1.0,2.958,0.0,26.0,26.0,26.0,1.0,mountain_54.jpg,mountain_232.jpg,6.0,A25PFSORDO3SWQ
447,1.0,left,left,1.0,10.13,0.0,27.0,27.0,27.0,1.0,badlands_184.jpg,badlands_103.jpg,7.0,A25PFSORDO3SWQ
448,1.0,left,left,1.0,2.668,0.0,28.0,28.0,28.0,1.0,mountain_230.jpg,mountain_97.jpg,3.0,A25PFSORDO3SWQ
449,1.0,right,right,1.0,3.307,0.0,29.0,29.0,29.0,1.0,badlands_98.jpg,badlands_21.jpg,2.0,A25PFSORDO3SWQ
450,1.0,left,left,1.0,4.249,0.0,30.0,30.0,30.0,1.0,highway_156.jpg,highway_293.jpg,4.0,A25PFSORDO3SWQ
451,1.0,left,left,1.0,5.894,0.0,31.0,31.0,31.0,1.0,highway_359.jpg,highway_379.jpg,4.0,A25PFSORDO3SWQ
452,1.0,left,left,1.0,2.862,0.0,32.0,32.0,32.0,1.0,badlands_70.jpg,badlands_119.jpg,5.0,A25PFSORDO3SWQ
453,1.0,right,right,1.0,7.623,0.0,33.0,33.0,33.0,1.0,playground_12.jpg,playground_10.jpg,5.0,A25PFSORDO3SWQ
454,0.0,right,right,1.0,5.551,0.0,34.0,34.0,34.0,1.0,highway_87.jpg,highway_177.jpg,2.0,A25PFSORDO3SWQ
455,0.0,right,right,1.0,11.522,0.0,35.0,35.0,35.0,1.0,mountain_131.jpg,mountain_154.jpg,2.0,A25PFSORDO3SWQ
456,1.0,left,left,1.0,5.094,0.0,36.0,36.0,36.0,1.0,bridge_128.jpg,bridge_244.jpg,2.0,A25PFSORDO3SWQ
457,0.0,right,right,1.0,2.425,0.0,37.0,37.0,37.0,1.0,playground_22.jpg,playground_76.jpg,5.0,A25PFSORDO3SWQ
458,1.0,left,left,1.0,6.174,0.0,38.0,38.0,38.0,1.0,mountain_110.jpg,mountain_223.jpg,4.0,A25PFSORDO3SWQ
459,1.0,left,left,1.0,3.499,0.0,39.0,39.0,39.0,1.0,bridge_202.jpg,bridge_38.jpg,3.0,A25PFSORDO3SWQ
460,0.0,left,left,1.0,4.707,0.0,40.0,40.0,40.0,1.0,golf_course_78.jpg,golf_course_134.jpg,4.0,A25PFSORDO3SWQ
461,1.0,right,right,1.0,11.757,0.0,41.0,41.0,41.0,1.0,playground_65.jpg,playground_144.jpg,3.0,A25PFSORDO3SWQ
462,1.0,left,left,1.0,5.509,0.0,42.0,42.0,42.0,1.0,golf_course_195.jpg,golf_course_2.jpg,5.0,A25PFSORDO3SWQ
463,1.0,right,right,1.0,2.659,0.0,43.0,43.0,43.0,1.0,bridge_121.jpg,bridge_146.jpg,2.0,A25PFSORDO3SWQ
464,0.0,left,left,1.0,4.641,0.0,44.0,44.0,44.0,1.0,badlands_221.jpg,badlands_115.jpg,6.0,A25PFSORDO3SWQ
465,0.0,left,right,0.0,9.728,0.0,45.0,45.0,45.0,1.0,playground_117.jpg,playground_167.jpg,4.0,A25PFSORDO3SWQ
466,0.0,right,left,0.0,4.108,0.0,46.0,46.0,46.0,1.0,mountain_171.jpg,mountain_101.jpg,4.0,A25PFSORDO3SWQ
467,0.0,right,right,1.0,7.573,0.0,47.0,47.0,47.0,1.0,playground_268.jpg,playground_60.jpg,2.0,A25PFSORDO3SWQ
468,1.0,left,left,1.0,9.258,0.0,48.0,48.0,48.0,1.0,bridge_191.jpg,bridge_75.jpg,4.0,A25PFSORDO3SWQ
469,0.0,right,right,1.0,3.077,0.0,49.0,49.0,49.0,1.0,highway_203.jpg,highway_294.jpg,3.0,A25PFSORDO3SWQ
470,0.0,left,left,1.0,3.194,0.0,50.0,50.0,50.0,1.0,highway_209.jpg,highway_314.jpg,2.0,A25PFSORDO3SWQ
471,0.0,left,left,1.0,3.823,0.0,51.0,51.0,51.0,1.0,mountain_123.jpg,mountain_94.jpg,1.0,A25PFSORDO3SWQ
472,0.0,right,right,1.0,5.906,0.0,52.0,52.0,52.0,1.0,bridge_253.jpg,bridge_91.jpg,1.0,A25PFSORDO3SWQ
473,0.0,right,left,0.0,4.844,0.0,53.0,53.0,53.0,1.0,mountain_72.jpg,mountain_293.jpg,7.0,A25PFSORDO3SWQ
474,0.0,right,right,1.0,2.693,0.0,54.0,54.0,54.0,1.0,badlands_225.jpg,badlands_113.jpg,5.0,A25PFSORDO3SWQ
475,1.0,right,right,1.0,4.091,0.0,55.0,55.0,55.0,1.0,mountain_93.jpg,mountain_222.jpg,4.0,A25PFSORDO3SWQ
476,0.0,left,left,1.0,7.777,0.0,56.0,56.0,56.0,1.0,golf_course_309.jpg,golf_course_16.jpg,5.0,A25PFSORDO3SWQ
477,0.0,left,right,0.0,3.874,0.0,57.0,57.0,57.0,1.0,badlands_23.jpg,badlands_114.jpg,7.0,A25PFSORDO3SWQ
478,0.0,right,right,1.0,4.232,0.0,58.0,58.0,58.0,1.0,bridge_54.jpg,bridge_256.jpg,4.0,A25PFSORDO3SWQ
479,1.0,right,left,0.0,3.413,0.0,59.0,59.0,59.0,1.0,badlands_53.jpg,badlands_24.jpg,6.0,A25PFSORDO3SWQ
480,0.0,left,left,1.0,3.437,0.0,0.0,0.0,0.0,1.0,badlands_113.jpg,badlands_225.jpg,6.0,A2CZ5PS567SA10
481,0.0,right,right,1.0,3.5087,0.0,1.0,1.0,1.0,1.0,playground_122.jpg,playground_10.jpg,7.0,A2CZ5PS567SA10
482,0.0,left,right,0.0,2.36,0.0,2.0,2.0,2.0,1.0,badlands_137.jpg,badlands_194.jpg,6.0,A2CZ5PS567SA10
483,1.0,right,left,0.0,6.9308,0.0,3.0,3.0,3.0,1.0,mountain_93.jpg,mountain_222.jpg,5.0,A2CZ5PS567SA10
484,0.0,right,right,1.0,2.799,0.0,4.0,4.0,4.0,1.0,playground_229.jpg,playground_145.jpg,6.0,A2CZ5PS567SA10
485,1.0,left,left,1.0,2.5237,0.0,5.0,5.0,5.0,1.0,highway_394.jpg,highway_406.jpg,6.0,A2CZ5PS567SA10
486,0.0,right,right,1.0,3.3786,0.0,6.0,6.0,6.0,1.0,golf_course_130.jpg,golf_course_87.jpg,6.0,A2CZ5PS567SA10
487,1.0,left,left,1.0,2.6623,0.0,7.0,7.0,7.0,1.0,highway_177.jpg,highway_278.jpg,6.0,A2CZ5PS567SA10
488,1.0,left,left,1.0,12.4277,0.0,8.0,8.0,8.0,1.0,mountain_57.jpg,mountain_138.jpg,6.0,A2CZ5PS567SA10
489,0.0,right,right,1.0,6.2847,0.0,9.0,9.0,9.0,1.0,bridge_181.jpg,bridge_65.jpg,6.0,A2CZ5PS567SA10
490,0.0,right,right,1.0,7.1139,0.0,10.0,10.0,10.0,1.0,bridge_116.jpg,bridge_108.jpg,6.0,A2CZ5PS567SA10
491,0.0,left,right,0.0,3.568,0.0,11.0,11.0,11.0,1.0,highway_156.jpg,highway_160.jpg,6.0,A2CZ5PS567SA10
492,1.0,left,right,0.0,2.961,0.0,12.0,12.0,12.0,1.0,bridge_250.jpg,bridge_205.jpg,5.0,A2CZ5PS567SA10
493,1.0,left,right,0.0,7.1576,0.0,13.0,13.0,13.0,1.0,bridge_172.jpg,bridge_163.jpg,5.0,A2CZ5PS567SA10
494,1.0,left,left,1.0,2.7457,0.0,14.0,14.0,14.0,1.0,badlands_21.jpg,badlands_98.jpg,5.0,A2CZ5PS567SA10
495,0.0,right,right,1.0,3.3226,0.0,15.0,15.0,15.0,1.0,mountain_94.jpg,mountain_123.jpg,6.0,A2CZ5PS567SA10
496,1.0,left,right,0.0,2.3377,0.0,16.0,16.0,16.0,1.0,playground_257.jpg,playground_215.jpg,5.0,A2CZ5PS567SA10
497,1.0,right,right,1.0,2.6229,0.0,17.0,17.0,17.0,1.0,bridge_244.jpg,bridge_128.jpg,6.0,A2CZ5PS567SA10
498,1.0,left,right,0.0,2.2243,0.0,18.0,18.0,18.0,1.0,playground_240.jpg,playground_40.jpg,5.0,A2CZ5PS567SA10
499,1.0,right,left,0.0,4.1787,0.0,19.0,19.0,19.0,1.0,golf_course_160.jpg,golf_course_188.jpg,5.0,A2CZ5PS567SA10
500,0.0,left,left,1.0,5.6224,0.0,20.0,20.0,20.0,1.0,mountain_154.jpg,mountain_131.jpg,6.0,A2CZ5PS567SA10
501,0.0,left,left,1.0,2.6557,0.0,21.0,21.0,21.0,1.0,bridge_146.jpg,bridge_27.jpg,6.0,A2CZ5PS567SA10
502,1.0,right,left,0.0,2.8731,0.0,22.0,22.0,22.0,1.0,badlands_53.jpg,badlands_24.jpg,7.0,A2CZ5PS567SA10
503,1.0,left,left,1.0,2.2104,0.0,23.0,23.0,23.0,1.0,highway_359.jpg,highway_379.jpg,7.0,A2CZ5PS567SA10
504,1.0,left,left,1.0,2.2888,0.0,24.0,24.0,24.0,1.0,badlands_222.jpg,badlands_62.jpg,6.0,A2CZ5PS567SA10
505,1.0,right,left,0.0,2.7895,0.0,25.0,25.0,25.0,1.0,mountain_221.jpg,mountain_101.jpg,5.0,A2CZ5PS567SA10
506,0.0,left,left,1.0,3.0703,0.0,26.0,26.0,26.0,1.0,playground_76.jpg,playground_22.jpg,5.0,A2CZ5PS567SA10
507,0.0,left,left,1.0,2.6133,0.0,27.0,27.0,27.0,1.0,badlands_184.jpg,badlands_228.jpg,7.0,A2CZ5PS567SA10
508,1.0,left,left,1.0,2.6098,0.0,28.0,28.0,28.0,1.0,badlands_70.jpg,badlands_119.jpg,7.0,A2CZ5PS567SA10
509,1.0,right,right,1.0,3.3436,0.0,29.0,29.0,29.0,1.0,playground_164.jpg,playground_131.jpg,6.0,A2CZ5PS567SA10
510,0.0,right,left,0.0,5.7197,0.0,30.0,30.0,30.0,1.0,playground_268.jpg,playground_60.jpg,6.0,A2CZ5PS567SA10
511,0.0,left,right,0.0,2.4043,0.0,31.0,31.0,31.0,1.0,golf_course_214.jpg,golf_course_312.jpg,6.0,A2CZ5PS567SA10
512,1.0,left,right,0.0,15.263,0.0,32.0,32.0,32.0,1.0,mountain_156.jpg,mountain_295.jpg,6.0,A2CZ5PS567SA10
513,1.0,left,left,1.0,4.2553,0.0,33.0,33.0,33.0,1.0,playground_144.jpg,playground_65.jpg,5.0,A2CZ5PS567SA10
514,0.0,left,right,0.0,39.7568,0.0,34.0,34.0,34.0,1.0,badlands_221.jpg,badlands_115.jpg,7.0,A2CZ5PS567SA10
515,1.0,right,right,1.0,2.689,0.0,35.0,35.0,35.0,1.0,badlands_101.jpg,badlands_23.jpg,6.0,A2CZ5PS567SA10
516,1.0,left,left,1.0,3.8605,0.0,36.0,36.0,36.0,1.0,bridge_202.jpg,bridge_38.jpg,7.0,A2CZ5PS567SA10
517,0.0,left,left,1.0,2.5079,0.0,37.0,37.0,37.0,1.0,golf_course_15.jpg,golf_course_113.jpg,5.0,A2CZ5PS567SA10
518,0.0,right,right,1.0,2.1902,0.0,38.0,38.0,38.0,1.0,mountain_3.jpg,mountain_232.jpg,7.0,A2CZ5PS567SA10
519,0.0,left,left,1.0,2.9084,0.0,39.0,39.0,39.0,1.0,mountain_110.jpg,mountain_157.jpg,5.0,A2CZ5PS567SA10
520,1.0,left,left,1.0,2.7532,0.0,40.0,40.0,40.0,1.0,golf_course_78.jpg,golf_course_101.jpg,6.0,A2CZ5PS567SA10
521,1.0,right,left,0.0,2.8023,0.0,41.0,41.0,41.0,1.0,highway_206.jpg,highway_245.jpg,8.0,A2CZ5PS567SA10
522,1.0,right,left,0.0,2.5283,0.0,42.0,42.0,42.0,1.0,golf_course_26.jpg,golf_course_331.jpg,5.0,A2CZ5PS567SA10
523,0.0,left,left,1.0,2.1542,0.0,43.0,43.0,43.0,1.0,highway_93.jpg,highway_85.jpg,6.0,A2CZ5PS567SA10
524,1.0,right,left,0.0,3.2459,0.0,44.0,44.0,44.0,1.0,mountain_97.jpg,mountain_230.jpg,5.0,A2CZ5PS567SA10
525,1.0,left,left,1.0,2.1395,0.0,45.0,45.0,45.0,1.0,golf_course_193.jpg,golf_course_123.jpg,8.0,A2CZ5PS567SA10
526,1.0,left,left,1.0,3.2803,0.0,46.0,46.0,46.0,1.0,playground_219.jpg,playground_205.jpg,6.0,A2CZ5PS567SA10
527,0.0,left,left,1.0,2.3396,0.0,47.0,47.0,47.0,1.0,highway_294.jpg,highway_203.jpg,6.0,A2CZ5PS567SA10
528,0.0,right,right,1.0,6.6289,0.0,48.0,48.0,48.0,1.0,badlands_94.jpg,badlands_52.jpg,7.0,A2CZ5PS567SA10
529,0.0,left,left,1.0,3.7466,0.0,49.0,49.0,49.0,1.0,mountain_293.jpg,mountain_72.jpg,5.0,A2CZ5PS567SA10
530,1.0,left,left,1.0,3.2022,0.0,50.0,50.0,50.0,1.0,golf_course_309.jpg,golf_course_209.jpg,7.0,A2CZ5PS567SA10
531,0.0,right,right,1.0,2.2515,0.0,51.0,51.0,51.0,1.0,golf_course_25.jpg,golf_course_195.jpg,5.0,A2CZ5PS567SA10
532,0.0,left,right,0.0,3.3453,0.0,52.0,52.0,52.0,1.0,playground_117.jpg,playground_167.jpg,6.0,A2CZ5PS567SA10
533,1.0,right,left,0.0,2.4393,0.0,53.0,53.0,53.0,1.0,highway_122.jpg,highway_209.jpg,5.0,A2CZ5PS567SA10
534,1.0,right,right,1.0,2.1785,0.0,54.0,54.0,54.0,1.0,bridge_82.jpg,bridge_91.jpg,6.0,A2CZ5PS567SA10
535,0.0,right,right,1.0,2.5263,0.0,55.0,55.0,55.0,1.0,bridge_184.jpg,bridge_191.jpg,6.0,A2CZ5PS567SA10
536,0.0,left,left,1.0,2.1926,0.0,56.0,56.0,56.0,1.0,golf_course_217.jpg,golf_course_35.jpg,5.0,A2CZ5PS567SA10
537,0.0,right,right,1.0,2.2531,0.0,57.0,57.0,57.0,1.0,highway_384.jpg,highway_273.jpg,6.0,A2CZ5PS567SA10
538,0.0,left,left,1.0,2.2673,0.0,58.0,58.0,58.0,1.0,bridge_256.jpg,bridge_54.jpg,7.0,A2CZ5PS567SA10
539,0.0,left,left,1.0,1.9225,0.0,59.0,59.0,59.0,1.0,highway_415.jpg,highway_60.jpg,5.0,A2CZ5PS567SA10
540,0.0,left,left,1.0,8.9693,0.0,0.0,0.0,0.0,1.0,mountain_123.jpg,mountain_94.jpg,1.0,A2P9XYDUCQBXWD
541,1.0,right,right,1.0,5.6501,0.0,1.0,1.0,1.0,1.0,golf_course_160.jpg,golf_course_188.jpg,6.0,A2P9XYDUCQBXWD
542,0.0,right,right,1.0,2.7817,0.0,2.0,2.0,2.0,1.0,golf_course_35.jpg,golf_course_217.jpg,9.0,A2P9XYDUCQBXWD
543,1.0,left,right,0.0,2.0799,0.0,3.0,3.0,3.0,1.0,badlands_70.jpg,badlands_119.jpg,9.0,A2P9XYDUCQBXWD
544,1.0,right,right,1.0,1.9561,0.0,4.0,4.0,4.0,1.0,highway_368.jpg,highway_294.jpg,9.0,A2P9XYDUCQBXWD
545,0.0,right,right,1.0,1.8866,0.0,5.0,5.0,5.0,1.0,golf_course_134.jpg,golf_course_78.jpg,9.0,A2P9XYDUCQBXWD
546,1.0,right,right,1.0,1.6487,0.0,6.0,6.0,6.0,1.0,highway_278.jpg,highway_177.jpg,9.0,A2P9XYDUCQBXWD
547,0.0,left,right,0.0,3.3692,0.0,7.0,7.0,7.0,1.0,highway_245.jpg,highway_134.jpg,8.0,A2P9XYDUCQBXWD
548,0.0,right,right,1.0,1.5168,0.0,8.0,8.0,8.0,1.0,mountain_171.jpg,mountain_101.jpg,6.0,A2P9XYDUCQBXWD
549,0.0,right,right,1.0,1.7138,0.0,9.0,9.0,9.0,1.0,bridge_17.jpg,bridge_172.jpg,5.0,A2P9XYDUCQBXWD
550,0.0,left,right,0.0,1.8828,0.0,10.0,10.0,10.0,1.0,mountain_110.jpg,mountain_157.jpg,9.0,A2P9XYDUCQBXWD
551,0.0,right,right,1.0,1.8367,0.0,11.0,11.0,11.0,1.0,highway_384.jpg,highway_273.jpg,9.0,A2P9XYDUCQBXWD
552,0.0,left,right,0.0,1.5485,0.0,12.0,12.0,12.0,1.0,playground_240.jpg,playground_2.jpg,9.0,A2P9XYDUCQBXWD
553,1.0,left,right,0.0,1.0893,0.0,13.0,13.0,13.0,1.0,highway_415.jpg,highway_174.jpg,9.0,A2P9XYDUCQBXWD
554,0.0,left,right,0.0,2.7326,0.0,14.0,14.0,14.0,1.0,playground_131.jpg,playground_43.jpg,9.0,A2P9XYDUCQBXWD
555,1.0,right,right,1.0,1.2856,0.0,15.0,15.0,15.0,1.0,playground_215.jpg,playground_257.jpg,9.0,A2P9XYDUCQBXWD
556,1.0,right,right,1.0,1.2548,0.0,16.0,16.0,16.0,1.0,badlands_98.jpg,badlands_21.jpg,9.0,A2P9XYDUCQBXWD
557,1.0,left,right,0.0,1.7494,0.0,17.0,17.0,17.0,1.0,badlands_137.jpg,badlands_139.jpg,9.0,A2P9XYDUCQBXWD
558,0.0,left,right,0.0,1.7158,0.0,18.0,18.0,18.0,1.0,highway_209.jpg,highway_314.jpg,3.0,A2P9XYDUCQBXWD
559,0.0,right,right,1.0,31.8119,0.0,19.0,19.0,19.0,1.0,badlands_225.jpg,badlands_113.jpg,6.0,A2P9XYDUCQBXWD
560,0.0,right,right,1.0,1.5035,0.0,20.0,20.0,20.0,1.0,highway_160.jpg,highway_156.jpg,9.0,A2P9XYDUCQBXWD
561,0.0,right,right,1.0,1.7494,0.0,21.0,21.0,21.0,1.0,playground_229.jpg,playground_145.jpg,9.0,A2P9XYDUCQBXWD
562,1.0,right,right,1.0,1.9494,0.0,22.0,22.0,22.0,1.0,badlands_207.jpg,badlands_221.jpg,1.0,A2P9XYDUCQBXWD
563,0.0,right,right,1.0,0.9698,0.0,23.0,23.0,23.0,1.0,badlands_34.jpg,badlands_222.jpg,4.0,A2P9XYDUCQBXWD
564,1.0,right,right,1.0,0.8657,0.0,24.0,24.0,24.0,1.0,bridge_38.jpg,bridge_202.jpg,9.0,A2P9XYDUCQBXWD
565,0.0,left,right,0.0,0.2887,0.0,25.0,25.0,25.0,1.0,badlands_52.jpg,badlands_94.jpg,9.0,A2P9XYDUCQBXWD
566,0.0,right,right,1.0,0.9684,0.0,26.0,26.0,26.0,1.0,mountain_131.jpg,mountain_154.jpg,5.0,A2P9XYDUCQBXWD
567,1.0,right,right,1.0,0.4018,0.0,27.0,27.0,27.0,1.0,mountain_295.jpg,mountain_156.jpg,9.0,A2P9XYDUCQBXWD
568,1.0,left,right,0.0,0.8493,0.0,28.0,28.0,28.0,1.0,playground_10.jpg,playground_12.jpg,9.0,A2P9XYDUCQBXWD
569,0.0,right,right,1.0,0.8856,0.0,29.0,29.0,29.0,1.0,golf_course_16.jpg,golf_course_309.jpg,1.0,A2P9XYDUCQBXWD
570,0.0,left,right,0.0,0.9323,0.0,30.0,30.0,30.0,1.0,playground_219.jpg,playground_21.jpg,9.0,A2P9XYDUCQBXWD
571,0.0,right,right,1.0,0.2167,0.0,31.0,31.0,31.0,1.0,bridge_54.jpg,bridge_256.jpg,9.0,A2P9XYDUCQBXWD
572,1.0,right,right,1.0,0.4044,0.0,32.0,32.0,32.0,1.0,golf_course_97.jpg,golf_course_15.jpg,9.0,A2P9XYDUCQBXWD
573,1.0,left,right,0.0,1.5232,0.0,33.0,33.0,33.0,1.0,playground_76.jpg,playground_72.jpg,9.0,A2P9XYDUCQBXWD
574,0.0,left,right,0.0,1.2698,0.0,34.0,34.0,34.0,1.0,mountain_222.jpg,mountain_244.jpg,5.0,A2P9XYDUCQBXWD
575,1.0,right,right,1.0,0.7533,0.0,35.0,35.0,35.0,1.0,highway_406.jpg,highway_394.jpg,8.0,A2P9XYDUCQBXWD
576,1.0,right,right,1.0,0.8985,0.0,36.0,36.0,36.0,1.0,golf_course_2.jpg,golf_course_195.jpg,9.0,A2P9XYDUCQBXWD
577,1.0,left,right,0.0,0.7377,0.0,37.0,37.0,37.0,1.0,golf_course_331.jpg,golf_course_26.jpg,4.0,A2P9XYDUCQBXWD
578,1.0,left,right,0.0,0.615,0.0,38.0,38.0,38.0,1.0,mountain_293.jpg,mountain_47.jpg,9.0,A2P9XYDUCQBXWD
579,0.0,right,right,1.0,0.3063,0.0,39.0,39.0,39.0,1.0,golf_course_130.jpg,golf_course_87.jpg,9.0,A2P9XYDUCQBXWD
580,0.0,left,right,0.0,0.2993,0.0,40.0,40.0,40.0,1.0,bridge_128.jpg,bridge_61.jpg,1.0,A2P9XYDUCQBXWD
581,0.0,right,right,1.0,0.7129,0.0,41.0,41.0,41.0,1.0,highway_85.jpg,highway_93.jpg,7.0,A2P9XYDUCQBXWD
582,0.0,right,right,1.0,0.6492,0.0,42.0,42.0,42.0,1.0,bridge_27.jpg,bridge_146.jpg,9.0,A2P9XYDUCQBXWD
583,1.0,left,right,0.0,0.7193,0.0,43.0,43.0,43.0,1.0,playground_117.jpg,playground_127.jpg,9.0,A2P9XYDUCQBXWD
584,1.0,right,right,1.0,1.0532,0.0,44.0,44.0,44.0,1.0,bridge_60.jpg,bridge_65.jpg,6.0,A2P9XYDUCQBXWD
585,1.0,left,right,0.0,0.4867,0.0,45.0,45.0,45.0,1.0,badlands_24.jpg,badlands_53.jpg,9.0,A2P9XYDUCQBXWD
586,0.0,left,right,0.0,0.8035,0.0,46.0,46.0,46.0,1.0,golf_course_214.jpg,golf_course_312.jpg,3.0,A2P9XYDUCQBXWD
587,0.0,right,right,1.0,0.7307,0.0,47.0,47.0,47.0,1.0,bridge_134.jpg,bridge_250.jpg,9.0,A2P9XYDUCQBXWD
588,1.0,right,right,1.0,0.7002,0.0,48.0,48.0,48.0,1.0,golf_course_123.jpg,golf_course_193.jpg,9.0,A2P9XYDUCQBXWD
589,1.0,right,right,1.0,0.7533,0.0,49.0,49.0,49.0,1.0,playground_244.jpg,playground_60.jpg,9.0,A2P9XYDUCQBXWD
590,1.0,right,right,1.0,0.8532,0.0,50.0,50.0,50.0,1.0,highway_379.jpg,highway_359.jpg,9.0,A2P9XYDUCQBXWD
591,1.0,right,right,1.0,0.9042,0.0,51.0,51.0,51.0,1.0,mountain_97.jpg,mountain_230.jpg,5.0,A2P9XYDUCQBXWD
592,0.0,right,right,1.0,0.4691,0.0,52.0,52.0,52.0,1.0,badlands_114.jpg,badlands_23.jpg,9.0,A2P9XYDUCQBXWD
593,1.0,left,right,0.0,0.3193,0.0,53.0,53.0,53.0,1.0,bridge_108.jpg,bridge_148.jpg,9.0,A2P9XYDUCQBXWD
594,1.0,left,right,0.0,0.4564,0.0,54.0,54.0,54.0,1.0,bridge_191.jpg,bridge_75.jpg,9.0,A2P9XYDUCQBXWD
595,1.0,left,right,0.0,0.3684,0.0,55.0,55.0,55.0,1.0,mountain_232.jpg,mountain_54.jpg,9.0,A2P9XYDUCQBXWD
596,0.0,left,right,0.0,0.5345,0.0,56.0,56.0,56.0,1.0,playground_144.jpg,playground_137.jpg,6.0,A2P9XYDUCQBXWD
597,0.0,right,right,1.0,0.5709,0.0,57.0,57.0,57.0,1.0,badlands_228.jpg,badlands_184.jpg,6.0,A2P9XYDUCQBXWD
598,1.0,left,right,0.0,0.3356,0.0,58.0,58.0,58.0,1.0,mountain_57.jpg,mountain_138.jpg,3.0,A2P9XYDUCQBXWD
599,1.0,left,right,0.0,0.799,0.0,59.0,59.0,59.0,1.0,bridge_91.jpg,bridge_82.jpg,9.0,A2P9XYDUCQBXWD
600,0.0,right,right,1.0,13.667,0.0,0.0,0.0,0.0,1.0,playground_214.jpg,playground_257.jpg,7.0,A2STRYBSFU7KCY
601,1.0,left,left,1.0,15.648,0.0,1.0,1.0,1.0,1.0,badlands_221.jpg,badlands_207.jpg,5.0,A2STRYBSFU7KCY
602,0.0,left,left,1.0,6.569,0.0,2.0,2.0,2.0,1.0,golf_course_87.jpg,golf_course_130.jpg,7.0,A2STRYBSFU7KCY
603,0.0,left,left,1.0,5.092,0.0,3.0,3.0,3.0,1.0,badlands_24.jpg,badlands_3.jpg,8.0,A2STRYBSFU7KCY
604,1.0,left,left,1.0,5.159,0.0,4.0,4.0,4.0,1.0,mountain_230.jpg,mountain_97.jpg,8.0,A2STRYBSFU7KCY
605,0.0,left,left,1.0,3.852,0.0,5.0,5.0,5.0,1.0,golf_course_188.jpg,golf_course_157.jpg,8.0,A2STRYBSFU7KCY
606,0.0,left,right,0.0,4.728,0.0,6.0,6.0,6.0,1.0,badlands_137.jpg,badlands_194.jpg,6.0,A2STRYBSFU7KCY
607,1.0,left,left,1.0,4.23,0.0,7.0,7.0,7.0,1.0,playground_131.jpg,playground_164.jpg,8.0,A2STRYBSFU7KCY
608,0.0,left,right,0.0,4.775,0.0,8.0,8.0,8.0,1.0,golf_course_217.jpg,golf_course_35.jpg,8.0,A2STRYBSFU7KCY
609,1.0,left,left,1.0,4.269,0.0,9.0,9.0,9.0,1.0,mountain_57.jpg,mountain_138.jpg,8.0,A2STRYBSFU7KCY
610,1.0,left,left,1.0,6.549,0.0,10.0,10.0,10.0,1.0,golf_course_309.jpg,golf_course_209.jpg,5.0,A2STRYBSFU7KCY
611,0.0,left,left,1.0,3.397,0.0,11.0,11.0,11.0,1.0,mountain_293.jpg,mountain_72.jpg,8.0,A2STRYBSFU7KCY
612,0.0,right,right,1.0,4.687,0.0,12.0,12.0,12.0,1.0,highway_203.jpg,highway_294.jpg,8.0,A2STRYBSFU7KCY
613,1.0,left,right,0.0,4.567,0.0,13.0,13.0,13.0,1.0,golf_course_78.jpg,golf_course_101.jpg,7.0,A2STRYBSFU7KCY
614,0.0,right,right,1.0,4.378,0.0,14.0,14.0,14.0,1.0,mountain_157.jpg,mountain_110.jpg,7.0,A2STRYBSFU7KCY
615,1.0,right,right,1.0,4.559,0.0,15.0,15.0,15.0,1.0,playground_40.jpg,playground_240.jpg,8.0,A2STRYBSFU7KCY
616,1.0,right,left,0.0,4.86,0.0,16.0,16.0,16.0,1.0,playground_72.jpg,playground_76.jpg,8.0,A2STRYBSFU7KCY
617,0.0,left,left,1.0,4.793,0.0,17.0,17.0,17.0,1.0,mountain_222.jpg,mountain_244.jpg,7.0,A2STRYBSFU7KCY
618,0.0,left,left,1.0,4.05,0.0,18.0,18.0,18.0,1.0,bridge_128.jpg,bridge_61.jpg,6.0,A2STRYBSFU7KCY
619,1.0,right,left,0.0,3.535,0.0,19.0,19.0,19.0,1.0,mountain_221.jpg,mountain_101.jpg,8.0,A2STRYBSFU7KCY
620,1.0,right,right,1.0,3.99,0.0,20.0,20.0,20.0,1.0,highway_293.jpg,highway_156.jpg,7.0,A2STRYBSFU7KCY
621,0.0,left,right,0.0,4.217,0.0,21.0,21.0,21.0,1.0,playground_60.jpg,playground_268.jpg,6.0,A2STRYBSFU7KCY
622,0.0,right,right,1.0,14.639,0.0,22.0,22.0,22.0,1.0,mountain_131.jpg,mountain_154.jpg,8.0,A2STRYBSFU7KCY
623,1.0,right,right,1.0,8.666,0.0,23.0,23.0,23.0,1.0,golf_course_317.jpg,golf_course_214.jpg,7.0,A2STRYBSFU7KCY
624,1.0,right,left,0.0,15.042,0.0,24.0,24.0,24.0,1.0,badlands_62.jpg,badlands_222.jpg,9.0,A2STRYBSFU7KCY
625,0.0,left,left,1.0,3.9,0.0,25.0,25.0,25.0,1.0,playground_117.jpg,playground_167.jpg,6.0,A2STRYBSFU7KCY
626,1.0,left,right,0.0,5.633,0.0,26.0,26.0,26.0,1.0,playground_10.jpg,playground_12.jpg,6.0,A2STRYBSFU7KCY
627,1.0,right,right,1.0,4.281,0.0,27.0,27.0,27.0,1.0,golf_course_97.jpg,golf_course_15.jpg,7.0,A2STRYBSFU7KCY
628,1.0,left,left,1.0,3.473,0.0,28.0,28.0,28.0,1.0,bridge_65.jpg,bridge_60.jpg,8.0,A2STRYBSFU7KCY
629,1.0,left,right,0.0,4.858,0.0,29.0,29.0,29.0,1.0,highway_93.jpg,highway_369.jpg,6.0,A2STRYBSFU7KCY
630,0.0,right,left,0.0,3.096,0.0,30.0,30.0,30.0,1.0,bridge_134.jpg,bridge_250.jpg,6.0,A2STRYBSFU7KCY
631,1.0,right,right,1.0,3.056,0.0,31.0,31.0,31.0,1.0,badlands_103.jpg,badlands_184.jpg,7.0,A2STRYBSFU7KCY
632,0.0,left,left,1.0,4.083,0.0,32.0,32.0,32.0,1.0,golf_course_195.jpg,golf_course_25.jpg,5.0,A2STRYBSFU7KCY
633,1.0,left,left,1.0,4.68,0.0,33.0,33.0,33.0,1.0,highway_359.jpg,highway_379.jpg,8.0,A2STRYBSFU7KCY
634,1.0,left,right,0.0,3.298,0.0,34.0,34.0,34.0,1.0,mountain_232.jpg,mountain_54.jpg,4.0,A2STRYBSFU7KCY
635,0.0,left,left,1.0,4.084,0.0,35.0,35.0,35.0,1.0,bridge_172.jpg,bridge_17.jpg,7.0,A2STRYBSFU7KCY
636,0.0,left,left,1.0,3.307,0.0,36.0,36.0,36.0,1.0,mountain_156.jpg,mountain_128.jpg,7.0,A2STRYBSFU7KCY
637,0.0,right,right,1.0,48.416,0.0,37.0,37.0,37.0,1.0,highway_384.jpg,highway_273.jpg,3.0,A2STRYBSFU7KCY
638,0.0,right,right,1.0,3.619,0.0,38.0,38.0,38.0,1.0,badlands_94.jpg,badlands_52.jpg,7.0,A2STRYBSFU7KCY
639,1.0,left,right,0.0,3.517,0.0,39.0,39.0,39.0,1.0,mountain_123.jpg,mountain_189.jpg,8.0,A2STRYBSFU7KCY
640,0.0,left,left,1.0,2.608,0.0,40.0,40.0,40.0,1.0,bridge_256.jpg,bridge_54.jpg,5.0,A2STRYBSFU7KCY
641,1.0,left,left,1.0,4.435,0.0,41.0,41.0,41.0,1.0,highway_209.jpg,highway_122.jpg,7.0,A2STRYBSFU7KCY
642,1.0,right,right,1.0,4.494,0.0,42.0,42.0,42.0,1.0,bridge_38.jpg,bridge_202.jpg,7.0,A2STRYBSFU7KCY
643,0.0,left,left,1.0,8.291,0.0,43.0,43.0,43.0,1.0,highway_415.jpg,highway_60.jpg,7.0,A2STRYBSFU7KCY
644,0.0,left,left,1.0,23.842,0.0,44.0,44.0,44.0,1.0,bridge_91.jpg,bridge_253.jpg,6.0,A2STRYBSFU7KCY
645,0.0,left,right,0.0,3.451,0.0,45.0,45.0,45.0,1.0,playground_219.jpg,playground_21.jpg,8.0,A2STRYBSFU7KCY
646,1.0,left,left,1.0,2.597,0.0,46.0,46.0,46.0,1.0,badlands_23.jpg,badlands_101.jpg,8.0,A2STRYBSFU7KCY
647,0.0,right,left,0.0,2.641,0.0,47.0,47.0,47.0,1.0,badlands_102.jpg,badlands_70.jpg,7.0,A2STRYBSFU7KCY
648,0.0,left,right,0.0,3.477,0.0,48.0,48.0,48.0,1.0,highway_245.jpg,highway_134.jpg,7.0,A2STRYBSFU7KCY
649,1.0,right,right,1.0,4.019,0.0,49.0,49.0,49.0,1.0,bridge_121.jpg,bridge_146.jpg,6.0,A2STRYBSFU7KCY
650,1.0,left,left,1.0,2.542,0.0,50.0,50.0,50.0,1.0,highway_177.jpg,highway_278.jpg,7.0,A2STRYBSFU7KCY
651,1.0,left,right,0.0,3.368,0.0,51.0,51.0,51.0,1.0,playground_145.jpg,playground_242.jpg,6.0,A2STRYBSFU7KCY
652,1.0,right,right,1.0,2.805,0.0,52.0,52.0,52.0,1.0,golf_course_26.jpg,golf_course_331.jpg,7.0,A2STRYBSFU7KCY
653,1.0,right,right,1.0,2.509,0.0,53.0,53.0,53.0,1.0,bridge_75.jpg,bridge_191.jpg,6.0,A2STRYBSFU7KCY
654,1.0,right,left,0.0,4.304,0.0,54.0,54.0,54.0,1.0,badlands_203.jpg,badlands_113.jpg,8.0,A2STRYBSFU7KCY
655,1.0,left,right,0.0,3.272,0.0,55.0,55.0,55.0,1.0,bridge_108.jpg,bridge_148.jpg,6.0,A2STRYBSFU7KCY
656,0.0,left,left,1.0,3.899,0.0,56.0,56.0,56.0,1.0,golf_course_193.jpg,golf_course_235.jpg,7.0,A2STRYBSFU7KCY
657,0.0,right,right,1.0,2.823,0.0,57.0,57.0,57.0,1.0,playground_137.jpg,playground_144.jpg,7.0,A2STRYBSFU7KCY
658,0.0,left,left,1.0,3.668,0.0,58.0,58.0,58.0,1.0,badlands_21.jpg,badlands_1.jpg,7.0,A2STRYBSFU7KCY
659,0.0,right,right,1.0,2.169,0.0,59.0,59.0,59.0,1.0,highway_204.jpg,highway_394.jpg,8.0,A2STRYBSFU7KCY
660,1.0,right,left,0.0,36.004,0.0,0.0,0.0,0.0,1.0,golf_course_123.jpg,golf_course_193.jpg,8.0,A2TQ9IHDHCSQC8
661,0.0,right,right,1.0,2.67,0.0,1.0,1.0,1.0,1.0,mountain_131.jpg,mountain_154.jpg,7.0,A2TQ9IHDHCSQC8
662,1.0,right,right,1.0,2.214,0.0,2.0,2.0,2.0,1.0,badlands_203.jpg,badlands_113.jpg,9.0,A2TQ9IHDHCSQC8
663,1.0,left,left,1.0,3.84,0.0,3.0,3.0,3.0,1.0,playground_117.jpg,playground_127.jpg,8.0,A2TQ9IHDHCSQC8
664,0.0,right,right,1.0,2.043,0.0,4.0,4.0,4.0,1.0,bridge_54.jpg,bridge_256.jpg,9.0,A2TQ9IHDHCSQC8
665,0.0,left,right,0.0,2.841,0.0,5.0,5.0,5.0,1.0,playground_145.jpg,playground_229.jpg,7.0,A2TQ9IHDHCSQC8
666,0.0,right,right,1.0,2.158,0.0,6.0,6.0,6.0,1.0,playground_21.jpg,playground_219.jpg,7.0,A2TQ9IHDHCSQC8
667,0.0,left,left,1.0,2.112,0.0,7.0,7.0,7.0,1.0,mountain_230.jpg,mountain_184.jpg,8.0,A2TQ9IHDHCSQC8
668,0.0,right,right,1.0,2.699,0.0,8.0,8.0,8.0,1.0,playground_137.jpg,playground_144.jpg,9.0,A2TQ9IHDHCSQC8
669,0.0,right,right,1.0,1.824,0.0,9.0,9.0,9.0,1.0,badlands_1.jpg,badlands_21.jpg,7.0,A2TQ9IHDHCSQC8
670,1.0,right,left,0.0,4.82,0.0,10.0,10.0,10.0,1.0,mountain_295.jpg,mountain_156.jpg,6.0,A2TQ9IHDHCSQC8
671,1.0,left,left,1.0,2.508,0.0,11.0,11.0,11.0,1.0,mountain_57.jpg,mountain_138.jpg,8.0,A2TQ9IHDHCSQC8
672,1.0,left,left,1.0,2.19,0.0,12.0,12.0,12.0,1.0,golf_course_188.jpg,golf_course_160.jpg,7.0,A2TQ9IHDHCSQC8
673,0.0,right,right,1.0,2.116,0.0,13.0,13.0,13.0,1.0,bridge_116.jpg,bridge_108.jpg,9.0,A2TQ9IHDHCSQC8
674,0.0,left,left,1.0,3.177,0.0,14.0,14.0,14.0,1.0,golf_course_331.jpg,golf_course_114.jpg,7.0,A2TQ9IHDHCSQC8
675,0.0,left,left,1.0,1.84,0.0,15.0,15.0,15.0,1.0,highway_294.jpg,highway_203.jpg,8.0,A2TQ9IHDHCSQC8
676,1.0,right,left,0.0,3.985,0.0,16.0,16.0,16.0,1.0,badlands_101.jpg,badlands_23.jpg,7.0,A2TQ9IHDHCSQC8
677,0.0,right,right,1.0,1.938,0.0,17.0,17.0,17.0,1.0,mountain_171.jpg,mountain_101.jpg,6.0,A2TQ9IHDHCSQC8
678,0.0,right,right,1.0,2.376,0.0,18.0,18.0,18.0,1.0,bridge_27.jpg,bridge_146.jpg,8.0,A2TQ9IHDHCSQC8
679,0.0,left,right,0.0,2.204,0.0,19.0,19.0,19.0,1.0,mountain_293.jpg,mountain_72.jpg,9.0,A2TQ9IHDHCSQC8
680,0.0,left,left,1.0,3.225,0.0,20.0,20.0,20.0,1.0,highway_359.jpg,highway_389.jpg,7.0,A2TQ9IHDHCSQC8
681,1.0,right,left,0.0,4.531,0.0,21.0,21.0,21.0,1.0,highway_171.jpg,highway_273.jpg,8.0,A2TQ9IHDHCSQC8
682,0.0,left,right,0.0,2.871,0.0,22.0,22.0,22.0,1.0,golf_course_214.jpg,golf_course_312.jpg,6.0,A2TQ9IHDHCSQC8
683,0.0,right,left,0.0,4.803,0.0,23.0,23.0,23.0,1.0,badlands_102.jpg,badlands_70.jpg,8.0,A2TQ9IHDHCSQC8
684,1.0,right,right,1.0,3.878,0.0,24.0,24.0,24.0,1.0,bridge_205.jpg,bridge_250.jpg,6.0,A2TQ9IHDHCSQC8
685,1.0,left,left,1.0,3.399,0.0,25.0,25.0,25.0,1.0,playground_131.jpg,playground_164.jpg,8.0,A2TQ9IHDHCSQC8
686,1.0,left,left,1.0,2.818,0.0,26.0,26.0,26.0,1.0,badlands_184.jpg,badlands_103.jpg,7.0,A2TQ9IHDHCSQC8
687,0.0,right,right,1.0,2.375,0.0,27.0,27.0,27.0,1.0,highway_85.jpg,highway_93.jpg,9.0,A2TQ9IHDHCSQC8
688,1.0,right,right,1.0,3.109,0.0,28.0,28.0,28.0,1.0,badlands_63.jpg,badlands_52.jpg,6.0,A2TQ9IHDHCSQC8
689,1.0,right,right,1.0,2.584,0.0,29.0,29.0,29.0,1.0,bridge_82.jpg,bridge_91.jpg,8.0,A2TQ9IHDHCSQC8
690,1.0,right,left,0.0,2.44,0.0,30.0,30.0,30.0,1.0,playground_244.jpg,playground_60.jpg,7.0,A2TQ9IHDHCSQC8
691,1.0,right,right,1.0,2.029,0.0,31.0,31.0,31.0,1.0,mountain_223.jpg,mountain_110.jpg,7.0,A2TQ9IHDHCSQC8
692,1.0,left,left,1.0,2.439,0.0,32.0,32.0,32.0,1.0,mountain_222.jpg,mountain_93.jpg,8.0,A2TQ9IHDHCSQC8
693,0.0,right,right,1.0,3.537,0.0,33.0,33.0,33.0,1.0,golf_course_25.jpg,golf_course_195.jpg,9.0,A2TQ9IHDHCSQC8
694,1.0,right,left,0.0,2.434,0.0,34.0,34.0,34.0,1.0,golf_course_101.jpg,golf_course_78.jpg,6.0,A2TQ9IHDHCSQC8
695,1.0,left,right,0.0,2.338,0.0,35.0,35.0,35.0,1.0,bridge_65.jpg,bridge_60.jpg,7.0,A2TQ9IHDHCSQC8
696,0.0,left,left,1.0,3.658,0.0,36.0,36.0,36.0,1.0,golf_course_309.jpg,golf_course_16.jpg,5.0,A2TQ9IHDHCSQC8
697,0.0,left,left,1.0,2.333,0.0,37.0,37.0,37.0,1.0,highway_245.jpg,highway_134.jpg,7.0,A2TQ9IHDHCSQC8
698,1.0,left,left,1.0,5.266,0.0,38.0,38.0,38.0,1.0,highway_415.jpg,highway_174.jpg,7.0,A2TQ9IHDHCSQC8
699,0.0,left,left,1.0,1.816,0.0,39.0,39.0,39.0,1.0,mountain_123.jpg,mountain_94.jpg,8.0,A2TQ9IHDHCSQC8
700,1.0,right,right,1.0,3.086,0.0,40.0,40.0,40.0,1.0,highway_122.jpg,highway_209.jpg,9.0,A2TQ9IHDHCSQC8
701,1.0,left,left,1.0,2.533,0.0,41.0,41.0,41.0,1.0,badlands_24.jpg,badlands_53.jpg,7.0,A2TQ9IHDHCSQC8
702,0.0,left,left,1.0,3.385,0.0,42.0,42.0,42.0,1.0,golf_course_217.jpg,golf_course_35.jpg,9.0,A2TQ9IHDHCSQC8
703,0.0,left,left,1.0,2.517,0.0,43.0,43.0,43.0,1.0,badlands_221.jpg,badlands_115.jpg,7.0,A2TQ9IHDHCSQC8
704,1.0,left,right,0.0,3.414,0.0,44.0,44.0,44.0,1.0,highway_156.jpg,highway_293.jpg,6.0,A2TQ9IHDHCSQC8
705,1.0,left,right,0.0,2.109,0.0,45.0,45.0,45.0,1.0,playground_240.jpg,playground_40.jpg,8.0,A2TQ9IHDHCSQC8
706,1.0,right,right,1.0,3.38,0.0,46.0,46.0,46.0,1.0,highway_278.jpg,highway_177.jpg,6.0,A2TQ9IHDHCSQC8
707,1.0,left,left,1.0,2.74,0.0,47.0,47.0,47.0,1.0,golf_course_15.jpg,golf_course_97.jpg,8.0,A2TQ9IHDHCSQC8
708,1.0,right,right,1.0,2.002,0.0,48.0,48.0,48.0,1.0,golf_course_161.jpg,golf_course_87.jpg,9.0,A2TQ9IHDHCSQC8
709,1.0,left,left,1.0,2.903,0.0,49.0,49.0,49.0,1.0,playground_10.jpg,playground_12.jpg,7.0,A2TQ9IHDHCSQC8
710,0.0,right,right,1.0,2.582,0.0,50.0,50.0,50.0,1.0,highway_204.jpg,highway_394.jpg,8.0,A2TQ9IHDHCSQC8
711,0.0,left,right,0.0,2.184,0.0,51.0,51.0,51.0,1.0,playground_257.jpg,playground_214.jpg,6.0,A2TQ9IHDHCSQC8
712,1.0,left,left,1.0,2.084,0.0,52.0,52.0,52.0,1.0,mountain_232.jpg,mountain_54.jpg,8.0,A2TQ9IHDHCSQC8
713,1.0,left,left,1.0,1.848,0.0,53.0,53.0,53.0,1.0,bridge_128.jpg,bridge_244.jpg,9.0,A2TQ9IHDHCSQC8
714,0.0,left,left,1.0,3.593,0.0,54.0,54.0,54.0,1.0,badlands_222.jpg,badlands_34.jpg,7.0,A2TQ9IHDHCSQC8
715,0.0,left,left,1.0,1.991,0.0,55.0,55.0,55.0,1.0,bridge_202.jpg,bridge_31.jpg,6.0,A2TQ9IHDHCSQC8
716,0.0,right,right,1.0,1.875,0.0,56.0,56.0,56.0,1.0,bridge_17.jpg,bridge_172.jpg,8.0,A2TQ9IHDHCSQC8
717,0.0,left,right,0.0,2.827,0.0,57.0,57.0,57.0,1.0,playground_76.jpg,playground_22.jpg,7.0,A2TQ9IHDHCSQC8
718,1.0,left,left,1.0,2.201,0.0,58.0,58.0,58.0,1.0,bridge_191.jpg,bridge_75.jpg,8.0,A2TQ9IHDHCSQC8
719,0.0,right,left,0.0,1.585,0.0,59.0,59.0,59.0,1.0,badlands_194.jpg,badlands_137.jpg,6.0,A2TQ9IHDHCSQC8
720,1.0,left,left,1.0,5.2083,0.0,0.0,0.0,0.0,1.0,golf_course_195.jpg,golf_course_2.jpg,3.0,A2UWEAIX8UZXAQ
721,1.0,left,left,1.0,3.0559,0.0,1.0,1.0,1.0,1.0,bridge_172.jpg,bridge_163.jpg,3.0,A2UWEAIX8UZXAQ
722,0.0,right,right,1.0,4.5051,0.0,2.0,2.0,2.0,1.0,bridge_253.jpg,bridge_91.jpg,2.0,A2UWEAIX8UZXAQ
723,0.0,right,right,1.0,4.2528,0.0,3.0,3.0,3.0,1.0,mountain_131.jpg,mountain_154.jpg,4.0,A2UWEAIX8UZXAQ
724,1.0,left,right,0.0,4.5359,0.0,4.0,4.0,4.0,1.0,mountain_123.jpg,mountain_189.jpg,5.0,A2UWEAIX8UZXAQ
725,1.0,right,right,1.0,2.1228,0.0,5.0,5.0,5.0,1.0,mountain_54.jpg,mountain_232.jpg,4.0,A2UWEAIX8UZXAQ
726,0.0,right,right,1.0,3.3145,0.0,6.0,6.0,6.0,1.0,badlands_34.jpg,badlands_222.jpg,4.0,A2UWEAIX8UZXAQ
727,0.0,right,right,1.0,1.8349,0.0,7.0,7.0,7.0,1.0,playground_43.jpg,playground_131.jpg,2.0,A2UWEAIX8UZXAQ
728,1.0,right,right,1.0,2.6631,0.0,8.0,8.0,8.0,1.0,bridge_148.jpg,bridge_108.jpg,3.0,A2UWEAIX8UZXAQ
729,0.0,right,right,1.0,3.1837,0.0,9.0,9.0,9.0,1.0,bridge_31.jpg,bridge_202.jpg,2.0,A2UWEAIX8UZXAQ
730,1.0,left,left,1.0,3.5846,0.0,10.0,10.0,10.0,1.0,mountain_222.jpg,mountain_93.jpg,2.0,A2UWEAIX8UZXAQ
731,1.0,right,right,1.0,6.7847,0.0,11.0,11.0,11.0,1.0,highway_278.jpg,highway_177.jpg,7.0,A2UWEAIX8UZXAQ
732,1.0,left,left,1.0,3.7995,0.0,12.0,12.0,12.0,1.0,playground_219.jpg,playground_205.jpg,5.0,A2UWEAIX8UZXAQ
733,0.0,left,left,1.0,3.0647,0.0,13.0,13.0,13.0,1.0,mountain_230.jpg,mountain_184.jpg,4.0,A2UWEAIX8UZXAQ
734,1.0,right,right,1.0,7.1929,0.0,14.0,14.0,14.0,1.0,playground_12.jpg,playground_10.jpg,7.0,A2UWEAIX8UZXAQ
735,1.0,right,right,1.0,4.5024,0.0,15.0,15.0,15.0,1.0,playground_65.jpg,playground_144.jpg,7.0,A2UWEAIX8UZXAQ
736,0.0,left,left,1.0,6.6277,0.0,16.0,16.0,16.0,1.0,badlands_137.jpg,badlands_194.jpg,7.0,A2UWEAIX8UZXAQ
737,1.0,right,right,1.0,7.2386,0.0,17.0,17.0,17.0,1.0,bridge_60.jpg,bridge_65.jpg,5.0,A2UWEAIX8UZXAQ
738,1.0,right,left,0.0,5.173,0.0,18.0,18.0,18.0,1.0,playground_127.jpg,playground_117.jpg,8.0,A2UWEAIX8UZXAQ
739,1.0,right,left,0.0,7.9696,0.0,19.0,19.0,19.0,1.0,badlands_203.jpg,badlands_113.jpg,9.0,A2UWEAIX8UZXAQ
740,0.0,right,right,1.0,4.2409,0.0,20.0,20.0,20.0,1.0,golf_course_157.jpg,golf_course_188.jpg,8.0,A2UWEAIX8UZXAQ
741,1.0,left,left,1.0,2.0056,0.0,21.0,21.0,21.0,1.0,golf_course_193.jpg,golf_course_123.jpg,5.0,A2UWEAIX8UZXAQ
742,0.0,right,right,1.0,3.6383,0.0,22.0,22.0,22.0,1.0,highway_60.jpg,highway_415.jpg,8.0,A2UWEAIX8UZXAQ
743,0.0,right,right,1.0,5.217,0.0,23.0,23.0,23.0,1.0,mountain_171.jpg,mountain_101.jpg,9.0,A2UWEAIX8UZXAQ
744,0.0,left,left,1.0,8.9131,0.0,24.0,24.0,24.0,1.0,mountain_293.jpg,mountain_72.jpg,9.0,A2UWEAIX8UZXAQ
745,1.0,left,left,1.0,5.6205,0.0,25.0,25.0,25.0,1.0,playground_145.jpg,playground_242.jpg,9.0,A2UWEAIX8UZXAQ
746,0.0,left,left,1.0,2.5384,0.0,26.0,26.0,26.0,1.0,golf_course_15.jpg,golf_course_113.jpg,8.0,A2UWEAIX8UZXAQ
747,0.0,right,right,1.0,3.604,0.0,27.0,27.0,27.0,1.0,golf_course_16.jpg,golf_course_309.jpg,8.0,A2UWEAIX8UZXAQ
748,1.0,right,right,1.0,3.1692,0.0,28.0,28.0,28.0,1.0,badlands_207.jpg,badlands_221.jpg,7.0,A2UWEAIX8UZXAQ
749,1.0,right,right,1.0,7.0695,0.0,29.0,29.0,29.0,1.0,highway_369.jpg,highway_93.jpg,9.0,A2UWEAIX8UZXAQ
750,0.0,left,left,1.0,2.6107,0.0,30.0,30.0,30.0,1.0,highway_359.jpg,highway_389.jpg,7.0,A2UWEAIX8UZXAQ
751,0.0,right,right,1.0,2.1261,0.0,31.0,31.0,31.0,1.0,highway_314.jpg,highway_209.jpg,7.0,A2UWEAIX8UZXAQ
752,0.0,left,left,1.0,2.9456,0.0,32.0,32.0,32.0,1.0,golf_course_78.jpg,golf_course_134.jpg,9.0,A2UWEAIX8UZXAQ
753,0.0,right,left,0.0,2.3483,0.0,33.0,33.0,33.0,1.0,bridge_134.jpg,bridge_250.jpg,8.0,A2UWEAIX8UZXAQ
754,1.0,right,right,1.0,3.5255,0.0,34.0,34.0,34.0,1.0,highway_206.jpg,highway_245.jpg,7.0,A2UWEAIX8UZXAQ
755,0.0,right,right,1.0,6.3694,0.0,35.0,35.0,35.0,1.0,bridge_27.jpg,bridge_146.jpg,7.0,A2UWEAIX8UZXAQ
756,1.0,right,right,1.0,2.1599,0.0,36.0,36.0,36.0,1.0,golf_course_262.jpg,golf_course_217.jpg,6.0,A2UWEAIX8UZXAQ
757,1.0,left,left,1.0,3.7368,0.0,37.0,37.0,37.0,1.0,golf_course_214.jpg,golf_course_317.jpg,9.0,A2UWEAIX8UZXAQ
758,1.0,left,left,1.0,2.5695,0.0,38.0,38.0,38.0,1.0,badlands_52.jpg,badlands_63.jpg,7.0,A2UWEAIX8UZXAQ
759,1.0,right,right,1.0,2.1048,0.0,39.0,39.0,39.0,1.0,bridge_244.jpg,bridge_128.jpg,6.0,A2UWEAIX8UZXAQ
760,1.0,left,left,1.0,2.8506,0.0,40.0,40.0,40.0,1.0,golf_course_87.jpg,golf_course_161.jpg,8.0,A2UWEAIX8UZXAQ
761,1.0,right,left,0.0,3.2017,0.0,41.0,41.0,41.0,1.0,badlands_53.jpg,badlands_24.jpg,9.0,A2UWEAIX8UZXAQ
762,0.0,right,right,1.0,3.1024,0.0,42.0,42.0,42.0,1.0,playground_2.jpg,playground_240.jpg,8.0,A2UWEAIX8UZXAQ
763,0.0,right,right,1.0,1.4844,0.0,43.0,43.0,43.0,1.0,bridge_54.jpg,bridge_256.jpg,7.0,A2UWEAIX8UZXAQ
764,0.0,left,left,1.0,4.0365,0.0,44.0,44.0,44.0,1.0,highway_394.jpg,highway_204.jpg,7.0,A2UWEAIX8UZXAQ
765,0.0,left,left,1.0,2.1071,0.0,45.0,45.0,45.0,1.0,golf_course_331.jpg,golf_course_114.jpg,5.0,A2UWEAIX8UZXAQ
766,1.0,right,right,1.0,4.0708,0.0,46.0,46.0,46.0,1.0,mountain_223.jpg,mountain_110.jpg,8.0,A2UWEAIX8UZXAQ
767,0.0,right,right,1.0,7.8425,0.0,47.0,47.0,47.0,1.0,playground_22.jpg,playground_76.jpg,9.0,A2UWEAIX8UZXAQ
768,1.0,right,right,1.0,1.9883,0.0,48.0,48.0,48.0,1.0,badlands_119.jpg,badlands_70.jpg,7.0,A2UWEAIX8UZXAQ
769,1.0,left,right,0.0,4.2405,0.0,49.0,49.0,49.0,1.0,highway_294.jpg,highway_368.jpg,9.0,A2UWEAIX8UZXAQ
770,0.0,left,left,1.0,1.9349,0.0,50.0,50.0,50.0,1.0,badlands_21.jpg,badlands_1.jpg,8.0,A2UWEAIX8UZXAQ
771,0.0,left,right,0.0,2.5021,0.0,51.0,51.0,51.0,1.0,badlands_23.jpg,badlands_114.jpg,8.0,A2UWEAIX8UZXAQ
772,0.0,right,right,1.0,2.452,0.0,52.0,52.0,52.0,1.0,playground_214.jpg,playground_257.jpg,8.0,A2UWEAIX8UZXAQ
773,0.0,right,right,1.0,2.2165,0.0,53.0,53.0,53.0,1.0,mountain_193.jpg,mountain_57.jpg,8.0,A2UWEAIX8UZXAQ
774,0.0,left,left,1.0,3.6431,0.0,54.0,54.0,54.0,1.0,badlands_184.jpg,badlands_228.jpg,9.0,A2UWEAIX8UZXAQ
775,1.0,right,right,1.0,3.9022,0.0,55.0,55.0,55.0,1.0,bridge_75.jpg,bridge_191.jpg,7.0,A2UWEAIX8UZXAQ
776,0.0,right,right,1.0,3.685,0.0,56.0,56.0,56.0,1.0,highway_384.jpg,highway_273.jpg,7.0,A2UWEAIX8UZXAQ
777,1.0,left,left,1.0,2.486,0.0,57.0,57.0,57.0,1.0,mountain_156.jpg,mountain_295.jpg,7.0,A2UWEAIX8UZXAQ
778,0.0,right,right,1.0,5.0023,0.0,58.0,58.0,58.0,1.0,playground_268.jpg,playground_60.jpg,7.0,A2UWEAIX8UZXAQ
779,1.0,right,right,1.0,6.5063,0.0,59.0,59.0,59.0,1.0,highway_293.jpg,highway_156.jpg,9.0,A2UWEAIX8UZXAQ
780,1.0,right,right,1.0,3.343,0.0,0.0,0.0,0.0,1.0,bridge_244.jpg,bridge_128.jpg,8.0,A32X8WXMIV4KE8
781,1.0,left,right,0.0,2.879,0.0,1.0,1.0,1.0,1.0,highway_245.jpg,highway_206.jpg,7.0,A32X8WXMIV4KE8
782,0.0,right,right,1.0,5.35,0.0,2.0,2.0,2.0,1.0,mountain_184.jpg,mountain_230.jpg,2.0,A32X8WXMIV4KE8
783,1.0,right,left,0.0,4.101,0.0,3.0,3.0,3.0,1.0,badlands_119.jpg,badlands_70.jpg,6.0,A32X8WXMIV4KE8
784,0.0,right,right,1.0,3.272,0.0,4.0,4.0,4.0,1.0,golf_course_130.jpg,golf_course_87.jpg,7.0,A32X8WXMIV4KE8
785,0.0,right,left,0.0,4.782,0.0,5.0,5.0,5.0,1.0,playground_229.jpg,playground_145.jpg,5.0,A32X8WXMIV4KE8
786,1.0,right,right,1.0,3.276,0.0,6.0,6.0,6.0,1.0,golf_course_209.jpg,golf_course_309.jpg,7.0,A32X8WXMIV4KE8
787,0.0,left,right,0.0,4.134,0.0,7.0,7.0,7.0,1.0,badlands_21.jpg,badlands_1.jpg,9.0,A32X8WXMIV4KE8
788,0.0,left,right,0.0,8.496,0.0,8.0,8.0,8.0,1.0,golf_course_217.jpg,golf_course_35.jpg,6.0,A32X8WXMIV4KE8
789,1.0,left,left,1.0,4.391,0.0,9.0,9.0,9.0,1.0,bridge_256.jpg,bridge_211.jpg,5.0,A32X8WXMIV4KE8
790,0.0,left,left,1.0,2.822,0.0,10.0,10.0,10.0,1.0,mountain_101.jpg,mountain_171.jpg,3.0,A32X8WXMIV4KE8
791,0.0,left,left,1.0,2.733,0.0,11.0,11.0,11.0,1.0,playground_144.jpg,playground_137.jpg,8.0,A32X8WXMIV4KE8
792,1.0,right,left,0.0,4.748,0.0,12.0,12.0,12.0,1.0,bridge_148.jpg,bridge_108.jpg,6.0,A32X8WXMIV4KE8
793,0.0,left,left,1.0,4.253,0.0,13.0,13.0,13.0,1.0,mountain_156.jpg,mountain_128.jpg,8.0,A32X8WXMIV4KE8
794,1.0,left,left,1.0,5.428,0.0,14.0,14.0,14.0,1.0,highway_415.jpg,highway_174.jpg,8.0,A32X8WXMIV4KE8
795,1.0,left,right,0.0,4.424,0.0,15.0,15.0,15.0,1.0,mountain_154.jpg,mountain_95.jpg,8.0,A32X8WXMIV4KE8
796,1.0,left,right,0.0,4.23,0.0,16.0,16.0,16.0,1.0,mountain_57.jpg,mountain_138.jpg,3.0,A32X8WXMIV4KE8
797,1.0,right,left,0.0,3.098,0.0,17.0,17.0,17.0,1.0,golf_course_2.jpg,golf_course_195.jpg,5.0,A32X8WXMIV4KE8
798,1.0,right,right,1.0,5.927,0.0,18.0,18.0,18.0,1.0,golf_course_317.jpg,golf_course_214.jpg,8.0,A32X8WXMIV4KE8
799,1.0,right,right,1.0,5.169,0.0,19.0,19.0,19.0,1.0,highway_122.jpg,highway_209.jpg,7.0,A32X8WXMIV4KE8
800,0.0,right,right,1.0,2.247,0.0,20.0,20.0,20.0,1.0,badlands_3.jpg,badlands_24.jpg,8.0,A32X8WXMIV4KE8
801,1.0,right,right,1.0,4.262,0.0,21.0,21.0,21.0,1.0,mountain_93.jpg,mountain_222.jpg,6.0,A32X8WXMIV4KE8
802,0.0,right,right,1.0,2.754,0.0,22.0,22.0,22.0,1.0,playground_2.jpg,playground_240.jpg,8.0,A32X8WXMIV4KE8
803,0.0,right,right,1.0,2.37,0.0,23.0,23.0,23.0,1.0,highway_204.jpg,highway_394.jpg,8.0,A32X8WXMIV4KE8
804,1.0,left,right,0.0,4.739,0.0,24.0,24.0,24.0,1.0,playground_219.jpg,playground_205.jpg,4.0,A32X8WXMIV4KE8
805,0.0,right,left,0.0,2.68,0.0,25.0,25.0,25.0,1.0,badlands_194.jpg,badlands_137.jpg,6.0,A32X8WXMIV4KE8
806,0.0,right,right,1.0,3.529,0.0,26.0,26.0,26.0,1.0,playground_43.jpg,playground_131.jpg,7.0,A32X8WXMIV4KE8
807,0.0,left,left,1.0,5.282,0.0,27.0,27.0,27.0,1.0,badlands_222.jpg,badlands_34.jpg,5.0,A32X8WXMIV4KE8
808,1.0,left,left,1.0,5.684,0.0,28.0,28.0,28.0,1.0,mountain_110.jpg,mountain_223.jpg,6.0,A32X8WXMIV4KE8
809,1.0,right,right,1.0,3.71,0.0,29.0,29.0,29.0,1.0,badlands_63.jpg,badlands_52.jpg,7.0,A32X8WXMIV4KE8
810,1.0,left,left,1.0,4.021,0.0,30.0,30.0,30.0,1.0,highway_177.jpg,highway_278.jpg,2.0,A32X8WXMIV4KE8
811,1.0,left,right,0.0,2.538,0.0,31.0,31.0,31.0,1.0,playground_60.jpg,playground_244.jpg,7.0,A32X8WXMIV4KE8
812,1.0,right,right,1.0,3.749,0.0,32.0,32.0,32.0,1.0,playground_72.jpg,playground_76.jpg,6.0,A32X8WXMIV4KE8
813,0.0,right,left,0.0,3.157,0.0,33.0,33.0,33.0,1.0,badlands_228.jpg,badlands_184.jpg,6.0,A32X8WXMIV4KE8
814,0.0,left,left,1.0,4.563,0.0,34.0,34.0,34.0,1.0,bridge_202.jpg,bridge_31.jpg,7.0,A32X8WXMIV4KE8
815,0.0,right,right,1.0,3.552,0.0,35.0,35.0,35.0,1.0,bridge_27.jpg,bridge_146.jpg,8.0,A32X8WXMIV4KE8
816,0.0,right,right,1.0,3.534,0.0,36.0,36.0,36.0,1.0,bridge_181.jpg,bridge_65.jpg,5.0,A32X8WXMIV4KE8
817,1.0,left,right,0.0,3.173,0.0,37.0,37.0,37.0,1.0,mountain_123.jpg,mountain_189.jpg,6.0,A32X8WXMIV4KE8
818,0.0,left,left,1.0,6.901,0.0,38.0,38.0,38.0,1.0,highway_273.jpg,highway_384.jpg,4.0,A32X8WXMIV4KE8
819,1.0,right,right,1.0,4.277,0.0,39.0,39.0,39.0,1.0,playground_215.jpg,playground_257.jpg,4.0,A32X8WXMIV4KE8
820,0.0,left,left,1.0,2.633,0.0,40.0,40.0,40.0,1.0,mountain_293.jpg,mountain_72.jpg,5.0,A32X8WXMIV4KE8
821,1.0,left,left,1.0,2.687,0.0,41.0,41.0,41.0,1.0,bridge_172.jpg,bridge_163.jpg,7.0,A32X8WXMIV4KE8
822,1.0,right,right,1.0,2.385,0.0,42.0,42.0,42.0,1.0,bridge_205.jpg,bridge_250.jpg,7.0,A32X8WXMIV4KE8
823,0.0,right,right,1.0,2.1,0.0,43.0,43.0,43.0,1.0,mountain_3.jpg,mountain_232.jpg,7.0,A32X8WXMIV4KE8
824,0.0,left,left,1.0,4.635,0.0,44.0,44.0,44.0,1.0,bridge_91.jpg,bridge_253.jpg,8.0,A32X8WXMIV4KE8
825,0.0,right,left,0.0,3.954,0.0,45.0,45.0,45.0,1.0,golf_course_134.jpg,golf_course_78.jpg,6.0,A32X8WXMIV4KE8
826,0.0,left,left,1.0,4.005,0.0,46.0,46.0,46.0,1.0,highway_359.jpg,highway_389.jpg,7.0,A32X8WXMIV4KE8
827,1.0,right,right,1.0,7.931,0.0,47.0,47.0,47.0,1.0,highway_368.jpg,highway_294.jpg,4.0,A32X8WXMIV4KE8
828,1.0,left,right,0.0,5.143,0.0,48.0,48.0,48.0,1.0,golf_course_193.jpg,golf_course_123.jpg,5.0,A32X8WXMIV4KE8
829,1.0,right,right,1.0,3.777,0.0,49.0,49.0,49.0,1.0,badlands_207.jpg,badlands_221.jpg,3.0,A32X8WXMIV4KE8
830,0.0,left,left,1.0,2.454,0.0,50.0,50.0,50.0,1.0,bridge_191.jpg,bridge_184.jpg,8.0,A32X8WXMIV4KE8
831,1.0,right,right,1.0,3.11,0.0,51.0,51.0,51.0,1.0,playground_127.jpg,playground_117.jpg,8.0,A32X8WXMIV4KE8
832,0.0,left,right,0.0,3.65,0.0,52.0,52.0,52.0,1.0,highway_156.jpg,highway_160.jpg,7.0,A32X8WXMIV4KE8
833,0.0,right,right,1.0,2.527,0.0,53.0,53.0,53.0,1.0,highway_85.jpg,highway_93.jpg,8.0,A32X8WXMIV4KE8
834,1.0,right,right,1.0,3.958,0.0,54.0,54.0,54.0,1.0,golf_course_97.jpg,golf_course_15.jpg,6.0,A32X8WXMIV4KE8
835,0.0,left,right,0.0,5.851,0.0,55.0,55.0,55.0,1.0,playground_10.jpg,playground_122.jpg,7.0,A32X8WXMIV4KE8
836,1.0,left,left,1.0,4.541,0.0,56.0,56.0,56.0,1.0,badlands_113.jpg,badlands_203.jpg,7.0,A32X8WXMIV4KE8
837,1.0,right,right,1.0,5.088,0.0,57.0,57.0,57.0,1.0,badlands_101.jpg,badlands_23.jpg,3.0,A32X8WXMIV4KE8
838,0.0,right,right,1.0,4.543,0.0,58.0,58.0,58.0,1.0,golf_course_157.jpg,golf_course_188.jpg,6.0,A32X8WXMIV4KE8
839,0.0,right,right,1.0,3.04,0.0,59.0,59.0,59.0,1.0,golf_course_114.jpg,golf_course_331.jpg,7.0,A32X8WXMIV4KE8
840,1.0,left,left,1.0,5.1675,0.0,0.0,0.0,0.0,1.0,playground_144.jpg,playground_65.jpg,7.0,A39XW0561NNM5C
841,1.0,right,right,1.0,1.0125,0.0,1.0,1.0,1.0,1.0,bridge_82.jpg,bridge_91.jpg,7.0,A39XW0561NNM5C
842,0.0,right,right,1.0,1.0617,0.0,2.0,2.0,2.0,1.0,badlands_1.jpg,badlands_21.jpg,7.0,A39XW0561NNM5C
843,0.0,left,right,0.0,1.2279,0.0,3.0,3.0,3.0,1.0,highway_245.jpg,highway_134.jpg,7.0,A39XW0561NNM5C
844,1.0,right,left,0.0,0.8049,0.0,4.0,4.0,4.0,1.0,highway_174.jpg,highway_415.jpg,7.0,A39XW0561NNM5C
845,0.0,right,left,0.0,0.0197,0.0,5.0,5.0,5.0,1.0,highway_384.jpg,highway_273.jpg,7.0,A39XW0561NNM5C
846,0.0,left,left,1.0,0.9899,0.0,6.0,6.0,6.0,1.0,bridge_108.jpg,bridge_116.jpg,7.0,A39XW0561NNM5C
847,1.0,left,left,1.0,1.1012,0.0,7.0,7.0,7.0,1.0,mountain_293.jpg,mountain_47.jpg,7.0,A39XW0561NNM5C
848,0.0,left,left,1.0,0.8832,0.0,8.0,8.0,8.0,1.0,badlands_221.jpg,badlands_115.jpg,7.0,A39XW0561NNM5C
849,1.0,left,left,1.0,0.7122,0.0,9.0,9.0,9.0,1.0,golf_course_214.jpg,golf_course_317.jpg,7.0,A39XW0561NNM5C
850,0.0,right,left,0.0,0.145,0.0,10.0,10.0,10.0,1.0,playground_229.jpg,playground_145.jpg,7.0,A39XW0561NNM5C
851,0.0,right,left,0.0,0.8541,0.0,11.0,11.0,11.0,1.0,mountain_131.jpg,mountain_154.jpg,7.0,A39XW0561NNM5C
852,0.0,right,left,0.0,0.6884,0.0,12.0,12.0,12.0,1.0,golf_course_157.jpg,golf_course_188.jpg,7.0,A39XW0561NNM5C
853,1.0,left,left,1.0,0.9381,0.0,13.0,13.0,13.0,1.0,bridge_65.jpg,bridge_60.jpg,7.0,A39XW0561NNM5C
854,1.0,right,left,0.0,0.7006,0.0,14.0,14.0,14.0,1.0,mountain_93.jpg,mountain_222.jpg,7.0,A39XW0561NNM5C
855,0.0,left,left,1.0,1.1453,0.0,15.0,15.0,15.0,1.0,playground_240.jpg,playground_2.jpg,7.0,A39XW0561NNM5C
856,1.0,left,left,1.0,1.0257,0.0,16.0,16.0,16.0,1.0,playground_60.jpg,playground_244.jpg,7.0,A39XW0561NNM5C
857,0.0,left,left,1.0,6.1923,0.0,17.0,17.0,17.0,1.0,bridge_202.jpg,bridge_31.jpg,8.0,A39XW0561NNM5C
858,0.0,left,left,1.0,4.0508,0.0,18.0,18.0,18.0,1.0,badlands_23.jpg,badlands_114.jpg,8.0,A39XW0561NNM5C
859,0.0,right,left,0.0,1.2427,0.0,19.0,19.0,19.0,1.0,golf_course_16.jpg,golf_course_309.jpg,8.0,A39XW0561NNM5C
860,1.0,left,left,1.0,0.0268,0.0,20.0,20.0,20.0,1.0,highway_93.jpg,highway_369.jpg,8.0,A39XW0561NNM5C
861,0.0,left,left,1.0,0.3978,0.0,21.0,21.0,21.0,1.0,playground_76.jpg,playground_22.jpg,8.0,A39XW0561NNM5C
862,0.0,left,left,1.0,0.3222,0.0,22.0,22.0,22.0,1.0,playground_257.jpg,playground_214.jpg,8.0,A39XW0561NNM5C
863,1.0,right,left,0.0,1.0227,0.0,23.0,23.0,23.0,1.0,mountain_97.jpg,mountain_230.jpg,8.0,A39XW0561NNM5C
864,1.0,right,left,0.0,0.9873,0.0,24.0,24.0,24.0,1.0,highway_293.jpg,highway_156.jpg,8.0,A39XW0561NNM5C
865,0.0,right,left,0.0,0.8744,0.0,25.0,25.0,25.0,1.0,mountain_3.jpg,mountain_232.jpg,8.0,A39XW0561NNM5C
866,1.0,right,left,0.0,0.4567,0.0,26.0,26.0,26.0,1.0,golf_course_97.jpg,golf_course_15.jpg,8.0,A39XW0561NNM5C
867,1.0,left,left,1.0,1.9101,0.0,27.0,27.0,27.0,1.0,badlands_113.jpg,badlands_203.jpg,8.0,A39XW0561NNM5C
868,0.0,left,left,1.0,1.0628,0.0,28.0,28.0,28.0,1.0,golf_course_217.jpg,golf_course_35.jpg,8.0,A39XW0561NNM5C
869,1.0,left,left,1.0,1.2354,0.0,29.0,29.0,29.0,1.0,highway_394.jpg,highway_406.jpg,8.0,A39XW0561NNM5C
870,0.0,right,left,0.0,1.2357,0.0,30.0,30.0,30.0,1.0,playground_43.jpg,playground_131.jpg,8.0,A39XW0561NNM5C
871,0.0,left,left,1.0,1.0376,0.0,31.0,31.0,31.0,1.0,highway_359.jpg,highway_389.jpg,8.0,A39XW0561NNM5C
872,0.0,right,left,0.0,2.7722,0.0,32.0,32.0,32.0,1.0,mountain_94.jpg,mountain_123.jpg,8.0,A39XW0561NNM5C
873,0.0,left,left,1.0,1.2791,0.0,33.0,33.0,33.0,1.0,golf_course_331.jpg,golf_course_114.jpg,8.0,A39XW0561NNM5C
874,1.0,right,left,0.0,1.5412,0.0,34.0,34.0,34.0,1.0,golf_course_2.jpg,golf_course_195.jpg,8.0,A39XW0561NNM5C
875,0.0,left,left,1.0,4.0953,0.0,35.0,35.0,35.0,1.0,mountain_57.jpg,mountain_193.jpg,8.0,A39XW0561NNM5C
876,1.0,right,left,0.0,1.2524,0.0,36.0,36.0,36.0,1.0,badlands_119.jpg,badlands_70.jpg,8.0,A39XW0561NNM5C
877,1.0,right,left,0.0,0.9145,0.0,37.0,37.0,37.0,1.0,golf_course_123.jpg,golf_course_193.jpg,8.0,A39XW0561NNM5C
878,0.0,left,left,1.0,1.0839,0.0,38.0,38.0,38.0,1.0,bridge_250.jpg,bridge_134.jpg,8.0,A39XW0561NNM5C
879,0.0,left,left,1.0,0.8166,0.0,39.0,39.0,39.0,1.0,highway_177.jpg,highway_87.jpg,8.0,A39XW0561NNM5C
880,0.0,left,left,1.0,0.7993,0.0,40.0,40.0,40.0,1.0,bridge_191.jpg,bridge_184.jpg,8.0,A39XW0561NNM5C
881,1.0,left,left,1.0,0.8218,0.0,41.0,41.0,41.0,1.0,bridge_256.jpg,bridge_211.jpg,8.0,A39XW0561NNM5C
882,1.0,left,left,1.0,0.8199,0.0,42.0,42.0,42.0,1.0,bridge_146.jpg,bridge_121.jpg,8.0,A39XW0561NNM5C
883,0.0,right,left,0.0,1.1502,0.0,43.0,43.0,43.0,1.0,golf_course_134.jpg,golf_course_78.jpg,8.0,A39XW0561NNM5C
884,1.0,right,left,0.0,0.8246,0.0,44.0,44.0,44.0,1.0,mountain_295.jpg,mountain_156.jpg,8.0,A39XW0561NNM5C
885,0.0,left,left,1.0,0.9005,0.0,45.0,45.0,45.0,1.0,badlands_52.jpg,badlands_94.jpg,8.0,A39XW0561NNM5C
886,1.0,right,right,1.0,0.9957,0.0,46.0,46.0,46.0,1.0,mountain_221.jpg,mountain_101.jpg,8.0,A39XW0561NNM5C
887,1.0,left,left,1.0,0.9455,0.0,47.0,47.0,47.0,1.0,highway_294.jpg,highway_368.jpg,8.0,A39XW0561NNM5C
888,1.0,left,left,1.0,1.0138,0.0,48.0,48.0,48.0,1.0,golf_course_87.jpg,golf_course_161.jpg,8.0,A39XW0561NNM5C
889,1.0,left,right,0.0,0.8557,0.0,49.0,49.0,49.0,1.0,playground_219.jpg,playground_205.jpg,8.0,A39XW0561NNM5C
890,1.0,right,left,0.0,1.426,0.0,50.0,50.0,50.0,1.0,playground_12.jpg,playground_10.jpg,8.0,A39XW0561NNM5C
891,0.0,right,left,0.0,0.8934,0.0,51.0,51.0,51.0,1.0,bridge_17.jpg,bridge_172.jpg,8.0,A39XW0561NNM5C
892,1.0,right,right,1.0,0.4717,0.0,52.0,52.0,52.0,1.0,bridge_244.jpg,bridge_128.jpg,8.0,A39XW0561NNM5C
893,0.0,right,left,0.0,0.6427,0.0,53.0,53.0,53.0,1.0,mountain_157.jpg,mountain_110.jpg,8.0,A39XW0561NNM5C
894,1.0,left,left,1.0,0.3116,0.0,54.0,54.0,54.0,1.0,playground_117.jpg,playground_127.jpg,8.0,A39XW0561NNM5C
895,0.0,left,left,1.0,0.6006,0.0,55.0,55.0,55.0,1.0,badlands_137.jpg,badlands_194.jpg,8.0,A39XW0561NNM5C
896,1.0,right,left,0.0,1.1767,0.0,56.0,56.0,56.0,1.0,badlands_62.jpg,badlands_222.jpg,8.0,A39XW0561NNM5C
897,0.0,right,left,0.0,0.1324,0.0,57.0,57.0,57.0,1.0,highway_314.jpg,highway_209.jpg,8.0,A39XW0561NNM5C
898,1.0,right,left,0.0,0.1299,0.0,58.0,58.0,58.0,1.0,badlands_103.jpg,badlands_184.jpg,8.0,A39XW0561NNM5C
899,1.0,left,left,1.0,0.1658,0.0,59.0,59.0,59.0,1.0,badlands_24.jpg,badlands_53.jpg,8.0,A39XW0561NNM5C
900,1.0,right,left,0.0,2.372,0.0,0.0,0.0,0.0,1.0,badlands_207.jpg,badlands_221.jpg,7.0,A3ATB5GC4BQIH0
901,0.0,left,right,0.0,4.234,0.0,1.0,1.0,1.0,1.0,mountain_57.jpg,mountain_193.jpg,7.0,A3ATB5GC4BQIH0
902,1.0,right,right,1.0,4.225,0.0,2.0,2.0,2.0,1.0,playground_164.jpg,playground_131.jpg,8.0,A3ATB5GC4BQIH0
903,1.0,left,left,1.0,3.19,0.0,3.0,3.0,3.0,1.0,golf_course_78.jpg,golf_course_101.jpg,8.0,A3ATB5GC4BQIH0
904,0.0,left,left,1.0,2.986,0.0,4.0,4.0,4.0,1.0,playground_117.jpg,playground_167.jpg,7.0,A3ATB5GC4BQIH0
905,0.0,right,right,1.0,2.711,0.0,5.0,5.0,5.0,1.0,mountain_184.jpg,mountain_230.jpg,6.0,A3ATB5GC4BQIH0
906,1.0,left,right,0.0,2.182,0.0,6.0,6.0,6.0,1.0,highway_294.jpg,highway_368.jpg,8.0,A3ATB5GC4BQIH0
907,1.0,left,left,1.0,2.732,0.0,7.0,7.0,7.0,1.0,bridge_128.jpg,bridge_244.jpg,5.0,A3ATB5GC4BQIH0
908,0.0,right,left,0.0,9.573,0.0,8.0,8.0,8.0,1.0,mountain_94.jpg,mountain_123.jpg,5.0,A3ATB5GC4BQIH0
909,0.0,right,left,0.0,4.024,0.0,9.0,9.0,9.0,1.0,badlands_194.jpg,badlands_137.jpg,6.0,A3ATB5GC4BQIH0
910,1.0,left,left,1.0,3.762,0.0,10.0,10.0,10.0,1.0,badlands_113.jpg,badlands_203.jpg,8.0,A3ATB5GC4BQIH0
911,0.0,left,left,1.0,2.974,0.0,11.0,11.0,11.0,1.0,highway_209.jpg,highway_314.jpg,8.0,A3ATB5GC4BQIH0
912,1.0,right,right,1.0,1.972,0.0,12.0,12.0,12.0,1.0,mountain_47.jpg,mountain_293.jpg,8.0,A3ATB5GC4BQIH0
913,1.0,left,right,0.0,5.22,0.0,13.0,13.0,13.0,1.0,highway_245.jpg,highway_206.jpg,8.0,A3ATB5GC4BQIH0
914,1.0,right,right,1.0,2.145,0.0,14.0,14.0,14.0,1.0,badlands_63.jpg,badlands_52.jpg,8.0,A3ATB5GC4BQIH0
915,0.0,right,right,1.0,2.731,0.0,15.0,15.0,15.0,1.0,golf_course_113.jpg,golf_course_15.jpg,7.0,A3ATB5GC4BQIH0
916,1.0,left,right,0.0,2.144,0.0,16.0,16.0,16.0,1.0,golf_course_188.jpg,golf_course_160.jpg,7.0,A3ATB5GC4BQIH0
917,1.0,right,right,1.0,3.495,0.0,17.0,17.0,17.0,1.0,golf_course_123.jpg,golf_course_193.jpg,8.0,A3ATB5GC4BQIH0
918,0.0,right,left,0.0,2.032,0.0,18.0,18.0,18.0,1.0,badlands_228.jpg,badlands_184.jpg,7.0,A3ATB5GC4BQIH0
919,1.0,left,left,1.0,3.63,0.0,19.0,19.0,19.0,1.0,playground_10.jpg,playground_12.jpg,7.0,A3ATB5GC4BQIH0
920,0.0,right,right,1.0,17.261,0.0,20.0,20.0,20.0,1.0,badlands_1.jpg,badlands_21.jpg,7.0,A3ATB5GC4BQIH0
921,1.0,right,right,1.0,4.717,0.0,21.0,21.0,21.0,1.0,bridge_38.jpg,bridge_202.jpg,7.0,A3ATB5GC4BQIH0
922,0.0,left,left,1.0,3.346,0.0,22.0,22.0,22.0,1.0,golf_course_331.jpg,golf_course_114.jpg,6.0,A3ATB5GC4BQIH0
923,0.0,right,right,1.0,1.383,0.0,23.0,23.0,23.0,1.0,highway_204.jpg,highway_394.jpg,7.0,A3ATB5GC4BQIH0
924,1.0,left,right,0.0,2.576,0.0,24.0,24.0,24.0,1.0,mountain_156.jpg,mountain_295.jpg,7.0,A3ATB5GC4BQIH0
925,0.0,right,right,1.0,1.582,0.0,25.0,25.0,25.0,1.0,badlands_102.jpg,badlands_70.jpg,7.0,A3ATB5GC4BQIH0
926,1.0,right,right,1.0,3.677,0.0,26.0,26.0,26.0,1.0,bridge_82.jpg,bridge_91.jpg,5.0,A3ATB5GC4BQIH0
927,0.0,right,right,1.0,2.325,0.0,27.0,27.0,27.0,1.0,mountain_157.jpg,mountain_110.jpg,7.0,A3ATB5GC4BQIH0
928,1.0,left,left,1.0,2.502,0.0,28.0,28.0,28.0,1.0,mountain_101.jpg,mountain_221.jpg,7.0,A3ATB5GC4BQIH0
929,0.0,right,right,1.0,2.97,0.0,29.0,29.0,29.0,1.0,golf_course_25.jpg,golf_course_195.jpg,8.0,A3ATB5GC4BQIH0
930,0.0,left,left,1.0,2.326,0.0,30.0,30.0,30.0,1.0,golf_course_217.jpg,golf_course_35.jpg,7.0,A3ATB5GC4BQIH0
931,0.0,left,left,1.0,3.683,0.0,31.0,31.0,31.0,1.0,highway_177.jpg,highway_87.jpg,8.0,A3ATB5GC4BQIH0
932,1.0,left,left,1.0,2.978,0.0,32.0,32.0,32.0,1.0,golf_course_87.jpg,golf_course_161.jpg,7.0,A3ATB5GC4BQIH0
933,0.0,left,right,0.0,4.586,0.0,33.0,33.0,33.0,1.0,bridge_108.jpg,bridge_116.jpg,6.0,A3ATB5GC4BQIH0
934,1.0,left,left,1.0,3.782,0.0,34.0,34.0,34.0,1.0,badlands_222.jpg,badlands_62.jpg,8.0,A3ATB5GC4BQIH0
935,1.0,left,right,0.0,4.296,0.0,35.0,35.0,35.0,1.0,highway_359.jpg,highway_379.jpg,7.0,A3ATB5GC4BQIH0
936,0.0,right,right,1.0,2.344,0.0,36.0,36.0,36.0,1.0,highway_60.jpg,highway_415.jpg,8.0,A3ATB5GC4BQIH0
937,0.0,left,right,0.0,3.306,0.0,37.0,37.0,37.0,1.0,badlands_23.jpg,badlands_114.jpg,8.0,A3ATB5GC4BQIH0
938,1.0,right,left,0.0,4.962,0.0,38.0,38.0,38.0,1.0,bridge_163.jpg,bridge_172.jpg,7.0,A3ATB5GC4BQIH0
939,1.0,left,left,1.0,1.978,0.0,39.0,39.0,39.0,1.0,mountain_232.jpg,mountain_54.jpg,7.0,A3ATB5GC4BQIH0
940,1.0,right,left,0.0,3.321,0.0,40.0,40.0,40.0,1.0,highway_171.jpg,highway_273.jpg,8.0,A3ATB5GC4BQIH0
941,1.0,right,left,0.0,3.63,0.0,41.0,41.0,41.0,1.0,badlands_53.jpg,badlands_24.jpg,6.0,A3ATB5GC4BQIH0
942,0.0,right,left,0.0,4.199,0.0,42.0,42.0,42.0,1.0,bridge_54.jpg,bridge_256.jpg,5.0,A3ATB5GC4BQIH0
943,1.0,right,right,1.0,2.942,0.0,43.0,43.0,43.0,1.0,playground_215.jpg,playground_257.jpg,5.0,A3ATB5GC4BQIH0
944,1.0,right,right,1.0,2.945,0.0,44.0,44.0,44.0,1.0,mountain_95.jpg,mountain_154.jpg,7.0,A3ATB5GC4BQIH0
945,1.0,right,right,1.0,2.323,0.0,45.0,45.0,45.0,1.0,golf_course_317.jpg,golf_course_214.jpg,8.0,A3ATB5GC4BQIH0
946,1.0,left,left,1.0,4.017,0.0,46.0,46.0,46.0,1.0,bridge_191.jpg,bridge_75.jpg,8.0,A3ATB5GC4BQIH0
947,0.0,right,right,1.0,2.601,0.0,47.0,47.0,47.0,1.0,bridge_27.jpg,bridge_146.jpg,8.0,A3ATB5GC4BQIH0
948,0.0,left,left,1.0,4.045,0.0,48.0,48.0,48.0,1.0,playground_76.jpg,playground_22.jpg,7.0,A3ATB5GC4BQIH0
949,0.0,left,right,0.0,3.495,0.0,49.0,49.0,49.0,1.0,bridge_250.jpg,bridge_134.jpg,8.0,A3ATB5GC4BQIH0
950,0.0,right,left,0.0,2.698,0.0,50.0,50.0,50.0,1.0,playground_229.jpg,playground_145.jpg,6.0,A3ATB5GC4BQIH0
