,index,test_encoding_response.keys,test_encoding_response.corr,trials.thisTrialN,target,correct,test_encoding_response.rt,key_resp_end.keys,subject
0,20,,1.0,0.0,badlands_70.jpg,,,,A105M4JOZSR7E6
1,21,,1.0,1.0,highway_394.jpg,,,,A105M4JOZSR7E6
2,22,,1.0,2.0,bridge_191.jpg,,,,A105M4JOZSR7E6
3,23,,1.0,3.0,bridge_250.jpg,,,,A105M4JOZSR7E6
4,24,,1.0,4.0,bridge_256.jpg,,,,A105M4JOZSR7E6
5,25,,1.0,5.0,bridge_146.jpg,,,,A105M4JOZSR7E6
6,26,,0.0,6.0,right.jpg,right,,,A105M4JOZSR7E6
7,27,,1.0,7.0,golf_course_87.jpg,,,,A105M4JOZSR7E6
8,28,,1.0,8.0,highway_177.jpg,,,,A105M4JOZSR7E6
9,29,,1.0,9.0,playground_144.jpg,,,,A105M4JOZSR7E6
10,30,,1.0,10.0,badlands_184.jpg,,,,A105M4JOZSR7E6
11,31,,1.0,11.0,highway_415.jpg,,,,A105M4JOZSR7E6
12,32,,1.0,12.0,playground_145.jpg,,,,A105M4JOZSR7E6
13,33,,1.0,13.0,badlands_52.jpg,,,,A105M4JOZSR7E6
14,34,,1.0,14.0,badlands_222.jpg,,,,A105M4JOZSR7E6
15,35,,1.0,15.0,highway_245.jpg,,,,A105M4JOZSR7E6
16,36,,1.0,16.0,mountain_110.jpg,,,,A105M4JOZSR7E6
17,37,,1.0,17.0,mountain_123.jpg,,,,A105M4JOZSR7E6
18,38,left,1.0,18.0,left.jpg,left,0.996,,A105M4JOZSR7E6
19,39,,1.0,19.0,mountain_57.jpg,,,,A105M4JOZSR7E6
20,40,,1.0,20.0,playground_60.jpg,,,,A105M4JOZSR7E6
21,41,,1.0,21.0,bridge_108.jpg,,,,A105M4JOZSR7E6
22,42,,1.0,22.0,mountain_101.jpg,,,,A105M4JOZSR7E6
23,43,,1.0,23.0,highway_359.jpg,,,,A105M4JOZSR7E6
24,44,,1.0,24.0,golf_course_15.jpg,,,,A105M4JOZSR7E6
25,45,,1.0,25.0,mountain_230.jpg,,,,A105M4JOZSR7E6
26,46,,1.0,26.0,playground_257.jpg,,,,A105M4JOZSR7E6
27,47,left,1.0,27.0,left.jpg,left,1.6066,,A105M4JOZSR7E6
28,48,,1.0,28.0,playground_240.jpg,,,,A105M4JOZSR7E6
29,49,,1.0,29.0,playground_76.jpg,,,,A105M4JOZSR7E6
30,50,,1.0,30.0,badlands_113.jpg,,,,A105M4JOZSR7E6
31,51,,1.0,31.0,highway_156.jpg,,,,A105M4JOZSR7E6
32,52,,1.0,32.0,badlands_24.jpg,,,,A105M4JOZSR7E6
33,53,,1.0,33.0,bridge_172.jpg,,,,A105M4JOZSR7E6
34,54,,1.0,34.0,playground_117.jpg,,,,A105M4JOZSR7E6
35,55,,1.0,35.0,bridge_91.jpg,,,,A105M4JOZSR7E6
36,56,,1.0,36.0,golf_course_331.jpg,,,,A105M4JOZSR7E6
37,57,,1.0,37.0,bridge_202.jpg,,,,A105M4JOZSR7E6
38,58,,1.0,38.0,mountain_156.jpg,,,,A105M4JOZSR7E6
39,59,,1.0,39.0,bridge_65.jpg,,,,A105M4JOZSR7E6
40,60,,1.0,40.0,playground_131.jpg,,,,A105M4JOZSR7E6
41,61,left,1.0,41.0,left.jpg,left,1.0932,,A105M4JOZSR7E6
42,62,,1.0,42.0,highway_209.jpg,,,,A105M4JOZSR7E6
43,63,,1.0,43.0,mountain_232.jpg,,,,A105M4JOZSR7E6
44,64,,1.0,44.0,golf_course_188.jpg,,,,A105M4JOZSR7E6
45,65,,1.0,45.0,badlands_221.jpg,,,,A105M4JOZSR7E6
46,66,,1.0,46.0,badlands_23.jpg,,,,A105M4JOZSR7E6
47,67,,1.0,47.0,badlands_137.jpg,,,,A105M4JOZSR7E6
48,68,,1.0,48.0,mountain_154.jpg,,,,A105M4JOZSR7E6
49,69,,1.0,49.0,highway_273.jpg,,,,A105M4JOZSR7E6
50,70,,1.0,50.0,mountain_222.jpg,,,,A105M4JOZSR7E6
51,71,,1.0,51.0,highway_93.jpg,,,,A105M4JOZSR7E6
52,72,,1.0,52.0,badlands_21.jpg,,,,A105M4JOZSR7E6
53,73,,0.0,53.0,left.jpg,left,,,A105M4JOZSR7E6
54,74,,1.0,54.0,golf_course_217.jpg,,,,A105M4JOZSR7E6
55,75,,1.0,55.0,golf_course_193.jpg,,,,A105M4JOZSR7E6
56,76,,1.0,56.0,golf_course_309.jpg,,,,A105M4JOZSR7E6
57,77,,1.0,57.0,bridge_128.jpg,,,,A105M4JOZSR7E6
58,78,,1.0,58.0,mountain_293.jpg,,,,A105M4JOZSR7E6
59,79,,1.0,59.0,playground_10.jpg,,,,A105M4JOZSR7E6
60,80,,1.0,60.0,golf_course_78.jpg,,,,A105M4JOZSR7E6
61,81,,1.0,61.0,golf_course_195.jpg,,,,A105M4JOZSR7E6
62,82,,1.0,62.0,golf_course_214.jpg,,,,A105M4JOZSR7E6
63,83,,1.0,63.0,playground_219.jpg,,,,A105M4JOZSR7E6
64,84,,1.0,64.0,highway_294.jpg,,,,A105M4JOZSR7E6
65,20,,1.0,0.0,playground_76.jpg,,,,A151XA53WYXVD7
66,21,,1.0,1.0,bridge_128.jpg,,,,A151XA53WYXVD7
67,22,,1.0,2.0,bridge_256.jpg,,,,A151XA53WYXVD7
68,23,,1.0,3.0,highway_93.jpg,,,,A151XA53WYXVD7
69,24,,1.0,4.0,mountain_222.jpg,,,,A151XA53WYXVD7
70,25,,1.0,5.0,badlands_137.jpg,,,,A151XA53WYXVD7
71,26,,1.0,6.0,playground_10.jpg,,,,A151XA53WYXVD7
72,27,,1.0,7.0,mountain_101.jpg,,,,A151XA53WYXVD7
73,28,right,1.0,8.0,right.jpg,right,1.547,,A151XA53WYXVD7
74,29,,1.0,9.0,mountain_110.jpg,,,,A151XA53WYXVD7
75,30,,1.0,10.0,golf_course_188.jpg,,,,A151XA53WYXVD7
76,31,,1.0,11.0,playground_60.jpg,,,,A151XA53WYXVD7
77,32,,1.0,12.0,playground_219.jpg,,,,A151XA53WYXVD7
78,33,,1.0,13.0,badlands_24.jpg,,,,A151XA53WYXVD7
79,34,,1.0,14.0,badlands_184.jpg,,,,A151XA53WYXVD7
80,35,,1.0,15.0,playground_257.jpg,,,,A151XA53WYXVD7
81,36,,1.0,16.0,bridge_108.jpg,,,,A151XA53WYXVD7
82,37,,1.0,17.0,mountain_57.jpg,,,,A151XA53WYXVD7
83,38,right,1.0,18.0,right.jpg,right,0.661,,A151XA53WYXVD7
84,39,,1.0,19.0,golf_course_78.jpg,,,,A151XA53WYXVD7
85,40,,1.0,20.0,badlands_70.jpg,,,,A151XA53WYXVD7
86,41,,1.0,21.0,highway_415.jpg,,,,A151XA53WYXVD7
87,42,,1.0,22.0,golf_course_87.jpg,,,,A151XA53WYXVD7
88,43,,1.0,23.0,badlands_113.jpg,,,,A151XA53WYXVD7
89,44,,1.0,24.0,highway_177.jpg,,,,A151XA53WYXVD7
90,45,,1.0,25.0,playground_131.jpg,,,,A151XA53WYXVD7
91,46,,1.0,26.0,badlands_21.jpg,,,,A151XA53WYXVD7
92,47,,1.0,27.0,mountain_123.jpg,,,,A151XA53WYXVD7
93,48,,1.0,28.0,playground_144.jpg,,,,A151XA53WYXVD7
94,49,,1.0,29.0,golf_course_193.jpg,,,,A151XA53WYXVD7
95,50,,1.0,30.0,golf_course_217.jpg,,,,A151XA53WYXVD7
96,51,left,1.0,31.0,left.jpg,left,0.779,,A151XA53WYXVD7
97,52,,1.0,32.0,badlands_52.jpg,,,,A151XA53WYXVD7
98,53,,1.0,33.0,bridge_250.jpg,,,,A151XA53WYXVD7
99,54,,1.0,34.0,badlands_222.jpg,,,,A151XA53WYXVD7
100,55,,1.0,35.0,badlands_221.jpg,,,,A151XA53WYXVD7
101,56,,1.0,36.0,bridge_191.jpg,,,,A151XA53WYXVD7
102,57,,1.0,37.0,playground_145.jpg,,,,A151XA53WYXVD7
103,58,,1.0,38.0,badlands_23.jpg,,,,A151XA53WYXVD7
104,59,,1.0,39.0,bridge_146.jpg,,,,A151XA53WYXVD7
105,60,,1.0,40.0,mountain_232.jpg,,,,A151XA53WYXVD7
106,61,,1.0,41.0,bridge_91.jpg,,,,A151XA53WYXVD7
107,62,,1.0,42.0,highway_273.jpg,,,,A151XA53WYXVD7
108,63,right,1.0,43.0,right.jpg,right,0.706,,A151XA53WYXVD7
109,64,,1.0,44.0,highway_294.jpg,,,,A151XA53WYXVD7
110,65,,1.0,45.0,golf_course_214.jpg,,,,A151XA53WYXVD7
111,66,,1.0,46.0,bridge_202.jpg,,,,A151XA53WYXVD7
112,67,,1.0,47.0,golf_course_331.jpg,,,,A151XA53WYXVD7
113,68,,1.0,48.0,mountain_154.jpg,,,,A151XA53WYXVD7
114,69,,1.0,49.0,golf_course_309.jpg,,,,A151XA53WYXVD7
115,70,left,1.0,50.0,left.jpg,left,1.729,,A151XA53WYXVD7
116,71,,1.0,51.0,highway_394.jpg,,,,A151XA53WYXVD7
117,72,,1.0,52.0,highway_156.jpg,,,,A151XA53WYXVD7
118,73,,1.0,53.0,mountain_230.jpg,,,,A151XA53WYXVD7
119,74,,1.0,54.0,mountain_293.jpg,,,,A151XA53WYXVD7
120,75,,1.0,55.0,mountain_156.jpg,,,,A151XA53WYXVD7
121,76,,1.0,56.0,highway_245.jpg,,,,A151XA53WYXVD7
122,77,,1.0,57.0,bridge_65.jpg,,,,A151XA53WYXVD7
123,78,,1.0,58.0,playground_117.jpg,,,,A151XA53WYXVD7
124,79,,1.0,59.0,golf_course_15.jpg,,,,A151XA53WYXVD7
125,80,,1.0,60.0,highway_359.jpg,,,,A151XA53WYXVD7
126,81,,1.0,61.0,playground_240.jpg,,,,A151XA53WYXVD7
127,82,,1.0,62.0,highway_209.jpg,,,,A151XA53WYXVD7
128,83,,1.0,63.0,bridge_172.jpg,,,,A151XA53WYXVD7
129,84,,1.0,64.0,golf_course_195.jpg,,,,A151XA53WYXVD7
130,20,,1.0,0.0,golf_course_309.jpg,,,,A1969Q0R4Y0E3J
131,21,,1.0,1.0,mountain_154.jpg,,,,A1969Q0R4Y0E3J
132,22,,1.0,2.0,playground_10.jpg,,,,A1969Q0R4Y0E3J
133,23,,1.0,3.0,playground_145.jpg,,,,A1969Q0R4Y0E3J
134,24,,1.0,4.0,badlands_24.jpg,,,,A1969Q0R4Y0E3J
135,25,,1.0,5.0,highway_177.jpg,,,,A1969Q0R4Y0E3J
136,26,left,1.0,6.0,left.jpg,left,0.5308,,A1969Q0R4Y0E3J
137,27,,1.0,7.0,golf_course_331.jpg,,,,A1969Q0R4Y0E3J
138,28,,1.0,8.0,playground_131.jpg,,,,A1969Q0R4Y0E3J
139,29,,1.0,9.0,mountain_222.jpg,,,,A1969Q0R4Y0E3J
140,30,,1.0,10.0,highway_294.jpg,,,,A1969Q0R4Y0E3J
141,31,,1.0,11.0,badlands_21.jpg,,,,A1969Q0R4Y0E3J
142,32,,1.0,12.0,badlands_184.jpg,,,,A1969Q0R4Y0E3J
143,33,,1.0,13.0,playground_144.jpg,,,,A1969Q0R4Y0E3J
144,34,,1.0,14.0,mountain_123.jpg,,,,A1969Q0R4Y0E3J
145,35,,1.0,15.0,bridge_191.jpg,,,,A1969Q0R4Y0E3J
146,36,,1.0,16.0,badlands_222.jpg,,,,A1969Q0R4Y0E3J
147,37,,1.0,17.0,badlands_137.jpg,,,,A1969Q0R4Y0E3J
148,38,,1.0,18.0,mountain_101.jpg,,,,A1969Q0R4Y0E3J
149,39,,1.0,19.0,bridge_146.jpg,,,,A1969Q0R4Y0E3J
150,40,,1.0,20.0,playground_240.jpg,,,,A1969Q0R4Y0E3J
151,41,right,1.0,21.0,right.jpg,right,0.579,,A1969Q0R4Y0E3J
152,42,,1.0,22.0,highway_273.jpg,,,,A1969Q0R4Y0E3J
153,43,,1.0,23.0,badlands_70.jpg,,,,A1969Q0R4Y0E3J
154,44,,1.0,24.0,mountain_57.jpg,,,,A1969Q0R4Y0E3J
155,45,,1.0,25.0,badlands_113.jpg,,,,A1969Q0R4Y0E3J
156,46,,1.0,26.0,highway_245.jpg,,,,A1969Q0R4Y0E3J
157,47,,1.0,27.0,golf_course_217.jpg,,,,A1969Q0R4Y0E3J
158,48,,1.0,28.0,bridge_108.jpg,,,,A1969Q0R4Y0E3J
159,49,,1.0,29.0,bridge_65.jpg,,,,A1969Q0R4Y0E3J
160,50,right,1.0,30.0,right.jpg,right,0.4549,,A1969Q0R4Y0E3J
161,51,,1.0,31.0,playground_257.jpg,,,,A1969Q0R4Y0E3J
162,52,,1.0,32.0,bridge_172.jpg,,,,A1969Q0R4Y0E3J
163,53,,1.0,33.0,bridge_256.jpg,,,,A1969Q0R4Y0E3J
164,54,,1.0,34.0,mountain_156.jpg,,,,A1969Q0R4Y0E3J
165,55,,1.0,35.0,bridge_128.jpg,,,,A1969Q0R4Y0E3J
166,56,,1.0,36.0,playground_60.jpg,,,,A1969Q0R4Y0E3J
167,57,,1.0,37.0,playground_76.jpg,,,,A1969Q0R4Y0E3J
168,58,,1.0,38.0,mountain_230.jpg,,,,A1969Q0R4Y0E3J
169,59,,1.0,39.0,golf_course_214.jpg,,,,A1969Q0R4Y0E3J
170,60,left,1.0,40.0,left.jpg,left,0.5096,,A1969Q0R4Y0E3J
171,61,,1.0,41.0,golf_course_195.jpg,,,,A1969Q0R4Y0E3J
172,62,,1.0,42.0,highway_359.jpg,,,,A1969Q0R4Y0E3J
173,63,,1.0,43.0,highway_156.jpg,,,,A1969Q0R4Y0E3J
174,64,,1.0,44.0,bridge_202.jpg,,,,A1969Q0R4Y0E3J
175,65,,1.0,45.0,golf_course_78.jpg,,,,A1969Q0R4Y0E3J
176,66,,1.0,46.0,badlands_221.jpg,,,,A1969Q0R4Y0E3J
177,67,,1.0,47.0,badlands_23.jpg,,,,A1969Q0R4Y0E3J
178,68,,1.0,48.0,bridge_91.jpg,,,,A1969Q0R4Y0E3J
179,69,,1.0,49.0,golf_course_193.jpg,,,,A1969Q0R4Y0E3J
180,70,,1.0,50.0,golf_course_188.jpg,,,,A1969Q0R4Y0E3J
181,71,,1.0,51.0,highway_93.jpg,,,,A1969Q0R4Y0E3J
182,72,left,1.0,52.0,left.jpg,left,0.4634,,A1969Q0R4Y0E3J
183,73,,1.0,53.0,highway_415.jpg,,,,A1969Q0R4Y0E3J
184,74,,1.0,54.0,highway_209.jpg,,,,A1969Q0R4Y0E3J
185,75,,1.0,55.0,mountain_293.jpg,,,,A1969Q0R4Y0E3J
186,76,,1.0,56.0,playground_219.jpg,,,,A1969Q0R4Y0E3J
187,77,,1.0,57.0,highway_394.jpg,,,,A1969Q0R4Y0E3J
188,78,,1.0,58.0,mountain_232.jpg,,,,A1969Q0R4Y0E3J
189,79,,1.0,59.0,golf_course_15.jpg,,,,A1969Q0R4Y0E3J
190,80,,1.0,60.0,playground_117.jpg,,,,A1969Q0R4Y0E3J
191,81,,1.0,61.0,mountain_110.jpg,,,,A1969Q0R4Y0E3J
192,82,,1.0,62.0,bridge_250.jpg,,,,A1969Q0R4Y0E3J
193,83,,1.0,63.0,badlands_52.jpg,,,,A1969Q0R4Y0E3J
194,84,,1.0,64.0,golf_course_87.jpg,,,,A1969Q0R4Y0E3J
195,20,,1.0,0.0,highway_93.jpg,,,,A1VJ4ZOXP9PUCP
196,21,,1.0,1.0,bridge_65.jpg,,,,A1VJ4ZOXP9PUCP
197,22,,1.0,2.0,golf_course_309.jpg,,,,A1VJ4ZOXP9PUCP
198,23,,1.0,3.0,golf_course_87.jpg,,,,A1VJ4ZOXP9PUCP
199,24,,1.0,4.0,highway_156.jpg,,,,A1VJ4ZOXP9PUCP
200,25,,1.0,5.0,bridge_146.jpg,,,,A1VJ4ZOXP9PUCP
201,26,,1.0,6.0,highway_177.jpg,,,,A1VJ4ZOXP9PUCP
202,27,,1.0,7.0,golf_course_15.jpg,,,,A1VJ4ZOXP9PUCP
203,28,,1.0,8.0,bridge_172.jpg,,,,A1VJ4ZOXP9PUCP
204,29,,1.0,9.0,bridge_191.jpg,,,,A1VJ4ZOXP9PUCP
205,30,,1.0,10.0,playground_76.jpg,,,,A1VJ4ZOXP9PUCP
206,31,,1.0,11.0,highway_245.jpg,,,,A1VJ4ZOXP9PUCP
207,32,,1.0,12.0,playground_131.jpg,,,,A1VJ4ZOXP9PUCP
208,33,,1.0,13.0,playground_60.jpg,,,,A1VJ4ZOXP9PUCP
209,34,left,1.0,14.0,left.jpg,left,0.7942,,A1VJ4ZOXP9PUCP
210,35,,1.0,15.0,mountain_123.jpg,,,,A1VJ4ZOXP9PUCP
211,36,,1.0,16.0,golf_course_217.jpg,,,,A1VJ4ZOXP9PUCP
212,37,,1.0,17.0,badlands_70.jpg,,,,A1VJ4ZOXP9PUCP
213,38,,1.0,18.0,highway_273.jpg,,,,A1VJ4ZOXP9PUCP
214,39,,1.0,19.0,badlands_21.jpg,,,,A1VJ4ZOXP9PUCP
215,40,,1.0,20.0,highway_394.jpg,,,,A1VJ4ZOXP9PUCP
216,41,,1.0,21.0,bridge_108.jpg,,,,A1VJ4ZOXP9PUCP
217,42,left,1.0,22.0,left.jpg,left,0.6913,,A1VJ4ZOXP9PUCP
218,43,,1.0,23.0,highway_294.jpg,,,,A1VJ4ZOXP9PUCP
219,44,,1.0,24.0,playground_117.jpg,,,,A1VJ4ZOXP9PUCP
220,45,,1.0,25.0,playground_10.jpg,,,,A1VJ4ZOXP9PUCP
221,46,,1.0,26.0,golf_course_195.jpg,,,,A1VJ4ZOXP9PUCP
222,47,,1.0,27.0,badlands_24.jpg,,,,A1VJ4ZOXP9PUCP
223,48,,1.0,28.0,playground_257.jpg,,,,A1VJ4ZOXP9PUCP
224,49,,1.0,29.0,badlands_23.jpg,,,,A1VJ4ZOXP9PUCP
225,50,,1.0,30.0,highway_209.jpg,,,,A1VJ4ZOXP9PUCP
226,51,,1.0,31.0,playground_144.jpg,,,,A1VJ4ZOXP9PUCP
227,52,right,1.0,32.0,right.jpg,right,0.7969,,A1VJ4ZOXP9PUCP
228,53,,1.0,33.0,golf_course_214.jpg,,,,A1VJ4ZOXP9PUCP
229,54,,1.0,34.0,mountain_110.jpg,,,,A1VJ4ZOXP9PUCP
230,55,,1.0,35.0,mountain_230.jpg,,,,A1VJ4ZOXP9PUCP
231,56,,1.0,36.0,mountain_101.jpg,,,,A1VJ4ZOXP9PUCP
232,57,,1.0,37.0,mountain_232.jpg,,,,A1VJ4ZOXP9PUCP
233,58,right,1.0,38.0,right.jpg,right,1.0987,,A1VJ4ZOXP9PUCP
234,59,,1.0,39.0,badlands_184.jpg,,,,A1VJ4ZOXP9PUCP
235,60,,1.0,40.0,mountain_222.jpg,,,,A1VJ4ZOXP9PUCP
236,61,,1.0,41.0,badlands_221.jpg,,,,A1VJ4ZOXP9PUCP
237,62,,1.0,42.0,mountain_293.jpg,,,,A1VJ4ZOXP9PUCP
238,63,,1.0,43.0,golf_course_331.jpg,,,,A1VJ4ZOXP9PUCP
239,64,,1.0,44.0,bridge_202.jpg,,,,A1VJ4ZOXP9PUCP
240,65,,1.0,45.0,highway_359.jpg,,,,A1VJ4ZOXP9PUCP
241,66,,1.0,46.0,mountain_156.jpg,,,,A1VJ4ZOXP9PUCP
242,67,,1.0,47.0,mountain_57.jpg,,,,A1VJ4ZOXP9PUCP
243,68,left,1.0,48.0,left.jpg,left,1.0013,,A1VJ4ZOXP9PUCP
244,69,,1.0,49.0,highway_415.jpg,,,,A1VJ4ZOXP9PUCP
245,70,,1.0,50.0,bridge_91.jpg,,,,A1VJ4ZOXP9PUCP
246,71,,1.0,51.0,playground_145.jpg,,,,A1VJ4ZOXP9PUCP
247,72,,1.0,52.0,golf_course_193.jpg,,,,A1VJ4ZOXP9PUCP
248,73,,1.0,53.0,golf_course_78.jpg,,,,A1VJ4ZOXP9PUCP
249,74,,1.0,54.0,golf_course_188.jpg,,,,A1VJ4ZOXP9PUCP
250,75,,1.0,55.0,mountain_154.jpg,,,,A1VJ4ZOXP9PUCP
251,76,,1.0,56.0,badlands_113.jpg,,,,A1VJ4ZOXP9PUCP
252,77,,1.0,57.0,playground_219.jpg,,,,A1VJ4ZOXP9PUCP
253,78,,1.0,58.0,badlands_137.jpg,,,,A1VJ4ZOXP9PUCP
254,79,,1.0,59.0,bridge_250.jpg,,,,A1VJ4ZOXP9PUCP
255,80,,1.0,60.0,badlands_52.jpg,,,,A1VJ4ZOXP9PUCP
256,81,,1.0,61.0,badlands_222.jpg,,,,A1VJ4ZOXP9PUCP
257,82,,1.0,62.0,bridge_256.jpg,,,,A1VJ4ZOXP9PUCP
258,83,,1.0,63.0,playground_240.jpg,,,,A1VJ4ZOXP9PUCP
259,84,,1.0,64.0,bridge_128.jpg,,,,A1VJ4ZOXP9PUCP
260,20,,1.0,0.0,highway_394.jpg,,,,A20ZFQ93DF0WA
261,21,,1.0,1.0,badlands_52.jpg,,,,A20ZFQ93DF0WA
262,22,,1.0,2.0,highway_245.jpg,,,,A20ZFQ93DF0WA
263,23,,1.0,3.0,mountain_222.jpg,,,,A20ZFQ93DF0WA
264,24,,1.0,4.0,badlands_184.jpg,,,,A20ZFQ93DF0WA
265,25,,1.0,5.0,bridge_172.jpg,,,,A20ZFQ93DF0WA
266,26,,1.0,6.0,mountain_101.jpg,,,,A20ZFQ93DF0WA
267,27,,1.0,7.0,badlands_24.jpg,,,,A20ZFQ93DF0WA
268,28,,1.0,8.0,highway_177.jpg,,,,A20ZFQ93DF0WA
269,29,,1.0,9.0,highway_156.jpg,,,,A20ZFQ93DF0WA
270,30,,1.0,10.0,mountain_57.jpg,,,,A20ZFQ93DF0WA
271,31,,1.0,11.0,bridge_250.jpg,,,,A20ZFQ93DF0WA
272,32,,1.0,12.0,golf_course_193.jpg,,,,A20ZFQ93DF0WA
273,33,,1.0,13.0,bridge_202.jpg,,,,A20ZFQ93DF0WA
274,34,right,1.0,14.0,right.jpg,right,1.142,,A20ZFQ93DF0WA
275,35,,1.0,15.0,mountain_232.jpg,,,,A20ZFQ93DF0WA
276,36,,1.0,16.0,highway_93.jpg,,,,A20ZFQ93DF0WA
277,37,right,1.0,17.0,right.jpg,right,1.1149,,A20ZFQ93DF0WA
278,38,,1.0,18.0,playground_144.jpg,,,,A20ZFQ93DF0WA
279,39,,1.0,19.0,badlands_222.jpg,,,,A20ZFQ93DF0WA
280,40,,1.0,20.0,highway_359.jpg,,,,A20ZFQ93DF0WA
281,41,,1.0,21.0,mountain_123.jpg,,,,A20ZFQ93DF0WA
282,42,,1.0,22.0,bridge_108.jpg,,,,A20ZFQ93DF0WA
283,43,,1.0,23.0,mountain_156.jpg,,,,A20ZFQ93DF0WA
284,44,,1.0,24.0,playground_145.jpg,,,,A20ZFQ93DF0WA
285,45,,1.0,25.0,highway_209.jpg,,,,A20ZFQ93DF0WA
286,46,,1.0,26.0,badlands_113.jpg,,,,A20ZFQ93DF0WA
287,47,,1.0,27.0,mountain_154.jpg,,,,A20ZFQ93DF0WA
288,48,,1.0,28.0,highway_294.jpg,,,,A20ZFQ93DF0WA
289,49,,1.0,29.0,golf_course_309.jpg,,,,A20ZFQ93DF0WA
290,50,left,1.0,30.0,left.jpg,left,0.9702,,A20ZFQ93DF0WA
291,51,,1.0,31.0,golf_course_188.jpg,,,,A20ZFQ93DF0WA
292,52,,1.0,32.0,mountain_110.jpg,,,,A20ZFQ93DF0WA
293,53,,1.0,33.0,playground_257.jpg,,,,A20ZFQ93DF0WA
294,54,,1.0,34.0,golf_course_78.jpg,,,,A20ZFQ93DF0WA
295,55,,1.0,35.0,golf_course_214.jpg,,,,A20ZFQ93DF0WA
296,56,,1.0,36.0,badlands_137.jpg,,,,A20ZFQ93DF0WA
297,57,,1.0,37.0,badlands_21.jpg,,,,A20ZFQ93DF0WA
298,58,,1.0,38.0,mountain_230.jpg,,,,A20ZFQ93DF0WA
299,59,,1.0,39.0,bridge_91.jpg,,,,A20ZFQ93DF0WA
300,60,right,1.0,40.0,right.jpg,right,1.3407,,A20ZFQ93DF0WA
301,61,,1.0,41.0,playground_117.jpg,,,,A20ZFQ93DF0WA
302,62,,1.0,42.0,bridge_146.jpg,,,,A20ZFQ93DF0WA
303,63,,1.0,43.0,badlands_70.jpg,,,,A20ZFQ93DF0WA
304,64,,1.0,44.0,bridge_128.jpg,,,,A20ZFQ93DF0WA
305,65,,1.0,45.0,golf_course_195.jpg,,,,A20ZFQ93DF0WA
306,66,,1.0,46.0,mountain_293.jpg,,,,A20ZFQ93DF0WA
307,67,,1.0,47.0,golf_course_87.jpg,,,,A20ZFQ93DF0WA
308,68,,1.0,48.0,bridge_256.jpg,,,,A20ZFQ93DF0WA
309,69,,1.0,49.0,playground_240.jpg,,,,A20ZFQ93DF0WA
310,70,,1.0,50.0,badlands_221.jpg,,,,A20ZFQ93DF0WA
311,71,,1.0,51.0,bridge_191.jpg,,,,A20ZFQ93DF0WA
312,72,,1.0,52.0,playground_219.jpg,,,,A20ZFQ93DF0WA
313,73,right,1.0,53.0,right.jpg,right,1.1682,,A20ZFQ93DF0WA
314,74,,1.0,54.0,playground_76.jpg,,,,A20ZFQ93DF0WA
315,75,,1.0,55.0,playground_60.jpg,,,,A20ZFQ93DF0WA
316,76,,1.0,56.0,badlands_23.jpg,,,,A20ZFQ93DF0WA
317,77,,1.0,57.0,highway_415.jpg,,,,A20ZFQ93DF0WA
318,78,,1.0,58.0,golf_course_217.jpg,,,,A20ZFQ93DF0WA
319,79,,1.0,59.0,golf_course_331.jpg,,,,A20ZFQ93DF0WA
320,80,,1.0,60.0,bridge_65.jpg,,,,A20ZFQ93DF0WA
321,81,,1.0,61.0,playground_10.jpg,,,,A20ZFQ93DF0WA
322,82,,1.0,62.0,golf_course_15.jpg,,,,A20ZFQ93DF0WA
323,83,,1.0,63.0,playground_131.jpg,,,,A20ZFQ93DF0WA
324,84,,1.0,64.0,highway_273.jpg,,,,A20ZFQ93DF0WA
325,20,,1.0,0.0,badlands_184.jpg,,,,A237PUN7791D62
326,21,,1.0,1.0,badlands_113.jpg,,,,A237PUN7791D62
327,22,,1.0,2.0,highway_156.jpg,,,,A237PUN7791D62
328,23,,1.0,3.0,golf_course_15.jpg,,,,A237PUN7791D62
329,24,,1.0,4.0,mountain_230.jpg,,,,A237PUN7791D62
330,25,,1.0,5.0,highway_394.jpg,,,,A237PUN7791D62
331,26,,1.0,6.0,golf_course_188.jpg,,,,A237PUN7791D62
332,27,,1.0,7.0,mountain_57.jpg,,,,A237PUN7791D62
333,28,,1.0,8.0,golf_course_217.jpg,,,,A237PUN7791D62
334,29,,1.0,9.0,playground_145.jpg,,,,A237PUN7791D62
335,30,,1.0,10.0,playground_76.jpg,,,,A237PUN7791D62
336,31,left,1.0,11.0,left.jpg,left,0.668,,A237PUN7791D62
337,32,,1.0,12.0,mountain_293.jpg,,,,A237PUN7791D62
338,33,,1.0,13.0,highway_294.jpg,,,,A237PUN7791D62
339,34,,1.0,14.0,playground_131.jpg,,,,A237PUN7791D62
340,35,,1.0,15.0,badlands_221.jpg,,,,A237PUN7791D62
341,36,,1.0,16.0,mountain_154.jpg,,,,A237PUN7791D62
342,37,,1.0,17.0,bridge_128.jpg,,,,A237PUN7791D62
343,38,,1.0,18.0,bridge_91.jpg,,,,A237PUN7791D62
344,39,,1.0,19.0,badlands_24.jpg,,,,A237PUN7791D62
345,40,left,1.0,20.0,left.jpg,left,0.6626,,A237PUN7791D62
346,41,,1.0,21.0,golf_course_309.jpg,,,,A237PUN7791D62
347,42,,1.0,22.0,golf_course_331.jpg,,,,A237PUN7791D62
348,43,,1.0,23.0,badlands_52.jpg,,,,A237PUN7791D62
349,44,,1.0,24.0,mountain_110.jpg,,,,A237PUN7791D62
350,45,,1.0,25.0,highway_93.jpg,,,,A237PUN7791D62
351,46,,1.0,26.0,badlands_70.jpg,,,,A237PUN7791D62
352,47,,1.0,27.0,highway_177.jpg,,,,A237PUN7791D62
353,48,,1.0,28.0,bridge_256.jpg,,,,A237PUN7791D62
354,49,,1.0,29.0,playground_240.jpg,,,,A237PUN7791D62
355,50,,1.0,30.0,playground_10.jpg,,,,A237PUN7791D62
356,51,right,1.0,31.0,right.jpg,right,0.5961,,A237PUN7791D62
357,52,,1.0,32.0,bridge_172.jpg,,,,A237PUN7791D62
358,53,,1.0,33.0,mountain_222.jpg,,,,A237PUN7791D62
359,54,,1.0,34.0,playground_144.jpg,,,,A237PUN7791D62
360,55,,1.0,35.0,playground_219.jpg,,,,A237PUN7791D62
361,56,,1.0,36.0,highway_245.jpg,,,,A237PUN7791D62
362,57,left,1.0,37.0,left.jpg,left,0.4808,,A237PUN7791D62
363,58,,1.0,38.0,golf_course_195.jpg,,,,A237PUN7791D62
364,59,,1.0,39.0,badlands_222.jpg,,,,A237PUN7791D62
365,60,,1.0,40.0,playground_117.jpg,,,,A237PUN7791D62
366,61,,1.0,41.0,bridge_65.jpg,,,,A237PUN7791D62
367,62,,1.0,42.0,highway_415.jpg,,,,A237PUN7791D62
368,63,,1.0,43.0,golf_course_193.jpg,,,,A237PUN7791D62
369,64,,1.0,44.0,golf_course_87.jpg,,,,A237PUN7791D62
370,65,,1.0,45.0,bridge_191.jpg,,,,A237PUN7791D62
371,66,,1.0,46.0,mountain_232.jpg,,,,A237PUN7791D62
372,67,,1.0,47.0,bridge_202.jpg,,,,A237PUN7791D62
373,68,left,1.0,48.0,left.jpg,left,0.5628,,A237PUN7791D62
374,69,,1.0,49.0,playground_60.jpg,,,,A237PUN7791D62
375,70,,1.0,50.0,highway_359.jpg,,,,A237PUN7791D62
376,71,,1.0,51.0,bridge_108.jpg,,,,A237PUN7791D62
377,72,,1.0,52.0,badlands_137.jpg,,,,A237PUN7791D62
378,73,,1.0,53.0,highway_273.jpg,,,,A237PUN7791D62
379,74,,1.0,54.0,playground_257.jpg,,,,A237PUN7791D62
380,75,,1.0,55.0,highway_209.jpg,,,,A237PUN7791D62
381,76,,1.0,56.0,mountain_156.jpg,,,,A237PUN7791D62
382,77,,1.0,57.0,golf_course_214.jpg,,,,A237PUN7791D62
383,78,,1.0,58.0,badlands_21.jpg,,,,A237PUN7791D62
384,79,,1.0,59.0,mountain_101.jpg,,,,A237PUN7791D62
385,80,,1.0,60.0,mountain_123.jpg,,,,A237PUN7791D62
386,81,,1.0,61.0,bridge_146.jpg,,,,A237PUN7791D62
387,82,,1.0,62.0,bridge_250.jpg,,,,A237PUN7791D62
388,83,,1.0,63.0,golf_course_78.jpg,,,,A237PUN7791D62
389,84,,1.0,64.0,badlands_23.jpg,,,,A237PUN7791D62
390,20,,1.0,0.0,mountain_232.jpg,,,,A2541C8MY0BYV3
391,21,,1.0,1.0,highway_177.jpg,,,,A2541C8MY0BYV3
392,22,,1.0,2.0,mountain_123.jpg,,,,A2541C8MY0BYV3
393,23,,1.0,3.0,bridge_108.jpg,,,,A2541C8MY0BYV3
394,24,,1.0,4.0,mountain_154.jpg,,,,A2541C8MY0BYV3
395,25,,1.0,5.0,golf_course_195.jpg,,,,A2541C8MY0BYV3
396,26,,1.0,6.0,badlands_23.jpg,,,,A2541C8MY0BYV3
397,27,,1.0,7.0,golf_course_217.jpg,,,,A2541C8MY0BYV3
398,28,,1.0,8.0,badlands_184.jpg,,,,A2541C8MY0BYV3
399,29,,1.0,9.0,highway_294.jpg,,,,A2541C8MY0BYV3
400,30,,1.0,10.0,highway_273.jpg,,,,A2541C8MY0BYV3
401,31,,1.0,11.0,bridge_128.jpg,,,,A2541C8MY0BYV3
402,32,right,1.0,12.0,right.jpg,right,0.515,,A2541C8MY0BYV3
403,33,,1.0,13.0,highway_156.jpg,,,,A2541C8MY0BYV3
404,34,,1.0,14.0,playground_76.jpg,,,,A2541C8MY0BYV3
405,35,,1.0,15.0,bridge_65.jpg,,,,A2541C8MY0BYV3
406,36,,1.0,16.0,badlands_70.jpg,,,,A2541C8MY0BYV3
407,37,,1.0,17.0,golf_course_309.jpg,,,,A2541C8MY0BYV3
408,38,,1.0,18.0,playground_144.jpg,,,,A2541C8MY0BYV3
409,39,,1.0,19.0,bridge_250.jpg,,,,A2541C8MY0BYV3
410,40,,1.0,20.0,mountain_222.jpg,,,,A2541C8MY0BYV3
411,41,left,1.0,21.0,left.jpg,left,0.555,,A2541C8MY0BYV3
412,42,,1.0,22.0,golf_course_78.jpg,,,,A2541C8MY0BYV3
413,43,,1.0,23.0,golf_course_188.jpg,,,,A2541C8MY0BYV3
414,44,,1.0,24.0,mountain_293.jpg,,,,A2541C8MY0BYV3
415,45,,1.0,25.0,badlands_52.jpg,,,,A2541C8MY0BYV3
416,46,,1.0,26.0,bridge_202.jpg,,,,A2541C8MY0BYV3
417,47,,1.0,27.0,golf_course_193.jpg,,,,A2541C8MY0BYV3
418,48,left,1.0,28.0,left.jpg,left,0.514,,A2541C8MY0BYV3
419,49,,1.0,29.0,badlands_24.jpg,,,,A2541C8MY0BYV3
420,50,,1.0,30.0,highway_245.jpg,,,,A2541C8MY0BYV3
421,51,,1.0,31.0,highway_209.jpg,,,,A2541C8MY0BYV3
422,52,,1.0,32.0,mountain_57.jpg,,,,A2541C8MY0BYV3
423,53,,1.0,33.0,badlands_113.jpg,,,,A2541C8MY0BYV3
424,54,,1.0,34.0,highway_93.jpg,,,,A2541C8MY0BYV3
425,55,,1.0,35.0,bridge_172.jpg,,,,A2541C8MY0BYV3
426,56,,1.0,36.0,golf_course_331.jpg,,,,A2541C8MY0BYV3
427,57,,1.0,37.0,badlands_21.jpg,,,,A2541C8MY0BYV3
428,58,,1.0,38.0,mountain_110.jpg,,,,A2541C8MY0BYV3
429,59,,1.0,39.0,playground_219.jpg,,,,A2541C8MY0BYV3
430,60,,1.0,40.0,bridge_146.jpg,,,,A2541C8MY0BYV3
431,61,,1.0,41.0,highway_415.jpg,,,,A2541C8MY0BYV3
432,62,,1.0,42.0,mountain_156.jpg,,,,A2541C8MY0BYV3
433,63,left,1.0,43.0,left.jpg,left,0.515,,A2541C8MY0BYV3
434,64,,1.0,44.0,mountain_101.jpg,,,,A2541C8MY0BYV3
435,65,,1.0,45.0,playground_240.jpg,,,,A2541C8MY0BYV3
436,66,,1.0,46.0,bridge_91.jpg,,,,A2541C8MY0BYV3
437,67,right,1.0,47.0,right.jpg,right,0.493,,A2541C8MY0BYV3
438,68,,1.0,48.0,bridge_256.jpg,,,,A2541C8MY0BYV3
439,69,,1.0,49.0,mountain_230.jpg,,,,A2541C8MY0BYV3
440,70,,1.0,50.0,highway_394.jpg,,,,A2541C8MY0BYV3
441,71,,1.0,51.0,playground_131.jpg,,,,A2541C8MY0BYV3
442,72,,1.0,52.0,playground_10.jpg,,,,A2541C8MY0BYV3
443,73,,1.0,53.0,golf_course_15.jpg,,,,A2541C8MY0BYV3
444,74,,1.0,54.0,highway_359.jpg,,,,A2541C8MY0BYV3
445,75,,1.0,55.0,bridge_191.jpg,,,,A2541C8MY0BYV3
446,76,,1.0,56.0,badlands_137.jpg,,,,A2541C8MY0BYV3
447,77,,1.0,57.0,playground_145.jpg,,,,A2541C8MY0BYV3
448,78,,1.0,58.0,playground_117.jpg,,,,A2541C8MY0BYV3
449,79,,1.0,59.0,golf_course_214.jpg,,,,A2541C8MY0BYV3
450,80,,1.0,60.0,playground_257.jpg,,,,A2541C8MY0BYV3
451,81,,1.0,61.0,badlands_222.jpg,,,,A2541C8MY0BYV3
452,82,,1.0,62.0,badlands_221.jpg,,,,A2541C8MY0BYV3
453,83,,1.0,63.0,golf_course_87.jpg,,,,A2541C8MY0BYV3
454,84,,1.0,64.0,playground_60.jpg,,,,A2541C8MY0BYV3
455,20,,1.0,0.0,badlands_23.jpg,,,,A25PFSORDO3SWQ
456,21,,1.0,1.0,mountain_101.jpg,,,,A25PFSORDO3SWQ
457,22,,1.0,2.0,highway_209.jpg,,,,A25PFSORDO3SWQ
458,23,,1.0,3.0,playground_60.jpg,,,,A25PFSORDO3SWQ
459,24,,1.0,4.0,golf_course_331.jpg,,,,A25PFSORDO3SWQ
460,25,,1.0,5.0,bridge_256.jpg,,,,A25PFSORDO3SWQ
461,26,,1.0,6.0,golf_course_193.jpg,,,,A25PFSORDO3SWQ
462,27,,1.0,7.0,bridge_146.jpg,,,,A25PFSORDO3SWQ
463,28,right,1.0,8.0,right.jpg,right,0.682,,A25PFSORDO3SWQ
464,29,,1.0,9.0,mountain_232.jpg,,,,A25PFSORDO3SWQ
465,30,,1.0,10.0,mountain_222.jpg,,,,A25PFSORDO3SWQ
466,31,,1.0,11.0,bridge_108.jpg,,,,A25PFSORDO3SWQ
467,32,,1.0,12.0,highway_294.jpg,,,,A25PFSORDO3SWQ
468,33,,1.0,13.0,golf_course_188.jpg,,,,A25PFSORDO3SWQ
469,34,,1.0,14.0,mountain_57.jpg,,,,A25PFSORDO3SWQ
470,35,,1.0,15.0,badlands_113.jpg,,,,A25PFSORDO3SWQ
471,36,,1.0,16.0,mountain_293.jpg,,,,A25PFSORDO3SWQ
472,37,left,1.0,17.0,left.jpg,left,0.565,,A25PFSORDO3SWQ
473,38,,1.0,18.0,playground_131.jpg,,,,A25PFSORDO3SWQ
474,39,,1.0,19.0,mountain_156.jpg,,,,A25PFSORDO3SWQ
475,40,,1.0,20.0,playground_144.jpg,,,,A25PFSORDO3SWQ
476,41,,1.0,21.0,mountain_230.jpg,,,,A25PFSORDO3SWQ
477,42,,1.0,22.0,bridge_172.jpg,,,,A25PFSORDO3SWQ
478,43,,1.0,23.0,badlands_21.jpg,,,,A25PFSORDO3SWQ
479,44,,1.0,24.0,playground_257.jpg,,,,A25PFSORDO3SWQ
480,45,,1.0,25.0,highway_156.jpg,,,,A25PFSORDO3SWQ
481,46,,1.0,26.0,golf_course_309.jpg,,,,A25PFSORDO3SWQ
482,47,,1.0,27.0,highway_394.jpg,,,,A25PFSORDO3SWQ
483,48,,1.0,28.0,playground_240.jpg,,,,A25PFSORDO3SWQ
484,49,left,1.0,29.0,left.jpg,left,0.493,,A25PFSORDO3SWQ
485,50,,1.0,30.0,highway_93.jpg,,,,A25PFSORDO3SWQ
486,51,,1.0,31.0,badlands_184.jpg,,,,A25PFSORDO3SWQ
487,52,,1.0,32.0,playground_117.jpg,,,,A25PFSORDO3SWQ
488,53,,1.0,33.0,golf_course_217.jpg,,,,A25PFSORDO3SWQ
489,54,,1.0,34.0,mountain_123.jpg,,,,A25PFSORDO3SWQ
490,55,,1.0,35.0,badlands_24.jpg,,,,A25PFSORDO3SWQ
491,56,,1.0,36.0,playground_145.jpg,,,,A25PFSORDO3SWQ
492,57,,1.0,37.0,playground_219.jpg,,,,A25PFSORDO3SWQ
493,58,left,1.0,38.0,left.jpg,left,0.552,,A25PFSORDO3SWQ
494,59,,1.0,39.0,golf_course_15.jpg,,,,A25PFSORDO3SWQ
495,60,,1.0,40.0,mountain_154.jpg,,,,A25PFSORDO3SWQ
496,61,,1.0,41.0,highway_245.jpg,,,,A25PFSORDO3SWQ
497,62,,1.0,42.0,playground_10.jpg,,,,A25PFSORDO3SWQ
498,63,,1.0,43.0,badlands_70.jpg,,,,A25PFSORDO3SWQ
499,64,,1.0,44.0,badlands_137.jpg,,,,A25PFSORDO3SWQ
500,65,,1.0,45.0,playground_76.jpg,,,,A25PFSORDO3SWQ
501,66,,1.0,46.0,mountain_110.jpg,,,,A25PFSORDO3SWQ
502,67,,1.0,47.0,highway_177.jpg,,,,A25PFSORDO3SWQ
503,68,,1.0,48.0,badlands_221.jpg,,,,A25PFSORDO3SWQ
504,69,left,1.0,49.0,left.jpg,left,0.67,,A25PFSORDO3SWQ
505,70,,1.0,50.0,golf_course_195.jpg,,,,A25PFSORDO3SWQ
506,71,,1.0,51.0,highway_273.jpg,,,,A25PFSORDO3SWQ
507,72,,1.0,52.0,highway_359.jpg,,,,A25PFSORDO3SWQ
508,73,,1.0,53.0,highway_415.jpg,,,,A25PFSORDO3SWQ
509,74,,1.0,54.0,bridge_250.jpg,,,,A25PFSORDO3SWQ
510,75,,1.0,55.0,bridge_91.jpg,,,,A25PFSORDO3SWQ
511,76,,1.0,56.0,golf_course_78.jpg,,,,A25PFSORDO3SWQ
512,77,,1.0,57.0,bridge_191.jpg,,,,A25PFSORDO3SWQ
513,78,,1.0,58.0,bridge_128.jpg,,,,A25PFSORDO3SWQ
514,79,,1.0,59.0,golf_course_214.jpg,,,,A25PFSORDO3SWQ
515,80,,1.0,60.0,golf_course_87.jpg,,,,A25PFSORDO3SWQ
516,81,,1.0,61.0,bridge_65.jpg,,,,A25PFSORDO3SWQ
517,82,,1.0,62.0,badlands_222.jpg,,,,A25PFSORDO3SWQ
518,83,,1.0,63.0,bridge_202.jpg,,,,A25PFSORDO3SWQ
519,84,,1.0,64.0,badlands_52.jpg,,,,A25PFSORDO3SWQ
520,20,,1.0,0.0,badlands_222.jpg,,,,A2CZ5PS567SA10
521,21,,1.0,1.0,playground_145.jpg,,,,A2CZ5PS567SA10
522,22,,1.0,2.0,bridge_172.jpg,,,,A2CZ5PS567SA10
523,23,,1.0,3.0,bridge_91.jpg,,,,A2CZ5PS567SA10
524,24,,1.0,4.0,bridge_108.jpg,,,,A2CZ5PS567SA10
525,25,,1.0,5.0,highway_245.jpg,,,,A2CZ5PS567SA10
526,26,,1.0,6.0,golf_course_214.jpg,,,,A2CZ5PS567SA10
527,27,,1.0,7.0,badlands_21.jpg,,,,A2CZ5PS567SA10
528,28,,1.0,8.0,bridge_65.jpg,,,,A2CZ5PS567SA10
529,29,,1.0,9.0,badlands_137.jpg,,,,A2CZ5PS567SA10
530,30,left,1.0,10.0,left.jpg,left,1.0968,,A2CZ5PS567SA10
531,31,,1.0,11.0,mountain_154.jpg,,,,A2CZ5PS567SA10
532,32,,1.0,12.0,playground_219.jpg,,,,A2CZ5PS567SA10
533,33,,1.0,13.0,bridge_256.jpg,,,,A2CZ5PS567SA10
534,34,,1.0,14.0,mountain_156.jpg,,,,A2CZ5PS567SA10
535,35,,1.0,15.0,mountain_222.jpg,,,,A2CZ5PS567SA10
536,36,left,1.0,16.0,left.jpg,left,1.0833,,A2CZ5PS567SA10
537,37,,1.0,17.0,playground_240.jpg,,,,A2CZ5PS567SA10
538,38,,1.0,18.0,golf_course_309.jpg,,,,A2CZ5PS567SA10
539,39,,1.0,19.0,badlands_23.jpg,,,,A2CZ5PS567SA10
540,40,,1.0,20.0,golf_course_87.jpg,,,,A2CZ5PS567SA10
541,41,,1.0,21.0,playground_10.jpg,,,,A2CZ5PS567SA10
542,42,,1.0,22.0,highway_156.jpg,,,,A2CZ5PS567SA10
543,43,,1.0,23.0,golf_course_331.jpg,,,,A2CZ5PS567SA10
544,44,,1.0,24.0,golf_course_78.jpg,,,,A2CZ5PS567SA10
545,45,,1.0,25.0,badlands_52.jpg,,,,A2CZ5PS567SA10
546,46,,1.0,26.0,golf_course_15.jpg,,,,A2CZ5PS567SA10
547,47,,1.0,27.0,golf_course_193.jpg,,,,A2CZ5PS567SA10
548,48,,1.0,28.0,bridge_128.jpg,,,,A2CZ5PS567SA10
549,49,,1.0,29.0,highway_394.jpg,,,,A2CZ5PS567SA10
550,50,,1.0,30.0,mountain_101.jpg,,,,A2CZ5PS567SA10
551,51,,1.0,31.0,badlands_184.jpg,,,,A2CZ5PS567SA10
552,52,,1.0,32.0,highway_359.jpg,,,,A2CZ5PS567SA10
553,53,right,1.0,33.0,right.jpg,right,1.4397,,A2CZ5PS567SA10
554,54,,1.0,34.0,highway_209.jpg,,,,A2CZ5PS567SA10
555,55,,1.0,35.0,badlands_113.jpg,,,,A2CZ5PS567SA10
556,56,,1.0,36.0,highway_294.jpg,,,,A2CZ5PS567SA10
557,57,,1.0,37.0,mountain_293.jpg,,,,A2CZ5PS567SA10
558,58,,1.0,38.0,highway_273.jpg,,,,A2CZ5PS567SA10
559,59,,1.0,39.0,mountain_57.jpg,,,,A2CZ5PS567SA10
560,60,,1.0,40.0,playground_117.jpg,,,,A2CZ5PS567SA10
561,61,,1.0,41.0,golf_course_195.jpg,,,,A2CZ5PS567SA10
562,62,,1.0,42.0,playground_131.jpg,,,,A2CZ5PS567SA10
563,63,right,1.0,43.0,right.jpg,right,1.1752,,A2CZ5PS567SA10
564,64,,1.0,44.0,bridge_146.jpg,,,,A2CZ5PS567SA10
565,65,,1.0,45.0,highway_177.jpg,,,,A2CZ5PS567SA10
566,66,,1.0,46.0,mountain_110.jpg,,,,A2CZ5PS567SA10
567,67,,1.0,47.0,mountain_230.jpg,,,,A2CZ5PS567SA10
568,68,,1.0,48.0,bridge_202.jpg,,,,A2CZ5PS567SA10
569,69,,1.0,49.0,highway_93.jpg,,,,A2CZ5PS567SA10
570,70,,1.0,50.0,playground_144.jpg,,,,A2CZ5PS567SA10
571,71,,1.0,51.0,playground_257.jpg,,,,A2CZ5PS567SA10
572,72,,1.0,52.0,mountain_232.jpg,,,,A2CZ5PS567SA10
573,73,right,1.0,53.0,right.jpg,right,1.1853,,A2CZ5PS567SA10
574,74,,1.0,54.0,badlands_24.jpg,,,,A2CZ5PS567SA10
575,75,,1.0,55.0,playground_76.jpg,,,,A2CZ5PS567SA10
576,76,,1.0,56.0,playground_60.jpg,,,,A2CZ5PS567SA10
577,77,,1.0,57.0,highway_415.jpg,,,,A2CZ5PS567SA10
578,78,,1.0,58.0,badlands_70.jpg,,,,A2CZ5PS567SA10
579,79,,1.0,59.0,bridge_191.jpg,,,,A2CZ5PS567SA10
580,80,,1.0,60.0,bridge_250.jpg,,,,A2CZ5PS567SA10
581,81,,1.0,61.0,golf_course_188.jpg,,,,A2CZ5PS567SA10
582,82,,1.0,62.0,golf_course_217.jpg,,,,A2CZ5PS567SA10
583,83,,1.0,63.0,mountain_123.jpg,,,,A2CZ5PS567SA10
584,84,,1.0,64.0,badlands_221.jpg,,,,A2CZ5PS567SA10
585,20,,1.0,0.0,golf_course_15.jpg,,,,A2P9XYDUCQBXWD
586,21,,1.0,1.0,golf_course_217.jpg,,,,A2P9XYDUCQBXWD
587,22,,1.0,2.0,playground_240.jpg,,,,A2P9XYDUCQBXWD
588,23,,1.0,3.0,golf_course_188.jpg,,,,A2P9XYDUCQBXWD
589,24,,1.0,4.0,bridge_250.jpg,,,,A2P9XYDUCQBXWD
590,25,,1.0,5.0,golf_course_309.jpg,,,,A2P9XYDUCQBXWD
591,26,,1.0,6.0,badlands_221.jpg,,,,A2P9XYDUCQBXWD
592,27,left,1.0,7.0,left.jpg,left,1.7276,,A2P9XYDUCQBXWD
593,28,,1.0,8.0,playground_117.jpg,,,,A2P9XYDUCQBXWD
594,29,,1.0,9.0,mountain_293.jpg,,,,A2P9XYDUCQBXWD
595,30,,1.0,10.0,bridge_256.jpg,,,,A2P9XYDUCQBXWD
596,31,,1.0,11.0,playground_144.jpg,,,,A2P9XYDUCQBXWD
597,32,,1.0,12.0,highway_93.jpg,,,,A2P9XYDUCQBXWD
598,33,,1.0,13.0,badlands_70.jpg,,,,A2P9XYDUCQBXWD
599,34,,1.0,14.0,highway_359.jpg,,,,A2P9XYDUCQBXWD
600,35,,1.0,15.0,bridge_202.jpg,,,,A2P9XYDUCQBXWD
601,36,,1.0,16.0,badlands_137.jpg,,,,A2P9XYDUCQBXWD
602,37,,1.0,17.0,mountain_230.jpg,,,,A2P9XYDUCQBXWD
603,38,,1.0,18.0,highway_394.jpg,,,,A2P9XYDUCQBXWD
604,39,,1.0,19.0,playground_131.jpg,,,,A2P9XYDUCQBXWD
605,40,,1.0,20.0,badlands_113.jpg,,,,A2P9XYDUCQBXWD
606,41,,1.0,21.0,mountain_123.jpg,,,,A2P9XYDUCQBXWD
607,42,left,1.0,22.0,left.jpg,left,1.7821,,A2P9XYDUCQBXWD
608,43,,1.0,23.0,badlands_222.jpg,,,,A2P9XYDUCQBXWD
609,44,,1.0,24.0,golf_course_78.jpg,,,,A2P9XYDUCQBXWD
610,45,,1.0,25.0,highway_415.jpg,,,,A2P9XYDUCQBXWD
611,46,,1.0,26.0,playground_10.jpg,,,,A2P9XYDUCQBXWD
612,47,,1.0,27.0,playground_219.jpg,,,,A2P9XYDUCQBXWD
613,48,,1.0,28.0,highway_209.jpg,,,,A2P9XYDUCQBXWD
614,49,,1.0,29.0,playground_60.jpg,,,,A2P9XYDUCQBXWD
615,50,,1.0,30.0,bridge_65.jpg,,,,A2P9XYDUCQBXWD
616,51,,1.0,31.0,badlands_24.jpg,,,,A2P9XYDUCQBXWD
617,52,,1.0,32.0,mountain_232.jpg,,,,A2P9XYDUCQBXWD
618,53,left,1.0,33.0,left.jpg,left,1.8322,,A2P9XYDUCQBXWD
619,54,,1.0,34.0,badlands_184.jpg,,,,A2P9XYDUCQBXWD
620,55,,1.0,35.0,bridge_128.jpg,,,,A2P9XYDUCQBXWD
621,56,,1.0,36.0,golf_course_195.jpg,,,,A2P9XYDUCQBXWD
622,57,,1.0,37.0,golf_course_214.jpg,,,,A2P9XYDUCQBXWD
623,58,,1.0,38.0,badlands_23.jpg,,,,A2P9XYDUCQBXWD
624,59,,1.0,39.0,highway_177.jpg,,,,A2P9XYDUCQBXWD
625,60,,1.0,40.0,highway_273.jpg,,,,A2P9XYDUCQBXWD
626,61,,1.0,41.0,mountain_154.jpg,,,,A2P9XYDUCQBXWD
627,62,,1.0,42.0,bridge_108.jpg,,,,A2P9XYDUCQBXWD
628,63,right,1.0,43.0,right.jpg,right,1.6495,,A2P9XYDUCQBXWD
629,64,,1.0,44.0,golf_course_193.jpg,,,,A2P9XYDUCQBXWD
630,65,,1.0,45.0,golf_course_331.jpg,,,,A2P9XYDUCQBXWD
631,66,,1.0,46.0,bridge_146.jpg,,,,A2P9XYDUCQBXWD
632,67,,1.0,47.0,bridge_172.jpg,,,,A2P9XYDUCQBXWD
633,68,,1.0,48.0,playground_145.jpg,,,,A2P9XYDUCQBXWD
634,69,,1.0,49.0,mountain_57.jpg,,,,A2P9XYDUCQBXWD
635,70,,1.0,50.0,highway_156.jpg,,,,A2P9XYDUCQBXWD
636,71,,1.0,51.0,highway_294.jpg,,,,A2P9XYDUCQBXWD
637,72,,1.0,52.0,mountain_222.jpg,,,,A2P9XYDUCQBXWD
638,73,right,1.0,53.0,right.jpg,right,1.3289,,A2P9XYDUCQBXWD
639,74,,1.0,54.0,bridge_191.jpg,,,,A2P9XYDUCQBXWD
640,75,,1.0,55.0,mountain_110.jpg,,,,A2P9XYDUCQBXWD
641,76,,1.0,56.0,golf_course_87.jpg,,,,A2P9XYDUCQBXWD
642,77,,1.0,57.0,playground_257.jpg,,,,A2P9XYDUCQBXWD
643,78,,1.0,58.0,mountain_101.jpg,,,,A2P9XYDUCQBXWD
644,79,,1.0,59.0,highway_245.jpg,,,,A2P9XYDUCQBXWD
645,80,,1.0,60.0,bridge_91.jpg,,,,A2P9XYDUCQBXWD
646,81,,1.0,61.0,badlands_52.jpg,,,,A2P9XYDUCQBXWD
647,82,,1.0,62.0,badlands_21.jpg,,,,A2P9XYDUCQBXWD
648,83,,1.0,63.0,playground_76.jpg,,,,A2P9XYDUCQBXWD
649,84,,1.0,64.0,mountain_156.jpg,,,,A2P9XYDUCQBXWD
650,20,,1.0,0.0,highway_156.jpg,,,,A2STRYBSFU7KCY
651,21,,1.0,1.0,mountain_232.jpg,,,,A2STRYBSFU7KCY
652,22,,1.0,2.0,playground_117.jpg,,,,A2STRYBSFU7KCY
653,23,,1.0,3.0,bridge_256.jpg,,,,A2STRYBSFU7KCY
654,24,,1.0,4.0,highway_93.jpg,,,,A2STRYBSFU7KCY
655,25,,1.0,5.0,badlands_222.jpg,,,,A2STRYBSFU7KCY
656,26,,1.0,6.0,golf_course_195.jpg,,,,A2STRYBSFU7KCY
657,27,,1.0,7.0,bridge_250.jpg,,,,A2STRYBSFU7KCY
658,28,,1.0,8.0,highway_359.jpg,,,,A2STRYBSFU7KCY
659,29,,1.0,9.0,highway_294.jpg,,,,A2STRYBSFU7KCY
660,30,,1.0,10.0,mountain_293.jpg,,,,A2STRYBSFU7KCY
661,31,,0.0,11.0,left.jpg,left,,,A2STRYBSFU7KCY
662,32,,1.0,12.0,playground_144.jpg,,,,A2STRYBSFU7KCY
663,33,,1.0,13.0,bridge_128.jpg,,,,A2STRYBSFU7KCY
664,34,,1.0,14.0,badlands_137.jpg,,,,A2STRYBSFU7KCY
665,35,,1.0,15.0,playground_145.jpg,,,,A2STRYBSFU7KCY
666,36,,1.0,16.0,golf_course_331.jpg,,,,A2STRYBSFU7KCY
667,37,left,1.0,17.0,left.jpg,left,1.171,,A2STRYBSFU7KCY
668,38,,1.0,18.0,playground_240.jpg,,,,A2STRYBSFU7KCY
669,39,,1.0,19.0,highway_177.jpg,,,,A2STRYBSFU7KCY
670,40,,1.0,20.0,golf_course_188.jpg,,,,A2STRYBSFU7KCY
671,41,,1.0,21.0,playground_131.jpg,,,,A2STRYBSFU7KCY
672,42,,1.0,22.0,playground_76.jpg,,,,A2STRYBSFU7KCY
673,43,,1.0,23.0,bridge_191.jpg,,,,A2STRYBSFU7KCY
674,44,,1.0,24.0,mountain_123.jpg,,,,A2STRYBSFU7KCY
675,45,,1.0,25.0,bridge_91.jpg,,,,A2STRYBSFU7KCY
676,46,,1.0,26.0,playground_10.jpg,,,,A2STRYBSFU7KCY
677,47,,1.0,27.0,badlands_21.jpg,,,,A2STRYBSFU7KCY
678,48,left,1.0,28.0,left.jpg,left,1.246,,A2STRYBSFU7KCY
679,49,,1.0,29.0,golf_course_193.jpg,,,,A2STRYBSFU7KCY
680,50,,1.0,30.0,mountain_222.jpg,,,,A2STRYBSFU7KCY
681,51,,1.0,31.0,badlands_221.jpg,,,,A2STRYBSFU7KCY
682,52,,1.0,32.0,bridge_202.jpg,,,,A2STRYBSFU7KCY
683,53,,1.0,33.0,mountain_230.jpg,,,,A2STRYBSFU7KCY
684,54,,1.0,34.0,golf_course_217.jpg,,,,A2STRYBSFU7KCY
685,55,,1.0,35.0,golf_course_15.jpg,,,,A2STRYBSFU7KCY
686,56,,1.0,36.0,mountain_154.jpg,,,,A2STRYBSFU7KCY
687,57,,1.0,37.0,bridge_65.jpg,,,,A2STRYBSFU7KCY
688,58,,1.0,38.0,highway_209.jpg,,,,A2STRYBSFU7KCY
689,59,,1.0,39.0,badlands_24.jpg,,,,A2STRYBSFU7KCY
690,60,,1.0,40.0,highway_415.jpg,,,,A2STRYBSFU7KCY
691,61,,1.0,41.0,golf_course_214.jpg,,,,A2STRYBSFU7KCY
692,62,,1.0,42.0,highway_245.jpg,,,,A2STRYBSFU7KCY
693,63,right,1.0,43.0,right.jpg,right,1.33,,A2STRYBSFU7KCY
694,64,,1.0,44.0,badlands_52.jpg,,,,A2STRYBSFU7KCY
695,65,,1.0,45.0,badlands_184.jpg,,,,A2STRYBSFU7KCY
696,66,,1.0,46.0,mountain_110.jpg,,,,A2STRYBSFU7KCY
697,67,,1.0,47.0,mountain_101.jpg,,,,A2STRYBSFU7KCY
698,68,,1.0,48.0,bridge_108.jpg,,,,A2STRYBSFU7KCY
699,69,left,1.0,49.0,left.jpg,left,1.284,,A2STRYBSFU7KCY
700,70,,1.0,50.0,playground_60.jpg,,,,A2STRYBSFU7KCY
701,71,,1.0,51.0,golf_course_87.jpg,,,,A2STRYBSFU7KCY
702,72,,1.0,52.0,playground_257.jpg,,,,A2STRYBSFU7KCY
703,73,,1.0,53.0,golf_course_78.jpg,,,,A2STRYBSFU7KCY
704,74,,1.0,54.0,highway_273.jpg,,,,A2STRYBSFU7KCY
705,75,,1.0,55.0,bridge_146.jpg,,,,A2STRYBSFU7KCY
706,76,,1.0,56.0,bridge_172.jpg,,,,A2STRYBSFU7KCY
707,77,,1.0,57.0,mountain_156.jpg,,,,A2STRYBSFU7KCY
708,78,,1.0,58.0,mountain_57.jpg,,,,A2STRYBSFU7KCY
709,79,,1.0,59.0,golf_course_309.jpg,,,,A2STRYBSFU7KCY
710,80,,1.0,60.0,playground_219.jpg,,,,A2STRYBSFU7KCY
711,81,,1.0,61.0,badlands_113.jpg,,,,A2STRYBSFU7KCY
712,82,,1.0,62.0,highway_394.jpg,,,,A2STRYBSFU7KCY
713,83,,1.0,63.0,badlands_70.jpg,,,,A2STRYBSFU7KCY
714,84,,1.0,64.0,badlands_23.jpg,,,,A2STRYBSFU7KCY
715,20,,1.0,0.0,bridge_191.jpg,,,,A2TQ9IHDHCSQC8
716,21,,1.0,1.0,badlands_184.jpg,,,,A2TQ9IHDHCSQC8
717,22,,1.0,2.0,golf_course_195.jpg,,,,A2TQ9IHDHCSQC8
718,23,,1.0,3.0,golf_course_331.jpg,,,,A2TQ9IHDHCSQC8
719,24,,1.0,4.0,highway_415.jpg,,,,A2TQ9IHDHCSQC8
720,25,,1.0,5.0,bridge_65.jpg,,,,A2TQ9IHDHCSQC8
721,26,,1.0,6.0,playground_60.jpg,,,,A2TQ9IHDHCSQC8
722,27,,1.0,7.0,mountain_110.jpg,,,,A2TQ9IHDHCSQC8
723,28,,1.0,8.0,highway_93.jpg,,,,A2TQ9IHDHCSQC8
724,29,,1.0,9.0,mountain_232.jpg,,,,A2TQ9IHDHCSQC8
725,30,,1.0,10.0,bridge_172.jpg,,,,A2TQ9IHDHCSQC8
726,31,right,1.0,11.0,right.jpg,right,1.194,,A2TQ9IHDHCSQC8
727,32,,1.0,12.0,badlands_70.jpg,,,,A2TQ9IHDHCSQC8
728,33,,1.0,13.0,highway_245.jpg,,,,A2TQ9IHDHCSQC8
729,34,,1.0,14.0,golf_course_217.jpg,,,,A2TQ9IHDHCSQC8
730,35,,1.0,15.0,bridge_91.jpg,,,,A2TQ9IHDHCSQC8
731,36,left,1.0,16.0,left.jpg,left,0.919,,A2TQ9IHDHCSQC8
732,37,,1.0,17.0,playground_240.jpg,,,,A2TQ9IHDHCSQC8
733,38,,1.0,18.0,golf_course_193.jpg,,,,A2TQ9IHDHCSQC8
734,39,,1.0,19.0,bridge_202.jpg,,,,A2TQ9IHDHCSQC8
735,40,,1.0,20.0,badlands_137.jpg,,,,A2TQ9IHDHCSQC8
736,41,,1.0,21.0,playground_117.jpg,,,,A2TQ9IHDHCSQC8
737,42,,1.0,22.0,badlands_52.jpg,,,,A2TQ9IHDHCSQC8
738,43,,1.0,23.0,mountain_156.jpg,,,,A2TQ9IHDHCSQC8
739,44,,1.0,24.0,highway_209.jpg,,,,A2TQ9IHDHCSQC8
740,45,,1.0,25.0,mountain_154.jpg,,,,A2TQ9IHDHCSQC8
741,46,,1.0,26.0,bridge_108.jpg,,,,A2TQ9IHDHCSQC8
742,47,right,1.0,27.0,right.jpg,right,0.901,,A2TQ9IHDHCSQC8
743,48,,1.0,28.0,playground_257.jpg,,,,A2TQ9IHDHCSQC8
744,49,,1.0,29.0,golf_course_309.jpg,,,,A2TQ9IHDHCSQC8
745,50,,1.0,30.0,golf_course_214.jpg,,,,A2TQ9IHDHCSQC8
746,51,,1.0,31.0,golf_course_15.jpg,,,,A2TQ9IHDHCSQC8
747,52,,1.0,32.0,golf_course_78.jpg,,,,A2TQ9IHDHCSQC8
748,53,,1.0,33.0,bridge_146.jpg,,,,A2TQ9IHDHCSQC8
749,54,,1.0,34.0,mountain_293.jpg,,,,A2TQ9IHDHCSQC8
750,55,,1.0,35.0,mountain_57.jpg,,,,A2TQ9IHDHCSQC8
751,56,,1.0,36.0,playground_131.jpg,,,,A2TQ9IHDHCSQC8
752,57,,1.0,37.0,mountain_230.jpg,,,,A2TQ9IHDHCSQC8
753,58,,1.0,38.0,highway_273.jpg,,,,A2TQ9IHDHCSQC8
754,59,,1.0,39.0,bridge_128.jpg,,,,A2TQ9IHDHCSQC8
755,60,,1.0,40.0,badlands_222.jpg,,,,A2TQ9IHDHCSQC8
756,61,left,1.0,41.0,left.jpg,left,1.781,,A2TQ9IHDHCSQC8
757,62,,1.0,42.0,golf_course_87.jpg,,,,A2TQ9IHDHCSQC8
758,63,,1.0,43.0,highway_359.jpg,,,,A2TQ9IHDHCSQC8
759,64,,1.0,44.0,badlands_21.jpg,,,,A2TQ9IHDHCSQC8
760,65,,1.0,45.0,badlands_113.jpg,,,,A2TQ9IHDHCSQC8
761,66,,1.0,46.0,highway_294.jpg,,,,A2TQ9IHDHCSQC8
762,67,,1.0,47.0,playground_219.jpg,,,,A2TQ9IHDHCSQC8
763,68,,1.0,48.0,badlands_23.jpg,,,,A2TQ9IHDHCSQC8
764,69,,1.0,49.0,playground_144.jpg,,,,A2TQ9IHDHCSQC8
765,70,,1.0,50.0,badlands_221.jpg,,,,A2TQ9IHDHCSQC8
766,71,,1.0,51.0,highway_394.jpg,,,,A2TQ9IHDHCSQC8
767,72,,1.0,52.0,playground_145.jpg,,,,A2TQ9IHDHCSQC8
768,73,right,1.0,53.0,right.jpg,right,0.878,,A2TQ9IHDHCSQC8
769,74,,1.0,54.0,bridge_256.jpg,,,,A2TQ9IHDHCSQC8
770,75,,1.0,55.0,playground_76.jpg,,,,A2TQ9IHDHCSQC8
771,76,,1.0,56.0,mountain_222.jpg,,,,A2TQ9IHDHCSQC8
772,77,,1.0,57.0,mountain_123.jpg,,,,A2TQ9IHDHCSQC8
773,78,,1.0,58.0,highway_156.jpg,,,,A2TQ9IHDHCSQC8
774,79,,1.0,59.0,mountain_101.jpg,,,,A2TQ9IHDHCSQC8
775,80,,1.0,60.0,badlands_24.jpg,,,,A2TQ9IHDHCSQC8
776,81,,1.0,61.0,highway_177.jpg,,,,A2TQ9IHDHCSQC8
777,82,,1.0,62.0,playground_10.jpg,,,,A2TQ9IHDHCSQC8
778,83,,1.0,63.0,golf_course_188.jpg,,,,A2TQ9IHDHCSQC8
779,84,,1.0,64.0,bridge_250.jpg,,,,A2TQ9IHDHCSQC8
780,20,,1.0,0.0,badlands_137.jpg,,,,A2UWEAIX8UZXAQ
781,21,,1.0,1.0,badlands_113.jpg,,,,A2UWEAIX8UZXAQ
782,22,,1.0,2.0,bridge_256.jpg,,,,A2UWEAIX8UZXAQ
783,23,,1.0,3.0,playground_76.jpg,,,,A2UWEAIX8UZXAQ
784,24,,1.0,4.0,golf_course_87.jpg,,,,A2UWEAIX8UZXAQ
785,25,,1.0,5.0,mountain_156.jpg,,,,A2UWEAIX8UZXAQ
786,26,,1.0,6.0,playground_117.jpg,,,,A2UWEAIX8UZXAQ
787,27,,1.0,7.0,mountain_232.jpg,,,,A2UWEAIX8UZXAQ
788,28,,1.0,8.0,golf_course_188.jpg,,,,A2UWEAIX8UZXAQ
789,29,,1.0,9.0,playground_219.jpg,,,,A2UWEAIX8UZXAQ
790,30,,1.0,10.0,golf_course_193.jpg,,,,A2UWEAIX8UZXAQ
791,31,left,1.0,11.0,left.jpg,left,0.5676,,A2UWEAIX8UZXAQ
792,32,,1.0,12.0,bridge_146.jpg,,,,A2UWEAIX8UZXAQ
793,33,,1.0,13.0,mountain_101.jpg,,,,A2UWEAIX8UZXAQ
794,34,,1.0,14.0,golf_course_15.jpg,,,,A2UWEAIX8UZXAQ
795,35,,1.0,15.0,mountain_123.jpg,,,,A2UWEAIX8UZXAQ
796,36,left,1.0,16.0,left.jpg,left,0.5505,,A2UWEAIX8UZXAQ
797,37,,1.0,17.0,mountain_230.jpg,,,,A2UWEAIX8UZXAQ
798,38,,1.0,18.0,highway_359.jpg,,,,A2UWEAIX8UZXAQ
799,39,,1.0,19.0,golf_course_331.jpg,,,,A2UWEAIX8UZXAQ
800,40,,1.0,20.0,badlands_21.jpg,,,,A2UWEAIX8UZXAQ
801,41,,1.0,21.0,playground_257.jpg,,,,A2UWEAIX8UZXAQ
802,42,,1.0,22.0,mountain_293.jpg,,,,A2UWEAIX8UZXAQ
803,43,,1.0,23.0,mountain_57.jpg,,,,A2UWEAIX8UZXAQ
804,44,,1.0,24.0,golf_course_214.jpg,,,,A2UWEAIX8UZXAQ
805,45,,1.0,25.0,badlands_23.jpg,,,,A2UWEAIX8UZXAQ
806,46,,1.0,26.0,highway_156.jpg,,,,A2UWEAIX8UZXAQ
807,47,,1.0,27.0,badlands_52.jpg,,,,A2UWEAIX8UZXAQ
808,48,,1.0,28.0,playground_144.jpg,,,,A2UWEAIX8UZXAQ
809,49,,1.0,29.0,bridge_128.jpg,,,,A2UWEAIX8UZXAQ
810,50,left,1.0,30.0,left.jpg,left,0.4839,,A2UWEAIX8UZXAQ
811,51,,1.0,31.0,mountain_154.jpg,,,,A2UWEAIX8UZXAQ
812,52,,1.0,32.0,mountain_222.jpg,,,,A2UWEAIX8UZXAQ
813,53,,1.0,33.0,badlands_222.jpg,,,,A2UWEAIX8UZXAQ
814,54,,1.0,34.0,golf_course_195.jpg,,,,A2UWEAIX8UZXAQ
815,55,,1.0,35.0,highway_273.jpg,,,,A2UWEAIX8UZXAQ
816,56,,1.0,36.0,highway_415.jpg,,,,A2UWEAIX8UZXAQ
817,57,left,1.0,37.0,left.jpg,left,0.5014,,A2UWEAIX8UZXAQ
818,58,,1.0,38.0,highway_294.jpg,,,,A2UWEAIX8UZXAQ
819,59,,1.0,39.0,highway_93.jpg,,,,A2UWEAIX8UZXAQ
820,60,,1.0,40.0,playground_240.jpg,,,,A2UWEAIX8UZXAQ
821,61,,1.0,41.0,highway_394.jpg,,,,A2UWEAIX8UZXAQ
822,62,,1.0,42.0,badlands_24.jpg,,,,A2UWEAIX8UZXAQ
823,63,,1.0,43.0,highway_209.jpg,,,,A2UWEAIX8UZXAQ
824,64,,1.0,44.0,highway_245.jpg,,,,A2UWEAIX8UZXAQ
825,65,,1.0,45.0,bridge_172.jpg,,,,A2UWEAIX8UZXAQ
826,66,,1.0,46.0,playground_145.jpg,,,,A2UWEAIX8UZXAQ
827,67,,1.0,47.0,highway_177.jpg,,,,A2UWEAIX8UZXAQ
828,68,,1.0,48.0,badlands_70.jpg,,,,A2UWEAIX8UZXAQ
829,69,,1.0,49.0,playground_60.jpg,,,,A2UWEAIX8UZXAQ
830,70,,1.0,50.0,badlands_221.jpg,,,,A2UWEAIX8UZXAQ
831,71,left,1.0,51.0,left.jpg,left,0.671,,A2UWEAIX8UZXAQ
832,72,,1.0,52.0,bridge_91.jpg,,,,A2UWEAIX8UZXAQ
833,73,,1.0,53.0,golf_course_309.jpg,,,,A2UWEAIX8UZXAQ
834,74,,1.0,54.0,playground_10.jpg,,,,A2UWEAIX8UZXAQ
835,75,,1.0,55.0,bridge_202.jpg,,,,A2UWEAIX8UZXAQ
836,76,,1.0,56.0,playground_131.jpg,,,,A2UWEAIX8UZXAQ
837,77,,1.0,57.0,golf_course_217.jpg,,,,A2UWEAIX8UZXAQ
838,78,,1.0,58.0,bridge_191.jpg,,,,A2UWEAIX8UZXAQ
839,79,,1.0,59.0,bridge_250.jpg,,,,A2UWEAIX8UZXAQ
840,80,,1.0,60.0,mountain_110.jpg,,,,A2UWEAIX8UZXAQ
841,81,,1.0,61.0,golf_course_78.jpg,,,,A2UWEAIX8UZXAQ
842,82,,1.0,62.0,bridge_65.jpg,,,,A2UWEAIX8UZXAQ
843,83,,1.0,63.0,badlands_184.jpg,,,,A2UWEAIX8UZXAQ
844,84,,1.0,64.0,bridge_108.jpg,,,,A2UWEAIX8UZXAQ
845,20,,1.0,0.0,golf_course_331.jpg,,,,A32X8WXMIV4KE8
846,21,,1.0,1.0,mountain_154.jpg,,,,A32X8WXMIV4KE8
847,22,,1.0,2.0,mountain_222.jpg,,,,A32X8WXMIV4KE8
848,23,,1.0,3.0,golf_course_195.jpg,,,,A32X8WXMIV4KE8
849,24,,1.0,4.0,playground_145.jpg,,,,A32X8WXMIV4KE8
850,25,,1.0,5.0,golf_course_214.jpg,,,,A32X8WXMIV4KE8
851,26,,1.0,6.0,bridge_250.jpg,,,,A32X8WXMIV4KE8
852,27,,1.0,7.0,golf_course_193.jpg,,,,A32X8WXMIV4KE8
853,28,,1.0,8.0,highway_177.jpg,,,,A32X8WXMIV4KE8
854,29,,1.0,9.0,playground_219.jpg,,,,A32X8WXMIV4KE8
855,30,,1.0,10.0,mountain_232.jpg,,,,A32X8WXMIV4KE8
856,31,,1.0,11.0,bridge_146.jpg,,,,A32X8WXMIV4KE8
857,32,,1.0,12.0,badlands_52.jpg,,,,A32X8WXMIV4KE8
858,33,,1.0,13.0,playground_60.jpg,,,,A32X8WXMIV4KE8
859,34,left,1.0,14.0,left.jpg,left,1.201,,A32X8WXMIV4KE8
860,35,,1.0,15.0,badlands_21.jpg,,,,A32X8WXMIV4KE8
861,36,,1.0,16.0,highway_156.jpg,,,,A32X8WXMIV4KE8
862,37,right,1.0,17.0,right.jpg,right,1.101,,A32X8WXMIV4KE8
863,38,,1.0,18.0,golf_course_87.jpg,,,,A32X8WXMIV4KE8
864,39,,1.0,19.0,golf_course_309.jpg,,,,A32X8WXMIV4KE8
865,40,,1.0,20.0,bridge_108.jpg,,,,A32X8WXMIV4KE8
866,41,,1.0,21.0,highway_245.jpg,,,,A32X8WXMIV4KE8
867,42,,1.0,22.0,badlands_23.jpg,,,,A32X8WXMIV4KE8
868,43,,1.0,23.0,badlands_221.jpg,,,,A32X8WXMIV4KE8
869,44,,1.0,24.0,bridge_128.jpg,,,,A32X8WXMIV4KE8
870,45,,1.0,25.0,badlands_222.jpg,,,,A32X8WXMIV4KE8
871,46,right,1.0,26.0,right.jpg,right,1.105,,A32X8WXMIV4KE8
872,47,,1.0,27.0,playground_131.jpg,,,,A32X8WXMIV4KE8
873,48,,1.0,28.0,badlands_137.jpg,,,,A32X8WXMIV4KE8
874,49,,1.0,29.0,highway_209.jpg,,,,A32X8WXMIV4KE8
875,50,,1.0,30.0,highway_415.jpg,,,,A32X8WXMIV4KE8
876,51,,1.0,31.0,bridge_91.jpg,,,,A32X8WXMIV4KE8
877,52,,1.0,32.0,mountain_101.jpg,,,,A32X8WXMIV4KE8
878,53,,1.0,33.0,mountain_293.jpg,,,,A32X8WXMIV4KE8
879,54,,1.0,34.0,bridge_172.jpg,,,,A32X8WXMIV4KE8
880,55,,1.0,35.0,highway_273.jpg,,,,A32X8WXMIV4KE8
881,56,,1.0,36.0,playground_10.jpg,,,,A32X8WXMIV4KE8
882,57,left,1.0,37.0,left.jpg,left,0.986,,A32X8WXMIV4KE8
883,58,,1.0,38.0,playground_240.jpg,,,,A32X8WXMIV4KE8
884,59,,1.0,39.0,highway_359.jpg,,,,A32X8WXMIV4KE8
885,60,,1.0,40.0,badlands_70.jpg,,,,A32X8WXMIV4KE8
886,61,,1.0,41.0,mountain_57.jpg,,,,A32X8WXMIV4KE8
887,62,,1.0,42.0,mountain_123.jpg,,,,A32X8WXMIV4KE8
888,63,,1.0,43.0,bridge_202.jpg,,,,A32X8WXMIV4KE8
889,64,,1.0,44.0,bridge_256.jpg,,,,A32X8WXMIV4KE8
890,65,,1.0,45.0,playground_257.jpg,,,,A32X8WXMIV4KE8
891,66,left,1.0,46.0,left.jpg,left,1.001,,A32X8WXMIV4KE8
892,67,,1.0,47.0,golf_course_188.jpg,,,,A32X8WXMIV4KE8
893,68,,1.0,48.0,golf_course_15.jpg,,,,A32X8WXMIV4KE8
894,69,,1.0,49.0,badlands_24.jpg,,,,A32X8WXMIV4KE8
895,70,,1.0,50.0,playground_117.jpg,,,,A32X8WXMIV4KE8
896,71,,1.0,51.0,bridge_65.jpg,,,,A32X8WXMIV4KE8
897,72,,1.0,52.0,golf_course_217.jpg,,,,A32X8WXMIV4KE8
898,73,,1.0,53.0,highway_394.jpg,,,,A32X8WXMIV4KE8
899,74,,1.0,54.0,golf_course_78.jpg,,,,A32X8WXMIV4KE8
900,75,,1.0,55.0,highway_93.jpg,,,,A32X8WXMIV4KE8
901,76,,1.0,56.0,highway_294.jpg,,,,A32X8WXMIV4KE8
902,77,,1.0,57.0,mountain_230.jpg,,,,A32X8WXMIV4KE8
903,78,,1.0,58.0,mountain_156.jpg,,,,A32X8WXMIV4KE8
904,79,,1.0,59.0,mountain_110.jpg,,,,A32X8WXMIV4KE8
905,80,,1.0,60.0,badlands_184.jpg,,,,A32X8WXMIV4KE8
906,81,,1.0,61.0,bridge_191.jpg,,,,A32X8WXMIV4KE8
907,82,,1.0,62.0,badlands_113.jpg,,,,A32X8WXMIV4KE8
908,83,,1.0,63.0,playground_144.jpg,,,,A32X8WXMIV4KE8
909,84,,1.0,64.0,playground_76.jpg,,,,A32X8WXMIV4KE8
910,20,,1.0,0.0,mountain_156.jpg,,,,A39XW0561NNM5C
911,21,,1.0,1.0,golf_course_217.jpg,,,,A39XW0561NNM5C
912,22,,1.0,2.0,mountain_232.jpg,,,,A39XW0561NNM5C
913,23,,1.0,3.0,bridge_65.jpg,,,,A39XW0561NNM5C
914,24,,1.0,4.0,playground_240.jpg,,,,A39XW0561NNM5C
915,25,,1.0,5.0,golf_course_214.jpg,,,,A39XW0561NNM5C
916,26,,1.0,6.0,badlands_184.jpg,,,,A39XW0561NNM5C
917,27,,1.0,7.0,badlands_23.jpg,,,,A39XW0561NNM5C
918,28,,1.0,8.0,bridge_91.jpg,,,,A39XW0561NNM5C
919,29,,1.0,9.0,golf_course_78.jpg,,,,A39XW0561NNM5C
920,30,,1.0,10.0,highway_177.jpg,,,,A39XW0561NNM5C
921,31,,1.0,11.0,playground_117.jpg,,,,A39XW0561NNM5C
922,32,,1.0,12.0,golf_course_195.jpg,,,,A39XW0561NNM5C
923,33,,0.0,13.0,right.jpg,right,,,A39XW0561NNM5C
924,34,,1.0,14.0,golf_course_193.jpg,,,,A39XW0561NNM5C
925,35,,1.0,15.0,bridge_108.jpg,,,,A39XW0561NNM5C
926,36,,1.0,16.0,playground_144.jpg,,,,A39XW0561NNM5C
927,37,,0.0,17.0,left.jpg,left,,,A39XW0561NNM5C
928,38,,1.0,18.0,bridge_250.jpg,,,,A39XW0561NNM5C
929,39,,1.0,19.0,badlands_21.jpg,,,,A39XW0561NNM5C
930,40,,1.0,20.0,mountain_222.jpg,,,,A39XW0561NNM5C
931,41,,1.0,21.0,highway_394.jpg,,,,A39XW0561NNM5C
932,42,,1.0,22.0,playground_10.jpg,,,,A39XW0561NNM5C
933,43,,1.0,23.0,golf_course_309.jpg,,,,A39XW0561NNM5C
934,44,,1.0,24.0,badlands_52.jpg,,,,A39XW0561NNM5C
935,45,,1.0,25.0,mountain_110.jpg,,,,A39XW0561NNM5C
936,46,,1.0,26.0,playground_60.jpg,,,,A39XW0561NNM5C
937,47,,1.0,27.0,highway_273.jpg,,,,A39XW0561NNM5C
938,48,,1.0,28.0,highway_415.jpg,,,,A39XW0561NNM5C
939,49,,1.0,29.0,playground_219.jpg,,,,A39XW0561NNM5C
940,50,,1.0,30.0,highway_359.jpg,,,,A39XW0561NNM5C
941,51,,1.0,31.0,bridge_128.jpg,,,,A39XW0561NNM5C
942,52,,1.0,32.0,playground_131.jpg,,,,A39XW0561NNM5C
943,53,left,1.0,33.0,left.jpg,left,1.4323,,A39XW0561NNM5C
944,54,,1.0,34.0,mountain_101.jpg,,,,A39XW0561NNM5C
945,55,,1.0,35.0,golf_course_331.jpg,,,,A39XW0561NNM5C
946,56,,1.0,36.0,badlands_221.jpg,,,,A39XW0561NNM5C
947,57,,1.0,37.0,bridge_172.jpg,,,,A39XW0561NNM5C
948,58,right,1.0,38.0,right.jpg,right,1.3072,,A39XW0561NNM5C
949,59,,1.0,39.0,badlands_222.jpg,,,,A39XW0561NNM5C
950,60,,1.0,40.0,highway_245.jpg,,,,A39XW0561NNM5C
951,61,,1.0,41.0,highway_209.jpg,,,,A39XW0561NNM5C
952,62,,1.0,42.0,bridge_256.jpg,,,,A39XW0561NNM5C
953,63,,1.0,43.0,bridge_146.jpg,,,,A39XW0561NNM5C
954,64,,1.0,44.0,playground_76.jpg,,,,A39XW0561NNM5C
955,65,,1.0,45.0,mountain_293.jpg,,,,A39XW0561NNM5C
956,66,,1.0,46.0,mountain_57.jpg,,,,A39XW0561NNM5C
957,67,,1.0,47.0,badlands_24.jpg,,,,A39XW0561NNM5C
958,68,,1.0,48.0,golf_course_15.jpg,,,,A39XW0561NNM5C
959,69,left,1.0,49.0,left.jpg,left,1.1528,,A39XW0561NNM5C
960,70,,1.0,50.0,mountain_154.jpg,,,,A39XW0561NNM5C
961,71,,1.0,51.0,badlands_113.jpg,,,,A39XW0561NNM5C
962,72,,1.0,52.0,bridge_191.jpg,,,,A39XW0561NNM5C
963,73,,1.0,53.0,golf_course_87.jpg,,,,A39XW0561NNM5C
964,74,,1.0,54.0,playground_257.jpg,,,,A39XW0561NNM5C
965,75,,1.0,55.0,playground_145.jpg,,,,A39XW0561NNM5C
966,76,,1.0,56.0,golf_course_188.jpg,,,,A39XW0561NNM5C
967,77,,1.0,57.0,highway_156.jpg,,,,A39XW0561NNM5C
968,78,,1.0,58.0,highway_93.jpg,,,,A39XW0561NNM5C
969,79,,1.0,59.0,highway_294.jpg,,,,A39XW0561NNM5C
970,80,,1.0,60.0,mountain_230.jpg,,,,A39XW0561NNM5C
971,81,,1.0,61.0,badlands_137.jpg,,,,A39XW0561NNM5C
972,82,,1.0,62.0,mountain_123.jpg,,,,A39XW0561NNM5C
973,83,,1.0,63.0,badlands_70.jpg,,,,A39XW0561NNM5C
974,84,,1.0,64.0,bridge_202.jpg,,,,A39XW0561NNM5C
975,20,,1.0,0.0,golf_course_214.jpg,,,,A3ATB5GC4BQIH0
976,21,,1.0,1.0,mountain_222.jpg,,,,A3ATB5GC4BQIH0
977,22,,1.0,2.0,playground_219.jpg,,,,A3ATB5GC4BQIH0
978,23,,1.0,3.0,mountain_293.jpg,,,,A3ATB5GC4BQIH0
979,24,,1.0,4.0,highway_177.jpg,,,,A3ATB5GC4BQIH0
980,25,,1.0,5.0,bridge_172.jpg,,,,A3ATB5GC4BQIH0
981,26,,1.0,6.0,badlands_52.jpg,,,,A3ATB5GC4BQIH0
982,27,left,1.0,7.0,left.jpg,left,0.793,,A3ATB5GC4BQIH0
983,28,,1.0,8.0,highway_93.jpg,,,,A3ATB5GC4BQIH0
984,29,,1.0,9.0,mountain_110.jpg,,,,A3ATB5GC4BQIH0
985,30,,1.0,10.0,highway_415.jpg,,,,A3ATB5GC4BQIH0
986,31,,1.0,11.0,playground_76.jpg,,,,A3ATB5GC4BQIH0
987,32,,1.0,12.0,bridge_191.jpg,,,,A3ATB5GC4BQIH0
988,33,,1.0,13.0,mountain_232.jpg,,,,A3ATB5GC4BQIH0
989,34,,1.0,14.0,highway_294.jpg,,,,A3ATB5GC4BQIH0
990,35,,1.0,15.0,badlands_137.jpg,,,,A3ATB5GC4BQIH0
991,36,,1.0,16.0,playground_257.jpg,,,,A3ATB5GC4BQIH0
992,37,,1.0,17.0,bridge_146.jpg,,,,A3ATB5GC4BQIH0
993,38,left,1.0,18.0,left.jpg,left,0.794,,A3ATB5GC4BQIH0
994,39,,1.0,19.0,bridge_128.jpg,,,,A3ATB5GC4BQIH0
995,40,,1.0,20.0,golf_course_217.jpg,,,,A3ATB5GC4BQIH0
996,41,,1.0,21.0,badlands_23.jpg,,,,A3ATB5GC4BQIH0
997,42,,1.0,22.0,highway_156.jpg,,,,A3ATB5GC4BQIH0
998,43,,1.0,23.0,golf_course_195.jpg,,,,A3ATB5GC4BQIH0
999,44,,1.0,24.0,mountain_101.jpg,,,,A3ATB5GC4BQIH0
1000,45,,1.0,25.0,golf_course_87.jpg,,,,A3ATB5GC4BQIH0
1001,46,,1.0,26.0,golf_course_193.jpg,,,,A3ATB5GC4BQIH0
1002,47,,1.0,27.0,golf_course_78.jpg,,,,A3ATB5GC4BQIH0
1003,48,,1.0,28.0,badlands_113.jpg,,,,A3ATB5GC4BQIH0
1004,49,right,1.0,29.0,right.jpg,right,1.053,,A3ATB5GC4BQIH0
1005,50,,1.0,30.0,badlands_21.jpg,,,,A3ATB5GC4BQIH0
1006,51,,1.0,31.0,bridge_65.jpg,,,,A3ATB5GC4BQIH0
1007,52,,1.0,32.0,badlands_222.jpg,,,,A3ATB5GC4BQIH0
1008,53,,1.0,33.0,highway_273.jpg,,,,A3ATB5GC4BQIH0
1009,54,,1.0,34.0,bridge_202.jpg,,,,A3ATB5GC4BQIH0
1010,55,,1.0,35.0,mountain_154.jpg,,,,A3ATB5GC4BQIH0
1011,56,,1.0,36.0,playground_10.jpg,,,,A3ATB5GC4BQIH0
1012,57,,1.0,37.0,highway_209.jpg,,,,A3ATB5GC4BQIH0
1013,58,right,1.0,38.0,right.jpg,right,0.882,,A3ATB5GC4BQIH0
1014,59,,1.0,39.0,playground_117.jpg,,,,A3ATB5GC4BQIH0
1015,60,,1.0,40.0,bridge_108.jpg,,,,A3ATB5GC4BQIH0
1016,61,,1.0,41.0,golf_course_15.jpg,,,,A3ATB5GC4BQIH0
1017,62,,1.0,42.0,badlands_70.jpg,,,,A3ATB5GC4BQIH0
1018,63,,1.0,43.0,golf_course_331.jpg,,,,A3ATB5GC4BQIH0
1019,64,,1.0,44.0,playground_60.jpg,,,,A3ATB5GC4BQIH0
1020,65,,1.0,45.0,mountain_57.jpg,,,,A3ATB5GC4BQIH0
1021,66,,1.0,46.0,golf_course_309.jpg,,,,A3ATB5GC4BQIH0
1022,67,,1.0,47.0,playground_131.jpg,,,,A3ATB5GC4BQIH0
1023,68,,1.0,48.0,mountain_156.jpg,,,,A3ATB5GC4BQIH0
1024,69,,1.0,49.0,playground_145.jpg,,,,A3ATB5GC4BQIH0
1025,70,,1.0,50.0,mountain_230.jpg,,,,A3ATB5GC4BQIH0
1026,71,right,1.0,51.0,right.jpg,right,0.792,,A3ATB5GC4BQIH0
1027,72,,1.0,52.0,highway_394.jpg,,,,A3ATB5GC4BQIH0
1028,73,,1.0,53.0,highway_245.jpg,,,,A3ATB5GC4BQIH0
1029,74,,1.0,54.0,highway_359.jpg,,,,A3ATB5GC4BQIH0
1030,75,,1.0,55.0,bridge_256.jpg,,,,A3ATB5GC4BQIH0
1031,76,,1.0,56.0,bridge_250.jpg,,,,A3ATB5GC4BQIH0
1032,77,,1.0,57.0,playground_240.jpg,,,,A3ATB5GC4BQIH0
1033,78,,1.0,58.0,badlands_221.jpg,,,,A3ATB5GC4BQIH0
1034,79,,1.0,59.0,playground_144.jpg,,,,A3ATB5GC4BQIH0
1035,80,,1.0,60.0,golf_course_188.jpg,,,,A3ATB5GC4BQIH0
1036,81,,1.0,61.0,badlands_184.jpg,,,,A3ATB5GC4BQIH0
1037,82,,1.0,62.0,mountain_123.jpg,,,,A3ATB5GC4BQIH0
1038,83,,1.0,63.0,badlands_24.jpg,,,,A3ATB5GC4BQIH0
1039,84,,1.0,64.0,bridge_91.jpg,,,,A3ATB5GC4BQIH0
1040,20,,1.0,0.0,bridge_108.jpg,,,,A3AU8PZ6HHBCVT
1041,21,,1.0,1.0,playground_257.jpg,,,,A3AU8PZ6HHBCVT
1042,22,,1.0,2.0,highway_359.jpg,,,,A3AU8PZ6HHBCVT
1043,23,,1.0,3.0,badlands_222.jpg,,,,A3AU8PZ6HHBCVT
1044,24,,1.0,4.0,playground_10.jpg,,,,A3AU8PZ6HHBCVT
1045,25,,1.0,5.0,bridge_128.jpg,,,,A3AU8PZ6HHBCVT
1046,26,,1.0,6.0,bridge_172.jpg,,,,A3AU8PZ6HHBCVT
1047,27,,1.0,7.0,bridge_91.jpg,,,,A3AU8PZ6HHBCVT
1048,28,,1.0,8.0,mountain_57.jpg,,,,A3AU8PZ6HHBCVT
1049,29,,1.0,9.0,badlands_137.jpg,,,,A3AU8PZ6HHBCVT
1050,30,left,1.0,10.0,left.jpg,left,0.7455,,A3AU8PZ6HHBCVT
1051,31,,1.0,11.0,badlands_52.jpg,,,,A3AU8PZ6HHBCVT
1052,32,,1.0,12.0,badlands_113.jpg,,,,A3AU8PZ6HHBCVT
1053,33,,1.0,13.0,playground_76.jpg,,,,A3AU8PZ6HHBCVT
1054,34,,1.0,14.0,bridge_202.jpg,,,,A3AU8PZ6HHBCVT
1055,35,,1.0,15.0,badlands_221.jpg,,,,A3AU8PZ6HHBCVT
1056,36,,1.0,16.0,mountain_101.jpg,,,,A3AU8PZ6HHBCVT
1057,37,,1.0,17.0,playground_60.jpg,,,,A3AU8PZ6HHBCVT
1058,38,,1.0,18.0,mountain_154.jpg,,,,A3AU8PZ6HHBCVT
1059,39,,1.0,19.0,badlands_24.jpg,,,,A3AU8PZ6HHBCVT
1060,40,,1.0,20.0,mountain_293.jpg,,,,A3AU8PZ6HHBCVT
1061,41,,1.0,21.0,highway_177.jpg,,,,A3AU8PZ6HHBCVT
1062,42,,1.0,22.0,mountain_110.jpg,,,,A3AU8PZ6HHBCVT
1063,43,right,1.0,23.0,right.jpg,right,0.5718,,A3AU8PZ6HHBCVT
1064,44,,1.0,24.0,playground_240.jpg,,,,A3AU8PZ6HHBCVT
1065,45,,1.0,25.0,highway_415.jpg,,,,A3AU8PZ6HHBCVT
1066,46,right,1.0,26.0,right.jpg,right,0.6811,,A3AU8PZ6HHBCVT
1067,47,,1.0,27.0,highway_394.jpg,,,,A3AU8PZ6HHBCVT
1068,48,,1.0,28.0,golf_course_78.jpg,,,,A3AU8PZ6HHBCVT
1069,49,,1.0,29.0,golf_course_331.jpg,,,,A3AU8PZ6HHBCVT
1070,50,,1.0,30.0,bridge_146.jpg,,,,A3AU8PZ6HHBCVT
1071,51,,1.0,31.0,highway_156.jpg,,,,A3AU8PZ6HHBCVT
1072,52,,1.0,32.0,golf_course_217.jpg,,,,A3AU8PZ6HHBCVT
1073,53,,1.0,33.0,badlands_70.jpg,,,,A3AU8PZ6HHBCVT
1074,54,,1.0,34.0,golf_course_87.jpg,,,,A3AU8PZ6HHBCVT
1075,55,,1.0,35.0,highway_209.jpg,,,,A3AU8PZ6HHBCVT
1076,56,,1.0,36.0,playground_117.jpg,,,,A3AU8PZ6HHBCVT
1077,57,,1.0,37.0,badlands_21.jpg,,,,A3AU8PZ6HHBCVT
1078,58,,1.0,38.0,bridge_256.jpg,,,,A3AU8PZ6HHBCVT
1079,59,,1.0,39.0,bridge_250.jpg,,,,A3AU8PZ6HHBCVT
1080,60,,1.0,40.0,golf_course_193.jpg,,,,A3AU8PZ6HHBCVT
1081,61,left,1.0,41.0,left.jpg,left,0.7874,,A3AU8PZ6HHBCVT
1082,62,,1.0,42.0,bridge_65.jpg,,,,A3AU8PZ6HHBCVT
1083,63,,1.0,43.0,highway_245.jpg,,,,A3AU8PZ6HHBCVT
1084,64,,1.0,44.0,playground_131.jpg,,,,A3AU8PZ6HHBCVT
1085,65,,1.0,45.0,golf_course_195.jpg,,,,A3AU8PZ6HHBCVT
1086,66,,1.0,46.0,bridge_191.jpg,,,,A3AU8PZ6HHBCVT
1087,67,,1.0,47.0,mountain_123.jpg,,,,A3AU8PZ6HHBCVT
1088,68,,1.0,48.0,mountain_230.jpg,,,,A3AU8PZ6HHBCVT
1089,69,,1.0,49.0,highway_93.jpg,,,,A3AU8PZ6HHBCVT
1090,70,,1.0,50.0,badlands_23.jpg,,,,A3AU8PZ6HHBCVT
1091,71,left,1.0,51.0,left.jpg,left,0.8842,,A3AU8PZ6HHBCVT
1092,72,,1.0,52.0,mountain_156.jpg,,,,A3AU8PZ6HHBCVT
1093,73,,1.0,53.0,highway_273.jpg,,,,A3AU8PZ6HHBCVT
1094,74,,1.0,54.0,badlands_184.jpg,,,,A3AU8PZ6HHBCVT
1095,75,,1.0,55.0,highway_294.jpg,,,,A3AU8PZ6HHBCVT
1096,76,,1.0,56.0,golf_course_309.jpg,,,,A3AU8PZ6HHBCVT
1097,77,,1.0,57.0,mountain_232.jpg,,,,A3AU8PZ6HHBCVT
1098,78,,1.0,58.0,playground_145.jpg,,,,A3AU8PZ6HHBCVT
1099,79,,1.0,59.0,golf_course_214.jpg,,,,A3AU8PZ6HHBCVT
1100,80,,1.0,60.0,playground_219.jpg,,,,A3AU8PZ6HHBCVT
1101,81,,1.0,61.0,golf_course_188.jpg,,,,A3AU8PZ6HHBCVT
1102,82,,1.0,62.0,mountain_222.jpg,,,,A3AU8PZ6HHBCVT
1103,83,,1.0,63.0,golf_course_15.jpg,,,,A3AU8PZ6HHBCVT
1104,84,,1.0,64.0,playground_144.jpg,,,,A3AU8PZ6HHBCVT
1105,20,,1.0,0.0,badlands_24.jpg,,,,A3D8YUG5D5I4ER
1106,21,,1.0,1.0,playground_219.jpg,,,,A3D8YUG5D5I4ER
1107,22,,1.0,2.0,bridge_202.jpg,,,,A3D8YUG5D5I4ER
1108,23,,1.0,3.0,mountain_222.jpg,,,,A3D8YUG5D5I4ER
1109,24,,1.0,4.0,golf_course_331.jpg,,,,A3D8YUG5D5I4ER
1110,25,,1.0,5.0,golf_course_193.jpg,,,,A3D8YUG5D5I4ER
1111,26,,1.0,6.0,highway_245.jpg,,,,A3D8YUG5D5I4ER
1112,27,,1.0,7.0,playground_60.jpg,,,,A3D8YUG5D5I4ER
1113,28,,1.0,8.0,highway_359.jpg,,,,A3D8YUG5D5I4ER
1114,29,,0.0,9.0,left.jpg,left,,,A3D8YUG5D5I4ER
1115,30,,1.0,10.0,playground_10.jpg,,,,A3D8YUG5D5I4ER
1116,31,,1.0,11.0,golf_course_188.jpg,,,,A3D8YUG5D5I4ER
1117,32,,1.0,12.0,badlands_222.jpg,,,,A3D8YUG5D5I4ER
1118,33,,1.0,13.0,bridge_256.jpg,,,,A3D8YUG5D5I4ER
1119,34,,1.0,14.0,highway_294.jpg,,,,A3D8YUG5D5I4ER
1120,35,,1.0,15.0,badlands_52.jpg,,,,A3D8YUG5D5I4ER
1121,36,,1.0,16.0,mountain_123.jpg,,,,A3D8YUG5D5I4ER
1122,37,,1.0,17.0,playground_240.jpg,,,,A3D8YUG5D5I4ER
1123,38,right,1.0,18.0,right.jpg,right,1.5,,A3D8YUG5D5I4ER
1124,39,,1.0,19.0,mountain_57.jpg,,,,A3D8YUG5D5I4ER
1125,40,,1.0,20.0,bridge_65.jpg,,,,A3D8YUG5D5I4ER
1126,41,,1.0,21.0,highway_209.jpg,,,,A3D8YUG5D5I4ER
1127,42,,1.0,22.0,golf_course_309.jpg,,,,A3D8YUG5D5I4ER
1128,43,,1.0,23.0,golf_course_15.jpg,,,,A3D8YUG5D5I4ER
1129,44,,1.0,24.0,bridge_146.jpg,,,,A3D8YUG5D5I4ER
1130,45,,1.0,25.0,highway_156.jpg,,,,A3D8YUG5D5I4ER
1131,46,,1.0,26.0,highway_177.jpg,,,,A3D8YUG5D5I4ER
1132,47,,1.0,27.0,playground_131.jpg,,,,A3D8YUG5D5I4ER
1133,48,,1.0,28.0,bridge_108.jpg,,,,A3D8YUG5D5I4ER
1134,49,,1.0,29.0,mountain_232.jpg,,,,A3D8YUG5D5I4ER
1135,50,,1.0,30.0,badlands_70.jpg,,,,A3D8YUG5D5I4ER
1136,51,right,1.0,31.0,right.jpg,right,0.889,,A3D8YUG5D5I4ER
1137,52,,1.0,32.0,bridge_172.jpg,,,,A3D8YUG5D5I4ER
1138,53,,1.0,33.0,playground_117.jpg,,,,A3D8YUG5D5I4ER
1139,54,,1.0,34.0,badlands_137.jpg,,,,A3D8YUG5D5I4ER
1140,55,,1.0,35.0,badlands_221.jpg,,,,A3D8YUG5D5I4ER
1141,56,right,1.0,36.0,right.jpg,right,0.845,,A3D8YUG5D5I4ER
1142,57,,1.0,37.0,playground_257.jpg,,,,A3D8YUG5D5I4ER
1143,58,,1.0,38.0,highway_93.jpg,,,,A3D8YUG5D5I4ER
1144,59,,1.0,39.0,mountain_230.jpg,,,,A3D8YUG5D5I4ER
1145,60,,1.0,40.0,mountain_156.jpg,,,,A3D8YUG5D5I4ER
1146,61,,1.0,41.0,golf_course_87.jpg,,,,A3D8YUG5D5I4ER
1147,62,,1.0,42.0,bridge_91.jpg,,,,A3D8YUG5D5I4ER
1148,63,,1.0,43.0,badlands_184.jpg,,,,A3D8YUG5D5I4ER
1149,64,,1.0,44.0,mountain_293.jpg,,,,A3D8YUG5D5I4ER
1150,65,,1.0,45.0,badlands_23.jpg,,,,A3D8YUG5D5I4ER
1151,66,,1.0,46.0,highway_394.jpg,,,,A3D8YUG5D5I4ER
1152,67,right,1.0,47.0,right.jpg,right,0.824,,A3D8YUG5D5I4ER
1153,68,,1.0,48.0,playground_76.jpg,,,,A3D8YUG5D5I4ER
1154,69,,1.0,49.0,badlands_113.jpg,,,,A3D8YUG5D5I4ER
1155,70,,1.0,50.0,highway_415.jpg,,,,A3D8YUG5D5I4ER
1156,71,,1.0,51.0,highway_273.jpg,,,,A3D8YUG5D5I4ER
1157,72,,1.0,52.0,bridge_250.jpg,,,,A3D8YUG5D5I4ER
1158,73,,1.0,53.0,golf_course_214.jpg,,,,A3D8YUG5D5I4ER
1159,74,,1.0,54.0,bridge_191.jpg,,,,A3D8YUG5D5I4ER
1160,75,,1.0,55.0,playground_144.jpg,,,,A3D8YUG5D5I4ER
1161,76,,1.0,56.0,bridge_128.jpg,,,,A3D8YUG5D5I4ER
1162,77,,1.0,57.0,playground_145.jpg,,,,A3D8YUG5D5I4ER
1163,78,,1.0,58.0,badlands_21.jpg,,,,A3D8YUG5D5I4ER
1164,79,,1.0,59.0,golf_course_78.jpg,,,,A3D8YUG5D5I4ER
1165,80,,1.0,60.0,mountain_110.jpg,,,,A3D8YUG5D5I4ER
1166,81,,1.0,61.0,mountain_101.jpg,,,,A3D8YUG5D5I4ER
1167,82,,1.0,62.0,golf_course_195.jpg,,,,A3D8YUG5D5I4ER
1168,83,,1.0,63.0,mountain_154.jpg,,,,A3D8YUG5D5I4ER
1169,84,,1.0,64.0,golf_course_217.jpg,,,,A3D8YUG5D5I4ER
1170,20,,1.0,0.0,badlands_137.jpg,,,,A3LBMZYPY37NRW
1171,21,,1.0,1.0,playground_10.jpg,,,,A3LBMZYPY37NRW
1172,22,,1.0,2.0,playground_117.jpg,,,,A3LBMZYPY37NRW
1173,23,,1.0,3.0,playground_144.jpg,,,,A3LBMZYPY37NRW
1174,24,,1.0,4.0,highway_359.jpg,,,,A3LBMZYPY37NRW
1175,25,,1.0,5.0,playground_60.jpg,,,,A3LBMZYPY37NRW
1176,26,,1.0,6.0,bridge_108.jpg,,,,A3LBMZYPY37NRW
1177,27,,1.0,7.0,badlands_52.jpg,,,,A3LBMZYPY37NRW
1178,28,,1.0,8.0,highway_415.jpg,,,,A3LBMZYPY37NRW
1179,29,,1.0,9.0,highway_209.jpg,,,,A3LBMZYPY37NRW
1180,30,left,1.0,10.0,left.jpg,left,1.8213,,A3LBMZYPY37NRW
1181,31,,1.0,11.0,playground_219.jpg,,,,A3LBMZYPY37NRW
1182,32,,1.0,12.0,mountain_232.jpg,,,,A3LBMZYPY37NRW
1183,33,,1.0,13.0,mountain_110.jpg,,,,A3LBMZYPY37NRW
1184,34,,1.0,14.0,golf_course_87.jpg,,,,A3LBMZYPY37NRW
1185,35,,1.0,15.0,playground_131.jpg,,,,A3LBMZYPY37NRW
1186,36,,1.0,16.0,mountain_230.jpg,,,,A3LBMZYPY37NRW
1187,37,,1.0,17.0,badlands_70.jpg,,,,A3LBMZYPY37NRW
1188,38,right,1.0,18.0,right.jpg,right,1.4223,,A3LBMZYPY37NRW
1189,39,,1.0,19.0,bridge_250.jpg,,,,A3LBMZYPY37NRW
1190,40,,1.0,20.0,mountain_222.jpg,,,,A3LBMZYPY37NRW
1191,41,,1.0,21.0,golf_course_78.jpg,,,,A3LBMZYPY37NRW
1192,42,,1.0,22.0,badlands_21.jpg,,,,A3LBMZYPY37NRW
1193,43,,1.0,23.0,bridge_128.jpg,,,,A3LBMZYPY37NRW
1194,44,,1.0,24.0,bridge_146.jpg,,,,A3LBMZYPY37NRW
1195,45,,1.0,25.0,badlands_221.jpg,,,,A3LBMZYPY37NRW
1196,46,,1.0,26.0,bridge_91.jpg,,,,A3LBMZYPY37NRW
1197,47,,1.0,27.0,highway_273.jpg,,,,A3LBMZYPY37NRW
1198,48,,1.0,28.0,playground_240.jpg,,,,A3LBMZYPY37NRW
1199,49,left,1.0,29.0,left.jpg,left,1.4714,,A3LBMZYPY37NRW
1200,50,,1.0,30.0,playground_257.jpg,,,,A3LBMZYPY37NRW
1201,51,,1.0,31.0,golf_course_214.jpg,,,,A3LBMZYPY37NRW
1202,52,,1.0,32.0,golf_course_195.jpg,,,,A3LBMZYPY37NRW
1203,53,,1.0,33.0,golf_course_217.jpg,,,,A3LBMZYPY37NRW
1204,54,,1.0,34.0,highway_294.jpg,,,,A3LBMZYPY37NRW
1205,55,,1.0,35.0,highway_394.jpg,,,,A3LBMZYPY37NRW
1206,56,,1.0,36.0,badlands_23.jpg,,,,A3LBMZYPY37NRW
1207,57,,1.0,37.0,mountain_101.jpg,,,,A3LBMZYPY37NRW
1208,58,,1.0,38.0,highway_245.jpg,,,,A3LBMZYPY37NRW
1209,59,,1.0,39.0,highway_93.jpg,,,,A3LBMZYPY37NRW
1210,60,right,1.0,40.0,right.jpg,right,2.2275,,A3LBMZYPY37NRW
1211,61,,1.0,41.0,mountain_293.jpg,,,,A3LBMZYPY37NRW
1212,62,,1.0,42.0,bridge_191.jpg,,,,A3LBMZYPY37NRW
1213,63,,1.0,43.0,golf_course_15.jpg,,,,A3LBMZYPY37NRW
1214,64,,1.0,44.0,bridge_172.jpg,,,,A3LBMZYPY37NRW
1215,65,,1.0,45.0,badlands_113.jpg,,,,A3LBMZYPY37NRW
1216,66,,1.0,46.0,golf_course_309.jpg,,,,A3LBMZYPY37NRW
1217,67,,1.0,47.0,badlands_24.jpg,,,,A3LBMZYPY37NRW
1218,68,,1.0,48.0,mountain_154.jpg,,,,A3LBMZYPY37NRW
1219,69,,1.0,49.0,mountain_156.jpg,,,,A3LBMZYPY37NRW
1220,70,,1.0,50.0,highway_177.jpg,,,,A3LBMZYPY37NRW
1221,71,,1.0,51.0,highway_156.jpg,,,,A3LBMZYPY37NRW
1222,72,right,1.0,52.0,right.jpg,right,1.2461,,A3LBMZYPY37NRW
1223,73,,1.0,53.0,mountain_57.jpg,,,,A3LBMZYPY37NRW
1224,74,,1.0,54.0,bridge_256.jpg,,,,A3LBMZYPY37NRW
1225,75,,1.0,55.0,bridge_65.jpg,,,,A3LBMZYPY37NRW
1226,76,,1.0,56.0,badlands_184.jpg,,,,A3LBMZYPY37NRW
1227,77,,1.0,57.0,golf_course_193.jpg,,,,A3LBMZYPY37NRW
1228,78,,1.0,58.0,mountain_123.jpg,,,,A3LBMZYPY37NRW
1229,79,,1.0,59.0,bridge_202.jpg,,,,A3LBMZYPY37NRW
1230,80,,1.0,60.0,golf_course_331.jpg,,,,A3LBMZYPY37NRW
1231,81,,1.0,61.0,playground_145.jpg,,,,A3LBMZYPY37NRW
1232,82,,1.0,62.0,badlands_222.jpg,,,,A3LBMZYPY37NRW
1233,83,,1.0,63.0,golf_course_188.jpg,,,,A3LBMZYPY37NRW
1234,84,,1.0,64.0,playground_76.jpg,,,,A3LBMZYPY37NRW
1235,20,,1.0,0.0,badlands_24.jpg,,,,A3RK5N4X7J4JGK
1236,21,,1.0,1.0,badlands_52.jpg,,,,A3RK5N4X7J4JGK
1237,22,,1.0,2.0,golf_course_188.jpg,,,,A3RK5N4X7J4JGK
1238,23,,1.0,3.0,mountain_110.jpg,,,,A3RK5N4X7J4JGK
1239,24,,1.0,4.0,golf_course_217.jpg,,,,A3RK5N4X7J4JGK
1240,25,,1.0,5.0,golf_course_15.jpg,,,,A3RK5N4X7J4JGK
1241,26,,1.0,6.0,playground_60.jpg,,,,A3RK5N4X7J4JGK
1242,27,right,1.0,7.0,right.jpg,right,1.224,,A3RK5N4X7J4JGK
1243,28,,1.0,8.0,playground_219.jpg,,,,A3RK5N4X7J4JGK
1244,29,,1.0,9.0,badlands_21.jpg,,,,A3RK5N4X7J4JGK
1245,30,,1.0,10.0,badlands_23.jpg,,,,A3RK5N4X7J4JGK
1246,31,,1.0,11.0,playground_145.jpg,,,,A3RK5N4X7J4JGK
1247,32,,1.0,12.0,golf_course_331.jpg,,,,A3RK5N4X7J4JGK
1248,33,,1.0,13.0,badlands_184.jpg,,,,A3RK5N4X7J4JGK
1249,34,,1.0,14.0,mountain_154.jpg,,,,A3RK5N4X7J4JGK
1250,35,,1.0,15.0,bridge_172.jpg,,,,A3RK5N4X7J4JGK
1251,36,,1.0,16.0,badlands_221.jpg,,,,A3RK5N4X7J4JGK
1252,37,,1.0,17.0,playground_10.jpg,,,,A3RK5N4X7J4JGK
1253,38,right,1.0,18.0,right.jpg,right,0.901,,A3RK5N4X7J4JGK
1254,39,,1.0,19.0,highway_294.jpg,,,,A3RK5N4X7J4JGK
1255,40,,1.0,20.0,bridge_146.jpg,,,,A3RK5N4X7J4JGK
1256,41,,1.0,21.0,golf_course_309.jpg,,,,A3RK5N4X7J4JGK
1257,42,,1.0,22.0,badlands_70.jpg,,,,A3RK5N4X7J4JGK
1258,43,,1.0,23.0,playground_257.jpg,,,,A3RK5N4X7J4JGK
1259,44,,1.0,24.0,badlands_137.jpg,,,,A3RK5N4X7J4JGK
1260,45,,1.0,25.0,bridge_108.jpg,,,,A3RK5N4X7J4JGK
1261,46,,1.0,26.0,highway_245.jpg,,,,A3RK5N4X7J4JGK
1262,47,,1.0,27.0,highway_177.jpg,,,,A3RK5N4X7J4JGK
1263,48,,1.0,28.0,highway_415.jpg,,,,A3RK5N4X7J4JGK
1264,49,,1.0,29.0,mountain_101.jpg,,,,A3RK5N4X7J4JGK
1265,50,,1.0,30.0,playground_144.jpg,,,,A3RK5N4X7J4JGK
1266,51,left,1.0,31.0,left.jpg,left,1.241,,A3RK5N4X7J4JGK
1267,52,,1.0,32.0,mountain_57.jpg,,,,A3RK5N4X7J4JGK
1268,53,,1.0,33.0,mountain_293.jpg,,,,A3RK5N4X7J4JGK
1269,54,,1.0,34.0,mountain_230.jpg,,,,A3RK5N4X7J4JGK
1270,55,,1.0,35.0,badlands_113.jpg,,,,A3RK5N4X7J4JGK
1271,56,,1.0,36.0,golf_course_78.jpg,,,,A3RK5N4X7J4JGK
1272,57,,1.0,37.0,bridge_202.jpg,,,,A3RK5N4X7J4JGK
1273,58,,1.0,38.0,bridge_191.jpg,,,,A3RK5N4X7J4JGK
1274,59,,0.0,39.0,right.jpg,right,,,A3RK5N4X7J4JGK
1275,60,,1.0,40.0,playground_240.jpg,,,,A3RK5N4X7J4JGK
1276,61,,1.0,41.0,golf_course_193.jpg,,,,A3RK5N4X7J4JGK
1277,62,,1.0,42.0,playground_76.jpg,,,,A3RK5N4X7J4JGK
1278,63,,1.0,43.0,highway_359.jpg,,,,A3RK5N4X7J4JGK
1279,64,,1.0,44.0,mountain_156.jpg,,,,A3RK5N4X7J4JGK
1280,65,,1.0,45.0,highway_209.jpg,,,,A3RK5N4X7J4JGK
1281,66,,1.0,46.0,mountain_222.jpg,,,,A3RK5N4X7J4JGK
1282,67,,1.0,47.0,highway_273.jpg,,,,A3RK5N4X7J4JGK
1283,68,left,1.0,48.0,left.jpg,left,0.913,,A3RK5N4X7J4JGK
1284,69,,1.0,49.0,golf_course_87.jpg,,,,A3RK5N4X7J4JGK
1285,70,,1.0,50.0,highway_93.jpg,,,,A3RK5N4X7J4JGK
1286,71,,1.0,51.0,bridge_256.jpg,,,,A3RK5N4X7J4JGK
1287,72,,1.0,52.0,mountain_232.jpg,,,,A3RK5N4X7J4JGK
1288,73,,1.0,53.0,bridge_128.jpg,,,,A3RK5N4X7J4JGK
1289,74,,1.0,54.0,bridge_65.jpg,,,,A3RK5N4X7J4JGK
1290,75,,1.0,55.0,bridge_250.jpg,,,,A3RK5N4X7J4JGK
1291,76,,1.0,56.0,golf_course_214.jpg,,,,A3RK5N4X7J4JGK
1292,77,,1.0,57.0,bridge_91.jpg,,,,A3RK5N4X7J4JGK
1293,78,,1.0,58.0,playground_117.jpg,,,,A3RK5N4X7J4JGK
1294,79,,1.0,59.0,highway_394.jpg,,,,A3RK5N4X7J4JGK
1295,80,,1.0,60.0,mountain_123.jpg,,,,A3RK5N4X7J4JGK
1296,81,,1.0,61.0,highway_156.jpg,,,,A3RK5N4X7J4JGK
1297,82,,1.0,62.0,badlands_222.jpg,,,,A3RK5N4X7J4JGK
1298,83,,1.0,63.0,golf_course_195.jpg,,,,A3RK5N4X7J4JGK
1299,84,,1.0,64.0,playground_131.jpg,,,,A3RK5N4X7J4JGK
1300,20,,1.0,0.0,playground_145.jpg,,,,A3SMMI1Z1558QE
1301,21,,1.0,1.0,badlands_221.jpg,,,,A3SMMI1Z1558QE
1302,22,,1.0,2.0,bridge_172.jpg,,,,A3SMMI1Z1558QE
1303,23,,1.0,3.0,golf_course_217.jpg,,,,A3SMMI1Z1558QE
1304,24,,1.0,4.0,golf_course_87.jpg,,,,A3SMMI1Z1558QE
1305,25,,1.0,5.0,bridge_146.jpg,,,,A3SMMI1Z1558QE
1306,26,,1.0,6.0,badlands_137.jpg,,,,A3SMMI1Z1558QE
1307,27,,1.0,7.0,badlands_70.jpg,,,,A3SMMI1Z1558QE
1308,28,,1.0,8.0,golf_course_193.jpg,,,,A3SMMI1Z1558QE
1309,29,,1.0,9.0,bridge_128.jpg,,,,A3SMMI1Z1558QE
1310,30,left,1.0,10.0,left.jpg,left,2.4897,,A3SMMI1Z1558QE
1311,31,,1.0,11.0,mountain_110.jpg,,,,A3SMMI1Z1558QE
1312,32,,1.0,12.0,bridge_202.jpg,,,,A3SMMI1Z1558QE
1313,33,,1.0,13.0,bridge_108.jpg,,,,A3SMMI1Z1558QE
1314,34,,1.0,14.0,highway_394.jpg,,,,A3SMMI1Z1558QE
1315,35,,1.0,15.0,badlands_222.jpg,,,,A3SMMI1Z1558QE
1316,36,,1.0,16.0,highway_415.jpg,,,,A3SMMI1Z1558QE
1317,37,left,1.0,17.0,left.jpg,left,1.5995,,A3SMMI1Z1558QE
1318,38,,1.0,18.0,playground_60.jpg,,,,A3SMMI1Z1558QE
1319,39,,1.0,19.0,highway_294.jpg,,,,A3SMMI1Z1558QE
1320,40,,1.0,20.0,mountain_123.jpg,,,,A3SMMI1Z1558QE
1321,41,,1.0,21.0,mountain_230.jpg,,,,A3SMMI1Z1558QE
1322,42,,1.0,22.0,golf_course_195.jpg,,,,A3SMMI1Z1558QE
1323,43,,1.0,23.0,badlands_21.jpg,,,,A3SMMI1Z1558QE
1324,44,,1.0,24.0,bridge_256.jpg,,,,A3SMMI1Z1558QE
1325,45,,1.0,25.0,playground_131.jpg,,,,A3SMMI1Z1558QE
1326,46,,1.0,26.0,bridge_65.jpg,,,,A3SMMI1Z1558QE
1327,47,,1.0,27.0,highway_359.jpg,,,,A3SMMI1Z1558QE
1328,48,,1.0,28.0,badlands_52.jpg,,,,A3SMMI1Z1558QE
1329,49,,1.0,29.0,playground_219.jpg,,,,A3SMMI1Z1558QE
1330,50,,1.0,30.0,highway_93.jpg,,,,A3SMMI1Z1558QE
1331,51,,0.0,31.0,right.jpg,right,,,A3SMMI1Z1558QE
1332,52,,1.0,32.0,bridge_250.jpg,,,,A3SMMI1Z1558QE
1333,53,,1.0,33.0,bridge_91.jpg,,,,A3SMMI1Z1558QE
1334,54,,1.0,34.0,badlands_184.jpg,,,,A3SMMI1Z1558QE
1335,55,,1.0,35.0,highway_245.jpg,,,,A3SMMI1Z1558QE
1336,56,,1.0,36.0,playground_257.jpg,,,,A3SMMI1Z1558QE
1337,57,,1.0,37.0,mountain_101.jpg,,,,A3SMMI1Z1558QE
1338,58,,1.0,38.0,highway_209.jpg,,,,A3SMMI1Z1558QE
1339,59,,1.0,39.0,mountain_156.jpg,,,,A3SMMI1Z1558QE
1340,60,,1.0,40.0,playground_144.jpg,,,,A3SMMI1Z1558QE
1341,61,right,1.0,41.0,right.jpg,right,1.7596,,A3SMMI1Z1558QE
1342,62,,1.0,42.0,bridge_191.jpg,,,,A3SMMI1Z1558QE
1343,63,,1.0,43.0,golf_course_331.jpg,,,,A3SMMI1Z1558QE
1344,64,,1.0,44.0,golf_course_15.jpg,,,,A3SMMI1Z1558QE
1345,65,,1.0,45.0,golf_course_214.jpg,,,,A3SMMI1Z1558QE
1346,66,,1.0,46.0,badlands_24.jpg,,,,A3SMMI1Z1558QE
1347,67,,1.0,47.0,playground_117.jpg,,,,A3SMMI1Z1558QE
1348,68,,1.0,48.0,badlands_23.jpg,,,,A3SMMI1Z1558QE
1349,69,,1.0,49.0,mountain_154.jpg,,,,A3SMMI1Z1558QE
1350,70,,1.0,50.0,highway_177.jpg,,,,A3SMMI1Z1558QE
1351,71,,1.0,51.0,golf_course_188.jpg,,,,A3SMMI1Z1558QE
1352,72,left,1.0,52.0,left.jpg,left,1.7251,,A3SMMI1Z1558QE
1353,73,,1.0,53.0,highway_156.jpg,,,,A3SMMI1Z1558QE
1354,74,,1.0,54.0,playground_10.jpg,,,,A3SMMI1Z1558QE
1355,75,,1.0,55.0,badlands_113.jpg,,,,A3SMMI1Z1558QE
1356,76,,1.0,56.0,playground_240.jpg,,,,A3SMMI1Z1558QE
1357,77,,1.0,57.0,mountain_293.jpg,,,,A3SMMI1Z1558QE
1358,78,,1.0,58.0,mountain_57.jpg,,,,A3SMMI1Z1558QE
1359,79,,1.0,59.0,golf_course_78.jpg,,,,A3SMMI1Z1558QE
1360,80,,1.0,60.0,highway_273.jpg,,,,A3SMMI1Z1558QE
1361,81,,1.0,61.0,mountain_232.jpg,,,,A3SMMI1Z1558QE
1362,82,,1.0,62.0,golf_course_309.jpg,,,,A3SMMI1Z1558QE
1363,83,,1.0,63.0,playground_76.jpg,,,,A3SMMI1Z1558QE
1364,84,,1.0,64.0,mountain_222.jpg,,,,A3SMMI1Z1558QE
1365,20,,1.0,0.0,bridge_108.jpg,,,,AC01SVLHOB6HN
1366,21,,1.0,1.0,mountain_230.jpg,,,,AC01SVLHOB6HN
1367,22,,1.0,2.0,highway_177.jpg,,,,AC01SVLHOB6HN
1368,23,,1.0,3.0,playground_60.jpg,,,,AC01SVLHOB6HN
1369,24,,1.0,4.0,bridge_146.jpg,,,,AC01SVLHOB6HN
1370,25,,1.0,5.0,playground_219.jpg,,,,AC01SVLHOB6HN
1371,26,,1.0,6.0,highway_156.jpg,,,,AC01SVLHOB6HN
1372,27,,1.0,7.0,mountain_154.jpg,,,,AC01SVLHOB6HN
1373,28,,1.0,8.0,playground_144.jpg,,,,AC01SVLHOB6HN
1374,29,,1.0,9.0,highway_209.jpg,,,,AC01SVLHOB6HN
1375,30,right,1.0,10.0,right.jpg,right,2.4926,,AC01SVLHOB6HN
1376,31,,1.0,11.0,bridge_91.jpg,,,,AC01SVLHOB6HN
1377,32,,1.0,12.0,bridge_256.jpg,,,,AC01SVLHOB6HN
1378,33,,1.0,13.0,highway_294.jpg,,,,AC01SVLHOB6HN
1379,34,,1.0,14.0,playground_240.jpg,,,,AC01SVLHOB6HN
1380,35,,1.0,15.0,badlands_222.jpg,,,,AC01SVLHOB6HN
1381,36,,1.0,16.0,golf_course_188.jpg,,,,AC01SVLHOB6HN
1382,37,,1.0,17.0,bridge_191.jpg,,,,AC01SVLHOB6HN
1383,38,,1.0,18.0,golf_course_331.jpg,,,,AC01SVLHOB6HN
1384,39,right,1.0,19.0,right.jpg,right,1.8027,,AC01SVLHOB6HN
1385,40,,1.0,20.0,mountain_232.jpg,,,,AC01SVLHOB6HN
1386,41,,1.0,21.0,bridge_128.jpg,,,,AC01SVLHOB6HN
1387,42,,1.0,22.0,highway_359.jpg,,,,AC01SVLHOB6HN
1388,43,,1.0,23.0,bridge_250.jpg,,,,AC01SVLHOB6HN
1389,44,,1.0,24.0,badlands_24.jpg,,,,AC01SVLHOB6HN
1390,45,,1.0,25.0,badlands_184.jpg,,,,AC01SVLHOB6HN
1391,46,right,1.0,26.0,right.jpg,right,1.4924,,AC01SVLHOB6HN
1392,47,,1.0,27.0,badlands_52.jpg,,,,AC01SVLHOB6HN
1393,48,,1.0,28.0,highway_93.jpg,,,,AC01SVLHOB6HN
1394,49,,1.0,29.0,golf_course_217.jpg,,,,AC01SVLHOB6HN
1395,50,,1.0,30.0,mountain_57.jpg,,,,AC01SVLHOB6HN
1396,51,,1.0,31.0,bridge_202.jpg,,,,AC01SVLHOB6HN
1397,52,,1.0,32.0,badlands_23.jpg,,,,AC01SVLHOB6HN
1398,53,,1.0,33.0,badlands_113.jpg,,,,AC01SVLHOB6HN
1399,54,,1.0,34.0,mountain_156.jpg,,,,AC01SVLHOB6HN
1400,55,,1.0,35.0,mountain_293.jpg,,,,AC01SVLHOB6HN
1401,56,,1.0,36.0,golf_course_193.jpg,,,,AC01SVLHOB6HN
1402,57,,1.0,37.0,golf_course_214.jpg,,,,AC01SVLHOB6HN
1403,58,,1.0,38.0,bridge_65.jpg,,,,AC01SVLHOB6HN
1404,59,,1.0,39.0,highway_273.jpg,,,,AC01SVLHOB6HN
1405,60,,1.0,40.0,badlands_70.jpg,,,,AC01SVLHOB6HN
1406,61,right,0.0,41.0,left.jpg,left,0.9235,,AC01SVLHOB6HN
1407,62,,1.0,42.0,highway_394.jpg,,,,AC01SVLHOB6HN
1408,63,,1.0,43.0,playground_10.jpg,,,,AC01SVLHOB6HN
1409,64,,1.0,44.0,badlands_221.jpg,,,,AC01SVLHOB6HN
1410,65,,1.0,45.0,mountain_110.jpg,,,,AC01SVLHOB6HN
1411,66,,1.0,46.0,mountain_101.jpg,,,,AC01SVLHOB6HN
1412,67,,1.0,47.0,badlands_137.jpg,,,,AC01SVLHOB6HN
1413,68,,1.0,48.0,bridge_172.jpg,,,,AC01SVLHOB6HN
1414,69,,1.0,49.0,playground_117.jpg,,,,AC01SVLHOB6HN
1415,70,,1.0,50.0,playground_145.jpg,,,,AC01SVLHOB6HN
1416,71,,1.0,51.0,mountain_222.jpg,,,,AC01SVLHOB6HN
1417,72,right,1.0,52.0,right.jpg,right,1.4677,,AC01SVLHOB6HN
1418,73,,1.0,53.0,golf_course_309.jpg,,,,AC01SVLHOB6HN
1419,74,,1.0,54.0,playground_76.jpg,,,,AC01SVLHOB6HN
1420,75,,1.0,55.0,mountain_123.jpg,,,,AC01SVLHOB6HN
1421,76,,1.0,56.0,golf_course_78.jpg,,,,AC01SVLHOB6HN
1422,77,,1.0,57.0,golf_course_15.jpg,,,,AC01SVLHOB6HN
1423,78,,1.0,58.0,highway_415.jpg,,,,AC01SVLHOB6HN
1424,79,,1.0,59.0,golf_course_87.jpg,,,,AC01SVLHOB6HN
1425,80,,1.0,60.0,badlands_21.jpg,,,,AC01SVLHOB6HN
1426,81,,1.0,61.0,highway_245.jpg,,,,AC01SVLHOB6HN
1427,82,,1.0,62.0,playground_257.jpg,,,,AC01SVLHOB6HN
1428,83,,1.0,63.0,playground_131.jpg,,,,AC01SVLHOB6HN
1429,84,,1.0,64.0,golf_course_195.jpg,,,,AC01SVLHOB6HN
1430,20,,1.0,0.0,bridge_65.jpg,,,,AF6DVGK1GTFER
1431,21,,1.0,1.0,badlands_24.jpg,,,,AF6DVGK1GTFER
1432,22,,1.0,2.0,highway_415.jpg,,,,AF6DVGK1GTFER
1433,23,,1.0,3.0,badlands_21.jpg,,,,AF6DVGK1GTFER
1434,24,,1.0,4.0,playground_131.jpg,,,,AF6DVGK1GTFER
1435,25,,1.0,5.0,playground_219.jpg,,,,AF6DVGK1GTFER
1436,26,,1.0,6.0,highway_359.jpg,,,,AF6DVGK1GTFER
1437,27,,1.0,7.0,bridge_256.jpg,,,,AF6DVGK1GTFER
1438,28,,1.0,8.0,mountain_230.jpg,,,,AF6DVGK1GTFER
1439,29,,1.0,9.0,golf_course_195.jpg,,,,AF6DVGK1GTFER
1440,30,,1.0,10.0,playground_144.jpg,,,,AF6DVGK1GTFER
1441,31,,1.0,11.0,bridge_146.jpg,,,,AF6DVGK1GTFER
1442,32,left,1.0,12.0,left.jpg,left,1.5126,,AF6DVGK1GTFER
1443,33,,1.0,13.0,playground_117.jpg,,,,AF6DVGK1GTFER
1444,34,,1.0,14.0,bridge_191.jpg,,,,AF6DVGK1GTFER
1445,35,,1.0,15.0,playground_257.jpg,,,,AF6DVGK1GTFER
1446,36,,1.0,16.0,highway_177.jpg,,,,AF6DVGK1GTFER
1447,37,,1.0,17.0,badlands_113.jpg,,,,AF6DVGK1GTFER
1448,38,,1.0,18.0,highway_273.jpg,,,,AF6DVGK1GTFER
1449,39,,1.0,19.0,golf_course_78.jpg,,,,AF6DVGK1GTFER
1450,40,,1.0,20.0,badlands_70.jpg,,,,AF6DVGK1GTFER
1451,41,left,1.0,21.0,left.jpg,left,1.0569,,AF6DVGK1GTFER
1452,42,,1.0,22.0,golf_course_217.jpg,,,,AF6DVGK1GTFER
1453,43,,1.0,23.0,bridge_250.jpg,,,,AF6DVGK1GTFER
1454,44,,1.0,24.0,badlands_52.jpg,,,,AF6DVGK1GTFER
1455,45,,1.0,25.0,playground_60.jpg,,,,AF6DVGK1GTFER
1456,46,,1.0,26.0,mountain_123.jpg,,,,AF6DVGK1GTFER
1457,47,,1.0,27.0,mountain_156.jpg,,,,AF6DVGK1GTFER
1458,48,,1.0,28.0,badlands_221.jpg,,,,AF6DVGK1GTFER
1459,49,,1.0,29.0,highway_209.jpg,,,,AF6DVGK1GTFER
1460,50,,1.0,30.0,playground_76.jpg,,,,AF6DVGK1GTFER
1461,51,,1.0,31.0,golf_course_214.jpg,,,,AF6DVGK1GTFER
1462,52,,1.0,32.0,badlands_222.jpg,,,,AF6DVGK1GTFER
1463,53,,1.0,33.0,mountain_110.jpg,,,,AF6DVGK1GTFER
1464,54,right,1.0,34.0,right.jpg,right,1.4452,,AF6DVGK1GTFER
1465,55,,1.0,35.0,golf_course_193.jpg,,,,AF6DVGK1GTFER
1466,56,,1.0,36.0,highway_294.jpg,,,,AF6DVGK1GTFER
1467,57,,1.0,37.0,bridge_91.jpg,,,,AF6DVGK1GTFER
1468,58,,1.0,38.0,highway_394.jpg,,,,AF6DVGK1GTFER
1469,59,,1.0,39.0,mountain_232.jpg,,,,AF6DVGK1GTFER
1470,60,right,1.0,40.0,right.jpg,right,1.6407,,AF6DVGK1GTFER
1471,61,,1.0,41.0,mountain_101.jpg,,,,AF6DVGK1GTFER
1472,62,,1.0,42.0,bridge_108.jpg,,,,AF6DVGK1GTFER
1473,63,,1.0,43.0,highway_156.jpg,,,,AF6DVGK1GTFER
1474,64,,1.0,44.0,mountain_293.jpg,,,,AF6DVGK1GTFER
1475,65,,1.0,45.0,playground_10.jpg,,,,AF6DVGK1GTFER
1476,66,,1.0,46.0,badlands_23.jpg,,,,AF6DVGK1GTFER
1477,67,,1.0,47.0,golf_course_15.jpg,,,,AF6DVGK1GTFER
1478,68,,1.0,48.0,badlands_137.jpg,,,,AF6DVGK1GTFER
1479,69,,1.0,49.0,golf_course_331.jpg,,,,AF6DVGK1GTFER
1480,70,,1.0,50.0,bridge_128.jpg,,,,AF6DVGK1GTFER
1481,71,,1.0,51.0,mountain_154.jpg,,,,AF6DVGK1GTFER
1482,72,,1.0,52.0,highway_245.jpg,,,,AF6DVGK1GTFER
1483,73,left,1.0,53.0,left.jpg,left,1.4002,,AF6DVGK1GTFER
1484,74,,1.0,54.0,mountain_222.jpg,,,,AF6DVGK1GTFER
1485,75,,1.0,55.0,playground_145.jpg,,,,AF6DVGK1GTFER
1486,76,,1.0,56.0,golf_course_188.jpg,,,,AF6DVGK1GTFER
1487,77,,1.0,57.0,bridge_172.jpg,,,,AF6DVGK1GTFER
1488,78,,1.0,58.0,badlands_184.jpg,,,,AF6DVGK1GTFER
1489,79,,1.0,59.0,bridge_202.jpg,,,,AF6DVGK1GTFER
1490,80,,1.0,60.0,mountain_57.jpg,,,,AF6DVGK1GTFER
1491,81,,1.0,61.0,golf_course_309.jpg,,,,AF6DVGK1GTFER
1492,82,,1.0,62.0,golf_course_87.jpg,,,,AF6DVGK1GTFER
1493,83,,1.0,63.0,highway_93.jpg,,,,AF6DVGK1GTFER
1494,84,,1.0,64.0,playground_240.jpg,,,,AF6DVGK1GTFER
1495,20,,1.0,0.0,highway_394.jpg,,,,AJT7C07A187KA
1496,21,,1.0,1.0,golf_course_331.jpg,,,,AJT7C07A187KA
1497,22,,1.0,2.0,badlands_21.jpg,,,,AJT7C07A187KA
1498,23,,1.0,3.0,highway_245.jpg,,,,AJT7C07A187KA
1499,24,,1.0,4.0,badlands_221.jpg,,,,AJT7C07A187KA
1500,25,,1.0,5.0,bridge_146.jpg,,,,AJT7C07A187KA
1501,26,,1.0,6.0,badlands_23.jpg,,,,AJT7C07A187KA
1502,27,,1.0,7.0,highway_209.jpg,,,,AJT7C07A187KA
1503,28,,1.0,8.0,mountain_154.jpg,,,,AJT7C07A187KA
1504,29,right,1.0,9.0,right.jpg,right,2.1363,,AJT7C07A187KA
1505,30,,1.0,10.0,mountain_156.jpg,,,,AJT7C07A187KA
1506,31,,1.0,11.0,mountain_57.jpg,,,,AJT7C07A187KA
1507,32,,1.0,12.0,highway_156.jpg,,,,AJT7C07A187KA
1508,33,,1.0,13.0,golf_course_78.jpg,,,,AJT7C07A187KA
1509,34,,1.0,14.0,bridge_65.jpg,,,,AJT7C07A187KA
1510,35,,1.0,15.0,playground_240.jpg,,,,AJT7C07A187KA
1511,36,,1.0,16.0,playground_257.jpg,,,,AJT7C07A187KA
1512,37,right,1.0,17.0,right.jpg,right,0.8852,,AJT7C07A187KA
1513,38,,1.0,18.0,bridge_202.jpg,,,,AJT7C07A187KA
1514,39,,1.0,19.0,bridge_191.jpg,,,,AJT7C07A187KA
1515,40,,1.0,20.0,golf_course_217.jpg,,,,AJT7C07A187KA
1516,41,,1.0,21.0,highway_294.jpg,,,,AJT7C07A187KA
1517,42,,1.0,22.0,playground_145.jpg,,,,AJT7C07A187KA
1518,43,,1.0,23.0,badlands_113.jpg,,,,AJT7C07A187KA
1519,44,,1.0,24.0,highway_415.jpg,,,,AJT7C07A187KA
1520,45,,1.0,25.0,playground_219.jpg,,,,AJT7C07A187KA
1521,46,left,1.0,26.0,left.jpg,left,0.9665,,AJT7C07A187KA
1522,47,,1.0,27.0,badlands_24.jpg,,,,AJT7C07A187KA
1523,48,,1.0,28.0,mountain_222.jpg,,,,AJT7C07A187KA
1524,49,,1.0,29.0,mountain_110.jpg,,,,AJT7C07A187KA
1525,50,,1.0,30.0,bridge_91.jpg,,,,AJT7C07A187KA
1526,51,,1.0,31.0,mountain_123.jpg,,,,AJT7C07A187KA
1527,52,,1.0,32.0,bridge_250.jpg,,,,AJT7C07A187KA
1528,53,,1.0,33.0,golf_course_87.jpg,,,,AJT7C07A187KA
1529,54,,1.0,34.0,bridge_128.jpg,,,,AJT7C07A187KA
1530,55,,1.0,35.0,playground_131.jpg,,,,AJT7C07A187KA
1531,56,,1.0,36.0,golf_course_188.jpg,,,,AJT7C07A187KA
1532,57,,1.0,37.0,bridge_256.jpg,,,,AJT7C07A187KA
1533,58,,1.0,38.0,badlands_184.jpg,,,,AJT7C07A187KA
1534,59,,1.0,39.0,badlands_222.jpg,,,,AJT7C07A187KA
1535,60,left,1.0,40.0,left.jpg,left,1.0457,,AJT7C07A187KA
1536,61,,1.0,41.0,golf_course_214.jpg,,,,AJT7C07A187KA
1537,62,,1.0,42.0,badlands_52.jpg,,,,AJT7C07A187KA
1538,63,,1.0,43.0,playground_144.jpg,,,,AJT7C07A187KA
1539,64,,1.0,44.0,golf_course_15.jpg,,,,AJT7C07A187KA
1540,65,,1.0,45.0,playground_10.jpg,,,,AJT7C07A187KA
1541,66,,1.0,46.0,playground_76.jpg,,,,AJT7C07A187KA
1542,67,,1.0,47.0,highway_359.jpg,,,,AJT7C07A187KA
1543,68,,1.0,48.0,mountain_230.jpg,,,,AJT7C07A187KA
1544,69,,1.0,49.0,highway_93.jpg,,,,AJT7C07A187KA
1545,70,right,1.0,50.0,right.jpg,right,1.418,,AJT7C07A187KA
1546,71,,1.0,51.0,mountain_293.jpg,,,,AJT7C07A187KA
1547,72,,1.0,52.0,mountain_232.jpg,,,,AJT7C07A187KA
1548,73,,1.0,53.0,mountain_101.jpg,,,,AJT7C07A187KA
1549,74,,1.0,54.0,badlands_137.jpg,,,,AJT7C07A187KA
1550,75,,1.0,55.0,highway_273.jpg,,,,AJT7C07A187KA
1551,76,,1.0,56.0,golf_course_309.jpg,,,,AJT7C07A187KA
1552,77,,1.0,57.0,bridge_108.jpg,,,,AJT7C07A187KA
1553,78,,1.0,58.0,golf_course_193.jpg,,,,AJT7C07A187KA
1554,79,,1.0,59.0,highway_177.jpg,,,,AJT7C07A187KA
1555,80,,1.0,60.0,playground_60.jpg,,,,AJT7C07A187KA
1556,81,,1.0,61.0,golf_course_195.jpg,,,,AJT7C07A187KA
1557,82,,1.0,62.0,playground_117.jpg,,,,AJT7C07A187KA
1558,83,,1.0,63.0,bridge_172.jpg,,,,AJT7C07A187KA
1559,84,,1.0,64.0,badlands_70.jpg,,,,AJT7C07A187KA
1560,20,,1.0,0.0,highway_359.jpg,,,,AW07POT8ABE05
1561,21,,1.0,1.0,golf_course_195.jpg,,,,AW07POT8ABE05
1562,22,,1.0,2.0,mountain_57.jpg,,,,AW07POT8ABE05
1563,23,,1.0,3.0,highway_245.jpg,,,,AW07POT8ABE05
1564,24,,1.0,4.0,mountain_123.jpg,,,,AW07POT8ABE05
1565,25,,1.0,5.0,badlands_70.jpg,,,,AW07POT8ABE05
1566,26,right,1.0,6.0,right.jpg,right,2.06,,AW07POT8ABE05
1567,27,,1.0,7.0,highway_294.jpg,,,,AW07POT8ABE05
1568,28,,1.0,8.0,bridge_146.jpg,,,,AW07POT8ABE05
1569,29,,1.0,9.0,golf_course_87.jpg,,,,AW07POT8ABE05
1570,30,,1.0,10.0,golf_course_331.jpg,,,,AW07POT8ABE05
1571,31,,1.0,11.0,mountain_110.jpg,,,,AW07POT8ABE05
1572,32,,1.0,12.0,mountain_293.jpg,,,,AW07POT8ABE05
1573,33,,1.0,13.0,mountain_156.jpg,,,,AW07POT8ABE05
1574,34,,1.0,14.0,highway_415.jpg,,,,AW07POT8ABE05
1575,35,,1.0,15.0,bridge_191.jpg,,,,AW07POT8ABE05
1576,36,,1.0,16.0,bridge_65.jpg,,,,AW07POT8ABE05
1577,37,,1.0,17.0,highway_209.jpg,,,,AW07POT8ABE05
1578,38,,1.0,18.0,bridge_256.jpg,,,,AW07POT8ABE05
1579,39,,1.0,19.0,bridge_128.jpg,,,,AW07POT8ABE05
1580,40,,1.0,20.0,bridge_108.jpg,,,,AW07POT8ABE05
1581,41,,1.0,21.0,badlands_21.jpg,,,,AW07POT8ABE05
1582,42,,1.0,22.0,badlands_24.jpg,,,,AW07POT8ABE05
1583,43,right,1.0,23.0,right.jpg,right,1.1245,,AW07POT8ABE05
1584,44,,1.0,24.0,highway_156.jpg,,,,AW07POT8ABE05
1585,45,,1.0,25.0,golf_course_214.jpg,,,,AW07POT8ABE05
1586,46,,1.0,26.0,highway_273.jpg,,,,AW07POT8ABE05
1587,47,,1.0,27.0,badlands_52.jpg,,,,AW07POT8ABE05
1588,48,,1.0,28.0,golf_course_309.jpg,,,,AW07POT8ABE05
1589,49,,1.0,29.0,badlands_221.jpg,,,,AW07POT8ABE05
1590,50,left,1.0,30.0,left.jpg,left,1.1573,,AW07POT8ABE05
1591,51,,1.0,31.0,playground_219.jpg,,,,AW07POT8ABE05
1592,52,,1.0,32.0,badlands_23.jpg,,,,AW07POT8ABE05
1593,53,,1.0,33.0,badlands_222.jpg,,,,AW07POT8ABE05
1594,54,,1.0,34.0,bridge_172.jpg,,,,AW07POT8ABE05
1595,55,,1.0,35.0,golf_course_193.jpg,,,,AW07POT8ABE05
1596,56,,1.0,36.0,badlands_113.jpg,,,,AW07POT8ABE05
1597,57,,1.0,37.0,bridge_250.jpg,,,,AW07POT8ABE05
1598,58,,1.0,38.0,playground_60.jpg,,,,AW07POT8ABE05
1599,59,right,1.0,39.0,right.jpg,right,1.2565,,AW07POT8ABE05
1600,60,,1.0,40.0,playground_240.jpg,,,,AW07POT8ABE05
1601,61,,1.0,41.0,mountain_222.jpg,,,,AW07POT8ABE05
1602,62,,1.0,42.0,mountain_154.jpg,,,,AW07POT8ABE05
1603,63,,1.0,43.0,playground_131.jpg,,,,AW07POT8ABE05
1604,64,,1.0,44.0,playground_76.jpg,,,,AW07POT8ABE05
1605,65,,1.0,45.0,highway_177.jpg,,,,AW07POT8ABE05
1606,66,,1.0,46.0,golf_course_217.jpg,,,,AW07POT8ABE05
1607,67,,1.0,47.0,mountain_232.jpg,,,,AW07POT8ABE05
1608,68,,1.0,48.0,mountain_230.jpg,,,,AW07POT8ABE05
1609,69,,1.0,49.0,highway_394.jpg,,,,AW07POT8ABE05
1610,70,,1.0,50.0,bridge_202.jpg,,,,AW07POT8ABE05
1611,71,,1.0,51.0,badlands_137.jpg,,,,AW07POT8ABE05
1612,72,,1.0,52.0,mountain_101.jpg,,,,AW07POT8ABE05
1613,73,,1.0,53.0,playground_257.jpg,,,,AW07POT8ABE05
1614,74,right,1.0,54.0,right.jpg,right,1.0746,,AW07POT8ABE05
1615,75,,1.0,55.0,golf_course_15.jpg,,,,AW07POT8ABE05
1616,76,,1.0,56.0,playground_117.jpg,,,,AW07POT8ABE05
1617,77,,1.0,57.0,bridge_91.jpg,,,,AW07POT8ABE05
1618,78,,1.0,58.0,badlands_184.jpg,,,,AW07POT8ABE05
1619,79,,1.0,59.0,golf_course_78.jpg,,,,AW07POT8ABE05
1620,80,,1.0,60.0,playground_10.jpg,,,,AW07POT8ABE05
1621,81,,1.0,61.0,golf_course_188.jpg,,,,AW07POT8ABE05
1622,82,,1.0,62.0,playground_144.jpg,,,,AW07POT8ABE05
1623,83,,1.0,63.0,playground_145.jpg,,,,AW07POT8ABE05
1624,84,,1.0,64.0,highway_93.jpg,,,,AW07POT8ABE05
