,index,test_encoding_response.keys,test_encoding_response.corr,trials.thisTrialN,target,correct,test_encoding_response.rt,key_resp_end.keys,subject
0,20,,1.0,0.0,badlands_222.jpg,,,,A2CZ5PS567SA10
1,21,,1.0,1.0,playground_145.jpg,,,,A2CZ5PS567SA10
2,22,,1.0,2.0,bridge_172.jpg,,,,A2CZ5PS567SA10
3,23,,1.0,3.0,bridge_91.jpg,,,,A2CZ5PS567SA10
4,24,,1.0,4.0,bridge_108.jpg,,,,A2CZ5PS567SA10
5,25,,1.0,5.0,highway_245.jpg,,,,A2CZ5PS567SA10
6,26,,1.0,6.0,golf_course_214.jpg,,,,A2CZ5PS567SA10
7,27,,1.0,7.0,badlands_21.jpg,,,,A2CZ5PS567SA10
8,28,,1.0,8.0,bridge_65.jpg,,,,A2CZ5PS567SA10
9,29,,1.0,9.0,badlands_137.jpg,,,,A2CZ5PS567SA10
10,30,left,1.0,10.0,left.jpg,left,1.0968,,A2CZ5PS567SA10
11,31,,1.0,11.0,mountain_154.jpg,,,,A2CZ5PS567SA10
12,32,,1.0,12.0,playground_219.jpg,,,,A2CZ5PS567SA10
13,33,,1.0,13.0,bridge_256.jpg,,,,A2CZ5PS567SA10
14,34,,1.0,14.0,mountain_156.jpg,,,,A2CZ5PS567SA10
15,35,,1.0,15.0,mountain_222.jpg,,,,A2CZ5PS567SA10
16,36,left,1.0,16.0,left.jpg,left,1.0833,,A2CZ5PS567SA10
17,37,,1.0,17.0,playground_240.jpg,,,,A2CZ5PS567SA10
18,38,,1.0,18.0,golf_course_309.jpg,,,,A2CZ5PS567SA10
19,39,,1.0,19.0,badlands_23.jpg,,,,A2CZ5PS567SA10
20,40,,1.0,20.0,golf_course_87.jpg,,,,A2CZ5PS567SA10
21,41,,1.0,21.0,playground_10.jpg,,,,A2CZ5PS567SA10
22,42,,1.0,22.0,highway_156.jpg,,,,A2CZ5PS567SA10
23,43,,1.0,23.0,golf_course_331.jpg,,,,A2CZ5PS567SA10
24,44,,1.0,24.0,golf_course_78.jpg,,,,A2CZ5PS567SA10
25,45,,1.0,25.0,badlands_52.jpg,,,,A2CZ5PS567SA10
26,46,,1.0,26.0,golf_course_15.jpg,,,,A2CZ5PS567SA10
27,47,,1.0,27.0,golf_course_193.jpg,,,,A2CZ5PS567SA10
28,48,,1.0,28.0,bridge_128.jpg,,,,A2CZ5PS567SA10
29,49,,1.0,29.0,highway_394.jpg,,,,A2CZ5PS567SA10
30,50,,1.0,30.0,mountain_101.jpg,,,,A2CZ5PS567SA10
31,51,,1.0,31.0,badlands_184.jpg,,,,A2CZ5PS567SA10
32,52,,1.0,32.0,highway_359.jpg,,,,A2CZ5PS567SA10
33,53,right,1.0,33.0,right.jpg,right,1.4397,,A2CZ5PS567SA10
34,54,,1.0,34.0,highway_209.jpg,,,,A2CZ5PS567SA10
35,55,,1.0,35.0,badlands_113.jpg,,,,A2CZ5PS567SA10
36,56,,1.0,36.0,highway_294.jpg,,,,A2CZ5PS567SA10
37,57,,1.0,37.0,mountain_293.jpg,,,,A2CZ5PS567SA10
38,58,,1.0,38.0,highway_273.jpg,,,,A2CZ5PS567SA10
39,59,,1.0,39.0,mountain_57.jpg,,,,A2CZ5PS567SA10
40,60,,1.0,40.0,playground_117.jpg,,,,A2CZ5PS567SA10
41,61,,1.0,41.0,golf_course_195.jpg,,,,A2CZ5PS567SA10
42,62,,1.0,42.0,playground_131.jpg,,,,A2CZ5PS567SA10
43,63,right,1.0,43.0,right.jpg,right,1.1752,,A2CZ5PS567SA10
44,64,,1.0,44.0,bridge_146.jpg,,,,A2CZ5PS567SA10
45,65,,1.0,45.0,highway_177.jpg,,,,A2CZ5PS567SA10
46,66,,1.0,46.0,mountain_110.jpg,,,,A2CZ5PS567SA10
47,67,,1.0,47.0,mountain_230.jpg,,,,A2CZ5PS567SA10
48,68,,1.0,48.0,bridge_202.jpg,,,,A2CZ5PS567SA10
49,69,,1.0,49.0,highway_93.jpg,,,,A2CZ5PS567SA10
50,70,,1.0,50.0,playground_144.jpg,,,,A2CZ5PS567SA10
51,71,,1.0,51.0,playground_257.jpg,,,,A2CZ5PS567SA10
52,72,,1.0,52.0,mountain_232.jpg,,,,A2CZ5PS567SA10
53,73,right,1.0,53.0,right.jpg,right,1.1853,,A2CZ5PS567SA10
54,74,,1.0,54.0,badlands_24.jpg,,,,A2CZ5PS567SA10
55,75,,1.0,55.0,playground_76.jpg,,,,A2CZ5PS567SA10
56,76,,1.0,56.0,playground_60.jpg,,,,A2CZ5PS567SA10
57,77,,1.0,57.0,highway_415.jpg,,,,A2CZ5PS567SA10
58,78,,1.0,58.0,badlands_70.jpg,,,,A2CZ5PS567SA10
59,79,,1.0,59.0,bridge_191.jpg,,,,A2CZ5PS567SA10
60,80,,1.0,60.0,bridge_250.jpg,,,,A2CZ5PS567SA10
61,81,,1.0,61.0,golf_course_188.jpg,,,,A2CZ5PS567SA10
62,82,,1.0,62.0,golf_course_217.jpg,,,,A2CZ5PS567SA10
63,83,,1.0,63.0,mountain_123.jpg,,,,A2CZ5PS567SA10
64,84,,1.0,64.0,badlands_221.jpg,,,,A2CZ5PS567SA10
65,20,,1.0,0.0,bridge_108.jpg,,,,A3AU8PZ6HHBCVT
66,21,,1.0,1.0,playground_257.jpg,,,,A3AU8PZ6HHBCVT
67,22,,1.0,2.0,highway_359.jpg,,,,A3AU8PZ6HHBCVT
68,23,,1.0,3.0,badlands_222.jpg,,,,A3AU8PZ6HHBCVT
69,24,,1.0,4.0,playground_10.jpg,,,,A3AU8PZ6HHBCVT
70,25,,1.0,5.0,bridge_128.jpg,,,,A3AU8PZ6HHBCVT
71,26,,1.0,6.0,bridge_172.jpg,,,,A3AU8PZ6HHBCVT
72,27,,1.0,7.0,bridge_91.jpg,,,,A3AU8PZ6HHBCVT
73,28,,1.0,8.0,mountain_57.jpg,,,,A3AU8PZ6HHBCVT
74,29,,1.0,9.0,badlands_137.jpg,,,,A3AU8PZ6HHBCVT
75,30,left,1.0,10.0,left.jpg,left,0.7455,,A3AU8PZ6HHBCVT
76,31,,1.0,11.0,badlands_52.jpg,,,,A3AU8PZ6HHBCVT
77,32,,1.0,12.0,badlands_113.jpg,,,,A3AU8PZ6HHBCVT
78,33,,1.0,13.0,playground_76.jpg,,,,A3AU8PZ6HHBCVT
79,34,,1.0,14.0,bridge_202.jpg,,,,A3AU8PZ6HHBCVT
80,35,,1.0,15.0,badlands_221.jpg,,,,A3AU8PZ6HHBCVT
81,36,,1.0,16.0,mountain_101.jpg,,,,A3AU8PZ6HHBCVT
82,37,,1.0,17.0,playground_60.jpg,,,,A3AU8PZ6HHBCVT
83,38,,1.0,18.0,mountain_154.jpg,,,,A3AU8PZ6HHBCVT
84,39,,1.0,19.0,badlands_24.jpg,,,,A3AU8PZ6HHBCVT
85,40,,1.0,20.0,mountain_293.jpg,,,,A3AU8PZ6HHBCVT
86,41,,1.0,21.0,highway_177.jpg,,,,A3AU8PZ6HHBCVT
87,42,,1.0,22.0,mountain_110.jpg,,,,A3AU8PZ6HHBCVT
88,43,right,1.0,23.0,right.jpg,right,0.5718,,A3AU8PZ6HHBCVT
89,44,,1.0,24.0,playground_240.jpg,,,,A3AU8PZ6HHBCVT
90,45,,1.0,25.0,highway_415.jpg,,,,A3AU8PZ6HHBCVT
91,46,right,1.0,26.0,right.jpg,right,0.6811,,A3AU8PZ6HHBCVT
92,47,,1.0,27.0,highway_394.jpg,,,,A3AU8PZ6HHBCVT
93,48,,1.0,28.0,golf_course_78.jpg,,,,A3AU8PZ6HHBCVT
94,49,,1.0,29.0,golf_course_331.jpg,,,,A3AU8PZ6HHBCVT
95,50,,1.0,30.0,bridge_146.jpg,,,,A3AU8PZ6HHBCVT
96,51,,1.0,31.0,highway_156.jpg,,,,A3AU8PZ6HHBCVT
97,52,,1.0,32.0,golf_course_217.jpg,,,,A3AU8PZ6HHBCVT
98,53,,1.0,33.0,badlands_70.jpg,,,,A3AU8PZ6HHBCVT
99,54,,1.0,34.0,golf_course_87.jpg,,,,A3AU8PZ6HHBCVT
100,55,,1.0,35.0,highway_209.jpg,,,,A3AU8PZ6HHBCVT
101,56,,1.0,36.0,playground_117.jpg,,,,A3AU8PZ6HHBCVT
102,57,,1.0,37.0,badlands_21.jpg,,,,A3AU8PZ6HHBCVT
103,58,,1.0,38.0,bridge_256.jpg,,,,A3AU8PZ6HHBCVT
104,59,,1.0,39.0,bridge_250.jpg,,,,A3AU8PZ6HHBCVT
105,60,,1.0,40.0,golf_course_193.jpg,,,,A3AU8PZ6HHBCVT
106,61,left,1.0,41.0,left.jpg,left,0.7874,,A3AU8PZ6HHBCVT
107,62,,1.0,42.0,bridge_65.jpg,,,,A3AU8PZ6HHBCVT
108,63,,1.0,43.0,highway_245.jpg,,,,A3AU8PZ6HHBCVT
109,64,,1.0,44.0,playground_131.jpg,,,,A3AU8PZ6HHBCVT
110,65,,1.0,45.0,golf_course_195.jpg,,,,A3AU8PZ6HHBCVT
111,66,,1.0,46.0,bridge_191.jpg,,,,A3AU8PZ6HHBCVT
112,67,,1.0,47.0,mountain_123.jpg,,,,A3AU8PZ6HHBCVT
113,68,,1.0,48.0,mountain_230.jpg,,,,A3AU8PZ6HHBCVT
114,69,,1.0,49.0,highway_93.jpg,,,,A3AU8PZ6HHBCVT
115,70,,1.0,50.0,badlands_23.jpg,,,,A3AU8PZ6HHBCVT
116,71,left,1.0,51.0,left.jpg,left,0.8842,,A3AU8PZ6HHBCVT
117,72,,1.0,52.0,mountain_156.jpg,,,,A3AU8PZ6HHBCVT
118,73,,1.0,53.0,highway_273.jpg,,,,A3AU8PZ6HHBCVT
119,74,,1.0,54.0,badlands_184.jpg,,,,A3AU8PZ6HHBCVT
120,75,,1.0,55.0,highway_294.jpg,,,,A3AU8PZ6HHBCVT
121,76,,1.0,56.0,golf_course_309.jpg,,,,A3AU8PZ6HHBCVT
122,77,,1.0,57.0,mountain_232.jpg,,,,A3AU8PZ6HHBCVT
123,78,,1.0,58.0,playground_145.jpg,,,,A3AU8PZ6HHBCVT
124,79,,1.0,59.0,golf_course_214.jpg,,,,A3AU8PZ6HHBCVT
125,80,,1.0,60.0,playground_219.jpg,,,,A3AU8PZ6HHBCVT
126,81,,1.0,61.0,golf_course_188.jpg,,,,A3AU8PZ6HHBCVT
127,82,,1.0,62.0,mountain_222.jpg,,,,A3AU8PZ6HHBCVT
128,83,,1.0,63.0,golf_course_15.jpg,,,,A3AU8PZ6HHBCVT
129,84,,1.0,64.0,playground_144.jpg,,,,A3AU8PZ6HHBCVT
130,20,,1.0,0.0,highway_156.jpg,,,,A2STRYBSFU7KCY
131,21,,1.0,1.0,mountain_232.jpg,,,,A2STRYBSFU7KCY
132,22,,1.0,2.0,playground_117.jpg,,,,A2STRYBSFU7KCY
133,23,,1.0,3.0,bridge_256.jpg,,,,A2STRYBSFU7KCY
134,24,,1.0,4.0,highway_93.jpg,,,,A2STRYBSFU7KCY
135,25,,1.0,5.0,badlands_222.jpg,,,,A2STRYBSFU7KCY
136,26,,1.0,6.0,golf_course_195.jpg,,,,A2STRYBSFU7KCY
137,27,,1.0,7.0,bridge_250.jpg,,,,A2STRYBSFU7KCY
138,28,,1.0,8.0,highway_359.jpg,,,,A2STRYBSFU7KCY
139,29,,1.0,9.0,highway_294.jpg,,,,A2STRYBSFU7KCY
140,30,,1.0,10.0,mountain_293.jpg,,,,A2STRYBSFU7KCY
141,31,,0.0,11.0,left.jpg,left,,,A2STRYBSFU7KCY
142,32,,1.0,12.0,playground_144.jpg,,,,A2STRYBSFU7KCY
143,33,,1.0,13.0,bridge_128.jpg,,,,A2STRYBSFU7KCY
144,34,,1.0,14.0,badlands_137.jpg,,,,A2STRYBSFU7KCY
145,35,,1.0,15.0,playground_145.jpg,,,,A2STRYBSFU7KCY
146,36,,1.0,16.0,golf_course_331.jpg,,,,A2STRYBSFU7KCY
147,37,left,1.0,17.0,left.jpg,left,1.171,,A2STRYBSFU7KCY
148,38,,1.0,18.0,playground_240.jpg,,,,A2STRYBSFU7KCY
149,39,,1.0,19.0,highway_177.jpg,,,,A2STRYBSFU7KCY
150,40,,1.0,20.0,golf_course_188.jpg,,,,A2STRYBSFU7KCY
151,41,,1.0,21.0,playground_131.jpg,,,,A2STRYBSFU7KCY
152,42,,1.0,22.0,playground_76.jpg,,,,A2STRYBSFU7KCY
153,43,,1.0,23.0,bridge_191.jpg,,,,A2STRYBSFU7KCY
154,44,,1.0,24.0,mountain_123.jpg,,,,A2STRYBSFU7KCY
155,45,,1.0,25.0,bridge_91.jpg,,,,A2STRYBSFU7KCY
156,46,,1.0,26.0,playground_10.jpg,,,,A2STRYBSFU7KCY
157,47,,1.0,27.0,badlands_21.jpg,,,,A2STRYBSFU7KCY
158,48,left,1.0,28.0,left.jpg,left,1.246,,A2STRYBSFU7KCY
159,49,,1.0,29.0,golf_course_193.jpg,,,,A2STRYBSFU7KCY
160,50,,1.0,30.0,mountain_222.jpg,,,,A2STRYBSFU7KCY
161,51,,1.0,31.0,badlands_221.jpg,,,,A2STRYBSFU7KCY
162,52,,1.0,32.0,bridge_202.jpg,,,,A2STRYBSFU7KCY
163,53,,1.0,33.0,mountain_230.jpg,,,,A2STRYBSFU7KCY
164,54,,1.0,34.0,golf_course_217.jpg,,,,A2STRYBSFU7KCY
165,55,,1.0,35.0,golf_course_15.jpg,,,,A2STRYBSFU7KCY
166,56,,1.0,36.0,mountain_154.jpg,,,,A2STRYBSFU7KCY
167,57,,1.0,37.0,bridge_65.jpg,,,,A2STRYBSFU7KCY
168,58,,1.0,38.0,highway_209.jpg,,,,A2STRYBSFU7KCY
169,59,,1.0,39.0,badlands_24.jpg,,,,A2STRYBSFU7KCY
170,60,,1.0,40.0,highway_415.jpg,,,,A2STRYBSFU7KCY
171,61,,1.0,41.0,golf_course_214.jpg,,,,A2STRYBSFU7KCY
172,62,,1.0,42.0,highway_245.jpg,,,,A2STRYBSFU7KCY
173,63,right,1.0,43.0,right.jpg,right,1.33,,A2STRYBSFU7KCY
174,64,,1.0,44.0,badlands_52.jpg,,,,A2STRYBSFU7KCY
175,65,,1.0,45.0,badlands_184.jpg,,,,A2STRYBSFU7KCY
176,66,,1.0,46.0,mountain_110.jpg,,,,A2STRYBSFU7KCY
177,67,,1.0,47.0,mountain_101.jpg,,,,A2STRYBSFU7KCY
178,68,,1.0,48.0,bridge_108.jpg,,,,A2STRYBSFU7KCY
179,69,left,1.0,49.0,left.jpg,left,1.284,,A2STRYBSFU7KCY
180,70,,1.0,50.0,playground_60.jpg,,,,A2STRYBSFU7KCY
181,71,,1.0,51.0,golf_course_87.jpg,,,,A2STRYBSFU7KCY
182,72,,1.0,52.0,playground_257.jpg,,,,A2STRYBSFU7KCY
183,73,,1.0,53.0,golf_course_78.jpg,,,,A2STRYBSFU7KCY
184,74,,1.0,54.0,highway_273.jpg,,,,A2STRYBSFU7KCY
185,75,,1.0,55.0,bridge_146.jpg,,,,A2STRYBSFU7KCY
186,76,,1.0,56.0,bridge_172.jpg,,,,A2STRYBSFU7KCY
187,77,,1.0,57.0,mountain_156.jpg,,,,A2STRYBSFU7KCY
188,78,,1.0,58.0,mountain_57.jpg,,,,A2STRYBSFU7KCY
189,79,,1.0,59.0,golf_course_309.jpg,,,,A2STRYBSFU7KCY
190,80,,1.0,60.0,playground_219.jpg,,,,A2STRYBSFU7KCY
191,81,,1.0,61.0,badlands_113.jpg,,,,A2STRYBSFU7KCY
192,82,,1.0,62.0,highway_394.jpg,,,,A2STRYBSFU7KCY
193,83,,1.0,63.0,badlands_70.jpg,,,,A2STRYBSFU7KCY
194,84,,1.0,64.0,badlands_23.jpg,,,,A2STRYBSFU7KCY
195,20,,1.0,0.0,golf_course_309.jpg,,,,A1969Q0R4Y0E3J
196,21,,1.0,1.0,mountain_154.jpg,,,,A1969Q0R4Y0E3J
197,22,,1.0,2.0,playground_10.jpg,,,,A1969Q0R4Y0E3J
198,23,,1.0,3.0,playground_145.jpg,,,,A1969Q0R4Y0E3J
199,24,,1.0,4.0,badlands_24.jpg,,,,A1969Q0R4Y0E3J
200,25,,1.0,5.0,highway_177.jpg,,,,A1969Q0R4Y0E3J
201,26,left,1.0,6.0,left.jpg,left,0.5308,,A1969Q0R4Y0E3J
202,27,,1.0,7.0,golf_course_331.jpg,,,,A1969Q0R4Y0E3J
203,28,,1.0,8.0,playground_131.jpg,,,,A1969Q0R4Y0E3J
204,29,,1.0,9.0,mountain_222.jpg,,,,A1969Q0R4Y0E3J
205,30,,1.0,10.0,highway_294.jpg,,,,A1969Q0R4Y0E3J
206,31,,1.0,11.0,badlands_21.jpg,,,,A1969Q0R4Y0E3J
207,32,,1.0,12.0,badlands_184.jpg,,,,A1969Q0R4Y0E3J
208,33,,1.0,13.0,playground_144.jpg,,,,A1969Q0R4Y0E3J
209,34,,1.0,14.0,mountain_123.jpg,,,,A1969Q0R4Y0E3J
210,35,,1.0,15.0,bridge_191.jpg,,,,A1969Q0R4Y0E3J
211,36,,1.0,16.0,badlands_222.jpg,,,,A1969Q0R4Y0E3J
212,37,,1.0,17.0,badlands_137.jpg,,,,A1969Q0R4Y0E3J
213,38,,1.0,18.0,mountain_101.jpg,,,,A1969Q0R4Y0E3J
214,39,,1.0,19.0,bridge_146.jpg,,,,A1969Q0R4Y0E3J
215,40,,1.0,20.0,playground_240.jpg,,,,A1969Q0R4Y0E3J
216,41,right,1.0,21.0,right.jpg,right,0.579,,A1969Q0R4Y0E3J
217,42,,1.0,22.0,highway_273.jpg,,,,A1969Q0R4Y0E3J
218,43,,1.0,23.0,badlands_70.jpg,,,,A1969Q0R4Y0E3J
219,44,,1.0,24.0,mountain_57.jpg,,,,A1969Q0R4Y0E3J
220,45,,1.0,25.0,badlands_113.jpg,,,,A1969Q0R4Y0E3J
221,46,,1.0,26.0,highway_245.jpg,,,,A1969Q0R4Y0E3J
222,47,,1.0,27.0,golf_course_217.jpg,,,,A1969Q0R4Y0E3J
223,48,,1.0,28.0,bridge_108.jpg,,,,A1969Q0R4Y0E3J
224,49,,1.0,29.0,bridge_65.jpg,,,,A1969Q0R4Y0E3J
225,50,right,1.0,30.0,right.jpg,right,0.4549,,A1969Q0R4Y0E3J
226,51,,1.0,31.0,playground_257.jpg,,,,A1969Q0R4Y0E3J
227,52,,1.0,32.0,bridge_172.jpg,,,,A1969Q0R4Y0E3J
228,53,,1.0,33.0,bridge_256.jpg,,,,A1969Q0R4Y0E3J
229,54,,1.0,34.0,mountain_156.jpg,,,,A1969Q0R4Y0E3J
230,55,,1.0,35.0,bridge_128.jpg,,,,A1969Q0R4Y0E3J
231,56,,1.0,36.0,playground_60.jpg,,,,A1969Q0R4Y0E3J
232,57,,1.0,37.0,playground_76.jpg,,,,A1969Q0R4Y0E3J
233,58,,1.0,38.0,mountain_230.jpg,,,,A1969Q0R4Y0E3J
234,59,,1.0,39.0,golf_course_214.jpg,,,,A1969Q0R4Y0E3J
235,60,left,1.0,40.0,left.jpg,left,0.5096,,A1969Q0R4Y0E3J
236,61,,1.0,41.0,golf_course_195.jpg,,,,A1969Q0R4Y0E3J
237,62,,1.0,42.0,highway_359.jpg,,,,A1969Q0R4Y0E3J
238,63,,1.0,43.0,highway_156.jpg,,,,A1969Q0R4Y0E3J
239,64,,1.0,44.0,bridge_202.jpg,,,,A1969Q0R4Y0E3J
240,65,,1.0,45.0,golf_course_78.jpg,,,,A1969Q0R4Y0E3J
241,66,,1.0,46.0,badlands_221.jpg,,,,A1969Q0R4Y0E3J
242,67,,1.0,47.0,badlands_23.jpg,,,,A1969Q0R4Y0E3J
243,68,,1.0,48.0,bridge_91.jpg,,,,A1969Q0R4Y0E3J
244,69,,1.0,49.0,golf_course_193.jpg,,,,A1969Q0R4Y0E3J
245,70,,1.0,50.0,golf_course_188.jpg,,,,A1969Q0R4Y0E3J
246,71,,1.0,51.0,highway_93.jpg,,,,A1969Q0R4Y0E3J
247,72,left,1.0,52.0,left.jpg,left,0.4634,,A1969Q0R4Y0E3J
248,73,,1.0,53.0,highway_415.jpg,,,,A1969Q0R4Y0E3J
249,74,,1.0,54.0,highway_209.jpg,,,,A1969Q0R4Y0E3J
250,75,,1.0,55.0,mountain_293.jpg,,,,A1969Q0R4Y0E3J
251,76,,1.0,56.0,playground_219.jpg,,,,A1969Q0R4Y0E3J
252,77,,1.0,57.0,highway_394.jpg,,,,A1969Q0R4Y0E3J
253,78,,1.0,58.0,mountain_232.jpg,,,,A1969Q0R4Y0E3J
254,79,,1.0,59.0,golf_course_15.jpg,,,,A1969Q0R4Y0E3J
255,80,,1.0,60.0,playground_117.jpg,,,,A1969Q0R4Y0E3J
256,81,,1.0,61.0,mountain_110.jpg,,,,A1969Q0R4Y0E3J
257,82,,1.0,62.0,bridge_250.jpg,,,,A1969Q0R4Y0E3J
258,83,,1.0,63.0,badlands_52.jpg,,,,A1969Q0R4Y0E3J
259,84,,1.0,64.0,golf_course_87.jpg,,,,A1969Q0R4Y0E3J
260,20,,1.0,0.0,bridge_65.jpg,,,,AF6DVGK1GTFER
261,21,,1.0,1.0,badlands_24.jpg,,,,AF6DVGK1GTFER
262,22,,1.0,2.0,highway_415.jpg,,,,AF6DVGK1GTFER
263,23,,1.0,3.0,badlands_21.jpg,,,,AF6DVGK1GTFER
264,24,,1.0,4.0,playground_131.jpg,,,,AF6DVGK1GTFER
265,25,,1.0,5.0,playground_219.jpg,,,,AF6DVGK1GTFER
266,26,,1.0,6.0,highway_359.jpg,,,,AF6DVGK1GTFER
267,27,,1.0,7.0,bridge_256.jpg,,,,AF6DVGK1GTFER
268,28,,1.0,8.0,mountain_230.jpg,,,,AF6DVGK1GTFER
269,29,,1.0,9.0,golf_course_195.jpg,,,,AF6DVGK1GTFER
270,30,,1.0,10.0,playground_144.jpg,,,,AF6DVGK1GTFER
271,31,,1.0,11.0,bridge_146.jpg,,,,AF6DVGK1GTFER
272,32,left,1.0,12.0,left.jpg,left,1.5126,,AF6DVGK1GTFER
273,33,,1.0,13.0,playground_117.jpg,,,,AF6DVGK1GTFER
274,34,,1.0,14.0,bridge_191.jpg,,,,AF6DVGK1GTFER
275,35,,1.0,15.0,playground_257.jpg,,,,AF6DVGK1GTFER
276,36,,1.0,16.0,highway_177.jpg,,,,AF6DVGK1GTFER
277,37,,1.0,17.0,badlands_113.jpg,,,,AF6DVGK1GTFER
278,38,,1.0,18.0,highway_273.jpg,,,,AF6DVGK1GTFER
279,39,,1.0,19.0,golf_course_78.jpg,,,,AF6DVGK1GTFER
280,40,,1.0,20.0,badlands_70.jpg,,,,AF6DVGK1GTFER
281,41,left,1.0,21.0,left.jpg,left,1.0569,,AF6DVGK1GTFER
282,42,,1.0,22.0,golf_course_217.jpg,,,,AF6DVGK1GTFER
283,43,,1.0,23.0,bridge_250.jpg,,,,AF6DVGK1GTFER
284,44,,1.0,24.0,badlands_52.jpg,,,,AF6DVGK1GTFER
285,45,,1.0,25.0,playground_60.jpg,,,,AF6DVGK1GTFER
286,46,,1.0,26.0,mountain_123.jpg,,,,AF6DVGK1GTFER
287,47,,1.0,27.0,mountain_156.jpg,,,,AF6DVGK1GTFER
288,48,,1.0,28.0,badlands_221.jpg,,,,AF6DVGK1GTFER
289,49,,1.0,29.0,highway_209.jpg,,,,AF6DVGK1GTFER
290,50,,1.0,30.0,playground_76.jpg,,,,AF6DVGK1GTFER
291,51,,1.0,31.0,golf_course_214.jpg,,,,AF6DVGK1GTFER
292,52,,1.0,32.0,badlands_222.jpg,,,,AF6DVGK1GTFER
293,53,,1.0,33.0,mountain_110.jpg,,,,AF6DVGK1GTFER
294,54,right,1.0,34.0,right.jpg,right,1.4452,,AF6DVGK1GTFER
295,55,,1.0,35.0,golf_course_193.jpg,,,,AF6DVGK1GTFER
296,56,,1.0,36.0,highway_294.jpg,,,,AF6DVGK1GTFER
297,57,,1.0,37.0,bridge_91.jpg,,,,AF6DVGK1GTFER
298,58,,1.0,38.0,highway_394.jpg,,,,AF6DVGK1GTFER
299,59,,1.0,39.0,mountain_232.jpg,,,,AF6DVGK1GTFER
300,60,right,1.0,40.0,right.jpg,right,1.6407,,AF6DVGK1GTFER
301,61,,1.0,41.0,mountain_101.jpg,,,,AF6DVGK1GTFER
302,62,,1.0,42.0,bridge_108.jpg,,,,AF6DVGK1GTFER
303,63,,1.0,43.0,highway_156.jpg,,,,AF6DVGK1GTFER
304,64,,1.0,44.0,mountain_293.jpg,,,,AF6DVGK1GTFER
305,65,,1.0,45.0,playground_10.jpg,,,,AF6DVGK1GTFER
306,66,,1.0,46.0,badlands_23.jpg,,,,AF6DVGK1GTFER
307,67,,1.0,47.0,golf_course_15.jpg,,,,AF6DVGK1GTFER
308,68,,1.0,48.0,badlands_137.jpg,,,,AF6DVGK1GTFER
309,69,,1.0,49.0,golf_course_331.jpg,,,,AF6DVGK1GTFER
310,70,,1.0,50.0,bridge_128.jpg,,,,AF6DVGK1GTFER
311,71,,1.0,51.0,mountain_154.jpg,,,,AF6DVGK1GTFER
312,72,,1.0,52.0,highway_245.jpg,,,,AF6DVGK1GTFER
313,73,left,1.0,53.0,left.jpg,left,1.4002,,AF6DVGK1GTFER
314,74,,1.0,54.0,mountain_222.jpg,,,,AF6DVGK1GTFER
315,75,,1.0,55.0,playground_145.jpg,,,,AF6DVGK1GTFER
316,76,,1.0,56.0,golf_course_188.jpg,,,,AF6DVGK1GTFER
317,77,,1.0,57.0,bridge_172.jpg,,,,AF6DVGK1GTFER
318,78,,1.0,58.0,badlands_184.jpg,,,,AF6DVGK1GTFER
319,79,,1.0,59.0,bridge_202.jpg,,,,AF6DVGK1GTFER
320,80,,1.0,60.0,mountain_57.jpg,,,,AF6DVGK1GTFER
321,81,,1.0,61.0,golf_course_309.jpg,,,,AF6DVGK1GTFER
322,82,,1.0,62.0,golf_course_87.jpg,,,,AF6DVGK1GTFER
323,83,,1.0,63.0,highway_93.jpg,,,,AF6DVGK1GTFER
324,84,,1.0,64.0,playground_240.jpg,,,,AF6DVGK1GTFER
325,20,,1.0,0.0,bridge_108.jpg,,,,AC01SVLHOB6HN
326,21,,1.0,1.0,mountain_230.jpg,,,,AC01SVLHOB6HN
327,22,,1.0,2.0,highway_177.jpg,,,,AC01SVLHOB6HN
328,23,,1.0,3.0,playground_60.jpg,,,,AC01SVLHOB6HN
329,24,,1.0,4.0,bridge_146.jpg,,,,AC01SVLHOB6HN
330,25,,1.0,5.0,playground_219.jpg,,,,AC01SVLHOB6HN
331,26,,1.0,6.0,highway_156.jpg,,,,AC01SVLHOB6HN
332,27,,1.0,7.0,mountain_154.jpg,,,,AC01SVLHOB6HN
333,28,,1.0,8.0,playground_144.jpg,,,,AC01SVLHOB6HN
334,29,,1.0,9.0,highway_209.jpg,,,,AC01SVLHOB6HN
335,30,right,1.0,10.0,right.jpg,right,2.4926,,AC01SVLHOB6HN
336,31,,1.0,11.0,bridge_91.jpg,,,,AC01SVLHOB6HN
337,32,,1.0,12.0,bridge_256.jpg,,,,AC01SVLHOB6HN
338,33,,1.0,13.0,highway_294.jpg,,,,AC01SVLHOB6HN
339,34,,1.0,14.0,playground_240.jpg,,,,AC01SVLHOB6HN
340,35,,1.0,15.0,badlands_222.jpg,,,,AC01SVLHOB6HN
341,36,,1.0,16.0,golf_course_188.jpg,,,,AC01SVLHOB6HN
342,37,,1.0,17.0,bridge_191.jpg,,,,AC01SVLHOB6HN
343,38,,1.0,18.0,golf_course_331.jpg,,,,AC01SVLHOB6HN
344,39,right,1.0,19.0,right.jpg,right,1.8027,,AC01SVLHOB6HN
345,40,,1.0,20.0,mountain_232.jpg,,,,AC01SVLHOB6HN
346,41,,1.0,21.0,bridge_128.jpg,,,,AC01SVLHOB6HN
347,42,,1.0,22.0,highway_359.jpg,,,,AC01SVLHOB6HN
348,43,,1.0,23.0,bridge_250.jpg,,,,AC01SVLHOB6HN
349,44,,1.0,24.0,badlands_24.jpg,,,,AC01SVLHOB6HN
350,45,,1.0,25.0,badlands_184.jpg,,,,AC01SVLHOB6HN
351,46,right,1.0,26.0,right.jpg,right,1.4924,,AC01SVLHOB6HN
352,47,,1.0,27.0,badlands_52.jpg,,,,AC01SVLHOB6HN
353,48,,1.0,28.0,highway_93.jpg,,,,AC01SVLHOB6HN
354,49,,1.0,29.0,golf_course_217.jpg,,,,AC01SVLHOB6HN
355,50,,1.0,30.0,mountain_57.jpg,,,,AC01SVLHOB6HN
356,51,,1.0,31.0,bridge_202.jpg,,,,AC01SVLHOB6HN
357,52,,1.0,32.0,badlands_23.jpg,,,,AC01SVLHOB6HN
358,53,,1.0,33.0,badlands_113.jpg,,,,AC01SVLHOB6HN
359,54,,1.0,34.0,mountain_156.jpg,,,,AC01SVLHOB6HN
360,55,,1.0,35.0,mountain_293.jpg,,,,AC01SVLHOB6HN
361,56,,1.0,36.0,golf_course_193.jpg,,,,AC01SVLHOB6HN
362,57,,1.0,37.0,golf_course_214.jpg,,,,AC01SVLHOB6HN
363,58,,1.0,38.0,bridge_65.jpg,,,,AC01SVLHOB6HN
364,59,,1.0,39.0,highway_273.jpg,,,,AC01SVLHOB6HN
365,60,,1.0,40.0,badlands_70.jpg,,,,AC01SVLHOB6HN
366,61,right,0.0,41.0,left.jpg,left,0.9235,,AC01SVLHOB6HN
367,62,,1.0,42.0,highway_394.jpg,,,,AC01SVLHOB6HN
368,63,,1.0,43.0,playground_10.jpg,,,,AC01SVLHOB6HN
369,64,,1.0,44.0,badlands_221.jpg,,,,AC01SVLHOB6HN
370,65,,1.0,45.0,mountain_110.jpg,,,,AC01SVLHOB6HN
371,66,,1.0,46.0,mountain_101.jpg,,,,AC01SVLHOB6HN
372,67,,1.0,47.0,badlands_137.jpg,,,,AC01SVLHOB6HN
373,68,,1.0,48.0,bridge_172.jpg,,,,AC01SVLHOB6HN
374,69,,1.0,49.0,playground_117.jpg,,,,AC01SVLHOB6HN
375,70,,1.0,50.0,playground_145.jpg,,,,AC01SVLHOB6HN
376,71,,1.0,51.0,mountain_222.jpg,,,,AC01SVLHOB6HN
377,72,right,1.0,52.0,right.jpg,right,1.4677,,AC01SVLHOB6HN
378,73,,1.0,53.0,golf_course_309.jpg,,,,AC01SVLHOB6HN
379,74,,1.0,54.0,playground_76.jpg,,,,AC01SVLHOB6HN
380,75,,1.0,55.0,mountain_123.jpg,,,,AC01SVLHOB6HN
381,76,,1.0,56.0,golf_course_78.jpg,,,,AC01SVLHOB6HN
382,77,,1.0,57.0,golf_course_15.jpg,,,,AC01SVLHOB6HN
383,78,,1.0,58.0,highway_415.jpg,,,,AC01SVLHOB6HN
384,79,,1.0,59.0,golf_course_87.jpg,,,,AC01SVLHOB6HN
385,80,,1.0,60.0,badlands_21.jpg,,,,AC01SVLHOB6HN
386,81,,1.0,61.0,highway_245.jpg,,,,AC01SVLHOB6HN
387,82,,1.0,62.0,playground_257.jpg,,,,AC01SVLHOB6HN
388,83,,1.0,63.0,playground_131.jpg,,,,AC01SVLHOB6HN
389,84,,1.0,64.0,golf_course_195.jpg,,,,AC01SVLHOB6HN
390,20,,1.0,0.0,highway_359.jpg,,,,AW07POT8ABE05
391,21,,1.0,1.0,golf_course_195.jpg,,,,AW07POT8ABE05
392,22,,1.0,2.0,mountain_57.jpg,,,,AW07POT8ABE05
393,23,,1.0,3.0,highway_245.jpg,,,,AW07POT8ABE05
394,24,,1.0,4.0,mountain_123.jpg,,,,AW07POT8ABE05
395,25,,1.0,5.0,badlands_70.jpg,,,,AW07POT8ABE05
396,26,right,1.0,6.0,right.jpg,right,2.06,,AW07POT8ABE05
397,27,,1.0,7.0,highway_294.jpg,,,,AW07POT8ABE05
398,28,,1.0,8.0,bridge_146.jpg,,,,AW07POT8ABE05
399,29,,1.0,9.0,golf_course_87.jpg,,,,AW07POT8ABE05
400,30,,1.0,10.0,golf_course_331.jpg,,,,AW07POT8ABE05
401,31,,1.0,11.0,mountain_110.jpg,,,,AW07POT8ABE05
402,32,,1.0,12.0,mountain_293.jpg,,,,AW07POT8ABE05
403,33,,1.0,13.0,mountain_156.jpg,,,,AW07POT8ABE05
404,34,,1.0,14.0,highway_415.jpg,,,,AW07POT8ABE05
405,35,,1.0,15.0,bridge_191.jpg,,,,AW07POT8ABE05
406,36,,1.0,16.0,bridge_65.jpg,,,,AW07POT8ABE05
407,37,,1.0,17.0,highway_209.jpg,,,,AW07POT8ABE05
408,38,,1.0,18.0,bridge_256.jpg,,,,AW07POT8ABE05
409,39,,1.0,19.0,bridge_128.jpg,,,,AW07POT8ABE05
410,40,,1.0,20.0,bridge_108.jpg,,,,AW07POT8ABE05
411,41,,1.0,21.0,badlands_21.jpg,,,,AW07POT8ABE05
412,42,,1.0,22.0,badlands_24.jpg,,,,AW07POT8ABE05
413,43,right,1.0,23.0,right.jpg,right,1.1245,,AW07POT8ABE05
414,44,,1.0,24.0,highway_156.jpg,,,,AW07POT8ABE05
415,45,,1.0,25.0,golf_course_214.jpg,,,,AW07POT8ABE05
416,46,,1.0,26.0,highway_273.jpg,,,,AW07POT8ABE05
417,47,,1.0,27.0,badlands_52.jpg,,,,AW07POT8ABE05
418,48,,1.0,28.0,golf_course_309.jpg,,,,AW07POT8ABE05
419,49,,1.0,29.0,badlands_221.jpg,,,,AW07POT8ABE05
420,50,left,1.0,30.0,left.jpg,left,1.1573,,AW07POT8ABE05
421,51,,1.0,31.0,playground_219.jpg,,,,AW07POT8ABE05
422,52,,1.0,32.0,badlands_23.jpg,,,,AW07POT8ABE05
423,53,,1.0,33.0,badlands_222.jpg,,,,AW07POT8ABE05
424,54,,1.0,34.0,bridge_172.jpg,,,,AW07POT8ABE05
425,55,,1.0,35.0,golf_course_193.jpg,,,,AW07POT8ABE05
426,56,,1.0,36.0,badlands_113.jpg,,,,AW07POT8ABE05
427,57,,1.0,37.0,bridge_250.jpg,,,,AW07POT8ABE05
428,58,,1.0,38.0,playground_60.jpg,,,,AW07POT8ABE05
429,59,right,1.0,39.0,right.jpg,right,1.2565,,AW07POT8ABE05
430,60,,1.0,40.0,playground_240.jpg,,,,AW07POT8ABE05
431,61,,1.0,41.0,mountain_222.jpg,,,,AW07POT8ABE05
432,62,,1.0,42.0,mountain_154.jpg,,,,AW07POT8ABE05
433,63,,1.0,43.0,playground_131.jpg,,,,AW07POT8ABE05
434,64,,1.0,44.0,playground_76.jpg,,,,AW07POT8ABE05
435,65,,1.0,45.0,highway_177.jpg,,,,AW07POT8ABE05
436,66,,1.0,46.0,golf_course_217.jpg,,,,AW07POT8ABE05
437,67,,1.0,47.0,mountain_232.jpg,,,,AW07POT8ABE05
438,68,,1.0,48.0,mountain_230.jpg,,,,AW07POT8ABE05
439,69,,1.0,49.0,highway_394.jpg,,,,AW07POT8ABE05
440,70,,1.0,50.0,bridge_202.jpg,,,,AW07POT8ABE05
441,71,,1.0,51.0,badlands_137.jpg,,,,AW07POT8ABE05
442,72,,1.0,52.0,mountain_101.jpg,,,,AW07POT8ABE05
443,73,,1.0,53.0,playground_257.jpg,,,,AW07POT8ABE05
444,74,right,1.0,54.0,right.jpg,right,1.0746,,AW07POT8ABE05
445,75,,1.0,55.0,golf_course_15.jpg,,,,AW07POT8ABE05
446,76,,1.0,56.0,playground_117.jpg,,,,AW07POT8ABE05
447,77,,1.0,57.0,bridge_91.jpg,,,,AW07POT8ABE05
448,78,,1.0,58.0,badlands_184.jpg,,,,AW07POT8ABE05
449,79,,1.0,59.0,golf_course_78.jpg,,,,AW07POT8ABE05
450,80,,1.0,60.0,playground_10.jpg,,,,AW07POT8ABE05
451,81,,1.0,61.0,golf_course_188.jpg,,,,AW07POT8ABE05
452,82,,1.0,62.0,playground_144.jpg,,,,AW07POT8ABE05
453,83,,1.0,63.0,playground_145.jpg,,,,AW07POT8ABE05
454,84,,1.0,64.0,highway_93.jpg,,,,AW07POT8ABE05
455,20,,1.0,0.0,highway_93.jpg,,,,A1VJ4ZOXP9PUCP
456,21,,1.0,1.0,bridge_65.jpg,,,,A1VJ4ZOXP9PUCP
457,22,,1.0,2.0,golf_course_309.jpg,,,,A1VJ4ZOXP9PUCP
458,23,,1.0,3.0,golf_course_87.jpg,,,,A1VJ4ZOXP9PUCP
459,24,,1.0,4.0,highway_156.jpg,,,,A1VJ4ZOXP9PUCP
460,25,,1.0,5.0,bridge_146.jpg,,,,A1VJ4ZOXP9PUCP
461,26,,1.0,6.0,highway_177.jpg,,,,A1VJ4ZOXP9PUCP
462,27,,1.0,7.0,golf_course_15.jpg,,,,A1VJ4ZOXP9PUCP
463,28,,1.0,8.0,bridge_172.jpg,,,,A1VJ4ZOXP9PUCP
464,29,,1.0,9.0,bridge_191.jpg,,,,A1VJ4ZOXP9PUCP
465,30,,1.0,10.0,playground_76.jpg,,,,A1VJ4ZOXP9PUCP
466,31,,1.0,11.0,highway_245.jpg,,,,A1VJ4ZOXP9PUCP
467,32,,1.0,12.0,playground_131.jpg,,,,A1VJ4ZOXP9PUCP
468,33,,1.0,13.0,playground_60.jpg,,,,A1VJ4ZOXP9PUCP
469,34,left,1.0,14.0,left.jpg,left,0.7942,,A1VJ4ZOXP9PUCP
470,35,,1.0,15.0,mountain_123.jpg,,,,A1VJ4ZOXP9PUCP
471,36,,1.0,16.0,golf_course_217.jpg,,,,A1VJ4ZOXP9PUCP
472,37,,1.0,17.0,badlands_70.jpg,,,,A1VJ4ZOXP9PUCP
473,38,,1.0,18.0,highway_273.jpg,,,,A1VJ4ZOXP9PUCP
474,39,,1.0,19.0,badlands_21.jpg,,,,A1VJ4ZOXP9PUCP
475,40,,1.0,20.0,highway_394.jpg,,,,A1VJ4ZOXP9PUCP
476,41,,1.0,21.0,bridge_108.jpg,,,,A1VJ4ZOXP9PUCP
477,42,left,1.0,22.0,left.jpg,left,0.6913,,A1VJ4ZOXP9PUCP
478,43,,1.0,23.0,highway_294.jpg,,,,A1VJ4ZOXP9PUCP
479,44,,1.0,24.0,playground_117.jpg,,,,A1VJ4ZOXP9PUCP
480,45,,1.0,25.0,playground_10.jpg,,,,A1VJ4ZOXP9PUCP
481,46,,1.0,26.0,golf_course_195.jpg,,,,A1VJ4ZOXP9PUCP
482,47,,1.0,27.0,badlands_24.jpg,,,,A1VJ4ZOXP9PUCP
483,48,,1.0,28.0,playground_257.jpg,,,,A1VJ4ZOXP9PUCP
484,49,,1.0,29.0,badlands_23.jpg,,,,A1VJ4ZOXP9PUCP
485,50,,1.0,30.0,highway_209.jpg,,,,A1VJ4ZOXP9PUCP
486,51,,1.0,31.0,playground_144.jpg,,,,A1VJ4ZOXP9PUCP
487,52,right,1.0,32.0,right.jpg,right,0.7969,,A1VJ4ZOXP9PUCP
488,53,,1.0,33.0,golf_course_214.jpg,,,,A1VJ4ZOXP9PUCP
489,54,,1.0,34.0,mountain_110.jpg,,,,A1VJ4ZOXP9PUCP
490,55,,1.0,35.0,mountain_230.jpg,,,,A1VJ4ZOXP9PUCP
491,56,,1.0,36.0,mountain_101.jpg,,,,A1VJ4ZOXP9PUCP
492,57,,1.0,37.0,mountain_232.jpg,,,,A1VJ4ZOXP9PUCP
493,58,right,1.0,38.0,right.jpg,right,1.0987,,A1VJ4ZOXP9PUCP
494,59,,1.0,39.0,badlands_184.jpg,,,,A1VJ4ZOXP9PUCP
495,60,,1.0,40.0,mountain_222.jpg,,,,A1VJ4ZOXP9PUCP
496,61,,1.0,41.0,badlands_221.jpg,,,,A1VJ4ZOXP9PUCP
497,62,,1.0,42.0,mountain_293.jpg,,,,A1VJ4ZOXP9PUCP
498,63,,1.0,43.0,golf_course_331.jpg,,,,A1VJ4ZOXP9PUCP
499,64,,1.0,44.0,bridge_202.jpg,,,,A1VJ4ZOXP9PUCP
500,65,,1.0,45.0,highway_359.jpg,,,,A1VJ4ZOXP9PUCP
501,66,,1.0,46.0,mountain_156.jpg,,,,A1VJ4ZOXP9PUCP
502,67,,1.0,47.0,mountain_57.jpg,,,,A1VJ4ZOXP9PUCP
503,68,left,1.0,48.0,left.jpg,left,1.0013,,A1VJ4ZOXP9PUCP
504,69,,1.0,49.0,highway_415.jpg,,,,A1VJ4ZOXP9PUCP
505,70,,1.0,50.0,bridge_91.jpg,,,,A1VJ4ZOXP9PUCP
506,71,,1.0,51.0,playground_145.jpg,,,,A1VJ4ZOXP9PUCP
507,72,,1.0,52.0,golf_course_193.jpg,,,,A1VJ4ZOXP9PUCP
508,73,,1.0,53.0,golf_course_78.jpg,,,,A1VJ4ZOXP9PUCP
509,74,,1.0,54.0,golf_course_188.jpg,,,,A1VJ4ZOXP9PUCP
510,75,,1.0,55.0,mountain_154.jpg,,,,A1VJ4ZOXP9PUCP
511,76,,1.0,56.0,badlands_113.jpg,,,,A1VJ4ZOXP9PUCP
512,77,,1.0,57.0,playground_219.jpg,,,,A1VJ4ZOXP9PUCP
513,78,,1.0,58.0,badlands_137.jpg,,,,A1VJ4ZOXP9PUCP
514,79,,1.0,59.0,bridge_250.jpg,,,,A1VJ4ZOXP9PUCP
515,80,,1.0,60.0,badlands_52.jpg,,,,A1VJ4ZOXP9PUCP
516,81,,1.0,61.0,badlands_222.jpg,,,,A1VJ4ZOXP9PUCP
517,82,,1.0,62.0,bridge_256.jpg,,,,A1VJ4ZOXP9PUCP
518,83,,1.0,63.0,playground_240.jpg,,,,A1VJ4ZOXP9PUCP
519,84,,1.0,64.0,bridge_128.jpg,,,,A1VJ4ZOXP9PUCP
520,20,,1.0,0.0,badlands_137.jpg,,,,A2UWEAIX8UZXAQ
521,21,,1.0,1.0,badlands_113.jpg,,,,A2UWEAIX8UZXAQ
522,22,,1.0,2.0,bridge_256.jpg,,,,A2UWEAIX8UZXAQ
523,23,,1.0,3.0,playground_76.jpg,,,,A2UWEAIX8UZXAQ
524,24,,1.0,4.0,golf_course_87.jpg,,,,A2UWEAIX8UZXAQ
525,25,,1.0,5.0,mountain_156.jpg,,,,A2UWEAIX8UZXAQ
526,26,,1.0,6.0,playground_117.jpg,,,,A2UWEAIX8UZXAQ
527,27,,1.0,7.0,mountain_232.jpg,,,,A2UWEAIX8UZXAQ
528,28,,1.0,8.0,golf_course_188.jpg,,,,A2UWEAIX8UZXAQ
529,29,,1.0,9.0,playground_219.jpg,,,,A2UWEAIX8UZXAQ
530,30,,1.0,10.0,golf_course_193.jpg,,,,A2UWEAIX8UZXAQ
531,31,left,1.0,11.0,left.jpg,left,0.5676,,A2UWEAIX8UZXAQ
532,32,,1.0,12.0,bridge_146.jpg,,,,A2UWEAIX8UZXAQ
533,33,,1.0,13.0,mountain_101.jpg,,,,A2UWEAIX8UZXAQ
534,34,,1.0,14.0,golf_course_15.jpg,,,,A2UWEAIX8UZXAQ
535,35,,1.0,15.0,mountain_123.jpg,,,,A2UWEAIX8UZXAQ
536,36,left,1.0,16.0,left.jpg,left,0.5505,,A2UWEAIX8UZXAQ
537,37,,1.0,17.0,mountain_230.jpg,,,,A2UWEAIX8UZXAQ
538,38,,1.0,18.0,highway_359.jpg,,,,A2UWEAIX8UZXAQ
539,39,,1.0,19.0,golf_course_331.jpg,,,,A2UWEAIX8UZXAQ
540,40,,1.0,20.0,badlands_21.jpg,,,,A2UWEAIX8UZXAQ
541,41,,1.0,21.0,playground_257.jpg,,,,A2UWEAIX8UZXAQ
542,42,,1.0,22.0,mountain_293.jpg,,,,A2UWEAIX8UZXAQ
543,43,,1.0,23.0,mountain_57.jpg,,,,A2UWEAIX8UZXAQ
544,44,,1.0,24.0,golf_course_214.jpg,,,,A2UWEAIX8UZXAQ
545,45,,1.0,25.0,badlands_23.jpg,,,,A2UWEAIX8UZXAQ
546,46,,1.0,26.0,highway_156.jpg,,,,A2UWEAIX8UZXAQ
547,47,,1.0,27.0,badlands_52.jpg,,,,A2UWEAIX8UZXAQ
548,48,,1.0,28.0,playground_144.jpg,,,,A2UWEAIX8UZXAQ
549,49,,1.0,29.0,bridge_128.jpg,,,,A2UWEAIX8UZXAQ
550,50,left,1.0,30.0,left.jpg,left,0.4839,,A2UWEAIX8UZXAQ
551,51,,1.0,31.0,mountain_154.jpg,,,,A2UWEAIX8UZXAQ
552,52,,1.0,32.0,mountain_222.jpg,,,,A2UWEAIX8UZXAQ
553,53,,1.0,33.0,badlands_222.jpg,,,,A2UWEAIX8UZXAQ
554,54,,1.0,34.0,golf_course_195.jpg,,,,A2UWEAIX8UZXAQ
555,55,,1.0,35.0,highway_273.jpg,,,,A2UWEAIX8UZXAQ
556,56,,1.0,36.0,highway_415.jpg,,,,A2UWEAIX8UZXAQ
557,57,left,1.0,37.0,left.jpg,left,0.5014,,A2UWEAIX8UZXAQ
558,58,,1.0,38.0,highway_294.jpg,,,,A2UWEAIX8UZXAQ
559,59,,1.0,39.0,highway_93.jpg,,,,A2UWEAIX8UZXAQ
560,60,,1.0,40.0,playground_240.jpg,,,,A2UWEAIX8UZXAQ
561,61,,1.0,41.0,highway_394.jpg,,,,A2UWEAIX8UZXAQ
562,62,,1.0,42.0,badlands_24.jpg,,,,A2UWEAIX8UZXAQ
563,63,,1.0,43.0,highway_209.jpg,,,,A2UWEAIX8UZXAQ
564,64,,1.0,44.0,highway_245.jpg,,,,A2UWEAIX8UZXAQ
565,65,,1.0,45.0,bridge_172.jpg,,,,A2UWEAIX8UZXAQ
566,66,,1.0,46.0,playground_145.jpg,,,,A2UWEAIX8UZXAQ
567,67,,1.0,47.0,highway_177.jpg,,,,A2UWEAIX8UZXAQ
568,68,,1.0,48.0,badlands_70.jpg,,,,A2UWEAIX8UZXAQ
569,69,,1.0,49.0,playground_60.jpg,,,,A2UWEAIX8UZXAQ
570,70,,1.0,50.0,badlands_221.jpg,,,,A2UWEAIX8UZXAQ
571,71,left,1.0,51.0,left.jpg,left,0.671,,A2UWEAIX8UZXAQ
572,72,,1.0,52.0,bridge_91.jpg,,,,A2UWEAIX8UZXAQ
573,73,,1.0,53.0,golf_course_309.jpg,,,,A2UWEAIX8UZXAQ
574,74,,1.0,54.0,playground_10.jpg,,,,A2UWEAIX8UZXAQ
575,75,,1.0,55.0,bridge_202.jpg,,,,A2UWEAIX8UZXAQ
576,76,,1.0,56.0,playground_131.jpg,,,,A2UWEAIX8UZXAQ
577,77,,1.0,57.0,golf_course_217.jpg,,,,A2UWEAIX8UZXAQ
578,78,,1.0,58.0,bridge_191.jpg,,,,A2UWEAIX8UZXAQ
579,79,,1.0,59.0,bridge_250.jpg,,,,A2UWEAIX8UZXAQ
580,80,,1.0,60.0,mountain_110.jpg,,,,A2UWEAIX8UZXAQ
581,81,,1.0,61.0,golf_course_78.jpg,,,,A2UWEAIX8UZXAQ
582,82,,1.0,62.0,bridge_65.jpg,,,,A2UWEAIX8UZXAQ
583,83,,1.0,63.0,badlands_184.jpg,,,,A2UWEAIX8UZXAQ
584,84,,1.0,64.0,bridge_108.jpg,,,,A2UWEAIX8UZXAQ
585,20,,1.0,0.0,golf_course_331.jpg,,,,A32X8WXMIV4KE8
586,21,,1.0,1.0,mountain_154.jpg,,,,A32X8WXMIV4KE8
587,22,,1.0,2.0,mountain_222.jpg,,,,A32X8WXMIV4KE8
588,23,,1.0,3.0,golf_course_195.jpg,,,,A32X8WXMIV4KE8
589,24,,1.0,4.0,playground_145.jpg,,,,A32X8WXMIV4KE8
590,25,,1.0,5.0,golf_course_214.jpg,,,,A32X8WXMIV4KE8
591,26,,1.0,6.0,bridge_250.jpg,,,,A32X8WXMIV4KE8
592,27,,1.0,7.0,golf_course_193.jpg,,,,A32X8WXMIV4KE8
593,28,,1.0,8.0,highway_177.jpg,,,,A32X8WXMIV4KE8
594,29,,1.0,9.0,playground_219.jpg,,,,A32X8WXMIV4KE8
595,30,,1.0,10.0,mountain_232.jpg,,,,A32X8WXMIV4KE8
596,31,,1.0,11.0,bridge_146.jpg,,,,A32X8WXMIV4KE8
597,32,,1.0,12.0,badlands_52.jpg,,,,A32X8WXMIV4KE8
598,33,,1.0,13.0,playground_60.jpg,,,,A32X8WXMIV4KE8
599,34,left,1.0,14.0,left.jpg,left,1.201,,A32X8WXMIV4KE8
600,35,,1.0,15.0,badlands_21.jpg,,,,A32X8WXMIV4KE8
601,36,,1.0,16.0,highway_156.jpg,,,,A32X8WXMIV4KE8
602,37,right,1.0,17.0,right.jpg,right,1.101,,A32X8WXMIV4KE8
603,38,,1.0,18.0,golf_course_87.jpg,,,,A32X8WXMIV4KE8
604,39,,1.0,19.0,golf_course_309.jpg,,,,A32X8WXMIV4KE8
605,40,,1.0,20.0,bridge_108.jpg,,,,A32X8WXMIV4KE8
606,41,,1.0,21.0,highway_245.jpg,,,,A32X8WXMIV4KE8
607,42,,1.0,22.0,badlands_23.jpg,,,,A32X8WXMIV4KE8
608,43,,1.0,23.0,badlands_221.jpg,,,,A32X8WXMIV4KE8
609,44,,1.0,24.0,bridge_128.jpg,,,,A32X8WXMIV4KE8
610,45,,1.0,25.0,badlands_222.jpg,,,,A32X8WXMIV4KE8
611,46,right,1.0,26.0,right.jpg,right,1.105,,A32X8WXMIV4KE8
612,47,,1.0,27.0,playground_131.jpg,,,,A32X8WXMIV4KE8
613,48,,1.0,28.0,badlands_137.jpg,,,,A32X8WXMIV4KE8
614,49,,1.0,29.0,highway_209.jpg,,,,A32X8WXMIV4KE8
615,50,,1.0,30.0,highway_415.jpg,,,,A32X8WXMIV4KE8
616,51,,1.0,31.0,bridge_91.jpg,,,,A32X8WXMIV4KE8
617,52,,1.0,32.0,mountain_101.jpg,,,,A32X8WXMIV4KE8
618,53,,1.0,33.0,mountain_293.jpg,,,,A32X8WXMIV4KE8
619,54,,1.0,34.0,bridge_172.jpg,,,,A32X8WXMIV4KE8
620,55,,1.0,35.0,highway_273.jpg,,,,A32X8WXMIV4KE8
621,56,,1.0,36.0,playground_10.jpg,,,,A32X8WXMIV4KE8
622,57,left,1.0,37.0,left.jpg,left,0.986,,A32X8WXMIV4KE8
623,58,,1.0,38.0,playground_240.jpg,,,,A32X8WXMIV4KE8
624,59,,1.0,39.0,highway_359.jpg,,,,A32X8WXMIV4KE8
625,60,,1.0,40.0,badlands_70.jpg,,,,A32X8WXMIV4KE8
626,61,,1.0,41.0,mountain_57.jpg,,,,A32X8WXMIV4KE8
627,62,,1.0,42.0,mountain_123.jpg,,,,A32X8WXMIV4KE8
628,63,,1.0,43.0,bridge_202.jpg,,,,A32X8WXMIV4KE8
629,64,,1.0,44.0,bridge_256.jpg,,,,A32X8WXMIV4KE8
630,65,,1.0,45.0,playground_257.jpg,,,,A32X8WXMIV4KE8
631,66,left,1.0,46.0,left.jpg,left,1.001,,A32X8WXMIV4KE8
632,67,,1.0,47.0,golf_course_188.jpg,,,,A32X8WXMIV4KE8
633,68,,1.0,48.0,golf_course_15.jpg,,,,A32X8WXMIV4KE8
634,69,,1.0,49.0,badlands_24.jpg,,,,A32X8WXMIV4KE8
635,70,,1.0,50.0,playground_117.jpg,,,,A32X8WXMIV4KE8
636,71,,1.0,51.0,bridge_65.jpg,,,,A32X8WXMIV4KE8
637,72,,1.0,52.0,golf_course_217.jpg,,,,A32X8WXMIV4KE8
638,73,,1.0,53.0,highway_394.jpg,,,,A32X8WXMIV4KE8
639,74,,1.0,54.0,golf_course_78.jpg,,,,A32X8WXMIV4KE8
640,75,,1.0,55.0,highway_93.jpg,,,,A32X8WXMIV4KE8
641,76,,1.0,56.0,highway_294.jpg,,,,A32X8WXMIV4KE8
642,77,,1.0,57.0,mountain_230.jpg,,,,A32X8WXMIV4KE8
643,78,,1.0,58.0,mountain_156.jpg,,,,A32X8WXMIV4KE8
644,79,,1.0,59.0,mountain_110.jpg,,,,A32X8WXMIV4KE8
645,80,,1.0,60.0,badlands_184.jpg,,,,A32X8WXMIV4KE8
646,81,,1.0,61.0,bridge_191.jpg,,,,A32X8WXMIV4KE8
647,82,,1.0,62.0,badlands_113.jpg,,,,A32X8WXMIV4KE8
648,83,,1.0,63.0,playground_144.jpg,,,,A32X8WXMIV4KE8
649,84,,1.0,64.0,playground_76.jpg,,,,A32X8WXMIV4KE8
650,20,,1.0,0.0,highway_394.jpg,,,,AJT7C07A187KA
651,21,,1.0,1.0,golf_course_331.jpg,,,,AJT7C07A187KA
652,22,,1.0,2.0,badlands_21.jpg,,,,AJT7C07A187KA
653,23,,1.0,3.0,highway_245.jpg,,,,AJT7C07A187KA
654,24,,1.0,4.0,badlands_221.jpg,,,,AJT7C07A187KA
655,25,,1.0,5.0,bridge_146.jpg,,,,AJT7C07A187KA
656,26,,1.0,6.0,badlands_23.jpg,,,,AJT7C07A187KA
657,27,,1.0,7.0,highway_209.jpg,,,,AJT7C07A187KA
658,28,,1.0,8.0,mountain_154.jpg,,,,AJT7C07A187KA
659,29,right,1.0,9.0,right.jpg,right,2.1363,,AJT7C07A187KA
660,30,,1.0,10.0,mountain_156.jpg,,,,AJT7C07A187KA
661,31,,1.0,11.0,mountain_57.jpg,,,,AJT7C07A187KA
662,32,,1.0,12.0,highway_156.jpg,,,,AJT7C07A187KA
663,33,,1.0,13.0,golf_course_78.jpg,,,,AJT7C07A187KA
664,34,,1.0,14.0,bridge_65.jpg,,,,AJT7C07A187KA
665,35,,1.0,15.0,playground_240.jpg,,,,AJT7C07A187KA
666,36,,1.0,16.0,playground_257.jpg,,,,AJT7C07A187KA
667,37,right,1.0,17.0,right.jpg,right,0.8852,,AJT7C07A187KA
668,38,,1.0,18.0,bridge_202.jpg,,,,AJT7C07A187KA
669,39,,1.0,19.0,bridge_191.jpg,,,,AJT7C07A187KA
670,40,,1.0,20.0,golf_course_217.jpg,,,,AJT7C07A187KA
671,41,,1.0,21.0,highway_294.jpg,,,,AJT7C07A187KA
672,42,,1.0,22.0,playground_145.jpg,,,,AJT7C07A187KA
673,43,,1.0,23.0,badlands_113.jpg,,,,AJT7C07A187KA
674,44,,1.0,24.0,highway_415.jpg,,,,AJT7C07A187KA
675,45,,1.0,25.0,playground_219.jpg,,,,AJT7C07A187KA
676,46,left,1.0,26.0,left.jpg,left,0.9665,,AJT7C07A187KA
677,47,,1.0,27.0,badlands_24.jpg,,,,AJT7C07A187KA
678,48,,1.0,28.0,mountain_222.jpg,,,,AJT7C07A187KA
679,49,,1.0,29.0,mountain_110.jpg,,,,AJT7C07A187KA
680,50,,1.0,30.0,bridge_91.jpg,,,,AJT7C07A187KA
681,51,,1.0,31.0,mountain_123.jpg,,,,AJT7C07A187KA
682,52,,1.0,32.0,bridge_250.jpg,,,,AJT7C07A187KA
683,53,,1.0,33.0,golf_course_87.jpg,,,,AJT7C07A187KA
684,54,,1.0,34.0,bridge_128.jpg,,,,AJT7C07A187KA
685,55,,1.0,35.0,playground_131.jpg,,,,AJT7C07A187KA
686,56,,1.0,36.0,golf_course_188.jpg,,,,AJT7C07A187KA
687,57,,1.0,37.0,bridge_256.jpg,,,,AJT7C07A187KA
688,58,,1.0,38.0,badlands_184.jpg,,,,AJT7C07A187KA
689,59,,1.0,39.0,badlands_222.jpg,,,,AJT7C07A187KA
690,60,left,1.0,40.0,left.jpg,left,1.0457,,AJT7C07A187KA
691,61,,1.0,41.0,golf_course_214.jpg,,,,AJT7C07A187KA
692,62,,1.0,42.0,badlands_52.jpg,,,,AJT7C07A187KA
693,63,,1.0,43.0,playground_144.jpg,,,,AJT7C07A187KA
694,64,,1.0,44.0,golf_course_15.jpg,,,,AJT7C07A187KA
695,65,,1.0,45.0,playground_10.jpg,,,,AJT7C07A187KA
696,66,,1.0,46.0,playground_76.jpg,,,,AJT7C07A187KA
697,67,,1.0,47.0,highway_359.jpg,,,,AJT7C07A187KA
698,68,,1.0,48.0,mountain_230.jpg,,,,AJT7C07A187KA
699,69,,1.0,49.0,highway_93.jpg,,,,AJT7C07A187KA
700,70,right,1.0,50.0,right.jpg,right,1.418,,AJT7C07A187KA
701,71,,1.0,51.0,mountain_293.jpg,,,,AJT7C07A187KA
702,72,,1.0,52.0,mountain_232.jpg,,,,AJT7C07A187KA
703,73,,1.0,53.0,mountain_101.jpg,,,,AJT7C07A187KA
704,74,,1.0,54.0,badlands_137.jpg,,,,AJT7C07A187KA
705,75,,1.0,55.0,highway_273.jpg,,,,AJT7C07A187KA
706,76,,1.0,56.0,golf_course_309.jpg,,,,AJT7C07A187KA
707,77,,1.0,57.0,bridge_108.jpg,,,,AJT7C07A187KA
708,78,,1.0,58.0,golf_course_193.jpg,,,,AJT7C07A187KA
709,79,,1.0,59.0,highway_177.jpg,,,,AJT7C07A187KA
710,80,,1.0,60.0,playground_60.jpg,,,,AJT7C07A187KA
711,81,,1.0,61.0,golf_course_195.jpg,,,,AJT7C07A187KA
712,82,,1.0,62.0,playground_117.jpg,,,,AJT7C07A187KA
713,83,,1.0,63.0,bridge_172.jpg,,,,AJT7C07A187KA
714,84,,1.0,64.0,badlands_70.jpg,,,,AJT7C07A187KA
715,20,,1.0,0.0,badlands_184.jpg,,,,A237PUN7791D62
716,21,,1.0,1.0,badlands_113.jpg,,,,A237PUN7791D62
717,22,,1.0,2.0,highway_156.jpg,,,,A237PUN7791D62
718,23,,1.0,3.0,golf_course_15.jpg,,,,A237PUN7791D62
719,24,,1.0,4.0,mountain_230.jpg,,,,A237PUN7791D62
720,25,,1.0,5.0,highway_394.jpg,,,,A237PUN7791D62
721,26,,1.0,6.0,golf_course_188.jpg,,,,A237PUN7791D62
722,27,,1.0,7.0,mountain_57.jpg,,,,A237PUN7791D62
723,28,,1.0,8.0,golf_course_217.jpg,,,,A237PUN7791D62
724,29,,1.0,9.0,playground_145.jpg,,,,A237PUN7791D62
725,30,,1.0,10.0,playground_76.jpg,,,,A237PUN7791D62
726,31,left,1.0,11.0,left.jpg,left,0.668,,A237PUN7791D62
727,32,,1.0,12.0,mountain_293.jpg,,,,A237PUN7791D62
728,33,,1.0,13.0,highway_294.jpg,,,,A237PUN7791D62
729,34,,1.0,14.0,playground_131.jpg,,,,A237PUN7791D62
730,35,,1.0,15.0,badlands_221.jpg,,,,A237PUN7791D62
731,36,,1.0,16.0,mountain_154.jpg,,,,A237PUN7791D62
732,37,,1.0,17.0,bridge_128.jpg,,,,A237PUN7791D62
733,38,,1.0,18.0,bridge_91.jpg,,,,A237PUN7791D62
734,39,,1.0,19.0,badlands_24.jpg,,,,A237PUN7791D62
735,40,left,1.0,20.0,left.jpg,left,0.6626,,A237PUN7791D62
736,41,,1.0,21.0,golf_course_309.jpg,,,,A237PUN7791D62
737,42,,1.0,22.0,golf_course_331.jpg,,,,A237PUN7791D62
738,43,,1.0,23.0,badlands_52.jpg,,,,A237PUN7791D62
739,44,,1.0,24.0,mountain_110.jpg,,,,A237PUN7791D62
740,45,,1.0,25.0,highway_93.jpg,,,,A237PUN7791D62
741,46,,1.0,26.0,badlands_70.jpg,,,,A237PUN7791D62
742,47,,1.0,27.0,highway_177.jpg,,,,A237PUN7791D62
743,48,,1.0,28.0,bridge_256.jpg,,,,A237PUN7791D62
744,49,,1.0,29.0,playground_240.jpg,,,,A237PUN7791D62
745,50,,1.0,30.0,playground_10.jpg,,,,A237PUN7791D62
746,51,right,1.0,31.0,right.jpg,right,0.5961,,A237PUN7791D62
747,52,,1.0,32.0,bridge_172.jpg,,,,A237PUN7791D62
748,53,,1.0,33.0,mountain_222.jpg,,,,A237PUN7791D62
749,54,,1.0,34.0,playground_144.jpg,,,,A237PUN7791D62
750,55,,1.0,35.0,playground_219.jpg,,,,A237PUN7791D62
751,56,,1.0,36.0,highway_245.jpg,,,,A237PUN7791D62
752,57,left,1.0,37.0,left.jpg,left,0.4808,,A237PUN7791D62
753,58,,1.0,38.0,golf_course_195.jpg,,,,A237PUN7791D62
754,59,,1.0,39.0,badlands_222.jpg,,,,A237PUN7791D62
755,60,,1.0,40.0,playground_117.jpg,,,,A237PUN7791D62
756,61,,1.0,41.0,bridge_65.jpg,,,,A237PUN7791D62
757,62,,1.0,42.0,highway_415.jpg,,,,A237PUN7791D62
758,63,,1.0,43.0,golf_course_193.jpg,,,,A237PUN7791D62
759,64,,1.0,44.0,golf_course_87.jpg,,,,A237PUN7791D62
760,65,,1.0,45.0,bridge_191.jpg,,,,A237PUN7791D62
761,66,,1.0,46.0,mountain_232.jpg,,,,A237PUN7791D62
762,67,,1.0,47.0,bridge_202.jpg,,,,A237PUN7791D62
763,68,left,1.0,48.0,left.jpg,left,0.5628,,A237PUN7791D62
764,69,,1.0,49.0,playground_60.jpg,,,,A237PUN7791D62
765,70,,1.0,50.0,highway_359.jpg,,,,A237PUN7791D62
766,71,,1.0,51.0,bridge_108.jpg,,,,A237PUN7791D62
767,72,,1.0,52.0,badlands_137.jpg,,,,A237PUN7791D62
768,73,,1.0,53.0,highway_273.jpg,,,,A237PUN7791D62
769,74,,1.0,54.0,playground_257.jpg,,,,A237PUN7791D62
770,75,,1.0,55.0,highway_209.jpg,,,,A237PUN7791D62
771,76,,1.0,56.0,mountain_156.jpg,,,,A237PUN7791D62
772,77,,1.0,57.0,golf_course_214.jpg,,,,A237PUN7791D62
773,78,,1.0,58.0,badlands_21.jpg,,,,A237PUN7791D62
774,79,,1.0,59.0,mountain_101.jpg,,,,A237PUN7791D62
775,80,,1.0,60.0,mountain_123.jpg,,,,A237PUN7791D62
776,81,,1.0,61.0,bridge_146.jpg,,,,A237PUN7791D62
777,82,,1.0,62.0,bridge_250.jpg,,,,A237PUN7791D62
778,83,,1.0,63.0,golf_course_78.jpg,,,,A237PUN7791D62
779,84,,1.0,64.0,badlands_23.jpg,,,,A237PUN7791D62
780,20,,1.0,0.0,playground_145.jpg,,,,A3SMMI1Z1558QE
781,21,,1.0,1.0,badlands_221.jpg,,,,A3SMMI1Z1558QE
782,22,,1.0,2.0,bridge_172.jpg,,,,A3SMMI1Z1558QE
783,23,,1.0,3.0,golf_course_217.jpg,,,,A3SMMI1Z1558QE
784,24,,1.0,4.0,golf_course_87.jpg,,,,A3SMMI1Z1558QE
785,25,,1.0,5.0,bridge_146.jpg,,,,A3SMMI1Z1558QE
786,26,,1.0,6.0,badlands_137.jpg,,,,A3SMMI1Z1558QE
787,27,,1.0,7.0,badlands_70.jpg,,,,A3SMMI1Z1558QE
788,28,,1.0,8.0,golf_course_193.jpg,,,,A3SMMI1Z1558QE
789,29,,1.0,9.0,bridge_128.jpg,,,,A3SMMI1Z1558QE
790,30,left,1.0,10.0,left.jpg,left,2.4897,,A3SMMI1Z1558QE
791,31,,1.0,11.0,mountain_110.jpg,,,,A3SMMI1Z1558QE
792,32,,1.0,12.0,bridge_202.jpg,,,,A3SMMI1Z1558QE
793,33,,1.0,13.0,bridge_108.jpg,,,,A3SMMI1Z1558QE
794,34,,1.0,14.0,highway_394.jpg,,,,A3SMMI1Z1558QE
795,35,,1.0,15.0,badlands_222.jpg,,,,A3SMMI1Z1558QE
796,36,,1.0,16.0,highway_415.jpg,,,,A3SMMI1Z1558QE
797,37,left,1.0,17.0,left.jpg,left,1.5995,,A3SMMI1Z1558QE
798,38,,1.0,18.0,playground_60.jpg,,,,A3SMMI1Z1558QE
799,39,,1.0,19.0,highway_294.jpg,,,,A3SMMI1Z1558QE
800,40,,1.0,20.0,mountain_123.jpg,,,,A3SMMI1Z1558QE
801,41,,1.0,21.0,mountain_230.jpg,,,,A3SMMI1Z1558QE
802,42,,1.0,22.0,golf_course_195.jpg,,,,A3SMMI1Z1558QE
803,43,,1.0,23.0,badlands_21.jpg,,,,A3SMMI1Z1558QE
804,44,,1.0,24.0,bridge_256.jpg,,,,A3SMMI1Z1558QE
805,45,,1.0,25.0,playground_131.jpg,,,,A3SMMI1Z1558QE
806,46,,1.0,26.0,bridge_65.jpg,,,,A3SMMI1Z1558QE
807,47,,1.0,27.0,highway_359.jpg,,,,A3SMMI1Z1558QE
808,48,,1.0,28.0,badlands_52.jpg,,,,A3SMMI1Z1558QE
809,49,,1.0,29.0,playground_219.jpg,,,,A3SMMI1Z1558QE
810,50,,1.0,30.0,highway_93.jpg,,,,A3SMMI1Z1558QE
811,51,,0.0,31.0,right.jpg,right,,,A3SMMI1Z1558QE
812,52,,1.0,32.0,bridge_250.jpg,,,,A3SMMI1Z1558QE
813,53,,1.0,33.0,bridge_91.jpg,,,,A3SMMI1Z1558QE
814,54,,1.0,34.0,badlands_184.jpg,,,,A3SMMI1Z1558QE
815,55,,1.0,35.0,highway_245.jpg,,,,A3SMMI1Z1558QE
816,56,,1.0,36.0,playground_257.jpg,,,,A3SMMI1Z1558QE
817,57,,1.0,37.0,mountain_101.jpg,,,,A3SMMI1Z1558QE
818,58,,1.0,38.0,highway_209.jpg,,,,A3SMMI1Z1558QE
819,59,,1.0,39.0,mountain_156.jpg,,,,A3SMMI1Z1558QE
820,60,,1.0,40.0,playground_144.jpg,,,,A3SMMI1Z1558QE
821,61,right,1.0,41.0,right.jpg,right,1.7596,,A3SMMI1Z1558QE
822,62,,1.0,42.0,bridge_191.jpg,,,,A3SMMI1Z1558QE
823,63,,1.0,43.0,golf_course_331.jpg,,,,A3SMMI1Z1558QE
824,64,,1.0,44.0,golf_course_15.jpg,,,,A3SMMI1Z1558QE
825,65,,1.0,45.0,golf_course_214.jpg,,,,A3SMMI1Z1558QE
826,66,,1.0,46.0,badlands_24.jpg,,,,A3SMMI1Z1558QE
827,67,,1.0,47.0,playground_117.jpg,,,,A3SMMI1Z1558QE
828,68,,1.0,48.0,badlands_23.jpg,,,,A3SMMI1Z1558QE
829,69,,1.0,49.0,mountain_154.jpg,,,,A3SMMI1Z1558QE
830,70,,1.0,50.0,highway_177.jpg,,,,A3SMMI1Z1558QE
831,71,,1.0,51.0,golf_course_188.jpg,,,,A3SMMI1Z1558QE
832,72,left,1.0,52.0,left.jpg,left,1.7251,,A3SMMI1Z1558QE
833,73,,1.0,53.0,highway_156.jpg,,,,A3SMMI1Z1558QE
834,74,,1.0,54.0,playground_10.jpg,,,,A3SMMI1Z1558QE
835,75,,1.0,55.0,badlands_113.jpg,,,,A3SMMI1Z1558QE
836,76,,1.0,56.0,playground_240.jpg,,,,A3SMMI1Z1558QE
837,77,,1.0,57.0,mountain_293.jpg,,,,A3SMMI1Z1558QE
838,78,,1.0,58.0,mountain_57.jpg,,,,A3SMMI1Z1558QE
839,79,,1.0,59.0,golf_course_78.jpg,,,,A3SMMI1Z1558QE
840,80,,1.0,60.0,highway_273.jpg,,,,A3SMMI1Z1558QE
841,81,,1.0,61.0,mountain_232.jpg,,,,A3SMMI1Z1558QE
842,82,,1.0,62.0,golf_course_309.jpg,,,,A3SMMI1Z1558QE
843,83,,1.0,63.0,playground_76.jpg,,,,A3SMMI1Z1558QE
844,84,,1.0,64.0,mountain_222.jpg,,,,A3SMMI1Z1558QE
845,20,,1.0,0.0,badlands_137.jpg,,,,A3LBMZYPY37NRW
846,21,,1.0,1.0,playground_10.jpg,,,,A3LBMZYPY37NRW
847,22,,1.0,2.0,playground_117.jpg,,,,A3LBMZYPY37NRW
848,23,,1.0,3.0,playground_144.jpg,,,,A3LBMZYPY37NRW
849,24,,1.0,4.0,highway_359.jpg,,,,A3LBMZYPY37NRW
850,25,,1.0,5.0,playground_60.jpg,,,,A3LBMZYPY37NRW
851,26,,1.0,6.0,bridge_108.jpg,,,,A3LBMZYPY37NRW
852,27,,1.0,7.0,badlands_52.jpg,,,,A3LBMZYPY37NRW
853,28,,1.0,8.0,highway_415.jpg,,,,A3LBMZYPY37NRW
854,29,,1.0,9.0,highway_209.jpg,,,,A3LBMZYPY37NRW
855,30,left,1.0,10.0,left.jpg,left,1.8213,,A3LBMZYPY37NRW
856,31,,1.0,11.0,playground_219.jpg,,,,A3LBMZYPY37NRW
857,32,,1.0,12.0,mountain_232.jpg,,,,A3LBMZYPY37NRW
858,33,,1.0,13.0,mountain_110.jpg,,,,A3LBMZYPY37NRW
859,34,,1.0,14.0,golf_course_87.jpg,,,,A3LBMZYPY37NRW
860,35,,1.0,15.0,playground_131.jpg,,,,A3LBMZYPY37NRW
861,36,,1.0,16.0,mountain_230.jpg,,,,A3LBMZYPY37NRW
862,37,,1.0,17.0,badlands_70.jpg,,,,A3LBMZYPY37NRW
863,38,right,1.0,18.0,right.jpg,right,1.4223,,A3LBMZYPY37NRW
864,39,,1.0,19.0,bridge_250.jpg,,,,A3LBMZYPY37NRW
865,40,,1.0,20.0,mountain_222.jpg,,,,A3LBMZYPY37NRW
866,41,,1.0,21.0,golf_course_78.jpg,,,,A3LBMZYPY37NRW
867,42,,1.0,22.0,badlands_21.jpg,,,,A3LBMZYPY37NRW
868,43,,1.0,23.0,bridge_128.jpg,,,,A3LBMZYPY37NRW
869,44,,1.0,24.0,bridge_146.jpg,,,,A3LBMZYPY37NRW
870,45,,1.0,25.0,badlands_221.jpg,,,,A3LBMZYPY37NRW
871,46,,1.0,26.0,bridge_91.jpg,,,,A3LBMZYPY37NRW
872,47,,1.0,27.0,highway_273.jpg,,,,A3LBMZYPY37NRW
873,48,,1.0,28.0,playground_240.jpg,,,,A3LBMZYPY37NRW
874,49,left,1.0,29.0,left.jpg,left,1.4714,,A3LBMZYPY37NRW
875,50,,1.0,30.0,playground_257.jpg,,,,A3LBMZYPY37NRW
876,51,,1.0,31.0,golf_course_214.jpg,,,,A3LBMZYPY37NRW
877,52,,1.0,32.0,golf_course_195.jpg,,,,A3LBMZYPY37NRW
878,53,,1.0,33.0,golf_course_217.jpg,,,,A3LBMZYPY37NRW
879,54,,1.0,34.0,highway_294.jpg,,,,A3LBMZYPY37NRW
880,55,,1.0,35.0,highway_394.jpg,,,,A3LBMZYPY37NRW
881,56,,1.0,36.0,badlands_23.jpg,,,,A3LBMZYPY37NRW
882,57,,1.0,37.0,mountain_101.jpg,,,,A3LBMZYPY37NRW
883,58,,1.0,38.0,highway_245.jpg,,,,A3LBMZYPY37NRW
884,59,,1.0,39.0,highway_93.jpg,,,,A3LBMZYPY37NRW
885,60,right,1.0,40.0,right.jpg,right,2.2275,,A3LBMZYPY37NRW
886,61,,1.0,41.0,mountain_293.jpg,,,,A3LBMZYPY37NRW
887,62,,1.0,42.0,bridge_191.jpg,,,,A3LBMZYPY37NRW
888,63,,1.0,43.0,golf_course_15.jpg,,,,A3LBMZYPY37NRW
889,64,,1.0,44.0,bridge_172.jpg,,,,A3LBMZYPY37NRW
890,65,,1.0,45.0,badlands_113.jpg,,,,A3LBMZYPY37NRW
891,66,,1.0,46.0,golf_course_309.jpg,,,,A3LBMZYPY37NRW
892,67,,1.0,47.0,badlands_24.jpg,,,,A3LBMZYPY37NRW
893,68,,1.0,48.0,mountain_154.jpg,,,,A3LBMZYPY37NRW
894,69,,1.0,49.0,mountain_156.jpg,,,,A3LBMZYPY37NRW
895,70,,1.0,50.0,highway_177.jpg,,,,A3LBMZYPY37NRW
896,71,,1.0,51.0,highway_156.jpg,,,,A3LBMZYPY37NRW
897,72,right,1.0,52.0,right.jpg,right,1.2461,,A3LBMZYPY37NRW
898,73,,1.0,53.0,mountain_57.jpg,,,,A3LBMZYPY37NRW
899,74,,1.0,54.0,bridge_256.jpg,,,,A3LBMZYPY37NRW
900,75,,1.0,55.0,bridge_65.jpg,,,,A3LBMZYPY37NRW
901,76,,1.0,56.0,badlands_184.jpg,,,,A3LBMZYPY37NRW
902,77,,1.0,57.0,golf_course_193.jpg,,,,A3LBMZYPY37NRW
903,78,,1.0,58.0,mountain_123.jpg,,,,A3LBMZYPY37NRW
904,79,,1.0,59.0,bridge_202.jpg,,,,A3LBMZYPY37NRW
905,80,,1.0,60.0,golf_course_331.jpg,,,,A3LBMZYPY37NRW
906,81,,1.0,61.0,playground_145.jpg,,,,A3LBMZYPY37NRW
907,82,,1.0,62.0,badlands_222.jpg,,,,A3LBMZYPY37NRW
908,83,,1.0,63.0,golf_course_188.jpg,,,,A3LBMZYPY37NRW
909,84,,1.0,64.0,playground_76.jpg,,,,A3LBMZYPY37NRW
910,20,,1.0,0.0,bridge_191.jpg,,,,A2TQ9IHDHCSQC8
911,21,,1.0,1.0,badlands_184.jpg,,,,A2TQ9IHDHCSQC8
912,22,,1.0,2.0,golf_course_195.jpg,,,,A2TQ9IHDHCSQC8
913,23,,1.0,3.0,golf_course_331.jpg,,,,A2TQ9IHDHCSQC8
914,24,,1.0,4.0,highway_415.jpg,,,,A2TQ9IHDHCSQC8
915,25,,1.0,5.0,bridge_65.jpg,,,,A2TQ9IHDHCSQC8
916,26,,1.0,6.0,playground_60.jpg,,,,A2TQ9IHDHCSQC8
917,27,,1.0,7.0,mountain_110.jpg,,,,A2TQ9IHDHCSQC8
918,28,,1.0,8.0,highway_93.jpg,,,,A2TQ9IHDHCSQC8
919,29,,1.0,9.0,mountain_232.jpg,,,,A2TQ9IHDHCSQC8
920,30,,1.0,10.0,bridge_172.jpg,,,,A2TQ9IHDHCSQC8
921,31,right,1.0,11.0,right.jpg,right,1.194,,A2TQ9IHDHCSQC8
922,32,,1.0,12.0,badlands_70.jpg,,,,A2TQ9IHDHCSQC8
923,33,,1.0,13.0,highway_245.jpg,,,,A2TQ9IHDHCSQC8
924,34,,1.0,14.0,golf_course_217.jpg,,,,A2TQ9IHDHCSQC8
925,35,,1.0,15.0,bridge_91.jpg,,,,A2TQ9IHDHCSQC8
926,36,left,1.0,16.0,left.jpg,left,0.919,,A2TQ9IHDHCSQC8
927,37,,1.0,17.0,playground_240.jpg,,,,A2TQ9IHDHCSQC8
928,38,,1.0,18.0,golf_course_193.jpg,,,,A2TQ9IHDHCSQC8
929,39,,1.0,19.0,bridge_202.jpg,,,,A2TQ9IHDHCSQC8
930,40,,1.0,20.0,badlands_137.jpg,,,,A2TQ9IHDHCSQC8
931,41,,1.0,21.0,playground_117.jpg,,,,A2TQ9IHDHCSQC8
932,42,,1.0,22.0,badlands_52.jpg,,,,A2TQ9IHDHCSQC8
933,43,,1.0,23.0,mountain_156.jpg,,,,A2TQ9IHDHCSQC8
934,44,,1.0,24.0,highway_209.jpg,,,,A2TQ9IHDHCSQC8
935,45,,1.0,25.0,mountain_154.jpg,,,,A2TQ9IHDHCSQC8
936,46,,1.0,26.0,bridge_108.jpg,,,,A2TQ9IHDHCSQC8
937,47,right,1.0,27.0,right.jpg,right,0.901,,A2TQ9IHDHCSQC8
938,48,,1.0,28.0,playground_257.jpg,,,,A2TQ9IHDHCSQC8
939,49,,1.0,29.0,golf_course_309.jpg,,,,A2TQ9IHDHCSQC8
940,50,,1.0,30.0,golf_course_214.jpg,,,,A2TQ9IHDHCSQC8
941,51,,1.0,31.0,golf_course_15.jpg,,,,A2TQ9IHDHCSQC8
942,52,,1.0,32.0,golf_course_78.jpg,,,,A2TQ9IHDHCSQC8
943,53,,1.0,33.0,bridge_146.jpg,,,,A2TQ9IHDHCSQC8
944,54,,1.0,34.0,mountain_293.jpg,,,,A2TQ9IHDHCSQC8
945,55,,1.0,35.0,mountain_57.jpg,,,,A2TQ9IHDHCSQC8
946,56,,1.0,36.0,playground_131.jpg,,,,A2TQ9IHDHCSQC8
947,57,,1.0,37.0,mountain_230.jpg,,,,A2TQ9IHDHCSQC8
948,58,,1.0,38.0,highway_273.jpg,,,,A2TQ9IHDHCSQC8
949,59,,1.0,39.0,bridge_128.jpg,,,,A2TQ9IHDHCSQC8
950,60,,1.0,40.0,badlands_222.jpg,,,,A2TQ9IHDHCSQC8
951,61,left,1.0,41.0,left.jpg,left,1.781,,A2TQ9IHDHCSQC8
952,62,,1.0,42.0,golf_course_87.jpg,,,,A2TQ9IHDHCSQC8
953,63,,1.0,43.0,highway_359.jpg,,,,A2TQ9IHDHCSQC8
954,64,,1.0,44.0,badlands_21.jpg,,,,A2TQ9IHDHCSQC8
955,65,,1.0,45.0,badlands_113.jpg,,,,A2TQ9IHDHCSQC8
956,66,,1.0,46.0,highway_294.jpg,,,,A2TQ9IHDHCSQC8
957,67,,1.0,47.0,playground_219.jpg,,,,A2TQ9IHDHCSQC8
958,68,,1.0,48.0,badlands_23.jpg,,,,A2TQ9IHDHCSQC8
959,69,,1.0,49.0,playground_144.jpg,,,,A2TQ9IHDHCSQC8
960,70,,1.0,50.0,badlands_221.jpg,,,,A2TQ9IHDHCSQC8
961,71,,1.0,51.0,highway_394.jpg,,,,A2TQ9IHDHCSQC8
962,72,,1.0,52.0,playground_145.jpg,,,,A2TQ9IHDHCSQC8
963,73,right,1.0,53.0,right.jpg,right,0.878,,A2TQ9IHDHCSQC8
964,74,,1.0,54.0,bridge_256.jpg,,,,A2TQ9IHDHCSQC8
965,75,,1.0,55.0,playground_76.jpg,,,,A2TQ9IHDHCSQC8
966,76,,1.0,56.0,mountain_222.jpg,,,,A2TQ9IHDHCSQC8
967,77,,1.0,57.0,mountain_123.jpg,,,,A2TQ9IHDHCSQC8
968,78,,1.0,58.0,highway_156.jpg,,,,A2TQ9IHDHCSQC8
969,79,,1.0,59.0,mountain_101.jpg,,,,A2TQ9IHDHCSQC8
970,80,,1.0,60.0,badlands_24.jpg,,,,A2TQ9IHDHCSQC8
971,81,,1.0,61.0,highway_177.jpg,,,,A2TQ9IHDHCSQC8
972,82,,1.0,62.0,playground_10.jpg,,,,A2TQ9IHDHCSQC8
973,83,,1.0,63.0,golf_course_188.jpg,,,,A2TQ9IHDHCSQC8
974,84,,1.0,64.0,bridge_250.jpg,,,,A2TQ9IHDHCSQC8
975,20,,1.0,0.0,golf_course_214.jpg,,,,A3ATB5GC4BQIH0
976,21,,1.0,1.0,mountain_222.jpg,,,,A3ATB5GC4BQIH0
977,22,,1.0,2.0,playground_219.jpg,,,,A3ATB5GC4BQIH0
978,23,,1.0,3.0,mountain_293.jpg,,,,A3ATB5GC4BQIH0
979,24,,1.0,4.0,highway_177.jpg,,,,A3ATB5GC4BQIH0
980,25,,1.0,5.0,bridge_172.jpg,,,,A3ATB5GC4BQIH0
981,26,,1.0,6.0,badlands_52.jpg,,,,A3ATB5GC4BQIH0
982,27,left,1.0,7.0,left.jpg,left,0.793,,A3ATB5GC4BQIH0
983,28,,1.0,8.0,highway_93.jpg,,,,A3ATB5GC4BQIH0
984,29,,1.0,9.0,mountain_110.jpg,,,,A3ATB5GC4BQIH0
985,30,,1.0,10.0,highway_415.jpg,,,,A3ATB5GC4BQIH0
986,31,,1.0,11.0,playground_76.jpg,,,,A3ATB5GC4BQIH0
987,32,,1.0,12.0,bridge_191.jpg,,,,A3ATB5GC4BQIH0
988,33,,1.0,13.0,mountain_232.jpg,,,,A3ATB5GC4BQIH0
989,34,,1.0,14.0,highway_294.jpg,,,,A3ATB5GC4BQIH0
990,35,,1.0,15.0,badlands_137.jpg,,,,A3ATB5GC4BQIH0
991,36,,1.0,16.0,playground_257.jpg,,,,A3ATB5GC4BQIH0
992,37,,1.0,17.0,bridge_146.jpg,,,,A3ATB5GC4BQIH0
993,38,left,1.0,18.0,left.jpg,left,0.794,,A3ATB5GC4BQIH0
994,39,,1.0,19.0,bridge_128.jpg,,,,A3ATB5GC4BQIH0
995,40,,1.0,20.0,golf_course_217.jpg,,,,A3ATB5GC4BQIH0
996,41,,1.0,21.0,badlands_23.jpg,,,,A3ATB5GC4BQIH0
997,42,,1.0,22.0,highway_156.jpg,,,,A3ATB5GC4BQIH0
998,43,,1.0,23.0,golf_course_195.jpg,,,,A3ATB5GC4BQIH0
999,44,,1.0,24.0,mountain_101.jpg,,,,A3ATB5GC4BQIH0
1000,45,,1.0,25.0,golf_course_87.jpg,,,,A3ATB5GC4BQIH0
1001,46,,1.0,26.0,golf_course_193.jpg,,,,A3ATB5GC4BQIH0
1002,47,,1.0,27.0,golf_course_78.jpg,,,,A3ATB5GC4BQIH0
1003,48,,1.0,28.0,badlands_113.jpg,,,,A3ATB5GC4BQIH0
1004,49,right,1.0,29.0,right.jpg,right,1.053,,A3ATB5GC4BQIH0
1005,50,,1.0,30.0,badlands_21.jpg,,,,A3ATB5GC4BQIH0
1006,51,,1.0,31.0,bridge_65.jpg,,,,A3ATB5GC4BQIH0
1007,52,,1.0,32.0,badlands_222.jpg,,,,A3ATB5GC4BQIH0
1008,53,,1.0,33.0,highway_273.jpg,,,,A3ATB5GC4BQIH0
1009,54,,1.0,34.0,bridge_202.jpg,,,,A3ATB5GC4BQIH0
1010,55,,1.0,35.0,mountain_154.jpg,,,,A3ATB5GC4BQIH0
1011,56,,1.0,36.0,playground_10.jpg,,,,A3ATB5GC4BQIH0
1012,57,,1.0,37.0,highway_209.jpg,,,,A3ATB5GC4BQIH0
1013,58,right,1.0,38.0,right.jpg,right,0.882,,A3ATB5GC4BQIH0
1014,59,,1.0,39.0,playground_117.jpg,,,,A3ATB5GC4BQIH0
1015,60,,1.0,40.0,bridge_108.jpg,,,,A3ATB5GC4BQIH0
1016,61,,1.0,41.0,golf_course_15.jpg,,,,A3ATB5GC4BQIH0
1017,62,,1.0,42.0,badlands_70.jpg,,,,A3ATB5GC4BQIH0
1018,63,,1.0,43.0,golf_course_331.jpg,,,,A3ATB5GC4BQIH0
1019,64,,1.0,44.0,playground_60.jpg,,,,A3ATB5GC4BQIH0
1020,65,,1.0,45.0,mountain_57.jpg,,,,A3ATB5GC4BQIH0
1021,66,,1.0,46.0,golf_course_309.jpg,,,,A3ATB5GC4BQIH0
1022,67,,1.0,47.0,playground_131.jpg,,,,A3ATB5GC4BQIH0
1023,68,,1.0,48.0,mountain_156.jpg,,,,A3ATB5GC4BQIH0
1024,69,,1.0,49.0,playground_145.jpg,,,,A3ATB5GC4BQIH0
1025,70,,1.0,50.0,mountain_230.jpg,,,,A3ATB5GC4BQIH0
1026,71,right,1.0,51.0,right.jpg,right,0.792,,A3ATB5GC4BQIH0
1027,72,,1.0,52.0,highway_394.jpg,,,,A3ATB5GC4BQIH0
1028,73,,1.0,53.0,highway_245.jpg,,,,A3ATB5GC4BQIH0
1029,74,,1.0,54.0,highway_359.jpg,,,,A3ATB5GC4BQIH0
1030,75,,1.0,55.0,bridge_256.jpg,,,,A3ATB5GC4BQIH0
1031,76,,1.0,56.0,bridge_250.jpg,,,,A3ATB5GC4BQIH0
1032,77,,1.0,57.0,playground_240.jpg,,,,A3ATB5GC4BQIH0
1033,78,,1.0,58.0,badlands_221.jpg,,,,A3ATB5GC4BQIH0
1034,79,,1.0,59.0,playground_144.jpg,,,,A3ATB5GC4BQIH0
1035,80,,1.0,60.0,golf_course_188.jpg,,,,A3ATB5GC4BQIH0
1036,81,,1.0,61.0,badlands_184.jpg,,,,A3ATB5GC4BQIH0
1037,82,,1.0,62.0,mountain_123.jpg,,,,A3ATB5GC4BQIH0
1038,83,,1.0,63.0,badlands_24.jpg,,,,A3ATB5GC4BQIH0
1039,84,,1.0,64.0,bridge_91.jpg,,,,A3ATB5GC4BQIH0
1040,20,,1.0,0.0,highway_394.jpg,,,,A20ZFQ93DF0WA
1041,21,,1.0,1.0,badlands_52.jpg,,,,A20ZFQ93DF0WA
1042,22,,1.0,2.0,highway_245.jpg,,,,A20ZFQ93DF0WA
1043,23,,1.0,3.0,mountain_222.jpg,,,,A20ZFQ93DF0WA
1044,24,,1.0,4.0,badlands_184.jpg,,,,A20ZFQ93DF0WA
1045,25,,1.0,5.0,bridge_172.jpg,,,,A20ZFQ93DF0WA
1046,26,,1.0,6.0,mountain_101.jpg,,,,A20ZFQ93DF0WA
1047,27,,1.0,7.0,badlands_24.jpg,,,,A20ZFQ93DF0WA
1048,28,,1.0,8.0,highway_177.jpg,,,,A20ZFQ93DF0WA
1049,29,,1.0,9.0,highway_156.jpg,,,,A20ZFQ93DF0WA
1050,30,,1.0,10.0,mountain_57.jpg,,,,A20ZFQ93DF0WA
1051,31,,1.0,11.0,bridge_250.jpg,,,,A20ZFQ93DF0WA
1052,32,,1.0,12.0,golf_course_193.jpg,,,,A20ZFQ93DF0WA
1053,33,,1.0,13.0,bridge_202.jpg,,,,A20ZFQ93DF0WA
1054,34,right,1.0,14.0,right.jpg,right,1.142,,A20ZFQ93DF0WA
1055,35,,1.0,15.0,mountain_232.jpg,,,,A20ZFQ93DF0WA
1056,36,,1.0,16.0,highway_93.jpg,,,,A20ZFQ93DF0WA
1057,37,right,1.0,17.0,right.jpg,right,1.1149,,A20ZFQ93DF0WA
1058,38,,1.0,18.0,playground_144.jpg,,,,A20ZFQ93DF0WA
1059,39,,1.0,19.0,badlands_222.jpg,,,,A20ZFQ93DF0WA
1060,40,,1.0,20.0,highway_359.jpg,,,,A20ZFQ93DF0WA
1061,41,,1.0,21.0,mountain_123.jpg,,,,A20ZFQ93DF0WA
1062,42,,1.0,22.0,bridge_108.jpg,,,,A20ZFQ93DF0WA
1063,43,,1.0,23.0,mountain_156.jpg,,,,A20ZFQ93DF0WA
1064,44,,1.0,24.0,playground_145.jpg,,,,A20ZFQ93DF0WA
1065,45,,1.0,25.0,highway_209.jpg,,,,A20ZFQ93DF0WA
1066,46,,1.0,26.0,badlands_113.jpg,,,,A20ZFQ93DF0WA
1067,47,,1.0,27.0,mountain_154.jpg,,,,A20ZFQ93DF0WA
1068,48,,1.0,28.0,highway_294.jpg,,,,A20ZFQ93DF0WA
1069,49,,1.0,29.0,golf_course_309.jpg,,,,A20ZFQ93DF0WA
1070,50,left,1.0,30.0,left.jpg,left,0.9702,,A20ZFQ93DF0WA
1071,51,,1.0,31.0,golf_course_188.jpg,,,,A20ZFQ93DF0WA
1072,52,,1.0,32.0,mountain_110.jpg,,,,A20ZFQ93DF0WA
1073,53,,1.0,33.0,playground_257.jpg,,,,A20ZFQ93DF0WA
1074,54,,1.0,34.0,golf_course_78.jpg,,,,A20ZFQ93DF0WA
1075,55,,1.0,35.0,golf_course_214.jpg,,,,A20ZFQ93DF0WA
1076,56,,1.0,36.0,badlands_137.jpg,,,,A20ZFQ93DF0WA
1077,57,,1.0,37.0,badlands_21.jpg,,,,A20ZFQ93DF0WA
1078,58,,1.0,38.0,mountain_230.jpg,,,,A20ZFQ93DF0WA
1079,59,,1.0,39.0,bridge_91.jpg,,,,A20ZFQ93DF0WA
1080,60,right,1.0,40.0,right.jpg,right,1.3407,,A20ZFQ93DF0WA
1081,61,,1.0,41.0,playground_117.jpg,,,,A20ZFQ93DF0WA
1082,62,,1.0,42.0,bridge_146.jpg,,,,A20ZFQ93DF0WA
1083,63,,1.0,43.0,badlands_70.jpg,,,,A20ZFQ93DF0WA
1084,64,,1.0,44.0,bridge_128.jpg,,,,A20ZFQ93DF0WA
1085,65,,1.0,45.0,golf_course_195.jpg,,,,A20ZFQ93DF0WA
1086,66,,1.0,46.0,mountain_293.jpg,,,,A20ZFQ93DF0WA
1087,67,,1.0,47.0,golf_course_87.jpg,,,,A20ZFQ93DF0WA
1088,68,,1.0,48.0,bridge_256.jpg,,,,A20ZFQ93DF0WA
1089,69,,1.0,49.0,playground_240.jpg,,,,A20ZFQ93DF0WA
1090,70,,1.0,50.0,badlands_221.jpg,,,,A20ZFQ93DF0WA
1091,71,,1.0,51.0,bridge_191.jpg,,,,A20ZFQ93DF0WA
1092,72,,1.0,52.0,playground_219.jpg,,,,A20ZFQ93DF0WA
1093,73,right,1.0,53.0,right.jpg,right,1.1682,,A20ZFQ93DF0WA
1094,74,,1.0,54.0,playground_76.jpg,,,,A20ZFQ93DF0WA
1095,75,,1.0,55.0,playground_60.jpg,,,,A20ZFQ93DF0WA
1096,76,,1.0,56.0,badlands_23.jpg,,,,A20ZFQ93DF0WA
1097,77,,1.0,57.0,highway_415.jpg,,,,A20ZFQ93DF0WA
1098,78,,1.0,58.0,golf_course_217.jpg,,,,A20ZFQ93DF0WA
1099,79,,1.0,59.0,golf_course_331.jpg,,,,A20ZFQ93DF0WA
1100,80,,1.0,60.0,bridge_65.jpg,,,,A20ZFQ93DF0WA
1101,81,,1.0,61.0,playground_10.jpg,,,,A20ZFQ93DF0WA
1102,82,,1.0,62.0,golf_course_15.jpg,,,,A20ZFQ93DF0WA
1103,83,,1.0,63.0,playground_131.jpg,,,,A20ZFQ93DF0WA
1104,84,,1.0,64.0,highway_273.jpg,,,,A20ZFQ93DF0WA
1105,20,,1.0,0.0,badlands_24.jpg,,,,A3D8YUG5D5I4ER
1106,21,,1.0,1.0,playground_219.jpg,,,,A3D8YUG5D5I4ER
1107,22,,1.0,2.0,bridge_202.jpg,,,,A3D8YUG5D5I4ER
1108,23,,1.0,3.0,mountain_222.jpg,,,,A3D8YUG5D5I4ER
1109,24,,1.0,4.0,golf_course_331.jpg,,,,A3D8YUG5D5I4ER
1110,25,,1.0,5.0,golf_course_193.jpg,,,,A3D8YUG5D5I4ER
1111,26,,1.0,6.0,highway_245.jpg,,,,A3D8YUG5D5I4ER
1112,27,,1.0,7.0,playground_60.jpg,,,,A3D8YUG5D5I4ER
1113,28,,1.0,8.0,highway_359.jpg,,,,A3D8YUG5D5I4ER
1114,29,,0.0,9.0,left.jpg,left,,,A3D8YUG5D5I4ER
1115,30,,1.0,10.0,playground_10.jpg,,,,A3D8YUG5D5I4ER
1116,31,,1.0,11.0,golf_course_188.jpg,,,,A3D8YUG5D5I4ER
1117,32,,1.0,12.0,badlands_222.jpg,,,,A3D8YUG5D5I4ER
1118,33,,1.0,13.0,bridge_256.jpg,,,,A3D8YUG5D5I4ER
1119,34,,1.0,14.0,highway_294.jpg,,,,A3D8YUG5D5I4ER
1120,35,,1.0,15.0,badlands_52.jpg,,,,A3D8YUG5D5I4ER
1121,36,,1.0,16.0,mountain_123.jpg,,,,A3D8YUG5D5I4ER
1122,37,,1.0,17.0,playground_240.jpg,,,,A3D8YUG5D5I4ER
1123,38,right,1.0,18.0,right.jpg,right,1.5,,A3D8YUG5D5I4ER
1124,39,,1.0,19.0,mountain_57.jpg,,,,A3D8YUG5D5I4ER
1125,40,,1.0,20.0,bridge_65.jpg,,,,A3D8YUG5D5I4ER
1126,41,,1.0,21.0,highway_209.jpg,,,,A3D8YUG5D5I4ER
1127,42,,1.0,22.0,golf_course_309.jpg,,,,A3D8YUG5D5I4ER
1128,43,,1.0,23.0,golf_course_15.jpg,,,,A3D8YUG5D5I4ER
1129,44,,1.0,24.0,bridge_146.jpg,,,,A3D8YUG5D5I4ER
1130,45,,1.0,25.0,highway_156.jpg,,,,A3D8YUG5D5I4ER
1131,46,,1.0,26.0,highway_177.jpg,,,,A3D8YUG5D5I4ER
1132,47,,1.0,27.0,playground_131.jpg,,,,A3D8YUG5D5I4ER
1133,48,,1.0,28.0,bridge_108.jpg,,,,A3D8YUG5D5I4ER
1134,49,,1.0,29.0,mountain_232.jpg,,,,A3D8YUG5D5I4ER
1135,50,,1.0,30.0,badlands_70.jpg,,,,A3D8YUG5D5I4ER
1136,51,right,1.0,31.0,right.jpg,right,0.889,,A3D8YUG5D5I4ER
1137,52,,1.0,32.0,bridge_172.jpg,,,,A3D8YUG5D5I4ER
1138,53,,1.0,33.0,playground_117.jpg,,,,A3D8YUG5D5I4ER
1139,54,,1.0,34.0,badlands_137.jpg,,,,A3D8YUG5D5I4ER
1140,55,,1.0,35.0,badlands_221.jpg,,,,A3D8YUG5D5I4ER
1141,56,right,1.0,36.0,right.jpg,right,0.845,,A3D8YUG5D5I4ER
1142,57,,1.0,37.0,playground_257.jpg,,,,A3D8YUG5D5I4ER
1143,58,,1.0,38.0,highway_93.jpg,,,,A3D8YUG5D5I4ER
1144,59,,1.0,39.0,mountain_230.jpg,,,,A3D8YUG5D5I4ER
1145,60,,1.0,40.0,mountain_156.jpg,,,,A3D8YUG5D5I4ER
1146,61,,1.0,41.0,golf_course_87.jpg,,,,A3D8YUG5D5I4ER
1147,62,,1.0,42.0,bridge_91.jpg,,,,A3D8YUG5D5I4ER
1148,63,,1.0,43.0,badlands_184.jpg,,,,A3D8YUG5D5I4ER
1149,64,,1.0,44.0,mountain_293.jpg,,,,A3D8YUG5D5I4ER
1150,65,,1.0,45.0,badlands_23.jpg,,,,A3D8YUG5D5I4ER
1151,66,,1.0,46.0,highway_394.jpg,,,,A3D8YUG5D5I4ER
1152,67,right,1.0,47.0,right.jpg,right,0.824,,A3D8YUG5D5I4ER
1153,68,,1.0,48.0,playground_76.jpg,,,,A3D8YUG5D5I4ER
1154,69,,1.0,49.0,badlands_113.jpg,,,,A3D8YUG5D5I4ER
1155,70,,1.0,50.0,highway_415.jpg,,,,A3D8YUG5D5I4ER
1156,71,,1.0,51.0,highway_273.jpg,,,,A3D8YUG5D5I4ER
1157,72,,1.0,52.0,bridge_250.jpg,,,,A3D8YUG5D5I4ER
1158,73,,1.0,53.0,golf_course_214.jpg,,,,A3D8YUG5D5I4ER
1159,74,,1.0,54.0,bridge_191.jpg,,,,A3D8YUG5D5I4ER
1160,75,,1.0,55.0,playground_144.jpg,,,,A3D8YUG5D5I4ER
1161,76,,1.0,56.0,bridge_128.jpg,,,,A3D8YUG5D5I4ER
1162,77,,1.0,57.0,playground_145.jpg,,,,A3D8YUG5D5I4ER
1163,78,,1.0,58.0,badlands_21.jpg,,,,A3D8YUG5D5I4ER
1164,79,,1.0,59.0,golf_course_78.jpg,,,,A3D8YUG5D5I4ER
1165,80,,1.0,60.0,mountain_110.jpg,,,,A3D8YUG5D5I4ER
1166,81,,1.0,61.0,mountain_101.jpg,,,,A3D8YUG5D5I4ER
1167,82,,1.0,62.0,golf_course_195.jpg,,,,A3D8YUG5D5I4ER
1168,83,,1.0,63.0,mountain_154.jpg,,,,A3D8YUG5D5I4ER
1169,84,,1.0,64.0,golf_course_217.jpg,,,,A3D8YUG5D5I4ER
1170,20,,1.0,0.0,badlands_24.jpg,,,,A3RK5N4X7J4JGK
1171,21,,1.0,1.0,badlands_52.jpg,,,,A3RK5N4X7J4JGK
1172,22,,1.0,2.0,golf_course_188.jpg,,,,A3RK5N4X7J4JGK
1173,23,,1.0,3.0,mountain_110.jpg,,,,A3RK5N4X7J4JGK
1174,24,,1.0,4.0,golf_course_217.jpg,,,,A3RK5N4X7J4JGK
1175,25,,1.0,5.0,golf_course_15.jpg,,,,A3RK5N4X7J4JGK
1176,26,,1.0,6.0,playground_60.jpg,,,,A3RK5N4X7J4JGK
1177,27,right,1.0,7.0,right.jpg,right,1.224,,A3RK5N4X7J4JGK
1178,28,,1.0,8.0,playground_219.jpg,,,,A3RK5N4X7J4JGK
1179,29,,1.0,9.0,badlands_21.jpg,,,,A3RK5N4X7J4JGK
1180,30,,1.0,10.0,badlands_23.jpg,,,,A3RK5N4X7J4JGK
1181,31,,1.0,11.0,playground_145.jpg,,,,A3RK5N4X7J4JGK
1182,32,,1.0,12.0,golf_course_331.jpg,,,,A3RK5N4X7J4JGK
1183,33,,1.0,13.0,badlands_184.jpg,,,,A3RK5N4X7J4JGK
1184,34,,1.0,14.0,mountain_154.jpg,,,,A3RK5N4X7J4JGK
1185,35,,1.0,15.0,bridge_172.jpg,,,,A3RK5N4X7J4JGK
1186,36,,1.0,16.0,badlands_221.jpg,,,,A3RK5N4X7J4JGK
1187,37,,1.0,17.0,playground_10.jpg,,,,A3RK5N4X7J4JGK
1188,38,right,1.0,18.0,right.jpg,right,0.901,,A3RK5N4X7J4JGK
1189,39,,1.0,19.0,highway_294.jpg,,,,A3RK5N4X7J4JGK
1190,40,,1.0,20.0,bridge_146.jpg,,,,A3RK5N4X7J4JGK
1191,41,,1.0,21.0,golf_course_309.jpg,,,,A3RK5N4X7J4JGK
1192,42,,1.0,22.0,badlands_70.jpg,,,,A3RK5N4X7J4JGK
1193,43,,1.0,23.0,playground_257.jpg,,,,A3RK5N4X7J4JGK
1194,44,,1.0,24.0,badlands_137.jpg,,,,A3RK5N4X7J4JGK
1195,45,,1.0,25.0,bridge_108.jpg,,,,A3RK5N4X7J4JGK
1196,46,,1.0,26.0,highway_245.jpg,,,,A3RK5N4X7J4JGK
1197,47,,1.0,27.0,highway_177.jpg,,,,A3RK5N4X7J4JGK
1198,48,,1.0,28.0,highway_415.jpg,,,,A3RK5N4X7J4JGK
1199,49,,1.0,29.0,mountain_101.jpg,,,,A3RK5N4X7J4JGK
1200,50,,1.0,30.0,playground_144.jpg,,,,A3RK5N4X7J4JGK
1201,51,left,1.0,31.0,left.jpg,left,1.241,,A3RK5N4X7J4JGK
1202,52,,1.0,32.0,mountain_57.jpg,,,,A3RK5N4X7J4JGK
1203,53,,1.0,33.0,mountain_293.jpg,,,,A3RK5N4X7J4JGK
1204,54,,1.0,34.0,mountain_230.jpg,,,,A3RK5N4X7J4JGK
1205,55,,1.0,35.0,badlands_113.jpg,,,,A3RK5N4X7J4JGK
1206,56,,1.0,36.0,golf_course_78.jpg,,,,A3RK5N4X7J4JGK
1207,57,,1.0,37.0,bridge_202.jpg,,,,A3RK5N4X7J4JGK
1208,58,,1.0,38.0,bridge_191.jpg,,,,A3RK5N4X7J4JGK
1209,59,,0.0,39.0,right.jpg,right,,,A3RK5N4X7J4JGK
1210,60,,1.0,40.0,playground_240.jpg,,,,A3RK5N4X7J4JGK
1211,61,,1.0,41.0,golf_course_193.jpg,,,,A3RK5N4X7J4JGK
1212,62,,1.0,42.0,playground_76.jpg,,,,A3RK5N4X7J4JGK
1213,63,,1.0,43.0,highway_359.jpg,,,,A3RK5N4X7J4JGK
1214,64,,1.0,44.0,mountain_156.jpg,,,,A3RK5N4X7J4JGK
1215,65,,1.0,45.0,highway_209.jpg,,,,A3RK5N4X7J4JGK
1216,66,,1.0,46.0,mountain_222.jpg,,,,A3RK5N4X7J4JGK
1217,67,,1.0,47.0,highway_273.jpg,,,,A3RK5N4X7J4JGK
1218,68,left,1.0,48.0,left.jpg,left,0.913,,A3RK5N4X7J4JGK
1219,69,,1.0,49.0,golf_course_87.jpg,,,,A3RK5N4X7J4JGK
1220,70,,1.0,50.0,highway_93.jpg,,,,A3RK5N4X7J4JGK
1221,71,,1.0,51.0,bridge_256.jpg,,,,A3RK5N4X7J4JGK
1222,72,,1.0,52.0,mountain_232.jpg,,,,A3RK5N4X7J4JGK
1223,73,,1.0,53.0,bridge_128.jpg,,,,A3RK5N4X7J4JGK
1224,74,,1.0,54.0,bridge_65.jpg,,,,A3RK5N4X7J4JGK
1225,75,,1.0,55.0,bridge_250.jpg,,,,A3RK5N4X7J4JGK
1226,76,,1.0,56.0,golf_course_214.jpg,,,,A3RK5N4X7J4JGK
1227,77,,1.0,57.0,bridge_91.jpg,,,,A3RK5N4X7J4JGK
1228,78,,1.0,58.0,playground_117.jpg,,,,A3RK5N4X7J4JGK
1229,79,,1.0,59.0,highway_394.jpg,,,,A3RK5N4X7J4JGK
1230,80,,1.0,60.0,mountain_123.jpg,,,,A3RK5N4X7J4JGK
1231,81,,1.0,61.0,highway_156.jpg,,,,A3RK5N4X7J4JGK
1232,82,,1.0,62.0,badlands_222.jpg,,,,A3RK5N4X7J4JGK
1233,83,,1.0,63.0,golf_course_195.jpg,,,,A3RK5N4X7J4JGK
1234,84,,1.0,64.0,playground_131.jpg,,,,A3RK5N4X7J4JGK
1235,20,,1.0,0.0,badlands_70.jpg,,,,A105M4JOZSR7E6
1236,21,,1.0,1.0,highway_394.jpg,,,,A105M4JOZSR7E6
1237,22,,1.0,2.0,bridge_191.jpg,,,,A105M4JOZSR7E6
1238,23,,1.0,3.0,bridge_250.jpg,,,,A105M4JOZSR7E6
1239,24,,1.0,4.0,bridge_256.jpg,,,,A105M4JOZSR7E6
1240,25,,1.0,5.0,bridge_146.jpg,,,,A105M4JOZSR7E6
1241,26,,0.0,6.0,right.jpg,right,,,A105M4JOZSR7E6
1242,27,,1.0,7.0,golf_course_87.jpg,,,,A105M4JOZSR7E6
1243,28,,1.0,8.0,highway_177.jpg,,,,A105M4JOZSR7E6
1244,29,,1.0,9.0,playground_144.jpg,,,,A105M4JOZSR7E6
1245,30,,1.0,10.0,badlands_184.jpg,,,,A105M4JOZSR7E6
1246,31,,1.0,11.0,highway_415.jpg,,,,A105M4JOZSR7E6
1247,32,,1.0,12.0,playground_145.jpg,,,,A105M4JOZSR7E6
1248,33,,1.0,13.0,badlands_52.jpg,,,,A105M4JOZSR7E6
1249,34,,1.0,14.0,badlands_222.jpg,,,,A105M4JOZSR7E6
1250,35,,1.0,15.0,highway_245.jpg,,,,A105M4JOZSR7E6
1251,36,,1.0,16.0,mountain_110.jpg,,,,A105M4JOZSR7E6
1252,37,,1.0,17.0,mountain_123.jpg,,,,A105M4JOZSR7E6
1253,38,left,1.0,18.0,left.jpg,left,0.996,,A105M4JOZSR7E6
1254,39,,1.0,19.0,mountain_57.jpg,,,,A105M4JOZSR7E6
1255,40,,1.0,20.0,playground_60.jpg,,,,A105M4JOZSR7E6
1256,41,,1.0,21.0,bridge_108.jpg,,,,A105M4JOZSR7E6
1257,42,,1.0,22.0,mountain_101.jpg,,,,A105M4JOZSR7E6
1258,43,,1.0,23.0,highway_359.jpg,,,,A105M4JOZSR7E6
1259,44,,1.0,24.0,golf_course_15.jpg,,,,A105M4JOZSR7E6
1260,45,,1.0,25.0,mountain_230.jpg,,,,A105M4JOZSR7E6
1261,46,,1.0,26.0,playground_257.jpg,,,,A105M4JOZSR7E6
1262,47,left,1.0,27.0,left.jpg,left,1.6066,,A105M4JOZSR7E6
1263,48,,1.0,28.0,playground_240.jpg,,,,A105M4JOZSR7E6
1264,49,,1.0,29.0,playground_76.jpg,,,,A105M4JOZSR7E6
1265,50,,1.0,30.0,badlands_113.jpg,,,,A105M4JOZSR7E6
1266,51,,1.0,31.0,highway_156.jpg,,,,A105M4JOZSR7E6
1267,52,,1.0,32.0,badlands_24.jpg,,,,A105M4JOZSR7E6
1268,53,,1.0,33.0,bridge_172.jpg,,,,A105M4JOZSR7E6
1269,54,,1.0,34.0,playground_117.jpg,,,,A105M4JOZSR7E6
1270,55,,1.0,35.0,bridge_91.jpg,,,,A105M4JOZSR7E6
1271,56,,1.0,36.0,golf_course_331.jpg,,,,A105M4JOZSR7E6
1272,57,,1.0,37.0,bridge_202.jpg,,,,A105M4JOZSR7E6
1273,58,,1.0,38.0,mountain_156.jpg,,,,A105M4JOZSR7E6
1274,59,,1.0,39.0,bridge_65.jpg,,,,A105M4JOZSR7E6
1275,60,,1.0,40.0,playground_131.jpg,,,,A105M4JOZSR7E6
1276,61,left,1.0,41.0,left.jpg,left,1.0932,,A105M4JOZSR7E6
1277,62,,1.0,42.0,highway_209.jpg,,,,A105M4JOZSR7E6
1278,63,,1.0,43.0,mountain_232.jpg,,,,A105M4JOZSR7E6
1279,64,,1.0,44.0,golf_course_188.jpg,,,,A105M4JOZSR7E6
1280,65,,1.0,45.0,badlands_221.jpg,,,,A105M4JOZSR7E6
1281,66,,1.0,46.0,badlands_23.jpg,,,,A105M4JOZSR7E6
1282,67,,1.0,47.0,badlands_137.jpg,,,,A105M4JOZSR7E6
1283,68,,1.0,48.0,mountain_154.jpg,,,,A105M4JOZSR7E6
1284,69,,1.0,49.0,highway_273.jpg,,,,A105M4JOZSR7E6
1285,70,,1.0,50.0,mountain_222.jpg,,,,A105M4JOZSR7E6
1286,71,,1.0,51.0,highway_93.jpg,,,,A105M4JOZSR7E6
1287,72,,1.0,52.0,badlands_21.jpg,,,,A105M4JOZSR7E6
1288,73,,0.0,53.0,left.jpg,left,,,A105M4JOZSR7E6
1289,74,,1.0,54.0,golf_course_217.jpg,,,,A105M4JOZSR7E6
1290,75,,1.0,55.0,golf_course_193.jpg,,,,A105M4JOZSR7E6
1291,76,,1.0,56.0,golf_course_309.jpg,,,,A105M4JOZSR7E6
1292,77,,1.0,57.0,bridge_128.jpg,,,,A105M4JOZSR7E6
1293,78,,1.0,58.0,mountain_293.jpg,,,,A105M4JOZSR7E6
1294,79,,1.0,59.0,playground_10.jpg,,,,A105M4JOZSR7E6
1295,80,,1.0,60.0,golf_course_78.jpg,,,,A105M4JOZSR7E6
1296,81,,1.0,61.0,golf_course_195.jpg,,,,A105M4JOZSR7E6
1297,82,,1.0,62.0,golf_course_214.jpg,,,,A105M4JOZSR7E6
1298,83,,1.0,63.0,playground_219.jpg,,,,A105M4JOZSR7E6
1299,84,,1.0,64.0,highway_294.jpg,,,,A105M4JOZSR7E6
1300,20,,1.0,0.0,badlands_23.jpg,,,,A25PFSORDO3SWQ
1301,21,,1.0,1.0,mountain_101.jpg,,,,A25PFSORDO3SWQ
1302,22,,1.0,2.0,highway_209.jpg,,,,A25PFSORDO3SWQ
1303,23,,1.0,3.0,playground_60.jpg,,,,A25PFSORDO3SWQ
1304,24,,1.0,4.0,golf_course_331.jpg,,,,A25PFSORDO3SWQ
1305,25,,1.0,5.0,bridge_256.jpg,,,,A25PFSORDO3SWQ
1306,26,,1.0,6.0,golf_course_193.jpg,,,,A25PFSORDO3SWQ
1307,27,,1.0,7.0,bridge_146.jpg,,,,A25PFSORDO3SWQ
1308,28,right,1.0,8.0,right.jpg,right,0.682,,A25PFSORDO3SWQ
1309,29,,1.0,9.0,mountain_232.jpg,,,,A25PFSORDO3SWQ
1310,30,,1.0,10.0,mountain_222.jpg,,,,A25PFSORDO3SWQ
1311,31,,1.0,11.0,bridge_108.jpg,,,,A25PFSORDO3SWQ
1312,32,,1.0,12.0,highway_294.jpg,,,,A25PFSORDO3SWQ
1313,33,,1.0,13.0,golf_course_188.jpg,,,,A25PFSORDO3SWQ
1314,34,,1.0,14.0,mountain_57.jpg,,,,A25PFSORDO3SWQ
1315,35,,1.0,15.0,badlands_113.jpg,,,,A25PFSORDO3SWQ
1316,36,,1.0,16.0,mountain_293.jpg,,,,A25PFSORDO3SWQ
1317,37,left,1.0,17.0,left.jpg,left,0.565,,A25PFSORDO3SWQ
1318,38,,1.0,18.0,playground_131.jpg,,,,A25PFSORDO3SWQ
1319,39,,1.0,19.0,mountain_156.jpg,,,,A25PFSORDO3SWQ
1320,40,,1.0,20.0,playground_144.jpg,,,,A25PFSORDO3SWQ
1321,41,,1.0,21.0,mountain_230.jpg,,,,A25PFSORDO3SWQ
1322,42,,1.0,22.0,bridge_172.jpg,,,,A25PFSORDO3SWQ
1323,43,,1.0,23.0,badlands_21.jpg,,,,A25PFSORDO3SWQ
1324,44,,1.0,24.0,playground_257.jpg,,,,A25PFSORDO3SWQ
1325,45,,1.0,25.0,highway_156.jpg,,,,A25PFSORDO3SWQ
1326,46,,1.0,26.0,golf_course_309.jpg,,,,A25PFSORDO3SWQ
1327,47,,1.0,27.0,highway_394.jpg,,,,A25PFSORDO3SWQ
1328,48,,1.0,28.0,playground_240.jpg,,,,A25PFSORDO3SWQ
1329,49,left,1.0,29.0,left.jpg,left,0.493,,A25PFSORDO3SWQ
1330,50,,1.0,30.0,highway_93.jpg,,,,A25PFSORDO3SWQ
1331,51,,1.0,31.0,badlands_184.jpg,,,,A25PFSORDO3SWQ
1332,52,,1.0,32.0,playground_117.jpg,,,,A25PFSORDO3SWQ
1333,53,,1.0,33.0,golf_course_217.jpg,,,,A25PFSORDO3SWQ
1334,54,,1.0,34.0,mountain_123.jpg,,,,A25PFSORDO3SWQ
1335,55,,1.0,35.0,badlands_24.jpg,,,,A25PFSORDO3SWQ
1336,56,,1.0,36.0,playground_145.jpg,,,,A25PFSORDO3SWQ
1337,57,,1.0,37.0,playground_219.jpg,,,,A25PFSORDO3SWQ
1338,58,left,1.0,38.0,left.jpg,left,0.552,,A25PFSORDO3SWQ
1339,59,,1.0,39.0,golf_course_15.jpg,,,,A25PFSORDO3SWQ
1340,60,,1.0,40.0,mountain_154.jpg,,,,A25PFSORDO3SWQ
1341,61,,1.0,41.0,highway_245.jpg,,,,A25PFSORDO3SWQ
1342,62,,1.0,42.0,playground_10.jpg,,,,A25PFSORDO3SWQ
1343,63,,1.0,43.0,badlands_70.jpg,,,,A25PFSORDO3SWQ
1344,64,,1.0,44.0,badlands_137.jpg,,,,A25PFSORDO3SWQ
1345,65,,1.0,45.0,playground_76.jpg,,,,A25PFSORDO3SWQ
1346,66,,1.0,46.0,mountain_110.jpg,,,,A25PFSORDO3SWQ
1347,67,,1.0,47.0,highway_177.jpg,,,,A25PFSORDO3SWQ
1348,68,,1.0,48.0,badlands_221.jpg,,,,A25PFSORDO3SWQ
1349,69,left,1.0,49.0,left.jpg,left,0.67,,A25PFSORDO3SWQ
1350,70,,1.0,50.0,golf_course_195.jpg,,,,A25PFSORDO3SWQ
1351,71,,1.0,51.0,highway_273.jpg,,,,A25PFSORDO3SWQ
1352,72,,1.0,52.0,highway_359.jpg,,,,A25PFSORDO3SWQ
1353,73,,1.0,53.0,highway_415.jpg,,,,A25PFSORDO3SWQ
1354,74,,1.0,54.0,bridge_250.jpg,,,,A25PFSORDO3SWQ
1355,75,,1.0,55.0,bridge_91.jpg,,,,A25PFSORDO3SWQ
1356,76,,1.0,56.0,golf_course_78.jpg,,,,A25PFSORDO3SWQ
1357,77,,1.0,57.0,bridge_191.jpg,,,,A25PFSORDO3SWQ
1358,78,,1.0,58.0,bridge_128.jpg,,,,A25PFSORDO3SWQ
1359,79,,1.0,59.0,golf_course_214.jpg,,,,A25PFSORDO3SWQ
1360,80,,1.0,60.0,golf_course_87.jpg,,,,A25PFSORDO3SWQ
1361,81,,1.0,61.0,bridge_65.jpg,,,,A25PFSORDO3SWQ
1362,82,,1.0,62.0,badlands_222.jpg,,,,A25PFSORDO3SWQ
1363,83,,1.0,63.0,bridge_202.jpg,,,,A25PFSORDO3SWQ
1364,84,,1.0,64.0,badlands_52.jpg,,,,A25PFSORDO3SWQ
1365,20,,1.0,0.0,golf_course_15.jpg,,,,A2P9XYDUCQBXWD
1366,21,,1.0,1.0,golf_course_217.jpg,,,,A2P9XYDUCQBXWD
1367,22,,1.0,2.0,playground_240.jpg,,,,A2P9XYDUCQBXWD
1368,23,,1.0,3.0,golf_course_188.jpg,,,,A2P9XYDUCQBXWD
1369,24,,1.0,4.0,bridge_250.jpg,,,,A2P9XYDUCQBXWD
1370,25,,1.0,5.0,golf_course_309.jpg,,,,A2P9XYDUCQBXWD
1371,26,,1.0,6.0,badlands_221.jpg,,,,A2P9XYDUCQBXWD
1372,27,left,1.0,7.0,left.jpg,left,1.7276,,A2P9XYDUCQBXWD
1373,28,,1.0,8.0,playground_117.jpg,,,,A2P9XYDUCQBXWD
1374,29,,1.0,9.0,mountain_293.jpg,,,,A2P9XYDUCQBXWD
1375,30,,1.0,10.0,bridge_256.jpg,,,,A2P9XYDUCQBXWD
1376,31,,1.0,11.0,playground_144.jpg,,,,A2P9XYDUCQBXWD
1377,32,,1.0,12.0,highway_93.jpg,,,,A2P9XYDUCQBXWD
1378,33,,1.0,13.0,badlands_70.jpg,,,,A2P9XYDUCQBXWD
1379,34,,1.0,14.0,highway_359.jpg,,,,A2P9XYDUCQBXWD
1380,35,,1.0,15.0,bridge_202.jpg,,,,A2P9XYDUCQBXWD
1381,36,,1.0,16.0,badlands_137.jpg,,,,A2P9XYDUCQBXWD
1382,37,,1.0,17.0,mountain_230.jpg,,,,A2P9XYDUCQBXWD
1383,38,,1.0,18.0,highway_394.jpg,,,,A2P9XYDUCQBXWD
1384,39,,1.0,19.0,playground_131.jpg,,,,A2P9XYDUCQBXWD
1385,40,,1.0,20.0,badlands_113.jpg,,,,A2P9XYDUCQBXWD
1386,41,,1.0,21.0,mountain_123.jpg,,,,A2P9XYDUCQBXWD
1387,42,left,1.0,22.0,left.jpg,left,1.7821,,A2P9XYDUCQBXWD
1388,43,,1.0,23.0,badlands_222.jpg,,,,A2P9XYDUCQBXWD
1389,44,,1.0,24.0,golf_course_78.jpg,,,,A2P9XYDUCQBXWD
1390,45,,1.0,25.0,highway_415.jpg,,,,A2P9XYDUCQBXWD
1391,46,,1.0,26.0,playground_10.jpg,,,,A2P9XYDUCQBXWD
1392,47,,1.0,27.0,playground_219.jpg,,,,A2P9XYDUCQBXWD
1393,48,,1.0,28.0,highway_209.jpg,,,,A2P9XYDUCQBXWD
1394,49,,1.0,29.0,playground_60.jpg,,,,A2P9XYDUCQBXWD
1395,50,,1.0,30.0,bridge_65.jpg,,,,A2P9XYDUCQBXWD
1396,51,,1.0,31.0,badlands_24.jpg,,,,A2P9XYDUCQBXWD
1397,52,,1.0,32.0,mountain_232.jpg,,,,A2P9XYDUCQBXWD
1398,53,left,1.0,33.0,left.jpg,left,1.8322,,A2P9XYDUCQBXWD
1399,54,,1.0,34.0,badlands_184.jpg,,,,A2P9XYDUCQBXWD
1400,55,,1.0,35.0,bridge_128.jpg,,,,A2P9XYDUCQBXWD
1401,56,,1.0,36.0,golf_course_195.jpg,,,,A2P9XYDUCQBXWD
1402,57,,1.0,37.0,golf_course_214.jpg,,,,A2P9XYDUCQBXWD
1403,58,,1.0,38.0,badlands_23.jpg,,,,A2P9XYDUCQBXWD
1404,59,,1.0,39.0,highway_177.jpg,,,,A2P9XYDUCQBXWD
1405,60,,1.0,40.0,highway_273.jpg,,,,A2P9XYDUCQBXWD
1406,61,,1.0,41.0,mountain_154.jpg,,,,A2P9XYDUCQBXWD
1407,62,,1.0,42.0,bridge_108.jpg,,,,A2P9XYDUCQBXWD
1408,63,right,1.0,43.0,right.jpg,right,1.6495,,A2P9XYDUCQBXWD
1409,64,,1.0,44.0,golf_course_193.jpg,,,,A2P9XYDUCQBXWD
1410,65,,1.0,45.0,golf_course_331.jpg,,,,A2P9XYDUCQBXWD
1411,66,,1.0,46.0,bridge_146.jpg,,,,A2P9XYDUCQBXWD
1412,67,,1.0,47.0,bridge_172.jpg,,,,A2P9XYDUCQBXWD
1413,68,,1.0,48.0,playground_145.jpg,,,,A2P9XYDUCQBXWD
1414,69,,1.0,49.0,mountain_57.jpg,,,,A2P9XYDUCQBXWD
1415,70,,1.0,50.0,highway_156.jpg,,,,A2P9XYDUCQBXWD
1416,71,,1.0,51.0,highway_294.jpg,,,,A2P9XYDUCQBXWD
1417,72,,1.0,52.0,mountain_222.jpg,,,,A2P9XYDUCQBXWD
1418,73,right,1.0,53.0,right.jpg,right,1.3289,,A2P9XYDUCQBXWD
1419,74,,1.0,54.0,bridge_191.jpg,,,,A2P9XYDUCQBXWD
1420,75,,1.0,55.0,mountain_110.jpg,,,,A2P9XYDUCQBXWD
1421,76,,1.0,56.0,golf_course_87.jpg,,,,A2P9XYDUCQBXWD
1422,77,,1.0,57.0,playground_257.jpg,,,,A2P9XYDUCQBXWD
1423,78,,1.0,58.0,mountain_101.jpg,,,,A2P9XYDUCQBXWD
1424,79,,1.0,59.0,highway_245.jpg,,,,A2P9XYDUCQBXWD
1425,80,,1.0,60.0,bridge_91.jpg,,,,A2P9XYDUCQBXWD
1426,81,,1.0,61.0,badlands_52.jpg,,,,A2P9XYDUCQBXWD
1427,82,,1.0,62.0,badlands_21.jpg,,,,A2P9XYDUCQBXWD
1428,83,,1.0,63.0,playground_76.jpg,,,,A2P9XYDUCQBXWD
1429,84,,1.0,64.0,mountain_156.jpg,,,,A2P9XYDUCQBXWD
1430,20,,1.0,0.0,playground_76.jpg,,,,A151XA53WYXVD7
1431,21,,1.0,1.0,bridge_128.jpg,,,,A151XA53WYXVD7
1432,22,,1.0,2.0,bridge_256.jpg,,,,A151XA53WYXVD7
1433,23,,1.0,3.0,highway_93.jpg,,,,A151XA53WYXVD7
1434,24,,1.0,4.0,mountain_222.jpg,,,,A151XA53WYXVD7
1435,25,,1.0,5.0,badlands_137.jpg,,,,A151XA53WYXVD7
1436,26,,1.0,6.0,playground_10.jpg,,,,A151XA53WYXVD7
1437,27,,1.0,7.0,mountain_101.jpg,,,,A151XA53WYXVD7
1438,28,right,1.0,8.0,right.jpg,right,1.547,,A151XA53WYXVD7
1439,29,,1.0,9.0,mountain_110.jpg,,,,A151XA53WYXVD7
1440,30,,1.0,10.0,golf_course_188.jpg,,,,A151XA53WYXVD7
1441,31,,1.0,11.0,playground_60.jpg,,,,A151XA53WYXVD7
1442,32,,1.0,12.0,playground_219.jpg,,,,A151XA53WYXVD7
1443,33,,1.0,13.0,badlands_24.jpg,,,,A151XA53WYXVD7
1444,34,,1.0,14.0,badlands_184.jpg,,,,A151XA53WYXVD7
1445,35,,1.0,15.0,playground_257.jpg,,,,A151XA53WYXVD7
1446,36,,1.0,16.0,bridge_108.jpg,,,,A151XA53WYXVD7
1447,37,,1.0,17.0,mountain_57.jpg,,,,A151XA53WYXVD7
1448,38,right,1.0,18.0,right.jpg,right,0.661,,A151XA53WYXVD7
1449,39,,1.0,19.0,golf_course_78.jpg,,,,A151XA53WYXVD7
1450,40,,1.0,20.0,badlands_70.jpg,,,,A151XA53WYXVD7
1451,41,,1.0,21.0,highway_415.jpg,,,,A151XA53WYXVD7
1452,42,,1.0,22.0,golf_course_87.jpg,,,,A151XA53WYXVD7
1453,43,,1.0,23.0,badlands_113.jpg,,,,A151XA53WYXVD7
1454,44,,1.0,24.0,highway_177.jpg,,,,A151XA53WYXVD7
1455,45,,1.0,25.0,playground_131.jpg,,,,A151XA53WYXVD7
1456,46,,1.0,26.0,badlands_21.jpg,,,,A151XA53WYXVD7
1457,47,,1.0,27.0,mountain_123.jpg,,,,A151XA53WYXVD7
1458,48,,1.0,28.0,playground_144.jpg,,,,A151XA53WYXVD7
1459,49,,1.0,29.0,golf_course_193.jpg,,,,A151XA53WYXVD7
1460,50,,1.0,30.0,golf_course_217.jpg,,,,A151XA53WYXVD7
1461,51,left,1.0,31.0,left.jpg,left,0.779,,A151XA53WYXVD7
1462,52,,1.0,32.0,badlands_52.jpg,,,,A151XA53WYXVD7
1463,53,,1.0,33.0,bridge_250.jpg,,,,A151XA53WYXVD7
1464,54,,1.0,34.0,badlands_222.jpg,,,,A151XA53WYXVD7
1465,55,,1.0,35.0,badlands_221.jpg,,,,A151XA53WYXVD7
1466,56,,1.0,36.0,bridge_191.jpg,,,,A151XA53WYXVD7
1467,57,,1.0,37.0,playground_145.jpg,,,,A151XA53WYXVD7
1468,58,,1.0,38.0,badlands_23.jpg,,,,A151XA53WYXVD7
1469,59,,1.0,39.0,bridge_146.jpg,,,,A151XA53WYXVD7
1470,60,,1.0,40.0,mountain_232.jpg,,,,A151XA53WYXVD7
1471,61,,1.0,41.0,bridge_91.jpg,,,,A151XA53WYXVD7
1472,62,,1.0,42.0,highway_273.jpg,,,,A151XA53WYXVD7
1473,63,right,1.0,43.0,right.jpg,right,0.706,,A151XA53WYXVD7
1474,64,,1.0,44.0,highway_294.jpg,,,,A151XA53WYXVD7
1475,65,,1.0,45.0,golf_course_214.jpg,,,,A151XA53WYXVD7
1476,66,,1.0,46.0,bridge_202.jpg,,,,A151XA53WYXVD7
1477,67,,1.0,47.0,golf_course_331.jpg,,,,A151XA53WYXVD7
1478,68,,1.0,48.0,mountain_154.jpg,,,,A151XA53WYXVD7
1479,69,,1.0,49.0,golf_course_309.jpg,,,,A151XA53WYXVD7
1480,70,left,1.0,50.0,left.jpg,left,1.729,,A151XA53WYXVD7
1481,71,,1.0,51.0,highway_394.jpg,,,,A151XA53WYXVD7
1482,72,,1.0,52.0,highway_156.jpg,,,,A151XA53WYXVD7
1483,73,,1.0,53.0,mountain_230.jpg,,,,A151XA53WYXVD7
1484,74,,1.0,54.0,mountain_293.jpg,,,,A151XA53WYXVD7
1485,75,,1.0,55.0,mountain_156.jpg,,,,A151XA53WYXVD7
1486,76,,1.0,56.0,highway_245.jpg,,,,A151XA53WYXVD7
1487,77,,1.0,57.0,bridge_65.jpg,,,,A151XA53WYXVD7
1488,78,,1.0,58.0,playground_117.jpg,,,,A151XA53WYXVD7
1489,79,,1.0,59.0,golf_course_15.jpg,,,,A151XA53WYXVD7
1490,80,,1.0,60.0,highway_359.jpg,,,,A151XA53WYXVD7
1491,81,,1.0,61.0,playground_240.jpg,,,,A151XA53WYXVD7
1492,82,,1.0,62.0,highway_209.jpg,,,,A151XA53WYXVD7
1493,83,,1.0,63.0,bridge_172.jpg,,,,A151XA53WYXVD7
1494,84,,1.0,64.0,golf_course_195.jpg,,,,A151XA53WYXVD7
1495,20,,1.0,0.0,mountain_156.jpg,,,,A39XW0561NNM5C
1496,21,,1.0,1.0,golf_course_217.jpg,,,,A39XW0561NNM5C
1497,22,,1.0,2.0,mountain_232.jpg,,,,A39XW0561NNM5C
1498,23,,1.0,3.0,bridge_65.jpg,,,,A39XW0561NNM5C
1499,24,,1.0,4.0,playground_240.jpg,,,,A39XW0561NNM5C
1500,25,,1.0,5.0,golf_course_214.jpg,,,,A39XW0561NNM5C
1501,26,,1.0,6.0,badlands_184.jpg,,,,A39XW0561NNM5C
1502,27,,1.0,7.0,badlands_23.jpg,,,,A39XW0561NNM5C
1503,28,,1.0,8.0,bridge_91.jpg,,,,A39XW0561NNM5C
1504,29,,1.0,9.0,golf_course_78.jpg,,,,A39XW0561NNM5C
1505,30,,1.0,10.0,highway_177.jpg,,,,A39XW0561NNM5C
1506,31,,1.0,11.0,playground_117.jpg,,,,A39XW0561NNM5C
1507,32,,1.0,12.0,golf_course_195.jpg,,,,A39XW0561NNM5C
1508,33,,0.0,13.0,right.jpg,right,,,A39XW0561NNM5C
1509,34,,1.0,14.0,golf_course_193.jpg,,,,A39XW0561NNM5C
1510,35,,1.0,15.0,bridge_108.jpg,,,,A39XW0561NNM5C
1511,36,,1.0,16.0,playground_144.jpg,,,,A39XW0561NNM5C
1512,37,,0.0,17.0,left.jpg,left,,,A39XW0561NNM5C
1513,38,,1.0,18.0,bridge_250.jpg,,,,A39XW0561NNM5C
1514,39,,1.0,19.0,badlands_21.jpg,,,,A39XW0561NNM5C
1515,40,,1.0,20.0,mountain_222.jpg,,,,A39XW0561NNM5C
1516,41,,1.0,21.0,highway_394.jpg,,,,A39XW0561NNM5C
1517,42,,1.0,22.0,playground_10.jpg,,,,A39XW0561NNM5C
1518,43,,1.0,23.0,golf_course_309.jpg,,,,A39XW0561NNM5C
1519,44,,1.0,24.0,badlands_52.jpg,,,,A39XW0561NNM5C
1520,45,,1.0,25.0,mountain_110.jpg,,,,A39XW0561NNM5C
1521,46,,1.0,26.0,playground_60.jpg,,,,A39XW0561NNM5C
1522,47,,1.0,27.0,highway_273.jpg,,,,A39XW0561NNM5C
1523,48,,1.0,28.0,highway_415.jpg,,,,A39XW0561NNM5C
1524,49,,1.0,29.0,playground_219.jpg,,,,A39XW0561NNM5C
1525,50,,1.0,30.0,highway_359.jpg,,,,A39XW0561NNM5C
1526,51,,1.0,31.0,bridge_128.jpg,,,,A39XW0561NNM5C
1527,52,,1.0,32.0,playground_131.jpg,,,,A39XW0561NNM5C
1528,53,left,1.0,33.0,left.jpg,left,1.4323,,A39XW0561NNM5C
1529,54,,1.0,34.0,mountain_101.jpg,,,,A39XW0561NNM5C
1530,55,,1.0,35.0,golf_course_331.jpg,,,,A39XW0561NNM5C
1531,56,,1.0,36.0,badlands_221.jpg,,,,A39XW0561NNM5C
1532,57,,1.0,37.0,bridge_172.jpg,,,,A39XW0561NNM5C
1533,58,right,1.0,38.0,right.jpg,right,1.3072,,A39XW0561NNM5C
1534,59,,1.0,39.0,badlands_222.jpg,,,,A39XW0561NNM5C
1535,60,,1.0,40.0,highway_245.jpg,,,,A39XW0561NNM5C
1536,61,,1.0,41.0,highway_209.jpg,,,,A39XW0561NNM5C
1537,62,,1.0,42.0,bridge_256.jpg,,,,A39XW0561NNM5C
1538,63,,1.0,43.0,bridge_146.jpg,,,,A39XW0561NNM5C
1539,64,,1.0,44.0,playground_76.jpg,,,,A39XW0561NNM5C
1540,65,,1.0,45.0,mountain_293.jpg,,,,A39XW0561NNM5C
1541,66,,1.0,46.0,mountain_57.jpg,,,,A39XW0561NNM5C
1542,67,,1.0,47.0,badlands_24.jpg,,,,A39XW0561NNM5C
1543,68,,1.0,48.0,golf_course_15.jpg,,,,A39XW0561NNM5C
1544,69,left,1.0,49.0,left.jpg,left,1.1528,,A39XW0561NNM5C
1545,70,,1.0,50.0,mountain_154.jpg,,,,A39XW0561NNM5C
1546,71,,1.0,51.0,badlands_113.jpg,,,,A39XW0561NNM5C
1547,72,,1.0,52.0,bridge_191.jpg,,,,A39XW0561NNM5C
1548,73,,1.0,53.0,golf_course_87.jpg,,,,A39XW0561NNM5C
1549,74,,1.0,54.0,playground_257.jpg,,,,A39XW0561NNM5C
1550,75,,1.0,55.0,playground_145.jpg,,,,A39XW0561NNM5C
1551,76,,1.0,56.0,golf_course_188.jpg,,,,A39XW0561NNM5C
1552,77,,1.0,57.0,highway_156.jpg,,,,A39XW0561NNM5C
1553,78,,1.0,58.0,highway_93.jpg,,,,A39XW0561NNM5C
1554,79,,1.0,59.0,highway_294.jpg,,,,A39XW0561NNM5C
1555,80,,1.0,60.0,mountain_230.jpg,,,,A39XW0561NNM5C
1556,81,,1.0,61.0,badlands_137.jpg,,,,A39XW0561NNM5C
1557,82,,1.0,62.0,mountain_123.jpg,,,,A39XW0561NNM5C
1558,83,,1.0,63.0,badlands_70.jpg,,,,A39XW0561NNM5C
1559,84,,1.0,64.0,bridge_202.jpg,,,,A39XW0561NNM5C
1560,20,,1.0,0.0,mountain_232.jpg,,,,A2541C8MY0BYV3
1561,21,,1.0,1.0,highway_177.jpg,,,,A2541C8MY0BYV3
1562,22,,1.0,2.0,mountain_123.jpg,,,,A2541C8MY0BYV3
1563,23,,1.0,3.0,bridge_108.jpg,,,,A2541C8MY0BYV3
1564,24,,1.0,4.0,mountain_154.jpg,,,,A2541C8MY0BYV3
1565,25,,1.0,5.0,golf_course_195.jpg,,,,A2541C8MY0BYV3
1566,26,,1.0,6.0,badlands_23.jpg,,,,A2541C8MY0BYV3
1567,27,,1.0,7.0,golf_course_217.jpg,,,,A2541C8MY0BYV3
1568,28,,1.0,8.0,badlands_184.jpg,,,,A2541C8MY0BYV3
1569,29,,1.0,9.0,highway_294.jpg,,,,A2541C8MY0BYV3
1570,30,,1.0,10.0,highway_273.jpg,,,,A2541C8MY0BYV3
1571,31,,1.0,11.0,bridge_128.jpg,,,,A2541C8MY0BYV3
1572,32,right,1.0,12.0,right.jpg,right,0.515,,A2541C8MY0BYV3
1573,33,,1.0,13.0,highway_156.jpg,,,,A2541C8MY0BYV3
1574,34,,1.0,14.0,playground_76.jpg,,,,A2541C8MY0BYV3
1575,35,,1.0,15.0,bridge_65.jpg,,,,A2541C8MY0BYV3
1576,36,,1.0,16.0,badlands_70.jpg,,,,A2541C8MY0BYV3
1577,37,,1.0,17.0,golf_course_309.jpg,,,,A2541C8MY0BYV3
1578,38,,1.0,18.0,playground_144.jpg,,,,A2541C8MY0BYV3
1579,39,,1.0,19.0,bridge_250.jpg,,,,A2541C8MY0BYV3
1580,40,,1.0,20.0,mountain_222.jpg,,,,A2541C8MY0BYV3
1581,41,left,1.0,21.0,left.jpg,left,0.555,,A2541C8MY0BYV3
1582,42,,1.0,22.0,golf_course_78.jpg,,,,A2541C8MY0BYV3
1583,43,,1.0,23.0,golf_course_188.jpg,,,,A2541C8MY0BYV3
1584,44,,1.0,24.0,mountain_293.jpg,,,,A2541C8MY0BYV3
1585,45,,1.0,25.0,badlands_52.jpg,,,,A2541C8MY0BYV3
1586,46,,1.0,26.0,bridge_202.jpg,,,,A2541C8MY0BYV3
1587,47,,1.0,27.0,golf_course_193.jpg,,,,A2541C8MY0BYV3
1588,48,left,1.0,28.0,left.jpg,left,0.514,,A2541C8MY0BYV3
1589,49,,1.0,29.0,badlands_24.jpg,,,,A2541C8MY0BYV3
1590,50,,1.0,30.0,highway_245.jpg,,,,A2541C8MY0BYV3
1591,51,,1.0,31.0,highway_209.jpg,,,,A2541C8MY0BYV3
1592,52,,1.0,32.0,mountain_57.jpg,,,,A2541C8MY0BYV3
1593,53,,1.0,33.0,badlands_113.jpg,,,,A2541C8MY0BYV3
1594,54,,1.0,34.0,highway_93.jpg,,,,A2541C8MY0BYV3
1595,55,,1.0,35.0,bridge_172.jpg,,,,A2541C8MY0BYV3
1596,56,,1.0,36.0,golf_course_331.jpg,,,,A2541C8MY0BYV3
1597,57,,1.0,37.0,badlands_21.jpg,,,,A2541C8MY0BYV3
1598,58,,1.0,38.0,mountain_110.jpg,,,,A2541C8MY0BYV3
1599,59,,1.0,39.0,playground_219.jpg,,,,A2541C8MY0BYV3
1600,60,,1.0,40.0,bridge_146.jpg,,,,A2541C8MY0BYV3
1601,61,,1.0,41.0,highway_415.jpg,,,,A2541C8MY0BYV3
1602,62,,1.0,42.0,mountain_156.jpg,,,,A2541C8MY0BYV3
1603,63,left,1.0,43.0,left.jpg,left,0.515,,A2541C8MY0BYV3
1604,64,,1.0,44.0,mountain_101.jpg,,,,A2541C8MY0BYV3
1605,65,,1.0,45.0,playground_240.jpg,,,,A2541C8MY0BYV3
1606,66,,1.0,46.0,bridge_91.jpg,,,,A2541C8MY0BYV3
1607,67,right,1.0,47.0,right.jpg,right,0.493,,A2541C8MY0BYV3
1608,68,,1.0,48.0,bridge_256.jpg,,,,A2541C8MY0BYV3
1609,69,,1.0,49.0,mountain_230.jpg,,,,A2541C8MY0BYV3
1610,70,,1.0,50.0,highway_394.jpg,,,,A2541C8MY0BYV3
1611,71,,1.0,51.0,playground_131.jpg,,,,A2541C8MY0BYV3
1612,72,,1.0,52.0,playground_10.jpg,,,,A2541C8MY0BYV3
1613,73,,1.0,53.0,golf_course_15.jpg,,,,A2541C8MY0BYV3
1614,74,,1.0,54.0,highway_359.jpg,,,,A2541C8MY0BYV3
1615,75,,1.0,55.0,bridge_191.jpg,,,,A2541C8MY0BYV3
1616,76,,1.0,56.0,badlands_137.jpg,,,,A2541C8MY0BYV3
1617,77,,1.0,57.0,playground_145.jpg,,,,A2541C8MY0BYV3
1618,78,,1.0,58.0,playground_117.jpg,,,,A2541C8MY0BYV3
1619,79,,1.0,59.0,golf_course_214.jpg,,,,A2541C8MY0BYV3
1620,80,,1.0,60.0,playground_257.jpg,,,,A2541C8MY0BYV3
1621,81,,1.0,61.0,badlands_222.jpg,,,,A2541C8MY0BYV3
1622,82,,1.0,62.0,badlands_221.jpg,,,,A2541C8MY0BYV3
1623,83,,1.0,63.0,golf_course_87.jpg,,,,A2541C8MY0BYV3
1624,84,,1.0,64.0,playground_60.jpg,,,,A2541C8MY0BYV3
