,layer,correct,test_test_response.keys,test_test_response.corr,test_test_response.rt,trials_2.thisRepN,trials_2.thisTrialN,trials_2.thisN,trials_2.thisIndex,trials_2.ran,image1,image2,bar_2.response,subject
0,0.0,left,left,1.0,3.437,0.0,0.0,0.0,0.0,1.0,badlands_113.jpg,badlands_225.jpg,6.0,A2CZ5PS567SA10
1,0.0,right,right,1.0,3.5087,0.0,1.0,1.0,1.0,1.0,playground_122.jpg,playground_10.jpg,7.0,A2CZ5PS567SA10
2,0.0,left,right,0.0,2.36,0.0,2.0,2.0,2.0,1.0,badlands_137.jpg,badlands_194.jpg,6.0,A2CZ5PS567SA10
3,1.0,right,left,0.0,6.9308,0.0,3.0,3.0,3.0,1.0,mountain_93.jpg,mountain_222.jpg,5.0,A2CZ5PS567SA10
4,0.0,right,right,1.0,2.799,0.0,4.0,4.0,4.0,1.0,playground_229.jpg,playground_145.jpg,6.0,A2CZ5PS567SA10
5,1.0,left,left,1.0,2.5237,0.0,5.0,5.0,5.0,1.0,highway_394.jpg,highway_406.jpg,6.0,A2CZ5PS567SA10
6,0.0,right,right,1.0,3.3786,0.0,6.0,6.0,6.0,1.0,golf_course_130.jpg,golf_course_87.jpg,6.0,A2CZ5PS567SA10
7,1.0,left,left,1.0,2.6623,0.0,7.0,7.0,7.0,1.0,highway_177.jpg,highway_278.jpg,6.0,A2CZ5PS567SA10
8,1.0,left,left,1.0,12.4277,0.0,8.0,8.0,8.0,1.0,mountain_57.jpg,mountain_138.jpg,6.0,A2CZ5PS567SA10
9,0.0,right,right,1.0,6.2847,0.0,9.0,9.0,9.0,1.0,bridge_181.jpg,bridge_65.jpg,6.0,A2CZ5PS567SA10
10,0.0,right,right,1.0,7.1139,0.0,10.0,10.0,10.0,1.0,bridge_116.jpg,bridge_108.jpg,6.0,A2CZ5PS567SA10
11,0.0,left,right,0.0,3.568,0.0,11.0,11.0,11.0,1.0,highway_156.jpg,highway_160.jpg,6.0,A2CZ5PS567SA10
12,1.0,left,right,0.0,2.961,0.0,12.0,12.0,12.0,1.0,bridge_250.jpg,bridge_205.jpg,5.0,A2CZ5PS567SA10
13,1.0,left,right,0.0,7.1576,0.0,13.0,13.0,13.0,1.0,bridge_172.jpg,bridge_163.jpg,5.0,A2CZ5PS567SA10
14,1.0,left,left,1.0,2.7457,0.0,14.0,14.0,14.0,1.0,badlands_21.jpg,badlands_98.jpg,5.0,A2CZ5PS567SA10
15,0.0,right,right,1.0,3.3226,0.0,15.0,15.0,15.0,1.0,mountain_94.jpg,mountain_123.jpg,6.0,A2CZ5PS567SA10
16,1.0,left,right,0.0,2.3377,0.0,16.0,16.0,16.0,1.0,playground_257.jpg,playground_215.jpg,5.0,A2CZ5PS567SA10
17,1.0,right,right,1.0,2.6229,0.0,17.0,17.0,17.0,1.0,bridge_244.jpg,bridge_128.jpg,6.0,A2CZ5PS567SA10
18,1.0,left,right,0.0,2.2243,0.0,18.0,18.0,18.0,1.0,playground_240.jpg,playground_40.jpg,5.0,A2CZ5PS567SA10
19,1.0,right,left,0.0,4.1787,0.0,19.0,19.0,19.0,1.0,golf_course_160.jpg,golf_course_188.jpg,5.0,A2CZ5PS567SA10
20,0.0,left,left,1.0,5.6224,0.0,20.0,20.0,20.0,1.0,mountain_154.jpg,mountain_131.jpg,6.0,A2CZ5PS567SA10
21,0.0,left,left,1.0,2.6557,0.0,21.0,21.0,21.0,1.0,bridge_146.jpg,bridge_27.jpg,6.0,A2CZ5PS567SA10
22,1.0,right,left,0.0,2.8731,0.0,22.0,22.0,22.0,1.0,badlands_53.jpg,badlands_24.jpg,7.0,A2CZ5PS567SA10
23,1.0,left,left,1.0,2.2104,0.0,23.0,23.0,23.0,1.0,highway_359.jpg,highway_379.jpg,7.0,A2CZ5PS567SA10
24,1.0,left,left,1.0,2.2888,0.0,24.0,24.0,24.0,1.0,badlands_222.jpg,badlands_62.jpg,6.0,A2CZ5PS567SA10
25,1.0,right,left,0.0,2.7895,0.0,25.0,25.0,25.0,1.0,mountain_221.jpg,mountain_101.jpg,5.0,A2CZ5PS567SA10
26,0.0,left,left,1.0,3.0703,0.0,26.0,26.0,26.0,1.0,playground_76.jpg,playground_22.jpg,5.0,A2CZ5PS567SA10
27,0.0,left,left,1.0,2.6133,0.0,27.0,27.0,27.0,1.0,badlands_184.jpg,badlands_228.jpg,7.0,A2CZ5PS567SA10
28,1.0,left,left,1.0,2.6098,0.0,28.0,28.0,28.0,1.0,badlands_70.jpg,badlands_119.jpg,7.0,A2CZ5PS567SA10
29,1.0,right,right,1.0,3.3436,0.0,29.0,29.0,29.0,1.0,playground_164.jpg,playground_131.jpg,6.0,A2CZ5PS567SA10
30,0.0,right,left,0.0,5.7197,0.0,30.0,30.0,30.0,1.0,playground_268.jpg,playground_60.jpg,6.0,A2CZ5PS567SA10
31,0.0,left,right,0.0,2.4043,0.0,31.0,31.0,31.0,1.0,golf_course_214.jpg,golf_course_312.jpg,6.0,A2CZ5PS567SA10
32,1.0,left,right,0.0,15.263,0.0,32.0,32.0,32.0,1.0,mountain_156.jpg,mountain_295.jpg,6.0,A2CZ5PS567SA10
33,1.0,left,left,1.0,4.2553,0.0,33.0,33.0,33.0,1.0,playground_144.jpg,playground_65.jpg,5.0,A2CZ5PS567SA10
34,0.0,left,right,0.0,39.7568,0.0,34.0,34.0,34.0,1.0,badlands_221.jpg,badlands_115.jpg,7.0,A2CZ5PS567SA10
35,1.0,right,right,1.0,2.689,0.0,35.0,35.0,35.0,1.0,badlands_101.jpg,badlands_23.jpg,6.0,A2CZ5PS567SA10
36,1.0,left,left,1.0,3.8605,0.0,36.0,36.0,36.0,1.0,bridge_202.jpg,bridge_38.jpg,7.0,A2CZ5PS567SA10
37,0.0,left,left,1.0,2.5079,0.0,37.0,37.0,37.0,1.0,golf_course_15.jpg,golf_course_113.jpg,5.0,A2CZ5PS567SA10
38,0.0,right,right,1.0,2.1902,0.0,38.0,38.0,38.0,1.0,mountain_3.jpg,mountain_232.jpg,7.0,A2CZ5PS567SA10
39,0.0,left,left,1.0,2.9084,0.0,39.0,39.0,39.0,1.0,mountain_110.jpg,mountain_157.jpg,5.0,A2CZ5PS567SA10
40,1.0,left,left,1.0,2.7532,0.0,40.0,40.0,40.0,1.0,golf_course_78.jpg,golf_course_101.jpg,6.0,A2CZ5PS567SA10
41,1.0,right,left,0.0,2.8023,0.0,41.0,41.0,41.0,1.0,highway_206.jpg,highway_245.jpg,8.0,A2CZ5PS567SA10
42,1.0,right,left,0.0,2.5283,0.0,42.0,42.0,42.0,1.0,golf_course_26.jpg,golf_course_331.jpg,5.0,A2CZ5PS567SA10
43,0.0,left,left,1.0,2.1542,0.0,43.0,43.0,43.0,1.0,highway_93.jpg,highway_85.jpg,6.0,A2CZ5PS567SA10
44,1.0,right,left,0.0,3.2459,0.0,44.0,44.0,44.0,1.0,mountain_97.jpg,mountain_230.jpg,5.0,A2CZ5PS567SA10
45,1.0,left,left,1.0,2.1395,0.0,45.0,45.0,45.0,1.0,golf_course_193.jpg,golf_course_123.jpg,8.0,A2CZ5PS567SA10
46,1.0,left,left,1.0,3.2803,0.0,46.0,46.0,46.0,1.0,playground_219.jpg,playground_205.jpg,6.0,A2CZ5PS567SA10
47,0.0,left,left,1.0,2.3396,0.0,47.0,47.0,47.0,1.0,highway_294.jpg,highway_203.jpg,6.0,A2CZ5PS567SA10
48,0.0,right,right,1.0,6.6289,0.0,48.0,48.0,48.0,1.0,badlands_94.jpg,badlands_52.jpg,7.0,A2CZ5PS567SA10
49,0.0,left,left,1.0,3.7466,0.0,49.0,49.0,49.0,1.0,mountain_293.jpg,mountain_72.jpg,5.0,A2CZ5PS567SA10
50,1.0,left,left,1.0,3.2022,0.0,50.0,50.0,50.0,1.0,golf_course_309.jpg,golf_course_209.jpg,7.0,A2CZ5PS567SA10
51,0.0,right,right,1.0,2.2515,0.0,51.0,51.0,51.0,1.0,golf_course_25.jpg,golf_course_195.jpg,5.0,A2CZ5PS567SA10
52,0.0,left,right,0.0,3.3453,0.0,52.0,52.0,52.0,1.0,playground_117.jpg,playground_167.jpg,6.0,A2CZ5PS567SA10
53,1.0,right,left,0.0,2.4393,0.0,53.0,53.0,53.0,1.0,highway_122.jpg,highway_209.jpg,5.0,A2CZ5PS567SA10
54,1.0,right,right,1.0,2.1785,0.0,54.0,54.0,54.0,1.0,bridge_82.jpg,bridge_91.jpg,6.0,A2CZ5PS567SA10
55,0.0,right,right,1.0,2.5263,0.0,55.0,55.0,55.0,1.0,bridge_184.jpg,bridge_191.jpg,6.0,A2CZ5PS567SA10
56,0.0,left,left,1.0,2.1926,0.0,56.0,56.0,56.0,1.0,golf_course_217.jpg,golf_course_35.jpg,5.0,A2CZ5PS567SA10
57,0.0,right,right,1.0,2.2531,0.0,57.0,57.0,57.0,1.0,highway_384.jpg,highway_273.jpg,6.0,A2CZ5PS567SA10
58,0.0,left,left,1.0,2.2673,0.0,58.0,58.0,58.0,1.0,bridge_256.jpg,bridge_54.jpg,7.0,A2CZ5PS567SA10
59,0.0,left,left,1.0,1.9225,0.0,59.0,59.0,59.0,1.0,highway_415.jpg,highway_60.jpg,5.0,A2CZ5PS567SA10
60,0.0,right,right,1.0,4.3958,0.0,0.0,0.0,0.0,1.0,mountain_171.jpg,mountain_101.jpg,2.0,A3AU8PZ6HHBCVT
61,0.0,right,right,1.0,1.9223,0.0,1.0,1.0,1.0,1.0,mountain_3.jpg,mountain_232.jpg,2.0,A3AU8PZ6HHBCVT
62,0.0,right,right,1.0,3.8767,0.0,2.0,2.0,2.0,1.0,highway_85.jpg,highway_93.jpg,5.0,A3AU8PZ6HHBCVT
63,0.0,left,right,0.0,2.5657,0.0,3.0,3.0,3.0,1.0,mountain_123.jpg,mountain_94.jpg,2.0,A3AU8PZ6HHBCVT
64,1.0,right,right,1.0,1.4548,0.0,4.0,4.0,4.0,1.0,golf_course_209.jpg,golf_course_309.jpg,2.0,A3AU8PZ6HHBCVT
65,0.0,right,right,1.0,6.1264,0.0,5.0,5.0,5.0,1.0,golf_course_130.jpg,golf_course_87.jpg,6.0,A3AU8PZ6HHBCVT
66,1.0,right,right,1.0,2.5435,0.0,6.0,6.0,6.0,1.0,playground_244.jpg,playground_60.jpg,7.0,A3AU8PZ6HHBCVT
67,1.0,right,right,1.0,2.4273,0.0,7.0,7.0,7.0,1.0,playground_12.jpg,playground_10.jpg,7.0,A3AU8PZ6HHBCVT
68,0.0,right,right,1.0,1.7603,0.0,8.0,8.0,8.0,1.0,highway_389.jpg,highway_359.jpg,3.0,A3AU8PZ6HHBCVT
69,1.0,left,left,1.0,2.1924,0.0,9.0,9.0,9.0,1.0,bridge_108.jpg,bridge_148.jpg,5.0,A3AU8PZ6HHBCVT
70,0.0,left,left,1.0,2.0736,0.0,10.0,10.0,10.0,1.0,bridge_202.jpg,bridge_31.jpg,2.0,A3AU8PZ6HHBCVT
71,0.0,right,right,1.0,1.8713,0.0,11.0,11.0,11.0,1.0,golf_course_25.jpg,golf_course_195.jpg,2.0,A3AU8PZ6HHBCVT
72,1.0,right,right,1.0,1.9841,0.0,12.0,12.0,12.0,1.0,bridge_60.jpg,bridge_65.jpg,2.0,A3AU8PZ6HHBCVT
73,0.0,left,left,1.0,2.6322,0.0,13.0,13.0,13.0,1.0,bridge_250.jpg,bridge_134.jpg,3.0,A3AU8PZ6HHBCVT
74,0.0,right,right,1.0,25.0638,0.0,14.0,14.0,14.0,1.0,badlands_94.jpg,badlands_52.jpg,2.0,A3AU8PZ6HHBCVT
75,1.0,left,left,1.0,2.6093,0.0,15.0,15.0,15.0,1.0,mountain_154.jpg,mountain_95.jpg,3.0,A3AU8PZ6HHBCVT
76,0.0,right,right,1.0,1.4982,0.0,16.0,16.0,16.0,1.0,bridge_17.jpg,bridge_172.jpg,1.0,A3AU8PZ6HHBCVT
77,0.0,left,left,1.0,2.8423,0.0,17.0,17.0,17.0,1.0,bridge_256.jpg,bridge_54.jpg,3.0,A3AU8PZ6HHBCVT
78,0.0,right,right,1.0,2.3088,0.0,18.0,18.0,18.0,1.0,badlands_34.jpg,badlands_222.jpg,6.0,A3AU8PZ6HHBCVT
79,0.0,left,left,1.0,3.1676,0.0,19.0,19.0,19.0,1.0,playground_145.jpg,playground_229.jpg,3.0,A3AU8PZ6HHBCVT
80,1.0,left,left,1.0,2.1693,0.0,20.0,20.0,20.0,1.0,golf_course_15.jpg,golf_course_97.jpg,4.0,A3AU8PZ6HHBCVT
81,0.0,left,left,1.0,1.7062,0.0,21.0,21.0,21.0,1.0,bridge_146.jpg,bridge_27.jpg,6.0,A3AU8PZ6HHBCVT
82,0.0,right,right,1.0,3.4864,0.0,22.0,22.0,22.0,1.0,highway_384.jpg,highway_273.jpg,3.0,A3AU8PZ6HHBCVT
83,0.0,right,left,0.0,5.8479,0.0,23.0,23.0,23.0,1.0,golf_course_157.jpg,golf_course_188.jpg,2.0,A3AU8PZ6HHBCVT
84,1.0,left,left,1.0,2.0383,0.0,24.0,24.0,24.0,1.0,playground_131.jpg,playground_164.jpg,4.0,A3AU8PZ6HHBCVT
85,1.0,right,right,1.0,2.1727,0.0,25.0,25.0,25.0,1.0,highway_174.jpg,highway_415.jpg,6.0,A3AU8PZ6HHBCVT
86,0.0,right,right,1.0,1.6246,0.0,26.0,26.0,26.0,1.0,mountain_184.jpg,mountain_230.jpg,5.0,A3AU8PZ6HHBCVT
87,1.0,right,left,0.0,3.0941,0.0,27.0,27.0,27.0,1.0,badlands_98.jpg,badlands_21.jpg,4.0,A3AU8PZ6HHBCVT
88,1.0,right,left,0.0,3.7815,0.0,28.0,28.0,28.0,1.0,badlands_101.jpg,badlands_23.jpg,4.0,A3AU8PZ6HHBCVT
89,1.0,right,right,1.0,2.2487,0.0,29.0,29.0,29.0,1.0,highway_122.jpg,highway_209.jpg,6.0,A3AU8PZ6HHBCVT
90,0.0,right,right,1.0,1.9326,0.0,30.0,30.0,30.0,1.0,playground_214.jpg,playground_257.jpg,3.0,A3AU8PZ6HHBCVT
91,0.0,left,left,1.0,1.9368,0.0,31.0,31.0,31.0,1.0,playground_76.jpg,playground_22.jpg,4.0,A3AU8PZ6HHBCVT
92,1.0,left,right,0.0,2.724,0.0,32.0,32.0,32.0,1.0,highway_177.jpg,highway_278.jpg,4.0,A3AU8PZ6HHBCVT
93,0.0,left,left,1.0,6.8593,0.0,33.0,33.0,33.0,1.0,badlands_24.jpg,badlands_3.jpg,2.0,A3AU8PZ6HHBCVT
94,0.0,left,left,1.0,4.5946,0.0,34.0,34.0,34.0,1.0,badlands_221.jpg,badlands_115.jpg,3.0,A3AU8PZ6HHBCVT
95,0.0,right,right,1.0,2.3217,0.0,35.0,35.0,35.0,1.0,playground_137.jpg,playground_144.jpg,3.0,A3AU8PZ6HHBCVT
96,1.0,left,right,0.0,2.3327,0.0,36.0,36.0,36.0,1.0,badlands_113.jpg,badlands_203.jpg,8.0,A3AU8PZ6HHBCVT
97,0.0,left,left,1.0,2.7247,0.0,37.0,37.0,37.0,1.0,golf_course_193.jpg,golf_course_235.jpg,3.0,A3AU8PZ6HHBCVT
98,0.0,left,left,1.0,1.6342,0.0,38.0,38.0,38.0,1.0,badlands_70.jpg,badlands_102.jpg,2.0,A3AU8PZ6HHBCVT
99,1.0,right,right,1.0,1.3752,0.0,39.0,39.0,39.0,1.0,mountain_295.jpg,mountain_156.jpg,3.0,A3AU8PZ6HHBCVT
100,1.0,right,right,1.0,3.3971,0.0,40.0,40.0,40.0,1.0,highway_406.jpg,highway_394.jpg,5.0,A3AU8PZ6HHBCVT
101,1.0,right,left,0.0,1.686,0.0,41.0,41.0,41.0,1.0,mountain_93.jpg,mountain_222.jpg,2.0,A3AU8PZ6HHBCVT
102,0.0,right,right,1.0,1.5159,0.0,42.0,42.0,42.0,1.0,mountain_193.jpg,mountain_57.jpg,2.0,A3AU8PZ6HHBCVT
103,1.0,left,right,0.0,1.2291,0.0,43.0,43.0,43.0,1.0,badlands_137.jpg,badlands_139.jpg,3.0,A3AU8PZ6HHBCVT
104,1.0,right,right,1.0,2.1888,0.0,44.0,44.0,44.0,1.0,badlands_103.jpg,badlands_184.jpg,8.0,A3AU8PZ6HHBCVT
105,1.0,left,left,1.0,1.2101,0.0,45.0,45.0,45.0,1.0,bridge_128.jpg,bridge_244.jpg,4.0,A3AU8PZ6HHBCVT
106,1.0,right,right,1.0,2.8719,0.0,46.0,46.0,46.0,1.0,highway_293.jpg,highway_156.jpg,4.0,A3AU8PZ6HHBCVT
107,1.0,right,right,1.0,1.916,0.0,47.0,47.0,47.0,1.0,golf_course_26.jpg,golf_course_331.jpg,4.0,A3AU8PZ6HHBCVT
108,1.0,left,left,1.0,1.614,0.0,48.0,48.0,48.0,1.0,mountain_293.jpg,mountain_47.jpg,3.0,A3AU8PZ6HHBCVT
109,1.0,left,left,1.0,1.8792,0.0,49.0,49.0,49.0,1.0,mountain_110.jpg,mountain_223.jpg,7.0,A3AU8PZ6HHBCVT
110,1.0,right,left,0.0,1.1068,0.0,50.0,50.0,50.0,1.0,bridge_75.jpg,bridge_191.jpg,4.0,A3AU8PZ6HHBCVT
111,1.0,right,left,0.0,2.1863,0.0,51.0,51.0,51.0,1.0,bridge_82.jpg,bridge_91.jpg,5.0,A3AU8PZ6HHBCVT
112,0.0,left,left,1.0,3.8491,0.0,52.0,52.0,52.0,1.0,highway_294.jpg,highway_203.jpg,3.0,A3AU8PZ6HHBCVT
113,0.0,left,right,0.0,2.421,0.0,53.0,53.0,53.0,1.0,playground_117.jpg,playground_167.jpg,4.0,A3AU8PZ6HHBCVT
114,1.0,right,left,0.0,40.3311,0.0,54.0,54.0,54.0,1.0,golf_course_262.jpg,golf_course_217.jpg,2.0,A3AU8PZ6HHBCVT
115,1.0,left,right,0.0,3.1165,0.0,55.0,55.0,55.0,1.0,golf_course_78.jpg,golf_course_101.jpg,2.0,A3AU8PZ6HHBCVT
116,1.0,left,left,1.0,2.4491,0.0,56.0,56.0,56.0,1.0,playground_219.jpg,playground_205.jpg,7.0,A3AU8PZ6HHBCVT
117,1.0,left,right,0.0,2.3865,0.0,57.0,57.0,57.0,1.0,playground_240.jpg,playground_40.jpg,4.0,A3AU8PZ6HHBCVT
118,0.0,right,left,0.0,5.6253,0.0,58.0,58.0,58.0,1.0,golf_course_312.jpg,golf_course_214.jpg,3.0,A3AU8PZ6HHBCVT
119,0.0,left,right,0.0,1.285,0.0,59.0,59.0,59.0,1.0,highway_245.jpg,highway_134.jpg,3.0,A3AU8PZ6HHBCVT
120,0.0,right,right,1.0,13.667,0.0,0.0,0.0,0.0,1.0,playground_214.jpg,playground_257.jpg,7.0,A2STRYBSFU7KCY
121,1.0,left,left,1.0,15.648,0.0,1.0,1.0,1.0,1.0,badlands_221.jpg,badlands_207.jpg,5.0,A2STRYBSFU7KCY
122,0.0,left,left,1.0,6.569,0.0,2.0,2.0,2.0,1.0,golf_course_87.jpg,golf_course_130.jpg,7.0,A2STRYBSFU7KCY
123,0.0,left,left,1.0,5.092,0.0,3.0,3.0,3.0,1.0,badlands_24.jpg,badlands_3.jpg,8.0,A2STRYBSFU7KCY
124,1.0,left,left,1.0,5.159,0.0,4.0,4.0,4.0,1.0,mountain_230.jpg,mountain_97.jpg,8.0,A2STRYBSFU7KCY
125,0.0,left,left,1.0,3.852,0.0,5.0,5.0,5.0,1.0,golf_course_188.jpg,golf_course_157.jpg,8.0,A2STRYBSFU7KCY
126,0.0,left,right,0.0,4.728,0.0,6.0,6.0,6.0,1.0,badlands_137.jpg,badlands_194.jpg,6.0,A2STRYBSFU7KCY
127,1.0,left,left,1.0,4.23,0.0,7.0,7.0,7.0,1.0,playground_131.jpg,playground_164.jpg,8.0,A2STRYBSFU7KCY
128,0.0,left,right,0.0,4.775,0.0,8.0,8.0,8.0,1.0,golf_course_217.jpg,golf_course_35.jpg,8.0,A2STRYBSFU7KCY
129,1.0,left,left,1.0,4.269,0.0,9.0,9.0,9.0,1.0,mountain_57.jpg,mountain_138.jpg,8.0,A2STRYBSFU7KCY
130,1.0,left,left,1.0,6.549,0.0,10.0,10.0,10.0,1.0,golf_course_309.jpg,golf_course_209.jpg,5.0,A2STRYBSFU7KCY
131,0.0,left,left,1.0,3.397,0.0,11.0,11.0,11.0,1.0,mountain_293.jpg,mountain_72.jpg,8.0,A2STRYBSFU7KCY
132,0.0,right,right,1.0,4.687,0.0,12.0,12.0,12.0,1.0,highway_203.jpg,highway_294.jpg,8.0,A2STRYBSFU7KCY
133,1.0,left,right,0.0,4.567,0.0,13.0,13.0,13.0,1.0,golf_course_78.jpg,golf_course_101.jpg,7.0,A2STRYBSFU7KCY
134,0.0,right,right,1.0,4.378,0.0,14.0,14.0,14.0,1.0,mountain_157.jpg,mountain_110.jpg,7.0,A2STRYBSFU7KCY
135,1.0,right,right,1.0,4.559,0.0,15.0,15.0,15.0,1.0,playground_40.jpg,playground_240.jpg,8.0,A2STRYBSFU7KCY
136,1.0,right,left,0.0,4.86,0.0,16.0,16.0,16.0,1.0,playground_72.jpg,playground_76.jpg,8.0,A2STRYBSFU7KCY
137,0.0,left,left,1.0,4.793,0.0,17.0,17.0,17.0,1.0,mountain_222.jpg,mountain_244.jpg,7.0,A2STRYBSFU7KCY
138,0.0,left,left,1.0,4.05,0.0,18.0,18.0,18.0,1.0,bridge_128.jpg,bridge_61.jpg,6.0,A2STRYBSFU7KCY
139,1.0,right,left,0.0,3.535,0.0,19.0,19.0,19.0,1.0,mountain_221.jpg,mountain_101.jpg,8.0,A2STRYBSFU7KCY
140,1.0,right,right,1.0,3.99,0.0,20.0,20.0,20.0,1.0,highway_293.jpg,highway_156.jpg,7.0,A2STRYBSFU7KCY
141,0.0,left,right,0.0,4.217,0.0,21.0,21.0,21.0,1.0,playground_60.jpg,playground_268.jpg,6.0,A2STRYBSFU7KCY
142,0.0,right,right,1.0,14.639,0.0,22.0,22.0,22.0,1.0,mountain_131.jpg,mountain_154.jpg,8.0,A2STRYBSFU7KCY
143,1.0,right,right,1.0,8.666,0.0,23.0,23.0,23.0,1.0,golf_course_317.jpg,golf_course_214.jpg,7.0,A2STRYBSFU7KCY
144,1.0,right,left,0.0,15.042,0.0,24.0,24.0,24.0,1.0,badlands_62.jpg,badlands_222.jpg,9.0,A2STRYBSFU7KCY
145,0.0,left,left,1.0,3.9,0.0,25.0,25.0,25.0,1.0,playground_117.jpg,playground_167.jpg,6.0,A2STRYBSFU7KCY
146,1.0,left,right,0.0,5.633,0.0,26.0,26.0,26.0,1.0,playground_10.jpg,playground_12.jpg,6.0,A2STRYBSFU7KCY
147,1.0,right,right,1.0,4.281,0.0,27.0,27.0,27.0,1.0,golf_course_97.jpg,golf_course_15.jpg,7.0,A2STRYBSFU7KCY
148,1.0,left,left,1.0,3.473,0.0,28.0,28.0,28.0,1.0,bridge_65.jpg,bridge_60.jpg,8.0,A2STRYBSFU7KCY
149,1.0,left,right,0.0,4.858,0.0,29.0,29.0,29.0,1.0,highway_93.jpg,highway_369.jpg,6.0,A2STRYBSFU7KCY
150,0.0,right,left,0.0,3.096,0.0,30.0,30.0,30.0,1.0,bridge_134.jpg,bridge_250.jpg,6.0,A2STRYBSFU7KCY
151,1.0,right,right,1.0,3.056,0.0,31.0,31.0,31.0,1.0,badlands_103.jpg,badlands_184.jpg,7.0,A2STRYBSFU7KCY
152,0.0,left,left,1.0,4.083,0.0,32.0,32.0,32.0,1.0,golf_course_195.jpg,golf_course_25.jpg,5.0,A2STRYBSFU7KCY
153,1.0,left,left,1.0,4.68,0.0,33.0,33.0,33.0,1.0,highway_359.jpg,highway_379.jpg,8.0,A2STRYBSFU7KCY
154,1.0,left,right,0.0,3.298,0.0,34.0,34.0,34.0,1.0,mountain_232.jpg,mountain_54.jpg,4.0,A2STRYBSFU7KCY
155,0.0,left,left,1.0,4.084,0.0,35.0,35.0,35.0,1.0,bridge_172.jpg,bridge_17.jpg,7.0,A2STRYBSFU7KCY
156,0.0,left,left,1.0,3.307,0.0,36.0,36.0,36.0,1.0,mountain_156.jpg,mountain_128.jpg,7.0,A2STRYBSFU7KCY
157,0.0,right,right,1.0,48.416,0.0,37.0,37.0,37.0,1.0,highway_384.jpg,highway_273.jpg,3.0,A2STRYBSFU7KCY
158,0.0,right,right,1.0,3.619,0.0,38.0,38.0,38.0,1.0,badlands_94.jpg,badlands_52.jpg,7.0,A2STRYBSFU7KCY
159,1.0,left,right,0.0,3.517,0.0,39.0,39.0,39.0,1.0,mountain_123.jpg,mountain_189.jpg,8.0,A2STRYBSFU7KCY
160,0.0,left,left,1.0,2.608,0.0,40.0,40.0,40.0,1.0,bridge_256.jpg,bridge_54.jpg,5.0,A2STRYBSFU7KCY
161,1.0,left,left,1.0,4.435,0.0,41.0,41.0,41.0,1.0,highway_209.jpg,highway_122.jpg,7.0,A2STRYBSFU7KCY
162,1.0,right,right,1.0,4.494,0.0,42.0,42.0,42.0,1.0,bridge_38.jpg,bridge_202.jpg,7.0,A2STRYBSFU7KCY
163,0.0,left,left,1.0,8.291,0.0,43.0,43.0,43.0,1.0,highway_415.jpg,highway_60.jpg,7.0,A2STRYBSFU7KCY
164,0.0,left,left,1.0,23.842,0.0,44.0,44.0,44.0,1.0,bridge_91.jpg,bridge_253.jpg,6.0,A2STRYBSFU7KCY
165,0.0,left,right,0.0,3.451,0.0,45.0,45.0,45.0,1.0,playground_219.jpg,playground_21.jpg,8.0,A2STRYBSFU7KCY
166,1.0,left,left,1.0,2.597,0.0,46.0,46.0,46.0,1.0,badlands_23.jpg,badlands_101.jpg,8.0,A2STRYBSFU7KCY
167,0.0,right,left,0.0,2.641,0.0,47.0,47.0,47.0,1.0,badlands_102.jpg,badlands_70.jpg,7.0,A2STRYBSFU7KCY
168,0.0,left,right,0.0,3.477,0.0,48.0,48.0,48.0,1.0,highway_245.jpg,highway_134.jpg,7.0,A2STRYBSFU7KCY
169,1.0,right,right,1.0,4.019,0.0,49.0,49.0,49.0,1.0,bridge_121.jpg,bridge_146.jpg,6.0,A2STRYBSFU7KCY
170,1.0,left,left,1.0,2.542,0.0,50.0,50.0,50.0,1.0,highway_177.jpg,highway_278.jpg,7.0,A2STRYBSFU7KCY
171,1.0,left,right,0.0,3.368,0.0,51.0,51.0,51.0,1.0,playground_145.jpg,playground_242.jpg,6.0,A2STRYBSFU7KCY
172,1.0,right,right,1.0,2.805,0.0,52.0,52.0,52.0,1.0,golf_course_26.jpg,golf_course_331.jpg,7.0,A2STRYBSFU7KCY
173,1.0,right,right,1.0,2.509,0.0,53.0,53.0,53.0,1.0,bridge_75.jpg,bridge_191.jpg,6.0,A2STRYBSFU7KCY
174,1.0,right,left,0.0,4.304,0.0,54.0,54.0,54.0,1.0,badlands_203.jpg,badlands_113.jpg,8.0,A2STRYBSFU7KCY
175,1.0,left,right,0.0,3.272,0.0,55.0,55.0,55.0,1.0,bridge_108.jpg,bridge_148.jpg,6.0,A2STRYBSFU7KCY
176,0.0,left,left,1.0,3.899,0.0,56.0,56.0,56.0,1.0,golf_course_193.jpg,golf_course_235.jpg,7.0,A2STRYBSFU7KCY
177,0.0,right,right,1.0,2.823,0.0,57.0,57.0,57.0,1.0,playground_137.jpg,playground_144.jpg,7.0,A2STRYBSFU7KCY
178,0.0,left,left,1.0,3.668,0.0,58.0,58.0,58.0,1.0,badlands_21.jpg,badlands_1.jpg,7.0,A2STRYBSFU7KCY
179,0.0,right,right,1.0,2.169,0.0,59.0,59.0,59.0,1.0,highway_204.jpg,highway_394.jpg,8.0,A2STRYBSFU7KCY
180,0.0,left,left,1.0,3.2391,0.0,0.0,0.0,0.0,1.0,bridge_202.jpg,bridge_31.jpg,1.0,A1969Q0R4Y0E3J
181,1.0,left,right,0.0,2.4206,0.0,1.0,1.0,1.0,1.0,mountain_101.jpg,mountain_221.jpg,5.0,A1969Q0R4Y0E3J
182,1.0,left,left,1.0,1.8508,0.0,2.0,2.0,2.0,1.0,playground_144.jpg,playground_65.jpg,2.0,A1969Q0R4Y0E3J
183,1.0,right,right,1.0,1.4802,0.0,3.0,3.0,3.0,1.0,badlands_119.jpg,badlands_70.jpg,3.0,A1969Q0R4Y0E3J
184,0.0,left,left,1.0,1.7819,0.0,4.0,4.0,4.0,1.0,bridge_65.jpg,bridge_181.jpg,6.0,A1969Q0R4Y0E3J
185,1.0,left,left,1.0,1.8014,0.0,5.0,5.0,5.0,1.0,mountain_110.jpg,mountain_223.jpg,6.0,A1969Q0R4Y0E3J
186,0.0,left,right,0.0,3.1566,0.0,6.0,6.0,6.0,1.0,golf_course_309.jpg,golf_course_16.jpg,7.0,A1969Q0R4Y0E3J
187,0.0,right,right,1.0,1.7734,0.0,7.0,7.0,7.0,1.0,badlands_94.jpg,badlands_52.jpg,2.0,A1969Q0R4Y0E3J
188,0.0,left,left,1.0,3.3139,0.0,8.0,8.0,8.0,1.0,highway_415.jpg,highway_60.jpg,2.0,A1969Q0R4Y0E3J
189,1.0,left,left,1.0,2.1129,0.0,9.0,9.0,9.0,1.0,mountain_293.jpg,mountain_47.jpg,3.0,A1969Q0R4Y0E3J
190,0.0,left,right,0.0,5.375,0.0,10.0,10.0,10.0,1.0,playground_240.jpg,playground_2.jpg,1.0,A1969Q0R4Y0E3J
191,0.0,left,right,0.0,2.4646,0.0,11.0,11.0,11.0,1.0,mountain_222.jpg,mountain_244.jpg,1.0,A1969Q0R4Y0E3J
192,1.0,right,left,0.0,1.8753,0.0,12.0,12.0,12.0,1.0,badlands_203.jpg,badlands_113.jpg,8.0,A1969Q0R4Y0E3J
193,1.0,left,left,1.0,1.5795,0.0,13.0,13.0,13.0,1.0,playground_117.jpg,playground_127.jpg,2.0,A1969Q0R4Y0E3J
194,1.0,left,left,1.0,2.6722,0.0,14.0,14.0,14.0,1.0,bridge_172.jpg,bridge_163.jpg,2.0,A1969Q0R4Y0E3J
195,1.0,right,left,0.0,1.9645,0.0,15.0,15.0,15.0,1.0,golf_course_101.jpg,golf_course_78.jpg,3.0,A1969Q0R4Y0E3J
196,1.0,left,left,1.0,1.3966,0.0,16.0,16.0,16.0,1.0,golf_course_188.jpg,golf_course_160.jpg,5.0,A1969Q0R4Y0E3J
197,0.0,right,left,0.0,2.1564,0.0,17.0,17.0,17.0,1.0,badlands_228.jpg,badlands_184.jpg,7.0,A1969Q0R4Y0E3J
198,0.0,right,left,0.0,5.759,0.0,18.0,18.0,18.0,1.0,playground_214.jpg,playground_257.jpg,1.0,A1969Q0R4Y0E3J
199,0.0,left,left,1.0,1.2319,0.0,19.0,19.0,19.0,1.0,mountain_232.jpg,mountain_3.jpg,3.0,A1969Q0R4Y0E3J
200,0.0,right,right,1.0,2.1431,0.0,20.0,20.0,20.0,1.0,highway_204.jpg,highway_394.jpg,2.0,A1969Q0R4Y0E3J
201,0.0,left,left,1.0,3.2792,0.0,21.0,21.0,21.0,1.0,mountain_57.jpg,mountain_193.jpg,3.0,A1969Q0R4Y0E3J
202,0.0,right,right,1.0,1.7122,0.0,22.0,22.0,22.0,1.0,golf_course_35.jpg,golf_course_217.jpg,6.0,A1969Q0R4Y0E3J
203,0.0,right,right,1.0,1.0624,0.0,23.0,23.0,23.0,1.0,badlands_1.jpg,badlands_21.jpg,1.0,A1969Q0R4Y0E3J
204,1.0,right,right,1.0,5.2943,0.0,24.0,24.0,24.0,1.0,golf_course_161.jpg,golf_course_87.jpg,4.0,A1969Q0R4Y0E3J
205,0.0,left,left,1.0,1.1379,0.0,25.0,25.0,25.0,1.0,golf_course_331.jpg,golf_course_114.jpg,2.0,A1969Q0R4Y0E3J
206,0.0,right,right,1.0,1.6591,0.0,26.0,26.0,26.0,1.0,bridge_54.jpg,bridge_256.jpg,3.0,A1969Q0R4Y0E3J
207,0.0,right,left,0.0,1.421,0.0,27.0,27.0,27.0,1.0,bridge_253.jpg,bridge_91.jpg,1.0,A1969Q0R4Y0E3J
208,1.0,left,left,1.0,1.6303,0.0,28.0,28.0,28.0,1.0,highway_209.jpg,highway_122.jpg,7.0,A1969Q0R4Y0E3J
209,0.0,left,left,1.0,1.7805,0.0,29.0,29.0,29.0,1.0,mountain_154.jpg,mountain_131.jpg,5.0,A1969Q0R4Y0E3J
210,0.0,right,right,1.0,1.4469,0.0,30.0,30.0,30.0,1.0,bridge_184.jpg,bridge_191.jpg,1.0,A1969Q0R4Y0E3J
211,0.0,right,right,1.0,1.3454,0.0,31.0,31.0,31.0,1.0,playground_122.jpg,playground_10.jpg,1.0,A1969Q0R4Y0E3J
212,1.0,left,left,1.0,1.5663,0.0,32.0,32.0,32.0,1.0,badlands_137.jpg,badlands_139.jpg,3.0,A1969Q0R4Y0E3J
213,1.0,right,right,1.0,2.6635,0.0,33.0,33.0,33.0,1.0,playground_205.jpg,playground_219.jpg,7.0,A1969Q0R4Y0E3J
214,0.0,left,left,1.0,1.4641,0.0,34.0,34.0,34.0,1.0,mountain_230.jpg,mountain_184.jpg,2.0,A1969Q0R4Y0E3J
215,0.0,left,left,1.0,5.7087,0.0,35.0,35.0,35.0,1.0,playground_76.jpg,playground_22.jpg,3.0,A1969Q0R4Y0E3J
216,1.0,left,right,0.0,2.0199,0.0,36.0,36.0,36.0,1.0,mountain_156.jpg,mountain_295.jpg,4.0,A1969Q0R4Y0E3J
217,1.0,left,left,1.0,1.3959,0.0,37.0,37.0,37.0,1.0,highway_93.jpg,highway_369.jpg,6.0,A1969Q0R4Y0E3J
218,0.0,right,right,1.0,0.967,0.0,38.0,38.0,38.0,1.0,badlands_3.jpg,badlands_24.jpg,5.0,A1969Q0R4Y0E3J
219,1.0,right,right,1.0,3.4951,0.0,39.0,39.0,39.0,1.0,highway_171.jpg,highway_273.jpg,2.0,A1969Q0R4Y0E3J
220,1.0,right,right,1.0,1.4285,0.0,40.0,40.0,40.0,1.0,badlands_62.jpg,badlands_222.jpg,9.0,A1969Q0R4Y0E3J
221,0.0,left,left,1.0,1.5687,0.0,41.0,41.0,41.0,1.0,highway_177.jpg,highway_87.jpg,2.0,A1969Q0R4Y0E3J
222,1.0,right,right,1.0,2.7791,0.0,42.0,42.0,42.0,1.0,highway_368.jpg,highway_294.jpg,4.0,A1969Q0R4Y0E3J
223,1.0,right,right,1.0,5.5078,0.0,43.0,43.0,43.0,1.0,badlands_101.jpg,badlands_23.jpg,2.0,A1969Q0R4Y0E3J
224,1.0,right,right,1.0,1.2409,0.0,44.0,44.0,44.0,1.0,playground_164.jpg,playground_131.jpg,7.0,A1969Q0R4Y0E3J
225,0.0,left,left,1.0,1.3968,0.0,45.0,45.0,45.0,1.0,golf_course_214.jpg,golf_course_312.jpg,7.0,A1969Q0R4Y0E3J
226,1.0,right,right,1.0,1.7972,0.0,46.0,46.0,46.0,1.0,bridge_121.jpg,bridge_146.jpg,4.0,A1969Q0R4Y0E3J
227,1.0,right,right,1.0,1.4743,0.0,47.0,47.0,47.0,1.0,bridge_205.jpg,bridge_250.jpg,5.0,A1969Q0R4Y0E3J
228,1.0,left,right,0.0,3.861,0.0,48.0,48.0,48.0,1.0,playground_60.jpg,playground_244.jpg,5.0,A1969Q0R4Y0E3J
229,1.0,left,right,0.0,1.7133,0.0,49.0,49.0,49.0,1.0,bridge_108.jpg,bridge_148.jpg,7.0,A1969Q0R4Y0E3J
230,0.0,left,right,0.0,4.966,0.0,50.0,50.0,50.0,1.0,highway_156.jpg,highway_160.jpg,5.0,A1969Q0R4Y0E3J
231,0.0,left,left,1.0,2.2281,0.0,51.0,51.0,51.0,1.0,highway_359.jpg,highway_389.jpg,2.0,A1969Q0R4Y0E3J
232,1.0,left,right,0.0,3.0167,0.0,52.0,52.0,52.0,1.0,golf_course_195.jpg,golf_course_2.jpg,7.0,A1969Q0R4Y0E3J
233,1.0,right,left,0.0,5.5944,0.0,53.0,53.0,53.0,1.0,highway_206.jpg,highway_245.jpg,5.0,A1969Q0R4Y0E3J
234,0.0,right,left,0.0,2.2867,0.0,54.0,54.0,54.0,1.0,badlands_115.jpg,badlands_221.jpg,8.0,A1969Q0R4Y0E3J
235,1.0,left,left,1.0,4.0817,0.0,55.0,55.0,55.0,1.0,bridge_128.jpg,bridge_244.jpg,1.0,A1969Q0R4Y0E3J
236,1.0,left,left,1.0,4.0932,0.0,56.0,56.0,56.0,1.0,golf_course_193.jpg,golf_course_123.jpg,3.0,A1969Q0R4Y0E3J
237,0.0,left,left,1.0,1.5617,0.0,57.0,57.0,57.0,1.0,playground_145.jpg,playground_229.jpg,7.0,A1969Q0R4Y0E3J
238,1.0,left,right,0.0,5.3811,0.0,58.0,58.0,58.0,1.0,mountain_123.jpg,mountain_189.jpg,8.0,A1969Q0R4Y0E3J
239,0.0,left,left,1.0,11.4429,0.0,59.0,59.0,59.0,1.0,golf_course_15.jpg,golf_course_113.jpg,4.0,A1969Q0R4Y0E3J
240,1.0,right,right,1.0,14.4061,0.0,0.0,0.0,0.0,1.0,mountain_97.jpg,mountain_230.jpg,5.0,AF6DVGK1GTFER
241,1.0,left,right,0.0,3.8537,0.0,1.0,1.0,1.0,1.0,highway_209.jpg,highway_122.jpg,8.0,AF6DVGK1GTFER
242,0.0,right,right,1.0,2.4163,0.0,2.0,2.0,2.0,1.0,bridge_17.jpg,bridge_172.jpg,7.0,AF6DVGK1GTFER
243,0.0,left,right,0.0,5.3789,0.0,3.0,3.0,3.0,1.0,mountain_101.jpg,mountain_171.jpg,5.0,AF6DVGK1GTFER
244,1.0,left,right,0.0,1.7561,0.0,4.0,4.0,4.0,1.0,playground_144.jpg,playground_65.jpg,9.0,AF6DVGK1GTFER
245,0.0,right,right,1.0,4.3159,0.0,5.0,5.0,5.0,1.0,bridge_116.jpg,bridge_108.jpg,6.0,AF6DVGK1GTFER
246,0.0,right,right,1.0,4.6392,0.0,6.0,6.0,6.0,1.0,playground_43.jpg,playground_131.jpg,5.0,AF6DVGK1GTFER
247,0.0,left,right,0.0,3.1131,0.0,7.0,7.0,7.0,1.0,golf_course_331.jpg,golf_course_114.jpg,7.0,AF6DVGK1GTFER
248,1.0,right,right,1.0,3.9651,0.0,8.0,8.0,8.0,1.0,bridge_38.jpg,bridge_202.jpg,6.0,AF6DVGK1GTFER
249,0.0,left,right,0.0,1.7268,0.0,9.0,9.0,9.0,1.0,badlands_113.jpg,badlands_225.jpg,7.0,AF6DVGK1GTFER
250,1.0,left,right,0.0,2.5362,0.0,10.0,10.0,10.0,1.0,golf_course_15.jpg,golf_course_97.jpg,8.0,AF6DVGK1GTFER
251,1.0,right,right,1.0,1.9627,0.0,11.0,11.0,11.0,1.0,highway_206.jpg,highway_245.jpg,9.0,AF6DVGK1GTFER
252,0.0,left,right,0.0,1.9863,0.0,12.0,12.0,12.0,1.0,mountain_110.jpg,mountain_157.jpg,7.0,AF6DVGK1GTFER
253,1.0,right,right,1.0,2.1219,0.0,13.0,13.0,13.0,1.0,playground_40.jpg,playground_240.jpg,8.0,AF6DVGK1GTFER
254,0.0,left,right,0.0,1.6575,0.0,14.0,14.0,14.0,1.0,highway_273.jpg,highway_384.jpg,7.0,AF6DVGK1GTFER
255,1.0,left,right,0.0,1.7172,0.0,15.0,15.0,15.0,1.0,badlands_23.jpg,badlands_101.jpg,2.0,AF6DVGK1GTFER
256,1.0,left,right,0.0,1.9086,0.0,16.0,16.0,16.0,1.0,mountain_123.jpg,mountain_189.jpg,6.0,AF6DVGK1GTFER
257,0.0,left,right,0.0,1.4517,0.0,17.0,17.0,17.0,1.0,mountain_232.jpg,mountain_3.jpg,4.0,AF6DVGK1GTFER
258,1.0,left,right,0.0,2.1299,0.0,18.0,18.0,18.0,1.0,highway_93.jpg,highway_369.jpg,7.0,AF6DVGK1GTFER
259,1.0,left,right,0.0,1.7468,0.0,19.0,19.0,19.0,1.0,mountain_222.jpg,mountain_93.jpg,6.0,AF6DVGK1GTFER
260,1.0,left,right,0.0,1.1916,0.0,20.0,20.0,20.0,1.0,highway_156.jpg,highway_293.jpg,8.0,AF6DVGK1GTFER
261,0.0,right,right,1.0,1.1859,0.0,21.0,21.0,21.0,1.0,highway_389.jpg,highway_359.jpg,8.0,AF6DVGK1GTFER
262,0.0,right,right,1.0,1.0927,0.0,22.0,22.0,22.0,1.0,badlands_3.jpg,badlands_24.jpg,3.0,AF6DVGK1GTFER
263,0.0,left,right,0.0,1.9329,0.0,23.0,23.0,23.0,1.0,badlands_221.jpg,badlands_115.jpg,6.0,AF6DVGK1GTFER
264,0.0,left,right,0.0,1.1544,0.0,24.0,24.0,24.0,1.0,golf_course_78.jpg,golf_course_134.jpg,8.0,AF6DVGK1GTFER
265,0.0,right,right,1.0,1.6405,0.0,25.0,25.0,25.0,1.0,highway_87.jpg,highway_177.jpg,3.0,AF6DVGK1GTFER
266,1.0,right,right,1.0,1.7767,0.0,26.0,26.0,26.0,1.0,playground_215.jpg,playground_257.jpg,8.0,AF6DVGK1GTFER
267,0.0,left,right,0.0,1.5756,0.0,27.0,27.0,27.0,1.0,highway_415.jpg,highway_60.jpg,6.0,AF6DVGK1GTFER
268,1.0,right,right,1.0,1.2021,0.0,28.0,28.0,28.0,1.0,golf_course_209.jpg,golf_course_309.jpg,8.0,AF6DVGK1GTFER
269,0.0,right,right,1.0,1.4959,0.0,29.0,29.0,29.0,1.0,bridge_61.jpg,bridge_128.jpg,5.0,AF6DVGK1GTFER
270,1.0,left,right,0.0,1.3242,0.0,30.0,30.0,30.0,1.0,badlands_137.jpg,badlands_139.jpg,7.0,AF6DVGK1GTFER
271,1.0,right,right,1.0,2.0174,0.0,31.0,31.0,31.0,1.0,highway_368.jpg,highway_294.jpg,5.0,AF6DVGK1GTFER
272,1.0,left,right,0.0,4.0805,0.0,32.0,32.0,32.0,1.0,bridge_65.jpg,bridge_60.jpg,3.0,AF6DVGK1GTFER
273,1.0,left,right,0.0,2.1469,0.0,33.0,33.0,33.0,1.0,bridge_250.jpg,bridge_205.jpg,7.0,AF6DVGK1GTFER
274,1.0,right,right,1.0,3.298,0.0,34.0,34.0,34.0,1.0,badlands_119.jpg,badlands_70.jpg,7.0,AF6DVGK1GTFER
275,0.0,right,right,1.0,2.887,0.0,35.0,35.0,35.0,1.0,bridge_54.jpg,bridge_256.jpg,8.0,AF6DVGK1GTFER
276,0.0,right,right,1.0,2.2325,0.0,36.0,36.0,36.0,1.0,highway_204.jpg,highway_394.jpg,6.0,AF6DVGK1GTFER
277,1.0,left,right,0.0,0.7472,0.0,37.0,37.0,37.0,1.0,badlands_52.jpg,badlands_63.jpg,8.0,AF6DVGK1GTFER
278,1.0,left,right,0.0,0.7003,0.0,38.0,38.0,38.0,1.0,golf_course_217.jpg,golf_course_262.jpg,8.0,AF6DVGK1GTFER
279,1.0,right,right,1.0,0.5097,0.0,39.0,39.0,39.0,1.0,mountain_95.jpg,mountain_154.jpg,6.0,AF6DVGK1GTFER
280,0.0,right,right,1.0,0.2727,0.0,40.0,40.0,40.0,1.0,mountain_72.jpg,mountain_293.jpg,6.0,AF6DVGK1GTFER
281,0.0,left,right,0.0,0.8429,0.0,41.0,41.0,41.0,1.0,playground_76.jpg,playground_22.jpg,6.0,AF6DVGK1GTFER
282,1.0,left,right,0.0,0.606,0.0,42.0,42.0,42.0,1.0,golf_course_193.jpg,golf_course_123.jpg,7.0,AF6DVGK1GTFER
283,0.0,left,right,0.0,4.0792,0.0,43.0,43.0,43.0,1.0,playground_145.jpg,playground_229.jpg,7.0,AF6DVGK1GTFER
284,0.0,right,right,1.0,1.5183,0.0,44.0,44.0,44.0,1.0,playground_122.jpg,playground_10.jpg,7.0,AF6DVGK1GTFER
285,1.0,left,right,0.0,1.3373,0.0,45.0,45.0,45.0,1.0,badlands_21.jpg,badlands_98.jpg,8.0,AF6DVGK1GTFER
286,0.0,left,right,0.0,1.148,0.0,46.0,46.0,46.0,1.0,golf_course_188.jpg,golf_course_157.jpg,8.0,AF6DVGK1GTFER
287,0.0,right,right,1.0,1.0001,0.0,47.0,47.0,47.0,1.0,golf_course_130.jpg,golf_course_87.jpg,7.0,AF6DVGK1GTFER
288,0.0,right,right,1.0,1.1159,0.0,48.0,48.0,48.0,1.0,playground_268.jpg,playground_60.jpg,7.0,AF6DVGK1GTFER
289,1.0,right,right,1.0,1.1238,0.0,49.0,49.0,49.0,1.0,mountain_295.jpg,mountain_156.jpg,7.0,AF6DVGK1GTFER
290,1.0,right,right,1.0,1.2191,0.0,50.0,50.0,50.0,1.0,playground_127.jpg,playground_117.jpg,7.0,AF6DVGK1GTFER
291,1.0,left,right,0.0,0.9096,0.0,51.0,51.0,51.0,1.0,bridge_146.jpg,bridge_121.jpg,7.0,AF6DVGK1GTFER
292,0.0,left,right,0.0,1.2489,0.0,52.0,52.0,52.0,1.0,badlands_222.jpg,badlands_34.jpg,6.0,AF6DVGK1GTFER
293,1.0,right,right,1.0,1.8114,0.0,53.0,53.0,53.0,1.0,golf_course_2.jpg,golf_course_195.jpg,7.0,AF6DVGK1GTFER
294,1.0,left,right,0.0,1.0806,0.0,54.0,54.0,54.0,1.0,playground_219.jpg,playground_205.jpg,7.0,AF6DVGK1GTFER
295,0.0,right,right,1.0,1.0043,0.0,55.0,55.0,55.0,1.0,badlands_228.jpg,badlands_184.jpg,8.0,AF6DVGK1GTFER
296,1.0,right,right,1.0,1.4326,0.0,56.0,56.0,56.0,1.0,bridge_75.jpg,bridge_191.jpg,7.0,AF6DVGK1GTFER
297,0.0,right,right,1.0,1.1528,0.0,57.0,57.0,57.0,1.0,golf_course_312.jpg,golf_course_214.jpg,7.0,AF6DVGK1GTFER
298,0.0,left,right,0.0,1.6103,0.0,58.0,58.0,58.0,1.0,mountain_57.jpg,mountain_193.jpg,8.0,AF6DVGK1GTFER
299,0.0,left,right,0.0,1.1059,0.0,59.0,59.0,59.0,1.0,bridge_91.jpg,bridge_253.jpg,6.0,AF6DVGK1GTFER
300,0.0,right,right,1.0,14.3459,0.0,0.0,0.0,0.0,1.0,highway_314.jpg,highway_209.jpg,8.0,AC01SVLHOB6HN
301,1.0,right,right,1.0,9.4302,0.0,1.0,1.0,1.0,1.0,mountain_138.jpg,mountain_57.jpg,7.0,AC01SVLHOB6HN
302,0.0,right,right,1.0,2.5599,0.0,2.0,2.0,2.0,1.0,golf_course_134.jpg,golf_course_78.jpg,8.0,AC01SVLHOB6HN
303,0.0,left,right,0.0,5.005,0.0,3.0,3.0,3.0,1.0,mountain_154.jpg,mountain_131.jpg,7.0,AC01SVLHOB6HN
304,0.0,left,right,0.0,0.482400001,0.0,4.0,4.0,4.0,1.0,playground_60.jpg,playground_268.jpg,7.0,AC01SVLHOB6HN
305,0.0,left,right,0.0,6.8034,0.0,5.0,5.0,5.0,1.0,mountain_222.jpg,mountain_244.jpg,8.0,AC01SVLHOB6HN
306,0.0,left,left,1.0,3.276,0.0,6.0,6.0,6.0,1.0,playground_240.jpg,playground_2.jpg,7.0,AC01SVLHOB6HN
307,1.0,left,right,0.0,0.607099999,0.0,7.0,7.0,7.0,1.0,bridge_250.jpg,bridge_205.jpg,8.0,AC01SVLHOB6HN
308,1.0,left,left,1.0,4.3858,0.0,8.0,8.0,8.0,1.0,bridge_91.jpg,bridge_82.jpg,7.0,AC01SVLHOB6HN
309,1.0,left,left,1.0,5.9525,0.0,9.0,9.0,9.0,1.0,playground_131.jpg,playground_164.jpg,8.0,AC01SVLHOB6HN
310,0.0,left,right,0.0,0.9537,0.0,10.0,10.0,10.0,1.0,mountain_123.jpg,mountain_94.jpg,8.0,AC01SVLHOB6HN
311,1.0,left,left,1.0,5.142799999,0.0,11.0,11.0,11.0,1.0,badlands_222.jpg,badlands_62.jpg,7.0,AC01SVLHOB6HN
312,0.0,right,right,1.0,5.533700001,0.0,12.0,12.0,12.0,1.0,highway_204.jpg,highway_394.jpg,6.0,AC01SVLHOB6HN
313,0.0,left,right,0.0,2.7619,0.0,13.0,13.0,13.0,1.0,badlands_137.jpg,badlands_194.jpg,8.0,AC01SVLHOB6HN
314,0.0,left,left,1.0,4.9527,0.0,14.0,14.0,14.0,1.0,highway_415.jpg,highway_60.jpg,8.0,AC01SVLHOB6HN
315,1.0,right,left,0.0,5.695099999,0.0,15.0,15.0,15.0,1.0,playground_242.jpg,playground_145.jpg,8.0,AC01SVLHOB6HN
316,1.0,left,right,0.0,3.138,0.0,16.0,16.0,16.0,1.0,highway_245.jpg,highway_206.jpg,8.0,AC01SVLHOB6HN
317,0.0,left,left,1.0,3.3235,0.0,17.0,17.0,17.0,1.0,playground_76.jpg,playground_22.jpg,8.0,AC01SVLHOB6HN
318,1.0,right,right,1.0,0.779900001,0.0,18.0,18.0,18.0,1.0,playground_127.jpg,playground_117.jpg,6.0,AC01SVLHOB6HN
319,0.0,left,left,1.0,4.5024,0.0,19.0,19.0,19.0,1.0,golf_course_309.jpg,golf_course_16.jpg,7.0,AC01SVLHOB6HN
320,1.0,left,left,1.0,3.695599999,0.0,20.0,20.0,20.0,1.0,golf_course_193.jpg,golf_course_123.jpg,7.0,AC01SVLHOB6HN
321,1.0,left,left,1.0,3.1408,0.0,21.0,21.0,21.0,1.0,badlands_21.jpg,badlands_98.jpg,6.0,AC01SVLHOB6HN
322,1.0,left,left,1.0,3.736099999,0.0,22.0,22.0,22.0,1.0,mountain_232.jpg,mountain_54.jpg,8.0,AC01SVLHOB6HN
323,1.0,right,right,1.0,5.271900001,0.0,23.0,23.0,23.0,1.0,golf_course_262.jpg,golf_course_217.jpg,8.0,AC01SVLHOB6HN
324,1.0,left,left,1.0,2.904799999,0.0,24.0,24.0,24.0,1.0,golf_course_15.jpg,golf_course_97.jpg,7.0,AC01SVLHOB6HN
325,1.0,right,right,1.0,6.7778,0.0,25.0,25.0,25.0,1.0,bridge_211.jpg,bridge_256.jpg,8.0,AC01SVLHOB6HN
326,1.0,left,right,0.0,7.1943,0.0,26.0,26.0,26.0,1.0,badlands_52.jpg,badlands_63.jpg,8.0,AC01SVLHOB6HN
327,1.0,right,left,0.0,3.2289,0.0,27.0,27.0,27.0,1.0,highway_369.jpg,highway_93.jpg,6.0,AC01SVLHOB6HN
328,0.0,right,right,1.0,3.2716,0.0,28.0,28.0,28.0,1.0,badlands_114.jpg,badlands_23.jpg,7.0,AC01SVLHOB6HN
329,0.0,left,right,0.0,0.520599999,0.0,29.0,29.0,29.0,1.0,bridge_128.jpg,bridge_61.jpg,7.0,AC01SVLHOB6HN
330,0.0,left,right,0.0,0.6853,0.0,30.0,30.0,30.0,1.0,golf_course_195.jpg,golf_course_25.jpg,6.0,AC01SVLHOB6HN
331,0.0,right,right,1.0,3.0956,0.0,31.0,31.0,31.0,1.0,highway_87.jpg,highway_177.jpg,6.0,AC01SVLHOB6HN
332,0.0,left,left,1.0,4.8264,0.0,32.0,32.0,32.0,1.0,badlands_70.jpg,badlands_102.jpg,7.0,AC01SVLHOB6HN
333,0.0,right,right,1.0,3.7143,0.0,33.0,33.0,33.0,1.0,playground_137.jpg,playground_144.jpg,5.0,AC01SVLHOB6HN
334,1.0,left,right,0.0,6.7431,0.0,34.0,34.0,34.0,1.0,bridge_191.jpg,bridge_75.jpg,6.0,AC01SVLHOB6HN
335,1.0,left,left,1.0,2.361099999,0.0,35.0,35.0,35.0,1.0,golf_course_331.jpg,golf_course_26.jpg,7.0,AC01SVLHOB6HN
336,1.0,right,right,1.0,0.6485,0.0,36.0,36.0,36.0,1.0,badlands_207.jpg,badlands_221.jpg,7.0,AC01SVLHOB6HN
337,1.0,right,right,1.0,0.5235,0.0,37.0,37.0,37.0,1.0,mountain_97.jpg,mountain_230.jpg,6.0,AC01SVLHOB6HN
338,0.0,right,right,1.0,0.5627,0.0,38.0,38.0,38.0,1.0,highway_160.jpg,highway_156.jpg,7.0,AC01SVLHOB6HN
339,0.0,left,left,1.0,1.3701,0.0,39.0,39.0,39.0,1.0,badlands_24.jpg,badlands_3.jpg,7.0,AC01SVLHOB6HN
340,1.0,right,left,0.0,1.8354,0.0,40.0,40.0,40.0,1.0,bridge_38.jpg,bridge_202.jpg,7.0,AC01SVLHOB6HN
341,0.0,left,left,1.0,2.9585,0.0,41.0,41.0,41.0,1.0,golf_course_188.jpg,golf_course_157.jpg,6.0,AC01SVLHOB6HN
342,1.0,left,left,1.0,3.3991,0.0,42.0,42.0,42.0,1.0,golf_course_214.jpg,golf_course_317.jpg,6.0,AC01SVLHOB6HN
343,1.0,right,right,1.0,2.8735,0.0,43.0,43.0,43.0,1.0,playground_12.jpg,playground_10.jpg,6.0,AC01SVLHOB6HN
344,0.0,right,right,1.0,0.6007,0.0,44.0,44.0,44.0,1.0,mountain_171.jpg,mountain_101.jpg,6.0,AC01SVLHOB6HN
345,0.0,left,left,1.0,2.9189,0.0,45.0,45.0,45.0,1.0,bridge_172.jpg,bridge_17.jpg,6.0,AC01SVLHOB6HN
346,0.0,right,right,1.0,4.106099999,0.0,46.0,46.0,46.0,1.0,golf_course_130.jpg,golf_course_87.jpg,7.0,AC01SVLHOB6HN
347,0.0,left,left,1.0,11.4138,0.0,47.0,47.0,47.0,1.0,bridge_146.jpg,bridge_27.jpg,7.0,AC01SVLHOB6HN
348,1.0,left,right,0.0,0.565,0.0,48.0,48.0,48.0,1.0,mountain_156.jpg,mountain_295.jpg,7.0,AC01SVLHOB6HN
349,1.0,left,left,1.0,1.6717,0.0,49.0,49.0,49.0,1.0,mountain_293.jpg,mountain_47.jpg,7.0,AC01SVLHOB6HN
350,0.0,right,right,1.0,1.8485,0.0,50.0,50.0,50.0,1.0,mountain_157.jpg,mountain_110.jpg,7.0,AC01SVLHOB6HN
351,1.0,left,right,0.0,6.090599999,0.0,51.0,51.0,51.0,1.0,badlands_113.jpg,badlands_203.jpg,7.0,AC01SVLHOB6HN
352,1.0,left,left,1.0,1.976900001,0.0,52.0,52.0,52.0,1.0,playground_219.jpg,playground_205.jpg,6.0,AC01SVLHOB6HN
353,0.0,right,left,0.0,3.6515,0.0,53.0,53.0,53.0,1.0,badlands_228.jpg,badlands_184.jpg,7.0,AC01SVLHOB6HN
354,0.0,left,right,0.0,5.1362,0.0,54.0,54.0,54.0,1.0,playground_257.jpg,playground_214.jpg,7.0,AC01SVLHOB6HN
355,0.0,left,left,1.0,2.4893,0.0,55.0,55.0,55.0,1.0,bridge_65.jpg,bridge_181.jpg,7.0,AC01SVLHOB6HN
356,1.0,right,right,1.0,3.1507,0.0,56.0,56.0,56.0,1.0,highway_171.jpg,highway_273.jpg,7.0,AC01SVLHOB6HN
357,1.0,right,left,0.0,5.745900001,0.0,57.0,57.0,57.0,1.0,highway_368.jpg,highway_294.jpg,7.0,AC01SVLHOB6HN
358,0.0,right,right,1.0,0.527099999,0.0,58.0,58.0,58.0,1.0,bridge_116.jpg,bridge_108.jpg,7.0,AC01SVLHOB6HN
359,1.0,left,left,1.0,8.058,0.0,59.0,59.0,59.0,1.0,highway_359.jpg,highway_379.jpg,7.0,AC01SVLHOB6HN
360,0.0,right,left,0.0,4.1396,0.0,0.0,0.0,0.0,1.0,golf_course_25.jpg,golf_course_195.jpg,5.0,AW07POT8ABE05
361,0.0,right,right,1.0,3.3192,0.0,1.0,1.0,1.0,1.0,mountain_94.jpg,mountain_123.jpg,6.0,AW07POT8ABE05
362,0.0,right,right,1.0,2.5876,0.0,2.0,2.0,2.0,1.0,highway_204.jpg,highway_394.jpg,8.0,AW07POT8ABE05
363,1.0,left,left,1.0,1.8027,0.0,3.0,3.0,3.0,1.0,badlands_184.jpg,badlands_103.jpg,4.0,AW07POT8ABE05
364,0.0,left,left,1.0,1.5387,0.0,4.0,4.0,4.0,1.0,highway_359.jpg,highway_389.jpg,5.0,AW07POT8ABE05
365,1.0,right,right,1.0,2.443,0.0,5.0,5.0,5.0,1.0,bridge_82.jpg,bridge_91.jpg,7.0,AW07POT8ABE05
366,0.0,left,left,1.0,2.259,0.0,6.0,6.0,6.0,1.0,badlands_24.jpg,badlands_3.jpg,5.0,AW07POT8ABE05
367,0.0,right,right,1.0,1.766,0.0,7.0,7.0,7.0,1.0,playground_122.jpg,playground_10.jpg,8.0,AW07POT8ABE05
368,1.0,left,left,1.0,1.6419,0.0,8.0,8.0,8.0,1.0,badlands_52.jpg,badlands_63.jpg,4.0,AW07POT8ABE05
369,1.0,right,left,0.0,3.3729,0.0,9.0,9.0,9.0,1.0,badlands_207.jpg,badlands_221.jpg,5.0,AW07POT8ABE05
370,0.0,right,right,1.0,1.4134,0.0,10.0,10.0,10.0,1.0,badlands_102.jpg,badlands_70.jpg,6.0,AW07POT8ABE05
371,0.0,right,right,1.0,2.599,0.0,11.0,11.0,11.0,1.0,playground_229.jpg,playground_145.jpg,5.0,AW07POT8ABE05
372,1.0,right,right,1.0,1.4117,0.0,12.0,12.0,12.0,1.0,mountain_138.jpg,mountain_57.jpg,7.0,AW07POT8ABE05
373,1.0,left,left,1.0,2.1074,0.0,13.0,13.0,13.0,1.0,bridge_128.jpg,bridge_244.jpg,5.0,AW07POT8ABE05
374,1.0,right,left,0.0,1.6527,0.0,14.0,14.0,14.0,1.0,badlands_62.jpg,badlands_222.jpg,6.0,AW07POT8ABE05
375,0.0,right,right,1.0,1.6088,0.0,15.0,15.0,15.0,1.0,highway_203.jpg,highway_294.jpg,7.0,AW07POT8ABE05
376,1.0,left,left,1.0,2.0803,0.0,16.0,16.0,16.0,1.0,playground_131.jpg,playground_164.jpg,4.0,AW07POT8ABE05
377,1.0,right,right,1.0,1.8435,0.0,17.0,17.0,17.0,1.0,golf_course_161.jpg,golf_course_87.jpg,6.0,AW07POT8ABE05
378,1.0,right,right,1.0,1.6037,0.0,18.0,18.0,18.0,1.0,golf_course_160.jpg,golf_course_188.jpg,5.0,AW07POT8ABE05
379,0.0,right,right,1.0,1.3363,0.0,19.0,19.0,19.0,1.0,badlands_225.jpg,badlands_113.jpg,7.0,AW07POT8ABE05
380,0.0,right,right,1.0,1.8194,0.0,20.0,20.0,20.0,1.0,bridge_27.jpg,bridge_146.jpg,5.0,AW07POT8ABE05
381,1.0,left,right,0.0,1.7064,0.0,21.0,21.0,21.0,1.0,highway_273.jpg,highway_171.jpg,7.0,AW07POT8ABE05
382,0.0,left,right,0.0,1.5731,0.0,22.0,22.0,22.0,1.0,mountain_293.jpg,mountain_72.jpg,4.0,AW07POT8ABE05
383,1.0,left,left,1.0,1.8332,0.0,23.0,23.0,23.0,1.0,playground_240.jpg,playground_40.jpg,5.0,AW07POT8ABE05
384,0.0,right,left,0.0,1.9861,0.0,24.0,24.0,24.0,1.0,mountain_128.jpg,mountain_156.jpg,7.0,AW07POT8ABE05
385,0.0,right,left,0.0,1.9215,0.0,25.0,25.0,25.0,1.0,bridge_54.jpg,bridge_256.jpg,6.0,AW07POT8ABE05
386,0.0,left,left,1.0,1.758,0.0,26.0,26.0,26.0,1.0,playground_219.jpg,playground_21.jpg,7.0,AW07POT8ABE05
387,0.0,left,right,0.0,2.4955,0.0,27.0,27.0,27.0,1.0,bridge_202.jpg,bridge_31.jpg,6.0,AW07POT8ABE05
388,1.0,left,right,0.0,1.6344,0.0,28.0,28.0,28.0,1.0,highway_93.jpg,highway_369.jpg,6.0,AW07POT8ABE05
389,0.0,left,right,0.0,1.2613,0.0,29.0,29.0,29.0,1.0,highway_156.jpg,highway_160.jpg,7.0,AW07POT8ABE05
390,0.0,left,left,1.0,1.4742,0.0,30.0,30.0,30.0,1.0,mountain_154.jpg,mountain_131.jpg,6.0,AW07POT8ABE05
391,0.0,right,right,1.0,1.8682,0.0,31.0,31.0,31.0,1.0,bridge_184.jpg,bridge_191.jpg,6.0,AW07POT8ABE05
392,1.0,left,right,0.0,1.8397,0.0,32.0,32.0,32.0,1.0,playground_60.jpg,playground_244.jpg,6.0,AW07POT8ABE05
393,1.0,left,left,1.0,1.6944,0.0,33.0,33.0,33.0,1.0,golf_course_193.jpg,golf_course_123.jpg,4.0,AW07POT8ABE05
394,1.0,left,left,1.0,1.3494,0.0,34.0,34.0,34.0,1.0,bridge_250.jpg,bridge_205.jpg,5.0,AW07POT8ABE05
395,0.0,left,left,1.0,1.4381,0.0,35.0,35.0,35.0,1.0,badlands_137.jpg,badlands_194.jpg,6.0,AW07POT8ABE05
396,1.0,right,right,1.0,1.3476,0.0,36.0,36.0,36.0,1.0,highway_278.jpg,highway_177.jpg,8.0,AW07POT8ABE05
397,0.0,left,left,1.0,2.6742,0.0,37.0,37.0,37.0,1.0,highway_245.jpg,highway_134.jpg,2.0,AW07POT8ABE05
398,1.0,left,left,1.0,2.9122,0.0,38.0,38.0,38.0,1.0,golf_course_214.jpg,golf_course_317.jpg,5.0,AW07POT8ABE05
399,0.0,right,left,0.0,2.1788,0.0,39.0,39.0,39.0,1.0,golf_course_113.jpg,golf_course_15.jpg,5.0,AW07POT8ABE05
400,1.0,left,right,0.0,1.8155,0.0,40.0,40.0,40.0,1.0,playground_76.jpg,playground_72.jpg,3.0,AW07POT8ABE05
401,0.0,left,left,1.0,1.5999,0.0,41.0,41.0,41.0,1.0,playground_257.jpg,playground_214.jpg,5.0,AW07POT8ABE05
402,1.0,right,right,1.0,2.3535,0.0,42.0,42.0,42.0,1.0,mountain_221.jpg,mountain_101.jpg,6.0,AW07POT8ABE05
403,0.0,left,right,0.0,1.2264,0.0,43.0,43.0,43.0,1.0,badlands_21.jpg,badlands_1.jpg,5.0,AW07POT8ABE05
404,1.0,right,right,1.0,1.4251,0.0,44.0,44.0,44.0,1.0,badlands_101.jpg,badlands_23.jpg,5.0,AW07POT8ABE05
405,1.0,right,left,0.0,1.4008,0.0,45.0,45.0,45.0,1.0,golf_course_101.jpg,golf_course_78.jpg,4.0,AW07POT8ABE05
406,0.0,right,right,1.0,1.3619,0.0,46.0,46.0,46.0,1.0,golf_course_16.jpg,golf_course_309.jpg,6.0,AW07POT8ABE05
407,1.0,right,right,1.0,1.3725,0.0,47.0,47.0,47.0,1.0,mountain_54.jpg,mountain_232.jpg,7.0,AW07POT8ABE05
408,1.0,right,right,1.0,1.842,0.0,48.0,48.0,48.0,1.0,bridge_148.jpg,bridge_108.jpg,8.0,AW07POT8ABE05
409,0.0,right,right,1.0,3.1192,0.0,49.0,49.0,49.0,1.0,golf_course_114.jpg,golf_course_331.jpg,7.0,AW07POT8ABE05
410,1.0,left,right,0.0,1.2457,0.0,50.0,50.0,50.0,1.0,mountain_230.jpg,mountain_97.jpg,5.0,AW07POT8ABE05
411,1.0,left,left,1.0,1.6731,0.0,51.0,51.0,51.0,1.0,playground_144.jpg,playground_65.jpg,5.0,AW07POT8ABE05
412,0.0,right,right,1.0,2.2129,0.0,52.0,52.0,52.0,1.0,bridge_181.jpg,bridge_65.jpg,6.0,AW07POT8ABE05
413,0.0,right,right,1.0,1.4045,0.0,53.0,53.0,53.0,1.0,mountain_244.jpg,mountain_222.jpg,6.0,AW07POT8ABE05
414,1.0,left,right,0.0,1.5744,0.0,54.0,54.0,54.0,1.0,highway_415.jpg,highway_174.jpg,5.0,AW07POT8ABE05
415,1.0,left,left,1.0,1.4133,0.0,55.0,55.0,55.0,1.0,bridge_172.jpg,bridge_163.jpg,6.0,AW07POT8ABE05
416,1.0,left,right,0.0,1.8118,0.0,56.0,56.0,56.0,1.0,mountain_110.jpg,mountain_223.jpg,6.0,AW07POT8ABE05
417,0.0,left,right,0.0,1.3191,0.0,57.0,57.0,57.0,1.0,golf_course_217.jpg,golf_course_35.jpg,6.0,AW07POT8ABE05
418,1.0,left,left,1.0,1.3227,0.0,58.0,58.0,58.0,1.0,highway_209.jpg,highway_122.jpg,7.0,AW07POT8ABE05
419,0.0,left,right,0.0,2.4037,0.0,59.0,59.0,59.0,1.0,playground_117.jpg,playground_167.jpg,5.0,AW07POT8ABE05
420,0.0,right,right,1.0,1.3829,0.0,0.0,0.0,0.0,1.0,playground_229.jpg,playground_145.jpg,2.0,A1VJ4ZOXP9PUCP
421,0.0,right,right,1.0,2.9137,0.0,1.0,1.0,1.0,1.0,bridge_184.jpg,bridge_191.jpg,1.0,A1VJ4ZOXP9PUCP
422,0.0,left,left,1.0,1.5503,0.0,2.0,2.0,2.0,1.0,playground_117.jpg,playground_167.jpg,3.0,A1VJ4ZOXP9PUCP
423,1.0,left,right,0.0,3.0534,0.0,3.0,3.0,3.0,1.0,bridge_250.jpg,bridge_205.jpg,5.0,A1VJ4ZOXP9PUCP
424,0.0,right,left,0.0,2.4707,0.0,4.0,4.0,4.0,1.0,playground_214.jpg,playground_257.jpg,4.0,A1VJ4ZOXP9PUCP
425,1.0,right,right,1.0,3.7409,0.0,5.0,5.0,5.0,1.0,mountain_97.jpg,mountain_230.jpg,5.0,A1VJ4ZOXP9PUCP
426,1.0,left,left,1.0,4.244,0.0,6.0,6.0,6.0,1.0,playground_144.jpg,playground_65.jpg,4.0,A1VJ4ZOXP9PUCP
427,1.0,right,right,1.0,1.0967,0.0,7.0,7.0,7.0,1.0,golf_course_97.jpg,golf_course_15.jpg,7.0,A1VJ4ZOXP9PUCP
428,0.0,left,left,1.0,1.9632,0.0,8.0,8.0,8.0,1.0,golf_course_331.jpg,golf_course_114.jpg,2.0,A1VJ4ZOXP9PUCP
429,1.0,right,left,0.0,2.0782,0.0,9.0,9.0,9.0,1.0,playground_244.jpg,playground_60.jpg,4.0,A1VJ4ZOXP9PUCP
430,0.0,left,left,1.0,1.9828,0.0,10.0,10.0,10.0,1.0,playground_76.jpg,playground_22.jpg,5.0,A1VJ4ZOXP9PUCP
431,0.0,left,left,1.0,1.5335,0.0,11.0,11.0,11.0,1.0,mountain_232.jpg,mountain_3.jpg,2.0,A1VJ4ZOXP9PUCP
432,0.0,right,right,1.0,1.5879,0.0,12.0,12.0,12.0,1.0,highway_85.jpg,highway_93.jpg,3.0,A1VJ4ZOXP9PUCP
433,0.0,left,left,1.0,1.3654,0.0,13.0,13.0,13.0,1.0,golf_course_78.jpg,golf_course_134.jpg,5.0,A1VJ4ZOXP9PUCP
434,1.0,right,right,1.0,1.423,0.0,14.0,14.0,14.0,1.0,highway_406.jpg,highway_394.jpg,6.0,A1VJ4ZOXP9PUCP
435,0.0,left,left,1.0,2.8928,0.0,15.0,15.0,15.0,1.0,mountain_156.jpg,mountain_128.jpg,4.0,A1VJ4ZOXP9PUCP
436,1.0,right,right,1.0,1.8474,0.0,16.0,16.0,16.0,1.0,golf_course_209.jpg,golf_course_309.jpg,3.0,A1VJ4ZOXP9PUCP
437,1.0,left,left,1.0,3.2976,0.0,17.0,17.0,17.0,1.0,golf_course_214.jpg,golf_course_317.jpg,5.0,A1VJ4ZOXP9PUCP
438,1.0,right,left,0.0,3.9914,0.0,18.0,18.0,18.0,1.0,playground_12.jpg,playground_10.jpg,5.0,A1VJ4ZOXP9PUCP
439,1.0,right,right,1.0,0.9742,0.0,19.0,19.0,19.0,1.0,highway_122.jpg,highway_209.jpg,8.0,A1VJ4ZOXP9PUCP
440,1.0,right,left,0.0,2.6173,0.0,20.0,20.0,20.0,1.0,mountain_47.jpg,mountain_293.jpg,5.0,A1VJ4ZOXP9PUCP
441,0.0,right,right,1.0,1.3435,0.0,21.0,21.0,21.0,1.0,highway_87.jpg,highway_177.jpg,3.0,A1VJ4ZOXP9PUCP
442,1.0,right,right,1.0,1.0004,0.0,22.0,22.0,22.0,1.0,playground_164.jpg,playground_131.jpg,6.0,A1VJ4ZOXP9PUCP
443,1.0,right,right,1.0,3.2259,0.0,23.0,23.0,23.0,1.0,highway_379.jpg,highway_359.jpg,7.0,A1VJ4ZOXP9PUCP
444,1.0,right,left,0.0,1.4676,0.0,24.0,24.0,24.0,1.0,mountain_189.jpg,mountain_123.jpg,8.0,A1VJ4ZOXP9PUCP
445,0.0,left,left,1.0,1.6592,0.0,25.0,25.0,25.0,1.0,golf_course_87.jpg,golf_course_130.jpg,7.0,A1VJ4ZOXP9PUCP
446,1.0,left,left,1.0,1.2794,0.0,26.0,26.0,26.0,1.0,bridge_146.jpg,bridge_121.jpg,6.0,A1VJ4ZOXP9PUCP
447,0.0,left,right,0.0,1.0737,0.0,27.0,27.0,27.0,1.0,bridge_108.jpg,bridge_116.jpg,4.0,A1VJ4ZOXP9PUCP
448,0.0,right,right,1.0,2.3371,0.0,28.0,28.0,28.0,1.0,bridge_253.jpg,bridge_91.jpg,2.0,A1VJ4ZOXP9PUCP
449,1.0,right,left,0.0,1.5634,0.0,29.0,29.0,29.0,1.0,bridge_211.jpg,bridge_256.jpg,6.0,A1VJ4ZOXP9PUCP
450,0.0,right,right,1.0,1.8106,0.0,30.0,30.0,30.0,1.0,highway_160.jpg,highway_156.jpg,5.0,A1VJ4ZOXP9PUCP
451,0.0,right,right,1.0,2.1552,0.0,31.0,31.0,31.0,1.0,mountain_131.jpg,mountain_154.jpg,5.0,A1VJ4ZOXP9PUCP
452,0.0,left,right,0.0,1.4436,0.0,32.0,32.0,32.0,1.0,golf_course_195.jpg,golf_course_25.jpg,3.0,A1VJ4ZOXP9PUCP
453,0.0,right,left,0.0,3.6759,0.0,33.0,33.0,33.0,1.0,badlands_225.jpg,badlands_113.jpg,7.0,A1VJ4ZOXP9PUCP
454,0.0,left,left,1.0,2.4263,0.0,34.0,34.0,34.0,1.0,bridge_202.jpg,bridge_31.jpg,2.0,A1VJ4ZOXP9PUCP
455,0.0,left,left,1.0,1.1985,0.0,35.0,35.0,35.0,1.0,golf_course_188.jpg,golf_course_157.jpg,3.0,A1VJ4ZOXP9PUCP
456,1.0,left,left,1.0,1.6947,0.0,36.0,36.0,36.0,1.0,badlands_184.jpg,badlands_103.jpg,7.0,A1VJ4ZOXP9PUCP
457,1.0,right,left,0.0,3.2537,0.0,37.0,37.0,37.0,1.0,mountain_93.jpg,mountain_222.jpg,5.0,A1VJ4ZOXP9PUCP
458,1.0,right,right,1.0,1.1871,0.0,38.0,38.0,38.0,1.0,mountain_223.jpg,mountain_110.jpg,6.0,A1VJ4ZOXP9PUCP
459,0.0,right,left,0.0,2.0769,0.0,39.0,39.0,39.0,1.0,playground_2.jpg,playground_240.jpg,5.0,A1VJ4ZOXP9PUCP
460,0.0,right,left,0.0,1.1518,0.0,40.0,40.0,40.0,1.0,badlands_34.jpg,badlands_222.jpg,7.0,A1VJ4ZOXP9PUCP
461,1.0,left,left,1.0,1.5113,0.0,41.0,41.0,41.0,1.0,badlands_70.jpg,badlands_119.jpg,7.0,A1VJ4ZOXP9PUCP
462,1.0,right,right,1.0,3.7457,0.0,42.0,42.0,42.0,1.0,highway_368.jpg,highway_294.jpg,7.0,A1VJ4ZOXP9PUCP
463,0.0,left,left,1.0,1.5251,0.0,43.0,43.0,43.0,1.0,mountain_101.jpg,mountain_171.jpg,5.0,A1VJ4ZOXP9PUCP
464,0.0,right,left,0.0,1.3879,0.0,44.0,44.0,44.0,1.0,highway_384.jpg,highway_273.jpg,5.0,A1VJ4ZOXP9PUCP
465,1.0,left,right,0.0,2.0134,0.0,45.0,45.0,45.0,1.0,badlands_23.jpg,badlands_101.jpg,6.0,A1VJ4ZOXP9PUCP
466,0.0,left,left,1.0,1.3747,0.0,46.0,46.0,46.0,1.0,badlands_21.jpg,badlands_1.jpg,7.0,A1VJ4ZOXP9PUCP
467,0.0,right,right,1.0,2.8155,0.0,47.0,47.0,47.0,1.0,highway_134.jpg,highway_245.jpg,6.0,A1VJ4ZOXP9PUCP
468,1.0,left,left,1.0,1.6844,0.0,48.0,48.0,48.0,1.0,playground_219.jpg,playground_205.jpg,6.0,A1VJ4ZOXP9PUCP
469,0.0,left,left,1.0,2.0052,0.0,49.0,49.0,49.0,1.0,badlands_221.jpg,badlands_115.jpg,7.0,A1VJ4ZOXP9PUCP
470,1.0,right,left,0.0,1.6915,0.0,50.0,50.0,50.0,1.0,highway_174.jpg,highway_415.jpg,8.0,A1VJ4ZOXP9PUCP
471,1.0,left,right,0.0,2.3811,0.0,51.0,51.0,51.0,1.0,bridge_172.jpg,bridge_163.jpg,6.0,A1VJ4ZOXP9PUCP
472,1.0,right,right,1.0,2.5828,0.0,52.0,52.0,52.0,1.0,bridge_244.jpg,bridge_128.jpg,6.0,A1VJ4ZOXP9PUCP
473,0.0,right,right,1.0,1.4627,0.0,53.0,53.0,53.0,1.0,bridge_181.jpg,bridge_65.jpg,7.0,A1VJ4ZOXP9PUCP
474,1.0,right,left,0.0,1.9704,0.0,54.0,54.0,54.0,1.0,badlands_139.jpg,badlands_137.jpg,5.0,A1VJ4ZOXP9PUCP
475,1.0,left,right,0.0,2.4643,0.0,55.0,55.0,55.0,1.0,badlands_24.jpg,badlands_53.jpg,8.0,A1VJ4ZOXP9PUCP
476,1.0,right,right,1.0,1.0848,0.0,56.0,56.0,56.0,1.0,golf_course_123.jpg,golf_course_193.jpg,5.0,A1VJ4ZOXP9PUCP
477,0.0,right,right,1.0,0.7696,0.0,57.0,57.0,57.0,1.0,badlands_94.jpg,badlands_52.jpg,6.0,A1VJ4ZOXP9PUCP
478,1.0,right,right,1.0,1.9433,0.0,58.0,58.0,58.0,1.0,golf_course_262.jpg,golf_course_217.jpg,6.0,A1VJ4ZOXP9PUCP
479,0.0,left,left,1.0,1.9177,0.0,59.0,59.0,59.0,1.0,mountain_57.jpg,mountain_193.jpg,5.0,A1VJ4ZOXP9PUCP
480,1.0,left,left,1.0,5.2083,0.0,0.0,0.0,0.0,1.0,golf_course_195.jpg,golf_course_2.jpg,3.0,A2UWEAIX8UZXAQ
481,1.0,left,left,1.0,3.0559,0.0,1.0,1.0,1.0,1.0,bridge_172.jpg,bridge_163.jpg,3.0,A2UWEAIX8UZXAQ
482,0.0,right,right,1.0,4.5051,0.0,2.0,2.0,2.0,1.0,bridge_253.jpg,bridge_91.jpg,2.0,A2UWEAIX8UZXAQ
483,0.0,right,right,1.0,4.2528,0.0,3.0,3.0,3.0,1.0,mountain_131.jpg,mountain_154.jpg,4.0,A2UWEAIX8UZXAQ
484,1.0,left,right,0.0,4.5359,0.0,4.0,4.0,4.0,1.0,mountain_123.jpg,mountain_189.jpg,5.0,A2UWEAIX8UZXAQ
485,1.0,right,right,1.0,2.1228,0.0,5.0,5.0,5.0,1.0,mountain_54.jpg,mountain_232.jpg,4.0,A2UWEAIX8UZXAQ
486,0.0,right,right,1.0,3.3145,0.0,6.0,6.0,6.0,1.0,badlands_34.jpg,badlands_222.jpg,4.0,A2UWEAIX8UZXAQ
487,0.0,right,right,1.0,1.8349,0.0,7.0,7.0,7.0,1.0,playground_43.jpg,playground_131.jpg,2.0,A2UWEAIX8UZXAQ
488,1.0,right,right,1.0,2.6631,0.0,8.0,8.0,8.0,1.0,bridge_148.jpg,bridge_108.jpg,3.0,A2UWEAIX8UZXAQ
489,0.0,right,right,1.0,3.1837,0.0,9.0,9.0,9.0,1.0,bridge_31.jpg,bridge_202.jpg,2.0,A2UWEAIX8UZXAQ
490,1.0,left,left,1.0,3.5846,0.0,10.0,10.0,10.0,1.0,mountain_222.jpg,mountain_93.jpg,2.0,A2UWEAIX8UZXAQ
491,1.0,right,right,1.0,6.7847,0.0,11.0,11.0,11.0,1.0,highway_278.jpg,highway_177.jpg,7.0,A2UWEAIX8UZXAQ
492,1.0,left,left,1.0,3.7995,0.0,12.0,12.0,12.0,1.0,playground_219.jpg,playground_205.jpg,5.0,A2UWEAIX8UZXAQ
493,0.0,left,left,1.0,3.0647,0.0,13.0,13.0,13.0,1.0,mountain_230.jpg,mountain_184.jpg,4.0,A2UWEAIX8UZXAQ
494,1.0,right,right,1.0,7.1929,0.0,14.0,14.0,14.0,1.0,playground_12.jpg,playground_10.jpg,7.0,A2UWEAIX8UZXAQ
495,1.0,right,right,1.0,4.5024,0.0,15.0,15.0,15.0,1.0,playground_65.jpg,playground_144.jpg,7.0,A2UWEAIX8UZXAQ
496,0.0,left,left,1.0,6.6277,0.0,16.0,16.0,16.0,1.0,badlands_137.jpg,badlands_194.jpg,7.0,A2UWEAIX8UZXAQ
497,1.0,right,right,1.0,7.2386,0.0,17.0,17.0,17.0,1.0,bridge_60.jpg,bridge_65.jpg,5.0,A2UWEAIX8UZXAQ
498,1.0,right,left,0.0,5.173,0.0,18.0,18.0,18.0,1.0,playground_127.jpg,playground_117.jpg,8.0,A2UWEAIX8UZXAQ
499,1.0,right,left,0.0,7.9696,0.0,19.0,19.0,19.0,1.0,badlands_203.jpg,badlands_113.jpg,9.0,A2UWEAIX8UZXAQ
500,0.0,right,right,1.0,4.2409,0.0,20.0,20.0,20.0,1.0,golf_course_157.jpg,golf_course_188.jpg,8.0,A2UWEAIX8UZXAQ
501,1.0,left,left,1.0,2.0056,0.0,21.0,21.0,21.0,1.0,golf_course_193.jpg,golf_course_123.jpg,5.0,A2UWEAIX8UZXAQ
502,0.0,right,right,1.0,3.6383,0.0,22.0,22.0,22.0,1.0,highway_60.jpg,highway_415.jpg,8.0,A2UWEAIX8UZXAQ
503,0.0,right,right,1.0,5.217,0.0,23.0,23.0,23.0,1.0,mountain_171.jpg,mountain_101.jpg,9.0,A2UWEAIX8UZXAQ
504,0.0,left,left,1.0,8.9131,0.0,24.0,24.0,24.0,1.0,mountain_293.jpg,mountain_72.jpg,9.0,A2UWEAIX8UZXAQ
505,1.0,left,left,1.0,5.6205,0.0,25.0,25.0,25.0,1.0,playground_145.jpg,playground_242.jpg,9.0,A2UWEAIX8UZXAQ
506,0.0,left,left,1.0,2.5384,0.0,26.0,26.0,26.0,1.0,golf_course_15.jpg,golf_course_113.jpg,8.0,A2UWEAIX8UZXAQ
507,0.0,right,right,1.0,3.604,0.0,27.0,27.0,27.0,1.0,golf_course_16.jpg,golf_course_309.jpg,8.0,A2UWEAIX8UZXAQ
508,1.0,right,right,1.0,3.1692,0.0,28.0,28.0,28.0,1.0,badlands_207.jpg,badlands_221.jpg,7.0,A2UWEAIX8UZXAQ
509,1.0,right,right,1.0,7.0695,0.0,29.0,29.0,29.0,1.0,highway_369.jpg,highway_93.jpg,9.0,A2UWEAIX8UZXAQ
510,0.0,left,left,1.0,2.6107,0.0,30.0,30.0,30.0,1.0,highway_359.jpg,highway_389.jpg,7.0,A2UWEAIX8UZXAQ
511,0.0,right,right,1.0,2.1261,0.0,31.0,31.0,31.0,1.0,highway_314.jpg,highway_209.jpg,7.0,A2UWEAIX8UZXAQ
512,0.0,left,left,1.0,2.9456,0.0,32.0,32.0,32.0,1.0,golf_course_78.jpg,golf_course_134.jpg,9.0,A2UWEAIX8UZXAQ
513,0.0,right,left,0.0,2.3483,0.0,33.0,33.0,33.0,1.0,bridge_134.jpg,bridge_250.jpg,8.0,A2UWEAIX8UZXAQ
514,1.0,right,right,1.0,3.5255,0.0,34.0,34.0,34.0,1.0,highway_206.jpg,highway_245.jpg,7.0,A2UWEAIX8UZXAQ
515,0.0,right,right,1.0,6.3694,0.0,35.0,35.0,35.0,1.0,bridge_27.jpg,bridge_146.jpg,7.0,A2UWEAIX8UZXAQ
516,1.0,right,right,1.0,2.1599,0.0,36.0,36.0,36.0,1.0,golf_course_262.jpg,golf_course_217.jpg,6.0,A2UWEAIX8UZXAQ
517,1.0,left,left,1.0,3.7368,0.0,37.0,37.0,37.0,1.0,golf_course_214.jpg,golf_course_317.jpg,9.0,A2UWEAIX8UZXAQ
518,1.0,left,left,1.0,2.5695,0.0,38.0,38.0,38.0,1.0,badlands_52.jpg,badlands_63.jpg,7.0,A2UWEAIX8UZXAQ
519,1.0,right,right,1.0,2.1048,0.0,39.0,39.0,39.0,1.0,bridge_244.jpg,bridge_128.jpg,6.0,A2UWEAIX8UZXAQ
520,1.0,left,left,1.0,2.8506,0.0,40.0,40.0,40.0,1.0,golf_course_87.jpg,golf_course_161.jpg,8.0,A2UWEAIX8UZXAQ
521,1.0,right,left,0.0,3.2017,0.0,41.0,41.0,41.0,1.0,badlands_53.jpg,badlands_24.jpg,9.0,A2UWEAIX8UZXAQ
522,0.0,right,right,1.0,3.1024,0.0,42.0,42.0,42.0,1.0,playground_2.jpg,playground_240.jpg,8.0,A2UWEAIX8UZXAQ
523,0.0,right,right,1.0,1.4844,0.0,43.0,43.0,43.0,1.0,bridge_54.jpg,bridge_256.jpg,7.0,A2UWEAIX8UZXAQ
524,0.0,left,left,1.0,4.0365,0.0,44.0,44.0,44.0,1.0,highway_394.jpg,highway_204.jpg,7.0,A2UWEAIX8UZXAQ
525,0.0,left,left,1.0,2.1071,0.0,45.0,45.0,45.0,1.0,golf_course_331.jpg,golf_course_114.jpg,5.0,A2UWEAIX8UZXAQ
526,1.0,right,right,1.0,4.0708,0.0,46.0,46.0,46.0,1.0,mountain_223.jpg,mountain_110.jpg,8.0,A2UWEAIX8UZXAQ
527,0.0,right,right,1.0,7.8425,0.0,47.0,47.0,47.0,1.0,playground_22.jpg,playground_76.jpg,9.0,A2UWEAIX8UZXAQ
528,1.0,right,right,1.0,1.9883,0.0,48.0,48.0,48.0,1.0,badlands_119.jpg,badlands_70.jpg,7.0,A2UWEAIX8UZXAQ
529,1.0,left,right,0.0,4.2405,0.0,49.0,49.0,49.0,1.0,highway_294.jpg,highway_368.jpg,9.0,A2UWEAIX8UZXAQ
530,0.0,left,left,1.0,1.9349,0.0,50.0,50.0,50.0,1.0,badlands_21.jpg,badlands_1.jpg,8.0,A2UWEAIX8UZXAQ
531,0.0,left,right,0.0,2.5021,0.0,51.0,51.0,51.0,1.0,badlands_23.jpg,badlands_114.jpg,8.0,A2UWEAIX8UZXAQ
532,0.0,right,right,1.0,2.452,0.0,52.0,52.0,52.0,1.0,playground_214.jpg,playground_257.jpg,8.0,A2UWEAIX8UZXAQ
533,0.0,right,right,1.0,2.2165,0.0,53.0,53.0,53.0,1.0,mountain_193.jpg,mountain_57.jpg,8.0,A2UWEAIX8UZXAQ
534,0.0,left,left,1.0,3.6431,0.0,54.0,54.0,54.0,1.0,badlands_184.jpg,badlands_228.jpg,9.0,A2UWEAIX8UZXAQ
535,1.0,right,right,1.0,3.9022,0.0,55.0,55.0,55.0,1.0,bridge_75.jpg,bridge_191.jpg,7.0,A2UWEAIX8UZXAQ
536,0.0,right,right,1.0,3.685,0.0,56.0,56.0,56.0,1.0,highway_384.jpg,highway_273.jpg,7.0,A2UWEAIX8UZXAQ
537,1.0,left,left,1.0,2.486,0.0,57.0,57.0,57.0,1.0,mountain_156.jpg,mountain_295.jpg,7.0,A2UWEAIX8UZXAQ
538,0.0,right,right,1.0,5.0023,0.0,58.0,58.0,58.0,1.0,playground_268.jpg,playground_60.jpg,7.0,A2UWEAIX8UZXAQ
539,1.0,right,right,1.0,6.5063,0.0,59.0,59.0,59.0,1.0,highway_293.jpg,highway_156.jpg,9.0,A2UWEAIX8UZXAQ
540,1.0,right,right,1.0,3.343,0.0,0.0,0.0,0.0,1.0,bridge_244.jpg,bridge_128.jpg,8.0,A32X8WXMIV4KE8
541,1.0,left,right,0.0,2.879,0.0,1.0,1.0,1.0,1.0,highway_245.jpg,highway_206.jpg,7.0,A32X8WXMIV4KE8
542,0.0,right,right,1.0,5.35,0.0,2.0,2.0,2.0,1.0,mountain_184.jpg,mountain_230.jpg,2.0,A32X8WXMIV4KE8
543,1.0,right,left,0.0,4.101,0.0,3.0,3.0,3.0,1.0,badlands_119.jpg,badlands_70.jpg,6.0,A32X8WXMIV4KE8
544,0.0,right,right,1.0,3.272,0.0,4.0,4.0,4.0,1.0,golf_course_130.jpg,golf_course_87.jpg,7.0,A32X8WXMIV4KE8
545,0.0,right,left,0.0,4.782,0.0,5.0,5.0,5.0,1.0,playground_229.jpg,playground_145.jpg,5.0,A32X8WXMIV4KE8
546,1.0,right,right,1.0,3.276,0.0,6.0,6.0,6.0,1.0,golf_course_209.jpg,golf_course_309.jpg,7.0,A32X8WXMIV4KE8
547,0.0,left,right,0.0,4.134,0.0,7.0,7.0,7.0,1.0,badlands_21.jpg,badlands_1.jpg,9.0,A32X8WXMIV4KE8
548,0.0,left,right,0.0,8.496,0.0,8.0,8.0,8.0,1.0,golf_course_217.jpg,golf_course_35.jpg,6.0,A32X8WXMIV4KE8
549,1.0,left,left,1.0,4.391,0.0,9.0,9.0,9.0,1.0,bridge_256.jpg,bridge_211.jpg,5.0,A32X8WXMIV4KE8
550,0.0,left,left,1.0,2.822,0.0,10.0,10.0,10.0,1.0,mountain_101.jpg,mountain_171.jpg,3.0,A32X8WXMIV4KE8
551,0.0,left,left,1.0,2.733,0.0,11.0,11.0,11.0,1.0,playground_144.jpg,playground_137.jpg,8.0,A32X8WXMIV4KE8
552,1.0,right,left,0.0,4.748,0.0,12.0,12.0,12.0,1.0,bridge_148.jpg,bridge_108.jpg,6.0,A32X8WXMIV4KE8
553,0.0,left,left,1.0,4.253,0.0,13.0,13.0,13.0,1.0,mountain_156.jpg,mountain_128.jpg,8.0,A32X8WXMIV4KE8
554,1.0,left,left,1.0,5.428,0.0,14.0,14.0,14.0,1.0,highway_415.jpg,highway_174.jpg,8.0,A32X8WXMIV4KE8
555,1.0,left,right,0.0,4.424,0.0,15.0,15.0,15.0,1.0,mountain_154.jpg,mountain_95.jpg,8.0,A32X8WXMIV4KE8
556,1.0,left,right,0.0,4.23,0.0,16.0,16.0,16.0,1.0,mountain_57.jpg,mountain_138.jpg,3.0,A32X8WXMIV4KE8
557,1.0,right,left,0.0,3.098,0.0,17.0,17.0,17.0,1.0,golf_course_2.jpg,golf_course_195.jpg,5.0,A32X8WXMIV4KE8
558,1.0,right,right,1.0,5.927,0.0,18.0,18.0,18.0,1.0,golf_course_317.jpg,golf_course_214.jpg,8.0,A32X8WXMIV4KE8
559,1.0,right,right,1.0,5.169,0.0,19.0,19.0,19.0,1.0,highway_122.jpg,highway_209.jpg,7.0,A32X8WXMIV4KE8
560,0.0,right,right,1.0,2.247,0.0,20.0,20.0,20.0,1.0,badlands_3.jpg,badlands_24.jpg,8.0,A32X8WXMIV4KE8
561,1.0,right,right,1.0,4.262,0.0,21.0,21.0,21.0,1.0,mountain_93.jpg,mountain_222.jpg,6.0,A32X8WXMIV4KE8
562,0.0,right,right,1.0,2.754,0.0,22.0,22.0,22.0,1.0,playground_2.jpg,playground_240.jpg,8.0,A32X8WXMIV4KE8
563,0.0,right,right,1.0,2.37,0.0,23.0,23.0,23.0,1.0,highway_204.jpg,highway_394.jpg,8.0,A32X8WXMIV4KE8
564,1.0,left,right,0.0,4.739,0.0,24.0,24.0,24.0,1.0,playground_219.jpg,playground_205.jpg,4.0,A32X8WXMIV4KE8
565,0.0,right,left,0.0,2.68,0.0,25.0,25.0,25.0,1.0,badlands_194.jpg,badlands_137.jpg,6.0,A32X8WXMIV4KE8
566,0.0,right,right,1.0,3.529,0.0,26.0,26.0,26.0,1.0,playground_43.jpg,playground_131.jpg,7.0,A32X8WXMIV4KE8
567,0.0,left,left,1.0,5.282,0.0,27.0,27.0,27.0,1.0,badlands_222.jpg,badlands_34.jpg,5.0,A32X8WXMIV4KE8
568,1.0,left,left,1.0,5.684,0.0,28.0,28.0,28.0,1.0,mountain_110.jpg,mountain_223.jpg,6.0,A32X8WXMIV4KE8
569,1.0,right,right,1.0,3.71,0.0,29.0,29.0,29.0,1.0,badlands_63.jpg,badlands_52.jpg,7.0,A32X8WXMIV4KE8
570,1.0,left,left,1.0,4.021,0.0,30.0,30.0,30.0,1.0,highway_177.jpg,highway_278.jpg,2.0,A32X8WXMIV4KE8
571,1.0,left,right,0.0,2.538,0.0,31.0,31.0,31.0,1.0,playground_60.jpg,playground_244.jpg,7.0,A32X8WXMIV4KE8
572,1.0,right,right,1.0,3.749,0.0,32.0,32.0,32.0,1.0,playground_72.jpg,playground_76.jpg,6.0,A32X8WXMIV4KE8
573,0.0,right,left,0.0,3.157,0.0,33.0,33.0,33.0,1.0,badlands_228.jpg,badlands_184.jpg,6.0,A32X8WXMIV4KE8
574,0.0,left,left,1.0,4.563,0.0,34.0,34.0,34.0,1.0,bridge_202.jpg,bridge_31.jpg,7.0,A32X8WXMIV4KE8
575,0.0,right,right,1.0,3.552,0.0,35.0,35.0,35.0,1.0,bridge_27.jpg,bridge_146.jpg,8.0,A32X8WXMIV4KE8
576,0.0,right,right,1.0,3.534,0.0,36.0,36.0,36.0,1.0,bridge_181.jpg,bridge_65.jpg,5.0,A32X8WXMIV4KE8
577,1.0,left,right,0.0,3.173,0.0,37.0,37.0,37.0,1.0,mountain_123.jpg,mountain_189.jpg,6.0,A32X8WXMIV4KE8
578,0.0,left,left,1.0,6.901,0.0,38.0,38.0,38.0,1.0,highway_273.jpg,highway_384.jpg,4.0,A32X8WXMIV4KE8
579,1.0,right,right,1.0,4.277,0.0,39.0,39.0,39.0,1.0,playground_215.jpg,playground_257.jpg,4.0,A32X8WXMIV4KE8
580,0.0,left,left,1.0,2.633,0.0,40.0,40.0,40.0,1.0,mountain_293.jpg,mountain_72.jpg,5.0,A32X8WXMIV4KE8
581,1.0,left,left,1.0,2.687,0.0,41.0,41.0,41.0,1.0,bridge_172.jpg,bridge_163.jpg,7.0,A32X8WXMIV4KE8
582,1.0,right,right,1.0,2.385,0.0,42.0,42.0,42.0,1.0,bridge_205.jpg,bridge_250.jpg,7.0,A32X8WXMIV4KE8
583,0.0,right,right,1.0,2.1,0.0,43.0,43.0,43.0,1.0,mountain_3.jpg,mountain_232.jpg,7.0,A32X8WXMIV4KE8
584,0.0,left,left,1.0,4.635,0.0,44.0,44.0,44.0,1.0,bridge_91.jpg,bridge_253.jpg,8.0,A32X8WXMIV4KE8
585,0.0,right,left,0.0,3.954,0.0,45.0,45.0,45.0,1.0,golf_course_134.jpg,golf_course_78.jpg,6.0,A32X8WXMIV4KE8
586,0.0,left,left,1.0,4.005,0.0,46.0,46.0,46.0,1.0,highway_359.jpg,highway_389.jpg,7.0,A32X8WXMIV4KE8
587,1.0,right,right,1.0,7.931,0.0,47.0,47.0,47.0,1.0,highway_368.jpg,highway_294.jpg,4.0,A32X8WXMIV4KE8
588,1.0,left,right,0.0,5.143,0.0,48.0,48.0,48.0,1.0,golf_course_193.jpg,golf_course_123.jpg,5.0,A32X8WXMIV4KE8
589,1.0,right,right,1.0,3.777,0.0,49.0,49.0,49.0,1.0,badlands_207.jpg,badlands_221.jpg,3.0,A32X8WXMIV4KE8
590,0.0,left,left,1.0,2.454,0.0,50.0,50.0,50.0,1.0,bridge_191.jpg,bridge_184.jpg,8.0,A32X8WXMIV4KE8
591,1.0,right,right,1.0,3.11,0.0,51.0,51.0,51.0,1.0,playground_127.jpg,playground_117.jpg,8.0,A32X8WXMIV4KE8
592,0.0,left,right,0.0,3.65,0.0,52.0,52.0,52.0,1.0,highway_156.jpg,highway_160.jpg,7.0,A32X8WXMIV4KE8
593,0.0,right,right,1.0,2.527,0.0,53.0,53.0,53.0,1.0,highway_85.jpg,highway_93.jpg,8.0,A32X8WXMIV4KE8
594,1.0,right,right,1.0,3.958,0.0,54.0,54.0,54.0,1.0,golf_course_97.jpg,golf_course_15.jpg,6.0,A32X8WXMIV4KE8
595,0.0,left,right,0.0,5.851,0.0,55.0,55.0,55.0,1.0,playground_10.jpg,playground_122.jpg,7.0,A32X8WXMIV4KE8
596,1.0,left,left,1.0,4.541,0.0,56.0,56.0,56.0,1.0,badlands_113.jpg,badlands_203.jpg,7.0,A32X8WXMIV4KE8
597,1.0,right,right,1.0,5.088,0.0,57.0,57.0,57.0,1.0,badlands_101.jpg,badlands_23.jpg,3.0,A32X8WXMIV4KE8
598,0.0,right,right,1.0,4.543,0.0,58.0,58.0,58.0,1.0,golf_course_157.jpg,golf_course_188.jpg,6.0,A32X8WXMIV4KE8
599,0.0,right,right,1.0,3.04,0.0,59.0,59.0,59.0,1.0,golf_course_114.jpg,golf_course_331.jpg,7.0,A32X8WXMIV4KE8
600,1.0,left,left,1.0,15.1473,0.0,0.0,0.0,0.0,1.0,bridge_108.jpg,bridge_148.jpg,7.0,AJT7C07A187KA
601,0.0,right,right,1.0,4.2523,0.0,1.0,1.0,1.0,1.0,bridge_17.jpg,bridge_172.jpg,8.0,AJT7C07A187KA
602,1.0,left,left,1.0,1.4885,0.0,2.0,2.0,2.0,1.0,highway_209.jpg,highway_122.jpg,5.0,AJT7C07A187KA
603,0.0,right,right,1.0,5.2782,0.0,3.0,3.0,3.0,1.0,badlands_194.jpg,badlands_137.jpg,7.0,AJT7C07A187KA
604,0.0,right,right,1.0,1.9417,0.0,4.0,4.0,4.0,1.0,mountain_184.jpg,mountain_230.jpg,6.0,AJT7C07A187KA
605,0.0,right,right,1.0,7.7521,0.0,5.0,5.0,5.0,1.0,mountain_72.jpg,mountain_293.jpg,7.0,AJT7C07A187KA
606,0.0,right,right,1.0,4.9849,0.0,6.0,6.0,6.0,1.0,golf_course_157.jpg,golf_course_188.jpg,7.0,AJT7C07A187KA
607,1.0,right,left,0.0,2.5205,0.0,7.0,7.0,7.0,1.0,playground_205.jpg,playground_219.jpg,7.0,AJT7C07A187KA
608,0.0,right,right,1.0,2.725,0.0,8.0,8.0,8.0,1.0,playground_229.jpg,playground_145.jpg,7.0,AJT7C07A187KA
609,0.0,right,right,1.0,2.0976,0.0,9.0,9.0,9.0,1.0,golf_course_130.jpg,golf_course_87.jpg,7.0,AJT7C07A187KA
610,0.0,right,left,0.0,3.2027,0.0,10.0,10.0,10.0,1.0,highway_204.jpg,highway_394.jpg,6.0,AJT7C07A187KA
611,1.0,left,right,0.0,119.0282,0.0,11.0,11.0,11.0,1.0,golf_course_78.jpg,golf_course_101.jpg,8.0,AJT7C07A187KA
612,1.0,left,left,1.0,2.2746,0.0,12.0,12.0,12.0,1.0,bridge_91.jpg,bridge_82.jpg,6.0,AJT7C07A187KA
613,0.0,right,right,1.0,1.7301,0.0,13.0,13.0,13.0,1.0,bridge_54.jpg,bridge_256.jpg,7.0,AJT7C07A187KA
614,0.0,left,right,0.0,47.8067,0.0,14.0,14.0,14.0,1.0,playground_76.jpg,playground_22.jpg,7.0,AJT7C07A187KA
615,0.0,right,right,1.0,3.4754,0.0,15.0,15.0,15.0,1.0,highway_389.jpg,highway_359.jpg,7.0,AJT7C07A187KA
616,0.0,left,right,0.0,2.4476,0.0,16.0,16.0,16.0,1.0,playground_144.jpg,playground_137.jpg,7.0,AJT7C07A187KA
617,1.0,right,right,1.0,2.1836,0.0,17.0,17.0,17.0,1.0,playground_215.jpg,playground_257.jpg,7.0,AJT7C07A187KA
618,1.0,right,right,1.0,43.9187,0.0,18.0,18.0,18.0,1.0,highway_174.jpg,highway_415.jpg,7.0,AJT7C07A187KA
619,1.0,left,left,1.0,1.8102,0.0,19.0,19.0,19.0,1.0,badlands_23.jpg,badlands_101.jpg,7.0,AJT7C07A187KA
620,1.0,left,right,0.0,1.8096,0.0,20.0,20.0,20.0,1.0,playground_10.jpg,playground_12.jpg,8.0,AJT7C07A187KA
621,1.0,right,right,1.0,1.5217,0.0,21.0,21.0,21.0,1.0,golf_course_262.jpg,golf_course_217.jpg,7.0,AJT7C07A187KA
622,0.0,right,right,1.0,1.5384,0.0,22.0,22.0,22.0,1.0,playground_167.jpg,playground_117.jpg,6.0,AJT7C07A187KA
623,0.0,left,right,0.0,1.6903,0.0,23.0,23.0,23.0,1.0,mountain_101.jpg,mountain_171.jpg,7.0,AJT7C07A187KA
624,1.0,left,left,1.0,1.92,0.0,24.0,24.0,24.0,1.0,bridge_146.jpg,bridge_121.jpg,5.0,AJT7C07A187KA
625,1.0,left,right,0.0,2.8289,0.0,25.0,25.0,25.0,1.0,badlands_184.jpg,badlands_103.jpg,6.0,AJT7C07A187KA
626,1.0,left,right,0.0,3.9296,0.0,26.0,26.0,26.0,1.0,badlands_113.jpg,badlands_203.jpg,6.0,AJT7C07A187KA
627,1.0,left,left,1.0,2.2003,0.0,27.0,27.0,27.0,1.0,mountain_154.jpg,mountain_95.jpg,4.0,AJT7C07A187KA
628,0.0,left,left,1.0,1.5398,0.0,28.0,28.0,28.0,1.0,playground_60.jpg,playground_268.jpg,4.0,AJT7C07A187KA
629,1.0,right,left,0.0,13.2578,0.0,29.0,29.0,29.0,1.0,mountain_138.jpg,mountain_57.jpg,5.0,AJT7C07A187KA
630,1.0,left,left,1.0,2.8192,0.0,30.0,30.0,30.0,1.0,badlands_24.jpg,badlands_53.jpg,4.0,AJT7C07A187KA
631,1.0,right,right,1.0,6.808,0.0,31.0,31.0,31.0,1.0,mountain_223.jpg,mountain_110.jpg,5.0,AJT7C07A187KA
632,0.0,left,left,1.0,1.9067,0.0,32.0,32.0,32.0,1.0,badlands_70.jpg,badlands_102.jpg,5.0,AJT7C07A187KA
633,1.0,right,left,0.0,1.3137,0.0,33.0,33.0,33.0,1.0,badlands_63.jpg,badlands_52.jpg,3.0,AJT7C07A187KA
634,1.0,right,right,1.0,1.8784,0.0,34.0,34.0,34.0,1.0,bridge_244.jpg,bridge_128.jpg,5.0,AJT7C07A187KA
635,0.0,right,right,1.0,2.1556,0.0,35.0,35.0,35.0,1.0,mountain_3.jpg,mountain_232.jpg,6.0,AJT7C07A187KA
636,0.0,left,left,1.0,1.6102,0.0,36.0,36.0,36.0,1.0,badlands_222.jpg,badlands_34.jpg,6.0,AJT7C07A187KA
637,1.0,right,left,0.0,4.1183,0.0,37.0,37.0,37.0,1.0,playground_40.jpg,playground_240.jpg,6.0,AJT7C07A187KA
638,1.0,left,right,0.0,1.7783,0.0,38.0,38.0,38.0,1.0,bridge_191.jpg,bridge_75.jpg,6.0,AJT7C07A187KA
639,1.0,left,left,1.0,2.3346,0.0,39.0,39.0,39.0,1.0,golf_course_193.jpg,golf_course_123.jpg,4.0,AJT7C07A187KA
640,0.0,right,right,1.0,1.8448,0.0,40.0,40.0,40.0,1.0,golf_course_114.jpg,golf_course_331.jpg,5.0,AJT7C07A187KA
641,1.0,left,left,1.0,2.0031,0.0,41.0,41.0,41.0,1.0,highway_273.jpg,highway_171.jpg,5.0,AJT7C07A187KA
642,0.0,left,right,0.0,1.7306,0.0,42.0,42.0,42.0,1.0,bridge_250.jpg,bridge_134.jpg,6.0,AJT7C07A187KA
643,0.0,left,left,1.0,1.9145,0.0,43.0,43.0,43.0,1.0,highway_177.jpg,highway_87.jpg,6.0,AJT7C07A187KA
644,1.0,right,right,1.0,1.7594,0.0,44.0,44.0,44.0,1.0,playground_164.jpg,playground_131.jpg,7.0,AJT7C07A187KA
645,0.0,right,left,0.0,1.656,0.0,45.0,45.0,45.0,1.0,golf_course_25.jpg,golf_course_195.jpg,4.0,AJT7C07A187KA
646,0.0,left,right,0.0,17.6416,0.0,46.0,46.0,46.0,1.0,badlands_221.jpg,badlands_115.jpg,7.0,AJT7C07A187KA
647,1.0,left,left,1.0,5.0823,0.0,47.0,47.0,47.0,1.0,golf_course_309.jpg,golf_course_209.jpg,6.0,AJT7C07A187KA
648,0.0,left,right,0.0,9.5314,0.0,48.0,48.0,48.0,1.0,bridge_202.jpg,bridge_31.jpg,6.0,AJT7C07A187KA
649,0.0,left,right,0.0,8.6668,0.0,49.0,49.0,49.0,1.0,badlands_21.jpg,badlands_1.jpg,6.0,AJT7C07A187KA
650,0.0,left,right,0.0,25.3439,0.0,50.0,50.0,50.0,1.0,highway_93.jpg,highway_85.jpg,6.0,AJT7C07A187KA
651,1.0,right,right,1.0,91.2042,0.0,51.0,51.0,51.0,1.0,highway_206.jpg,highway_245.jpg,7.0,AJT7C07A187KA
652,1.0,right,left,0.0,1.889,0.0,52.0,52.0,52.0,1.0,mountain_93.jpg,mountain_222.jpg,7.0,AJT7C07A187KA
653,1.0,right,right,1.0,4.0929,0.0,53.0,53.0,53.0,1.0,mountain_295.jpg,mountain_156.jpg,7.0,AJT7C07A187KA
654,1.0,left,right,0.0,5.3988,0.0,54.0,54.0,54.0,1.0,golf_course_214.jpg,golf_course_317.jpg,7.0,AJT7C07A187KA
655,0.0,right,right,1.0,7.8482,0.0,55.0,55.0,55.0,1.0,highway_203.jpg,highway_294.jpg,7.0,AJT7C07A187KA
656,1.0,left,right,0.0,6.715,0.0,56.0,56.0,56.0,1.0,highway_156.jpg,highway_293.jpg,7.0,AJT7C07A187KA
657,0.0,left,right,0.0,290.485,0.0,57.0,57.0,57.0,1.0,bridge_65.jpg,bridge_181.jpg,7.0,AJT7C07A187KA
658,0.0,right,right,1.0,7.1903,0.0,58.0,58.0,58.0,1.0,mountain_94.jpg,mountain_123.jpg,7.0,AJT7C07A187KA
659,0.0,right,left,0.0,1.7737,0.0,59.0,59.0,59.0,1.0,golf_course_113.jpg,golf_course_15.jpg,5.0,AJT7C07A187KA
660,0.0,left,left,1.0,4.8902,0.0,0.0,0.0,0.0,1.0,playground_10.jpg,playground_122.jpg,7.0,A237PUN7791D62
661,0.0,right,right,1.0,5.6708,0.0,1.0,1.0,1.0,1.0,golf_course_157.jpg,golf_course_188.jpg,3.0,A237PUN7791D62
662,0.0,left,left,1.0,5.1568,0.0,2.0,2.0,2.0,1.0,highway_294.jpg,highway_203.jpg,8.0,A237PUN7791D62
663,1.0,right,right,1.0,3.6005,0.0,3.0,3.0,3.0,1.0,highway_379.jpg,highway_359.jpg,8.0,A237PUN7791D62
664,1.0,left,left,1.0,4.0812,0.0,4.0,4.0,4.0,1.0,playground_131.jpg,playground_164.jpg,7.0,A237PUN7791D62
665,0.0,right,right,1.0,3.4633,0.0,5.0,5.0,5.0,1.0,highway_85.jpg,highway_93.jpg,6.0,A237PUN7791D62
666,0.0,right,right,1.0,4.5719,0.0,6.0,6.0,6.0,1.0,golf_course_134.jpg,golf_course_78.jpg,8.0,A237PUN7791D62
667,1.0,left,right,0.0,5.0426,0.0,7.0,7.0,7.0,1.0,golf_course_15.jpg,golf_course_97.jpg,8.0,A237PUN7791D62
668,0.0,left,left,1.0,3.1808,0.0,8.0,8.0,8.0,1.0,mountain_230.jpg,mountain_184.jpg,7.0,A237PUN7791D62
669,0.0,right,right,1.0,6.0418,0.0,9.0,9.0,9.0,1.0,playground_229.jpg,playground_145.jpg,6.0,A237PUN7791D62
670,0.0,left,left,1.0,4.215,0.0,10.0,10.0,10.0,1.0,bridge_108.jpg,bridge_116.jpg,4.0,A237PUN7791D62
671,1.0,left,left,1.0,6.5774,0.0,11.0,11.0,11.0,1.0,highway_415.jpg,highway_174.jpg,8.0,A237PUN7791D62
672,0.0,right,right,1.0,2.6281,0.0,12.0,12.0,12.0,1.0,bridge_27.jpg,bridge_146.jpg,6.0,A237PUN7791D62
673,0.0,right,right,1.0,3.1419,0.0,13.0,13.0,13.0,1.0,highway_134.jpg,highway_245.jpg,6.0,A237PUN7791D62
674,1.0,right,right,1.0,2.6226,0.0,14.0,14.0,14.0,1.0,mountain_47.jpg,mountain_293.jpg,7.0,A237PUN7791D62
675,1.0,left,left,1.0,3.205,0.0,15.0,15.0,15.0,1.0,playground_240.jpg,playground_40.jpg,7.0,A237PUN7791D62
676,0.0,right,right,1.0,3.9584,0.0,16.0,16.0,16.0,1.0,playground_214.jpg,playground_257.jpg,6.0,A237PUN7791D62
677,1.0,left,left,1.0,5.9916,0.0,17.0,17.0,17.0,1.0,badlands_222.jpg,badlands_62.jpg,8.0,A237PUN7791D62
678,1.0,left,left,1.0,4.2812,0.0,18.0,18.0,18.0,1.0,bridge_202.jpg,bridge_38.jpg,4.0,A237PUN7791D62
679,0.0,right,right,1.0,3.0627,0.0,19.0,19.0,19.0,1.0,badlands_115.jpg,badlands_221.jpg,5.0,A237PUN7791D62
680,1.0,left,left,1.0,2.5714,0.0,20.0,20.0,20.0,1.0,badlands_70.jpg,badlands_119.jpg,4.0,A237PUN7791D62
681,0.0,left,right,0.0,3.0882,0.0,21.0,21.0,21.0,1.0,badlands_137.jpg,badlands_194.jpg,5.0,A237PUN7791D62
682,0.0,left,right,0.0,6.0981,0.0,22.0,22.0,22.0,1.0,playground_60.jpg,playground_268.jpg,6.0,A237PUN7791D62
683,0.0,right,left,0.0,5.4902,0.0,23.0,23.0,23.0,1.0,bridge_181.jpg,bridge_65.jpg,6.0,A237PUN7791D62
684,1.0,right,right,1.0,6.0749,0.0,24.0,24.0,24.0,1.0,highway_293.jpg,highway_156.jpg,8.0,A237PUN7791D62
685,0.0,left,right,0.0,5.0843,0.0,25.0,25.0,25.0,1.0,badlands_184.jpg,badlands_228.jpg,8.0,A237PUN7791D62
686,1.0,right,right,1.0,3.4782,0.0,26.0,26.0,26.0,1.0,badlands_63.jpg,badlands_52.jpg,5.0,A237PUN7791D62
687,1.0,right,right,1.0,6.0608,0.0,27.0,27.0,27.0,1.0,highway_278.jpg,highway_177.jpg,8.0,A237PUN7791D62
688,0.0,right,right,1.0,3.343,0.0,28.0,28.0,28.0,1.0,bridge_54.jpg,bridge_256.jpg,6.0,A237PUN7791D62
689,1.0,left,right,0.0,3.3361,0.0,29.0,29.0,29.0,1.0,bridge_91.jpg,bridge_82.jpg,6.0,A237PUN7791D62
690,0.0,left,left,1.0,3.1929,0.0,30.0,30.0,30.0,1.0,highway_394.jpg,highway_204.jpg,4.0,A237PUN7791D62
691,0.0,left,right,0.0,4.3413,0.0,31.0,31.0,31.0,1.0,golf_course_214.jpg,golf_course_312.jpg,7.0,A237PUN7791D62
692,1.0,right,right,1.0,3.6496,0.0,32.0,32.0,32.0,1.0,playground_127.jpg,playground_117.jpg,6.0,A237PUN7791D62
693,0.0,right,right,1.0,2.5402,0.0,33.0,33.0,33.0,1.0,bridge_61.jpg,bridge_128.jpg,1.0,A237PUN7791D62
694,0.0,left,left,1.0,3.3569,0.0,34.0,34.0,34.0,1.0,playground_144.jpg,playground_137.jpg,3.0,A237PUN7791D62
695,0.0,left,left,1.0,5.1287,0.0,35.0,35.0,35.0,1.0,highway_273.jpg,highway_384.jpg,6.0,A237PUN7791D62
696,0.0,right,right,1.0,3.4071,0.0,36.0,36.0,36.0,1.0,mountain_131.jpg,mountain_154.jpg,6.0,A237PUN7791D62
697,1.0,left,left,1.0,2.3799,0.0,37.0,37.0,37.0,1.0,mountain_57.jpg,mountain_138.jpg,3.0,A237PUN7791D62
698,1.0,left,right,0.0,3.4331,0.0,38.0,38.0,38.0,1.0,mountain_156.jpg,mountain_295.jpg,4.0,A237PUN7791D62
699,1.0,right,left,0.0,6.4603,0.0,39.0,39.0,39.0,1.0,highway_122.jpg,highway_209.jpg,8.0,A237PUN7791D62
700,1.0,left,left,1.0,2.2619,0.0,40.0,40.0,40.0,1.0,bridge_250.jpg,bridge_205.jpg,5.0,A237PUN7791D62
701,1.0,left,left,1.0,7.4429,0.0,41.0,41.0,41.0,1.0,golf_course_331.jpg,golf_course_26.jpg,6.0,A237PUN7791D62
702,0.0,left,left,1.0,3.1042,0.0,42.0,42.0,42.0,1.0,golf_course_87.jpg,golf_course_130.jpg,6.0,A237PUN7791D62
703,1.0,right,right,1.0,4.0575,0.0,43.0,43.0,43.0,1.0,playground_205.jpg,playground_219.jpg,7.0,A237PUN7791D62
704,0.0,left,left,1.0,2.6106,0.0,44.0,44.0,44.0,1.0,mountain_110.jpg,mountain_157.jpg,5.0,A237PUN7791D62
705,1.0,right,right,1.0,2.8578,0.0,45.0,45.0,45.0,1.0,badlands_101.jpg,badlands_23.jpg,4.0,A237PUN7791D62
706,1.0,left,left,1.0,4.0107,0.0,46.0,46.0,46.0,1.0,playground_76.jpg,playground_72.jpg,6.0,A237PUN7791D62
707,0.0,right,left,0.0,3.4719,0.0,47.0,47.0,47.0,1.0,mountain_171.jpg,mountain_101.jpg,3.0,A237PUN7791D62
708,1.0,right,right,1.0,2.9872,0.0,48.0,48.0,48.0,1.0,bridge_163.jpg,bridge_172.jpg,4.0,A237PUN7791D62
709,1.0,left,left,1.0,4.6121,0.0,49.0,49.0,49.0,1.0,mountain_232.jpg,mountain_54.jpg,6.0,A237PUN7791D62
710,0.0,left,right,0.0,6.1944,0.0,50.0,50.0,50.0,1.0,mountain_123.jpg,mountain_94.jpg,2.0,A237PUN7791D62
711,1.0,left,left,1.0,3.8181,0.0,51.0,51.0,51.0,1.0,bridge_191.jpg,bridge_75.jpg,5.0,A237PUN7791D62
712,1.0,right,right,1.0,3.3952,0.0,52.0,52.0,52.0,1.0,golf_course_123.jpg,golf_course_193.jpg,5.0,A237PUN7791D62
713,1.0,left,left,1.0,5.4637,0.0,53.0,53.0,53.0,1.0,golf_course_217.jpg,golf_course_262.jpg,6.0,A237PUN7791D62
714,1.0,left,right,0.0,4.1461,0.0,54.0,54.0,54.0,1.0,mountain_222.jpg,mountain_93.jpg,5.0,A237PUN7791D62
715,0.0,right,right,1.0,2.97,0.0,55.0,55.0,55.0,1.0,badlands_3.jpg,badlands_24.jpg,6.0,A237PUN7791D62
716,1.0,right,right,1.0,4.4576,0.0,56.0,56.0,56.0,1.0,golf_course_209.jpg,golf_course_309.jpg,3.0,A237PUN7791D62
717,0.0,right,right,1.0,6.1576,0.0,57.0,57.0,57.0,1.0,golf_course_25.jpg,golf_course_195.jpg,4.0,A237PUN7791D62
718,0.0,right,right,1.0,3.3262,0.0,58.0,58.0,58.0,1.0,badlands_225.jpg,badlands_113.jpg,6.0,A237PUN7791D62
719,1.0,right,right,1.0,2.8711,0.0,59.0,59.0,59.0,1.0,badlands_98.jpg,badlands_21.jpg,3.0,A237PUN7791D62
720,0.0,left,right,0.0,3.9454,0.0,0.0,0.0,0.0,1.0,badlands_70.jpg,badlands_102.jpg,3.0,A3SMMI1Z1558QE
721,0.0,right,right,1.0,1.4203,0.0,1.0,1.0,1.0,1.0,badlands_114.jpg,badlands_23.jpg,1.0,A3SMMI1Z1558QE
722,0.0,left,right,0.0,1.4019,0.0,2.0,2.0,2.0,1.0,mountain_222.jpg,mountain_244.jpg,3.0,A3SMMI1Z1558QE
723,0.0,left,right,0.0,1.4193,0.0,3.0,3.0,3.0,1.0,playground_257.jpg,playground_214.jpg,2.0,A3SMMI1Z1558QE
724,0.0,left,right,0.0,1.3339,0.0,4.0,4.0,4.0,1.0,highway_177.jpg,highway_87.jpg,2.0,A3SMMI1Z1558QE
725,1.0,left,right,0.0,1.4432,0.0,5.0,5.0,5.0,1.0,playground_219.jpg,playground_205.jpg,3.0,A3SMMI1Z1558QE
726,1.0,right,right,1.0,1.4426,0.0,6.0,6.0,6.0,1.0,badlands_139.jpg,badlands_137.jpg,1.0,A3SMMI1Z1558QE
727,0.0,right,right,1.0,1.9292,0.0,7.0,7.0,7.0,1.0,mountain_157.jpg,mountain_110.jpg,2.0,A3SMMI1Z1558QE
728,1.0,right,right,1.0,1.8428,0.0,8.0,8.0,8.0,1.0,highway_122.jpg,highway_209.jpg,3.0,A3SMMI1Z1558QE
729,0.0,left,right,0.0,1.4795,0.0,9.0,9.0,9.0,1.0,highway_156.jpg,highway_160.jpg,2.0,A3SMMI1Z1558QE
730,1.0,right,right,1.0,1.6031,0.0,10.0,10.0,10.0,1.0,mountain_95.jpg,mountain_154.jpg,2.0,A3SMMI1Z1558QE
731,1.0,right,right,1.0,1.5765,0.0,11.0,11.0,11.0,1.0,highway_379.jpg,highway_359.jpg,2.0,A3SMMI1Z1558QE
732,1.0,right,right,1.0,1.2883,0.0,12.0,12.0,12.0,1.0,mountain_138.jpg,mountain_57.jpg,2.0,A3SMMI1Z1558QE
733,1.0,left,right,0.0,1.6497,0.0,13.0,13.0,13.0,1.0,golf_course_195.jpg,golf_course_2.jpg,3.0,A3SMMI1Z1558QE
734,1.0,left,right,0.0,1.6643,0.0,14.0,14.0,14.0,1.0,badlands_113.jpg,badlands_203.jpg,3.0,A3SMMI1Z1558QE
735,0.0,left,right,0.0,1.4446,0.0,15.0,15.0,15.0,1.0,golf_course_309.jpg,golf_course_16.jpg,3.0,A3SMMI1Z1558QE
736,1.0,left,right,0.0,1.452,0.0,16.0,16.0,16.0,1.0,mountain_232.jpg,mountain_54.jpg,2.0,A3SMMI1Z1558QE
737,0.0,right,right,1.0,3.3694,0.0,17.0,17.0,17.0,1.0,mountain_72.jpg,mountain_293.jpg,2.0,A3SMMI1Z1558QE
738,1.0,right,right,1.0,1.7703,0.0,18.0,18.0,18.0,1.0,highway_206.jpg,highway_245.jpg,2.0,A3SMMI1Z1558QE
739,0.0,left,right,0.0,1.6184,0.0,19.0,19.0,19.0,1.0,playground_76.jpg,playground_22.jpg,3.0,A3SMMI1Z1558QE
740,0.0,right,right,1.0,1.7983,0.0,20.0,20.0,20.0,1.0,badlands_115.jpg,badlands_221.jpg,3.0,A3SMMI1Z1558QE
741,1.0,left,right,0.0,1.277,0.0,21.0,21.0,21.0,1.0,highway_394.jpg,highway_406.jpg,2.0,A3SMMI1Z1558QE
742,1.0,left,right,0.0,1.2739,0.0,22.0,22.0,22.0,1.0,badlands_184.jpg,badlands_103.jpg,2.0,A3SMMI1Z1558QE
743,0.0,right,right,1.0,1.3466,0.0,23.0,23.0,23.0,1.0,golf_course_114.jpg,golf_course_331.jpg,3.0,A3SMMI1Z1558QE
744,0.0,right,right,1.0,1.0402,0.0,24.0,24.0,24.0,1.0,mountain_128.jpg,mountain_156.jpg,2.0,A3SMMI1Z1558QE
745,1.0,right,right,1.0,1.0632,0.0,25.0,25.0,25.0,1.0,mountain_221.jpg,mountain_101.jpg,3.0,A3SMMI1Z1558QE
746,0.0,left,right,0.0,1.7242,0.0,26.0,26.0,26.0,1.0,mountain_123.jpg,mountain_94.jpg,2.0,A3SMMI1Z1558QE
747,1.0,right,right,1.0,1.242,0.0,27.0,27.0,27.0,1.0,playground_65.jpg,playground_144.jpg,3.0,A3SMMI1Z1558QE
748,1.0,right,right,1.0,1.8059,0.0,28.0,28.0,28.0,1.0,badlands_63.jpg,badlands_52.jpg,3.0,A3SMMI1Z1558QE
749,0.0,left,right,0.0,1.4149,0.0,29.0,29.0,29.0,1.0,highway_415.jpg,highway_60.jpg,2.0,A3SMMI1Z1558QE
750,1.0,right,right,1.0,1.2795,0.0,30.0,30.0,30.0,1.0,golf_course_262.jpg,golf_course_217.jpg,2.0,A3SMMI1Z1558QE
751,1.0,left,right,0.0,1.4342,0.0,31.0,31.0,31.0,1.0,badlands_24.jpg,badlands_53.jpg,3.0,A3SMMI1Z1558QE
752,0.0,right,right,1.0,1.0352,0.0,32.0,32.0,32.0,1.0,golf_course_157.jpg,golf_course_188.jpg,2.0,A3SMMI1Z1558QE
753,0.0,left,right,0.0,1.0669,0.0,33.0,33.0,33.0,1.0,badlands_222.jpg,badlands_34.jpg,3.0,A3SMMI1Z1558QE
754,1.0,right,right,1.0,1.0408,0.0,34.0,34.0,34.0,1.0,highway_369.jpg,highway_93.jpg,3.0,A3SMMI1Z1558QE
755,0.0,right,right,1.0,1.1847,0.0,35.0,35.0,35.0,1.0,bridge_17.jpg,bridge_172.jpg,2.0,A3SMMI1Z1558QE
756,1.0,right,right,1.0,1.2326,0.0,36.0,36.0,36.0,1.0,bridge_75.jpg,bridge_191.jpg,2.0,A3SMMI1Z1558QE
757,1.0,left,right,0.0,1.5938,0.0,37.0,37.0,37.0,1.0,bridge_128.jpg,bridge_244.jpg,3.0,A3SMMI1Z1558QE
758,1.0,right,right,1.0,1.2344,0.0,38.0,38.0,38.0,1.0,golf_course_123.jpg,golf_course_193.jpg,3.0,A3SMMI1Z1558QE
759,0.0,right,right,1.0,1.2429,0.0,39.0,39.0,39.0,1.0,bridge_54.jpg,bridge_256.jpg,3.0,A3SMMI1Z1558QE
760,0.0,left,right,0.0,2.3285,0.0,40.0,40.0,40.0,1.0,highway_273.jpg,highway_384.jpg,3.0,A3SMMI1Z1558QE
761,0.0,left,right,0.0,1.2341,0.0,41.0,41.0,41.0,1.0,bridge_250.jpg,bridge_134.jpg,3.0,A3SMMI1Z1558QE
762,1.0,right,right,1.0,1.3278,0.0,42.0,42.0,42.0,1.0,mountain_97.jpg,mountain_230.jpg,3.0,A3SMMI1Z1558QE
763,1.0,right,right,1.0,1.0576,0.0,43.0,43.0,43.0,1.0,bridge_82.jpg,bridge_91.jpg,3.0,A3SMMI1Z1558QE
764,0.0,right,right,1.0,1.0351,0.0,44.0,44.0,44.0,1.0,bridge_116.jpg,bridge_108.jpg,3.0,A3SMMI1Z1558QE
765,1.0,right,right,1.0,1.4177,0.0,45.0,45.0,45.0,1.0,playground_12.jpg,playground_10.jpg,4.0,A3SMMI1Z1558QE
766,0.0,right,right,1.0,1.2355,0.0,46.0,46.0,46.0,1.0,highway_203.jpg,highway_294.jpg,3.0,A3SMMI1Z1558QE
767,0.0,left,right,0.0,2.445,0.0,47.0,47.0,47.0,1.0,badlands_21.jpg,badlands_1.jpg,3.0,A3SMMI1Z1558QE
768,1.0,left,right,0.0,1.7475,0.0,48.0,48.0,48.0,1.0,bridge_202.jpg,bridge_38.jpg,3.0,A3SMMI1Z1558QE
769,1.0,right,right,1.0,0.8752,0.0,49.0,49.0,49.0,1.0,golf_course_161.jpg,golf_course_87.jpg,3.0,A3SMMI1Z1558QE
770,0.0,right,right,1.0,0.889,0.0,50.0,50.0,50.0,1.0,playground_43.jpg,playground_131.jpg,2.0,A3SMMI1Z1558QE
771,0.0,right,right,1.0,0.8908,0.0,51.0,51.0,51.0,1.0,playground_167.jpg,playground_117.jpg,3.0,A3SMMI1Z1558QE
772,0.0,left,right,0.0,1.021,0.0,52.0,52.0,52.0,1.0,playground_240.jpg,playground_2.jpg,3.0,A3SMMI1Z1558QE
773,1.0,right,right,1.0,0.8761,0.0,53.0,53.0,53.0,1.0,golf_course_317.jpg,golf_course_214.jpg,4.0,A3SMMI1Z1558QE
774,0.0,right,right,1.0,1.0364,0.0,54.0,54.0,54.0,1.0,golf_course_113.jpg,golf_course_15.jpg,3.0,A3SMMI1Z1558QE
775,0.0,right,right,1.0,1.0425,0.0,55.0,55.0,55.0,1.0,bridge_181.jpg,bridge_65.jpg,4.0,A3SMMI1Z1558QE
776,0.0,left,right,0.0,1.1116,0.0,56.0,56.0,56.0,1.0,golf_course_78.jpg,golf_course_134.jpg,3.0,A3SMMI1Z1558QE
777,1.0,left,right,0.0,1.2376,0.0,57.0,57.0,57.0,1.0,bridge_146.jpg,bridge_121.jpg,3.0,A3SMMI1Z1558QE
778,1.0,right,right,1.0,1.2528,0.0,58.0,58.0,58.0,1.0,playground_244.jpg,playground_60.jpg,4.0,A3SMMI1Z1558QE
779,1.0,left,right,0.0,0.8903,0.0,59.0,59.0,59.0,1.0,playground_145.jpg,playground_242.jpg,3.0,A3SMMI1Z1558QE
780,0.0,right,left,0.0,4.4089,0.0,0.0,0.0,0.0,1.0,bridge_116.jpg,bridge_108.jpg,7.0,A3LBMZYPY37NRW
781,1.0,left,right,0.0,2.2434,0.0,1.0,1.0,1.0,1.0,golf_course_217.jpg,golf_course_262.jpg,7.0,A3LBMZYPY37NRW
782,1.0,right,right,1.0,1.7421,0.0,2.0,2.0,2.0,1.0,playground_40.jpg,playground_240.jpg,9.0,A3LBMZYPY37NRW
783,1.0,right,left,0.0,1.9335,0.0,3.0,3.0,3.0,1.0,golf_course_2.jpg,golf_course_195.jpg,6.0,A3LBMZYPY37NRW
784,0.0,right,left,0.0,2.7398,0.0,4.0,4.0,4.0,1.0,playground_167.jpg,playground_117.jpg,8.0,A3LBMZYPY37NRW
785,0.0,right,right,1.0,1.7465,0.0,5.0,5.0,5.0,1.0,highway_204.jpg,highway_394.jpg,7.0,A3LBMZYPY37NRW
786,1.0,right,right,1.0,2.0927,0.0,6.0,6.0,6.0,1.0,golf_course_160.jpg,golf_course_188.jpg,8.0,A3LBMZYPY37NRW
787,1.0,right,right,1.0,2.1198,0.0,7.0,7.0,7.0,1.0,golf_course_161.jpg,golf_course_87.jpg,7.0,A3LBMZYPY37NRW
788,0.0,left,left,1.0,5.0999,0.0,8.0,8.0,8.0,1.0,badlands_21.jpg,badlands_1.jpg,8.0,A3LBMZYPY37NRW
789,1.0,left,right,0.0,1.9026,0.0,9.0,9.0,9.0,1.0,highway_415.jpg,highway_174.jpg,8.0,A3LBMZYPY37NRW
790,1.0,left,left,1.0,2.7472,0.0,10.0,10.0,10.0,1.0,mountain_156.jpg,mountain_295.jpg,6.0,A3LBMZYPY37NRW
791,0.0,right,right,1.0,1.221,0.0,11.0,11.0,11.0,1.0,badlands_94.jpg,badlands_52.jpg,8.0,A3LBMZYPY37NRW
792,0.0,right,left,0.0,1.6862,0.0,12.0,12.0,12.0,1.0,mountain_171.jpg,mountain_101.jpg,9.0,A3LBMZYPY37NRW
793,0.0,right,left,0.0,2.1279,0.0,13.0,13.0,13.0,1.0,bridge_134.jpg,bridge_250.jpg,7.0,A3LBMZYPY37NRW
794,1.0,left,right,0.0,1.6237,0.0,14.0,14.0,14.0,1.0,badlands_23.jpg,badlands_101.jpg,8.0,A3LBMZYPY37NRW
795,0.0,right,left,0.0,1.6828,0.0,15.0,15.0,15.0,1.0,mountain_244.jpg,mountain_222.jpg,6.0,A3LBMZYPY37NRW
796,1.0,right,right,1.0,2.1559,0.0,16.0,16.0,16.0,1.0,mountain_47.jpg,mountain_293.jpg,8.0,A3LBMZYPY37NRW
797,0.0,left,left,1.0,5.9311,0.0,17.0,17.0,17.0,1.0,playground_219.jpg,playground_21.jpg,7.0,A3LBMZYPY37NRW
798,1.0,left,right,0.0,0.0214,0.0,18.0,18.0,18.0,1.0,highway_93.jpg,highway_369.jpg,6.0,A3LBMZYPY37NRW
799,0.0,right,left,0.0,1.2629,0.0,19.0,19.0,19.0,1.0,badlands_3.jpg,badlands_24.jpg,8.0,A3LBMZYPY37NRW
800,1.0,left,right,0.0,1.4572,0.0,20.0,20.0,20.0,1.0,badlands_221.jpg,badlands_207.jpg,8.0,A3LBMZYPY37NRW
801,0.0,left,right,0.0,9.5281,0.0,21.0,21.0,21.0,1.0,highway_209.jpg,highway_314.jpg,6.0,A3LBMZYPY37NRW
802,1.0,right,left,0.0,1.4461,0.0,22.0,22.0,22.0,1.0,playground_72.jpg,playground_76.jpg,8.0,A3LBMZYPY37NRW
803,1.0,right,left,0.0,1.5869,0.0,23.0,23.0,23.0,1.0,bridge_121.jpg,bridge_146.jpg,9.0,A3LBMZYPY37NRW
804,0.0,left,right,0.0,2.0026,0.0,24.0,24.0,24.0,1.0,highway_156.jpg,highway_160.jpg,6.0,A3LBMZYPY37NRW
805,0.0,right,right,1.0,1.3401,0.0,25.0,25.0,25.0,1.0,mountain_94.jpg,mountain_123.jpg,7.0,A3LBMZYPY37NRW
806,0.0,right,left,0.0,1.8029,0.0,26.0,26.0,26.0,1.0,golf_course_134.jpg,golf_course_78.jpg,8.0,A3LBMZYPY37NRW
807,0.0,right,right,1.0,1.8481,0.0,27.0,27.0,27.0,1.0,bridge_17.jpg,bridge_172.jpg,9.0,A3LBMZYPY37NRW
808,0.0,right,left,0.0,1.4142,0.0,28.0,28.0,28.0,1.0,badlands_194.jpg,badlands_137.jpg,6.0,A3LBMZYPY37NRW
809,0.0,right,right,1.0,2.0335,0.0,29.0,29.0,29.0,1.0,playground_214.jpg,playground_257.jpg,8.0,A3LBMZYPY37NRW
810,1.0,right,left,0.0,3.161,0.0,30.0,30.0,30.0,1.0,mountain_54.jpg,mountain_232.jpg,6.0,A3LBMZYPY37NRW
811,1.0,left,right,0.0,1.6352,0.0,31.0,31.0,31.0,1.0,badlands_113.jpg,badlands_203.jpg,8.0,A3LBMZYPY37NRW
812,1.0,right,right,1.0,22.6689,0.0,32.0,32.0,32.0,1.0,bridge_38.jpg,bridge_202.jpg,8.0,A3LBMZYPY37NRW
813,1.0,left,right,0.0,1.8979,0.0,33.0,33.0,33.0,1.0,playground_60.jpg,playground_244.jpg,6.0,A3LBMZYPY37NRW
814,0.0,right,left,0.0,1.927,0.0,34.0,34.0,34.0,1.0,bridge_181.jpg,bridge_65.jpg,7.0,A3LBMZYPY37NRW
815,0.0,right,right,1.0,1.7355,0.0,35.0,35.0,35.0,1.0,highway_87.jpg,highway_177.jpg,7.0,A3LBMZYPY37NRW
816,0.0,right,left,0.0,1.4914,0.0,36.0,36.0,36.0,1.0,bridge_184.jpg,bridge_191.jpg,6.0,A3LBMZYPY37NRW
817,0.0,left,right,0.0,2.9681,0.0,37.0,37.0,37.0,1.0,mountain_154.jpg,mountain_131.jpg,8.0,A3LBMZYPY37NRW
818,1.0,right,right,1.0,9.2815,0.0,38.0,38.0,38.0,1.0,highway_171.jpg,highway_273.jpg,6.0,A3LBMZYPY37NRW
819,0.0,left,right,0.0,1.239,0.0,39.0,39.0,39.0,1.0,badlands_184.jpg,badlands_228.jpg,8.0,A3LBMZYPY37NRW
820,1.0,right,left,0.0,1.8173,0.0,40.0,40.0,40.0,1.0,badlands_119.jpg,badlands_70.jpg,8.0,A3LBMZYPY37NRW
821,1.0,right,right,1.0,1.2482,0.0,41.0,41.0,41.0,1.0,golf_course_317.jpg,golf_course_214.jpg,8.0,A3LBMZYPY37NRW
822,0.0,right,right,1.0,1.6475,0.0,42.0,42.0,42.0,1.0,golf_course_114.jpg,golf_course_331.jpg,5.0,A3LBMZYPY37NRW
823,0.0,left,left,1.0,1.8985,0.0,43.0,43.0,43.0,1.0,highway_245.jpg,highway_134.jpg,7.0,A3LBMZYPY37NRW
824,1.0,right,right,1.0,1.457,0.0,44.0,44.0,44.0,1.0,mountain_97.jpg,mountain_230.jpg,8.0,A3LBMZYPY37NRW
825,0.0,right,left,0.0,2.2228,0.0,45.0,45.0,45.0,1.0,golf_course_16.jpg,golf_course_309.jpg,7.0,A3LBMZYPY37NRW
826,1.0,right,right,1.0,1.5612,0.0,46.0,46.0,46.0,1.0,badlands_62.jpg,badlands_222.jpg,8.0,A3LBMZYPY37NRW
827,1.0,right,right,1.0,3.2406,0.0,47.0,47.0,47.0,1.0,bridge_82.jpg,bridge_91.jpg,8.0,A3LBMZYPY37NRW
828,1.0,left,right,0.0,1.6018,0.0,48.0,48.0,48.0,1.0,bridge_128.jpg,bridge_244.jpg,7.0,A3LBMZYPY37NRW
829,1.0,left,right,0.0,3.0145,0.0,49.0,49.0,49.0,1.0,playground_10.jpg,playground_12.jpg,8.0,A3LBMZYPY37NRW
830,1.0,right,right,1.0,1.2628,0.0,50.0,50.0,50.0,1.0,bridge_211.jpg,bridge_256.jpg,8.0,A3LBMZYPY37NRW
831,0.0,left,left,1.0,1.6794,0.0,51.0,51.0,51.0,1.0,playground_145.jpg,playground_229.jpg,6.0,A3LBMZYPY37NRW
832,1.0,right,right,1.0,2.111,0.0,52.0,52.0,52.0,1.0,highway_368.jpg,highway_294.jpg,8.0,A3LBMZYPY37NRW
833,0.0,right,right,1.0,1.8879,0.0,53.0,53.0,53.0,1.0,golf_course_113.jpg,golf_course_15.jpg,6.0,A3LBMZYPY37NRW
834,1.0,left,left,1.0,1.6399,0.0,54.0,54.0,54.0,1.0,playground_144.jpg,playground_65.jpg,8.0,A3LBMZYPY37NRW
835,0.0,left,left,1.0,1.8379,0.0,55.0,55.0,55.0,1.0,golf_course_193.jpg,golf_course_235.jpg,9.0,A3LBMZYPY37NRW
836,0.0,right,right,1.0,1.7374,0.0,56.0,56.0,56.0,1.0,mountain_193.jpg,mountain_57.jpg,9.0,A3LBMZYPY37NRW
837,0.0,left,left,1.0,1.2245,0.0,57.0,57.0,57.0,1.0,playground_131.jpg,playground_43.jpg,5.0,A3LBMZYPY37NRW
838,1.0,left,left,1.0,1.7734,0.0,58.0,58.0,58.0,1.0,highway_359.jpg,highway_379.jpg,8.0,A3LBMZYPY37NRW
839,1.0,right,right,1.0,2.9013,0.0,59.0,59.0,59.0,1.0,mountain_223.jpg,mountain_110.jpg,9.0,A3LBMZYPY37NRW
840,1.0,right,left,0.0,36.004,0.0,0.0,0.0,0.0,1.0,golf_course_123.jpg,golf_course_193.jpg,8.0,A2TQ9IHDHCSQC8
841,0.0,right,right,1.0,2.67,0.0,1.0,1.0,1.0,1.0,mountain_131.jpg,mountain_154.jpg,7.0,A2TQ9IHDHCSQC8
842,1.0,right,right,1.0,2.214,0.0,2.0,2.0,2.0,1.0,badlands_203.jpg,badlands_113.jpg,9.0,A2TQ9IHDHCSQC8
843,1.0,left,left,1.0,3.84,0.0,3.0,3.0,3.0,1.0,playground_117.jpg,playground_127.jpg,8.0,A2TQ9IHDHCSQC8
844,0.0,right,right,1.0,2.043,0.0,4.0,4.0,4.0,1.0,bridge_54.jpg,bridge_256.jpg,9.0,A2TQ9IHDHCSQC8
845,0.0,left,right,0.0,2.841,0.0,5.0,5.0,5.0,1.0,playground_145.jpg,playground_229.jpg,7.0,A2TQ9IHDHCSQC8
846,0.0,right,right,1.0,2.158,0.0,6.0,6.0,6.0,1.0,playground_21.jpg,playground_219.jpg,7.0,A2TQ9IHDHCSQC8
847,0.0,left,left,1.0,2.112,0.0,7.0,7.0,7.0,1.0,mountain_230.jpg,mountain_184.jpg,8.0,A2TQ9IHDHCSQC8
848,0.0,right,right,1.0,2.699,0.0,8.0,8.0,8.0,1.0,playground_137.jpg,playground_144.jpg,9.0,A2TQ9IHDHCSQC8
849,0.0,right,right,1.0,1.824,0.0,9.0,9.0,9.0,1.0,badlands_1.jpg,badlands_21.jpg,7.0,A2TQ9IHDHCSQC8
850,1.0,right,left,0.0,4.82,0.0,10.0,10.0,10.0,1.0,mountain_295.jpg,mountain_156.jpg,6.0,A2TQ9IHDHCSQC8
851,1.0,left,left,1.0,2.508,0.0,11.0,11.0,11.0,1.0,mountain_57.jpg,mountain_138.jpg,8.0,A2TQ9IHDHCSQC8
852,1.0,left,left,1.0,2.19,0.0,12.0,12.0,12.0,1.0,golf_course_188.jpg,golf_course_160.jpg,7.0,A2TQ9IHDHCSQC8
853,0.0,right,right,1.0,2.116,0.0,13.0,13.0,13.0,1.0,bridge_116.jpg,bridge_108.jpg,9.0,A2TQ9IHDHCSQC8
854,0.0,left,left,1.0,3.177,0.0,14.0,14.0,14.0,1.0,golf_course_331.jpg,golf_course_114.jpg,7.0,A2TQ9IHDHCSQC8
855,0.0,left,left,1.0,1.84,0.0,15.0,15.0,15.0,1.0,highway_294.jpg,highway_203.jpg,8.0,A2TQ9IHDHCSQC8
856,1.0,right,left,0.0,3.985,0.0,16.0,16.0,16.0,1.0,badlands_101.jpg,badlands_23.jpg,7.0,A2TQ9IHDHCSQC8
857,0.0,right,right,1.0,1.938,0.0,17.0,17.0,17.0,1.0,mountain_171.jpg,mountain_101.jpg,6.0,A2TQ9IHDHCSQC8
858,0.0,right,right,1.0,2.376,0.0,18.0,18.0,18.0,1.0,bridge_27.jpg,bridge_146.jpg,8.0,A2TQ9IHDHCSQC8
859,0.0,left,right,0.0,2.204,0.0,19.0,19.0,19.0,1.0,mountain_293.jpg,mountain_72.jpg,9.0,A2TQ9IHDHCSQC8
860,0.0,left,left,1.0,3.225,0.0,20.0,20.0,20.0,1.0,highway_359.jpg,highway_389.jpg,7.0,A2TQ9IHDHCSQC8
861,1.0,right,left,0.0,4.531,0.0,21.0,21.0,21.0,1.0,highway_171.jpg,highway_273.jpg,8.0,A2TQ9IHDHCSQC8
862,0.0,left,right,0.0,2.871,0.0,22.0,22.0,22.0,1.0,golf_course_214.jpg,golf_course_312.jpg,6.0,A2TQ9IHDHCSQC8
863,0.0,right,left,0.0,4.803,0.0,23.0,23.0,23.0,1.0,badlands_102.jpg,badlands_70.jpg,8.0,A2TQ9IHDHCSQC8
864,1.0,right,right,1.0,3.878,0.0,24.0,24.0,24.0,1.0,bridge_205.jpg,bridge_250.jpg,6.0,A2TQ9IHDHCSQC8
865,1.0,left,left,1.0,3.399,0.0,25.0,25.0,25.0,1.0,playground_131.jpg,playground_164.jpg,8.0,A2TQ9IHDHCSQC8
866,1.0,left,left,1.0,2.818,0.0,26.0,26.0,26.0,1.0,badlands_184.jpg,badlands_103.jpg,7.0,A2TQ9IHDHCSQC8
867,0.0,right,right,1.0,2.375,0.0,27.0,27.0,27.0,1.0,highway_85.jpg,highway_93.jpg,9.0,A2TQ9IHDHCSQC8
868,1.0,right,right,1.0,3.109,0.0,28.0,28.0,28.0,1.0,badlands_63.jpg,badlands_52.jpg,6.0,A2TQ9IHDHCSQC8
869,1.0,right,right,1.0,2.584,0.0,29.0,29.0,29.0,1.0,bridge_82.jpg,bridge_91.jpg,8.0,A2TQ9IHDHCSQC8
870,1.0,right,left,0.0,2.44,0.0,30.0,30.0,30.0,1.0,playground_244.jpg,playground_60.jpg,7.0,A2TQ9IHDHCSQC8
871,1.0,right,right,1.0,2.029,0.0,31.0,31.0,31.0,1.0,mountain_223.jpg,mountain_110.jpg,7.0,A2TQ9IHDHCSQC8
872,1.0,left,left,1.0,2.439,0.0,32.0,32.0,32.0,1.0,mountain_222.jpg,mountain_93.jpg,8.0,A2TQ9IHDHCSQC8
873,0.0,right,right,1.0,3.537,0.0,33.0,33.0,33.0,1.0,golf_course_25.jpg,golf_course_195.jpg,9.0,A2TQ9IHDHCSQC8
874,1.0,right,left,0.0,2.434,0.0,34.0,34.0,34.0,1.0,golf_course_101.jpg,golf_course_78.jpg,6.0,A2TQ9IHDHCSQC8
875,1.0,left,right,0.0,2.338,0.0,35.0,35.0,35.0,1.0,bridge_65.jpg,bridge_60.jpg,7.0,A2TQ9IHDHCSQC8
876,0.0,left,left,1.0,3.658,0.0,36.0,36.0,36.0,1.0,golf_course_309.jpg,golf_course_16.jpg,5.0,A2TQ9IHDHCSQC8
877,0.0,left,left,1.0,2.333,0.0,37.0,37.0,37.0,1.0,highway_245.jpg,highway_134.jpg,7.0,A2TQ9IHDHCSQC8
878,1.0,left,left,1.0,5.266,0.0,38.0,38.0,38.0,1.0,highway_415.jpg,highway_174.jpg,7.0,A2TQ9IHDHCSQC8
879,0.0,left,left,1.0,1.816,0.0,39.0,39.0,39.0,1.0,mountain_123.jpg,mountain_94.jpg,8.0,A2TQ9IHDHCSQC8
880,1.0,right,right,1.0,3.086,0.0,40.0,40.0,40.0,1.0,highway_122.jpg,highway_209.jpg,9.0,A2TQ9IHDHCSQC8
881,1.0,left,left,1.0,2.533,0.0,41.0,41.0,41.0,1.0,badlands_24.jpg,badlands_53.jpg,7.0,A2TQ9IHDHCSQC8
882,0.0,left,left,1.0,3.385,0.0,42.0,42.0,42.0,1.0,golf_course_217.jpg,golf_course_35.jpg,9.0,A2TQ9IHDHCSQC8
883,0.0,left,left,1.0,2.517,0.0,43.0,43.0,43.0,1.0,badlands_221.jpg,badlands_115.jpg,7.0,A2TQ9IHDHCSQC8
884,1.0,left,right,0.0,3.414,0.0,44.0,44.0,44.0,1.0,highway_156.jpg,highway_293.jpg,6.0,A2TQ9IHDHCSQC8
885,1.0,left,right,0.0,2.109,0.0,45.0,45.0,45.0,1.0,playground_240.jpg,playground_40.jpg,8.0,A2TQ9IHDHCSQC8
886,1.0,right,right,1.0,3.38,0.0,46.0,46.0,46.0,1.0,highway_278.jpg,highway_177.jpg,6.0,A2TQ9IHDHCSQC8
887,1.0,left,left,1.0,2.74,0.0,47.0,47.0,47.0,1.0,golf_course_15.jpg,golf_course_97.jpg,8.0,A2TQ9IHDHCSQC8
888,1.0,right,right,1.0,2.002,0.0,48.0,48.0,48.0,1.0,golf_course_161.jpg,golf_course_87.jpg,9.0,A2TQ9IHDHCSQC8
889,1.0,left,left,1.0,2.903,0.0,49.0,49.0,49.0,1.0,playground_10.jpg,playground_12.jpg,7.0,A2TQ9IHDHCSQC8
890,0.0,right,right,1.0,2.582,0.0,50.0,50.0,50.0,1.0,highway_204.jpg,highway_394.jpg,8.0,A2TQ9IHDHCSQC8
891,0.0,left,right,0.0,2.184,0.0,51.0,51.0,51.0,1.0,playground_257.jpg,playground_214.jpg,6.0,A2TQ9IHDHCSQC8
892,1.0,left,left,1.0,2.084,0.0,52.0,52.0,52.0,1.0,mountain_232.jpg,mountain_54.jpg,8.0,A2TQ9IHDHCSQC8
893,1.0,left,left,1.0,1.848,0.0,53.0,53.0,53.0,1.0,bridge_128.jpg,bridge_244.jpg,9.0,A2TQ9IHDHCSQC8
894,0.0,left,left,1.0,3.593,0.0,54.0,54.0,54.0,1.0,badlands_222.jpg,badlands_34.jpg,7.0,A2TQ9IHDHCSQC8
895,0.0,left,left,1.0,1.991,0.0,55.0,55.0,55.0,1.0,bridge_202.jpg,bridge_31.jpg,6.0,A2TQ9IHDHCSQC8
896,0.0,right,right,1.0,1.875,0.0,56.0,56.0,56.0,1.0,bridge_17.jpg,bridge_172.jpg,8.0,A2TQ9IHDHCSQC8
897,0.0,left,right,0.0,2.827,0.0,57.0,57.0,57.0,1.0,playground_76.jpg,playground_22.jpg,7.0,A2TQ9IHDHCSQC8
898,1.0,left,left,1.0,2.201,0.0,58.0,58.0,58.0,1.0,bridge_191.jpg,bridge_75.jpg,8.0,A2TQ9IHDHCSQC8
899,0.0,right,left,0.0,1.585,0.0,59.0,59.0,59.0,1.0,badlands_194.jpg,badlands_137.jpg,6.0,A2TQ9IHDHCSQC8
900,1.0,right,left,0.0,2.372,0.0,0.0,0.0,0.0,1.0,badlands_207.jpg,badlands_221.jpg,7.0,A3ATB5GC4BQIH0
901,0.0,left,right,0.0,4.234,0.0,1.0,1.0,1.0,1.0,mountain_57.jpg,mountain_193.jpg,7.0,A3ATB5GC4BQIH0
902,1.0,right,right,1.0,4.225,0.0,2.0,2.0,2.0,1.0,playground_164.jpg,playground_131.jpg,8.0,A3ATB5GC4BQIH0
903,1.0,left,left,1.0,3.19,0.0,3.0,3.0,3.0,1.0,golf_course_78.jpg,golf_course_101.jpg,8.0,A3ATB5GC4BQIH0
904,0.0,left,left,1.0,2.986,0.0,4.0,4.0,4.0,1.0,playground_117.jpg,playground_167.jpg,7.0,A3ATB5GC4BQIH0
905,0.0,right,right,1.0,2.711,0.0,5.0,5.0,5.0,1.0,mountain_184.jpg,mountain_230.jpg,6.0,A3ATB5GC4BQIH0
906,1.0,left,right,0.0,2.182,0.0,6.0,6.0,6.0,1.0,highway_294.jpg,highway_368.jpg,8.0,A3ATB5GC4BQIH0
907,1.0,left,left,1.0,2.732,0.0,7.0,7.0,7.0,1.0,bridge_128.jpg,bridge_244.jpg,5.0,A3ATB5GC4BQIH0
908,0.0,right,left,0.0,9.573,0.0,8.0,8.0,8.0,1.0,mountain_94.jpg,mountain_123.jpg,5.0,A3ATB5GC4BQIH0
909,0.0,right,left,0.0,4.024,0.0,9.0,9.0,9.0,1.0,badlands_194.jpg,badlands_137.jpg,6.0,A3ATB5GC4BQIH0
910,1.0,left,left,1.0,3.762,0.0,10.0,10.0,10.0,1.0,badlands_113.jpg,badlands_203.jpg,8.0,A3ATB5GC4BQIH0
911,0.0,left,left,1.0,2.974,0.0,11.0,11.0,11.0,1.0,highway_209.jpg,highway_314.jpg,8.0,A3ATB5GC4BQIH0
912,1.0,right,right,1.0,1.972,0.0,12.0,12.0,12.0,1.0,mountain_47.jpg,mountain_293.jpg,8.0,A3ATB5GC4BQIH0
913,1.0,left,right,0.0,5.22,0.0,13.0,13.0,13.0,1.0,highway_245.jpg,highway_206.jpg,8.0,A3ATB5GC4BQIH0
914,1.0,right,right,1.0,2.145,0.0,14.0,14.0,14.0,1.0,badlands_63.jpg,badlands_52.jpg,8.0,A3ATB5GC4BQIH0
915,0.0,right,right,1.0,2.731,0.0,15.0,15.0,15.0,1.0,golf_course_113.jpg,golf_course_15.jpg,7.0,A3ATB5GC4BQIH0
916,1.0,left,right,0.0,2.144,0.0,16.0,16.0,16.0,1.0,golf_course_188.jpg,golf_course_160.jpg,7.0,A3ATB5GC4BQIH0
917,1.0,right,right,1.0,3.495,0.0,17.0,17.0,17.0,1.0,golf_course_123.jpg,golf_course_193.jpg,8.0,A3ATB5GC4BQIH0
918,0.0,right,left,0.0,2.032,0.0,18.0,18.0,18.0,1.0,badlands_228.jpg,badlands_184.jpg,7.0,A3ATB5GC4BQIH0
919,1.0,left,left,1.0,3.63,0.0,19.0,19.0,19.0,1.0,playground_10.jpg,playground_12.jpg,7.0,A3ATB5GC4BQIH0
920,0.0,right,right,1.0,17.261,0.0,20.0,20.0,20.0,1.0,badlands_1.jpg,badlands_21.jpg,7.0,A3ATB5GC4BQIH0
921,1.0,right,right,1.0,4.717,0.0,21.0,21.0,21.0,1.0,bridge_38.jpg,bridge_202.jpg,7.0,A3ATB5GC4BQIH0
922,0.0,left,left,1.0,3.346,0.0,22.0,22.0,22.0,1.0,golf_course_331.jpg,golf_course_114.jpg,6.0,A3ATB5GC4BQIH0
923,0.0,right,right,1.0,1.383,0.0,23.0,23.0,23.0,1.0,highway_204.jpg,highway_394.jpg,7.0,A3ATB5GC4BQIH0
924,1.0,left,right,0.0,2.576,0.0,24.0,24.0,24.0,1.0,mountain_156.jpg,mountain_295.jpg,7.0,A3ATB5GC4BQIH0
925,0.0,right,right,1.0,1.582,0.0,25.0,25.0,25.0,1.0,badlands_102.jpg,badlands_70.jpg,7.0,A3ATB5GC4BQIH0
926,1.0,right,right,1.0,3.677,0.0,26.0,26.0,26.0,1.0,bridge_82.jpg,bridge_91.jpg,5.0,A3ATB5GC4BQIH0
927,0.0,right,right,1.0,2.325,0.0,27.0,27.0,27.0,1.0,mountain_157.jpg,mountain_110.jpg,7.0,A3ATB5GC4BQIH0
928,1.0,left,left,1.0,2.502,0.0,28.0,28.0,28.0,1.0,mountain_101.jpg,mountain_221.jpg,7.0,A3ATB5GC4BQIH0
929,0.0,right,right,1.0,2.97,0.0,29.0,29.0,29.0,1.0,golf_course_25.jpg,golf_course_195.jpg,8.0,A3ATB5GC4BQIH0
930,0.0,left,left,1.0,2.326,0.0,30.0,30.0,30.0,1.0,golf_course_217.jpg,golf_course_35.jpg,7.0,A3ATB5GC4BQIH0
931,0.0,left,left,1.0,3.683,0.0,31.0,31.0,31.0,1.0,highway_177.jpg,highway_87.jpg,8.0,A3ATB5GC4BQIH0
932,1.0,left,left,1.0,2.978,0.0,32.0,32.0,32.0,1.0,golf_course_87.jpg,golf_course_161.jpg,7.0,A3ATB5GC4BQIH0
933,0.0,left,right,0.0,4.586,0.0,33.0,33.0,33.0,1.0,bridge_108.jpg,bridge_116.jpg,6.0,A3ATB5GC4BQIH0
934,1.0,left,left,1.0,3.782,0.0,34.0,34.0,34.0,1.0,badlands_222.jpg,badlands_62.jpg,8.0,A3ATB5GC4BQIH0
935,1.0,left,right,0.0,4.296,0.0,35.0,35.0,35.0,1.0,highway_359.jpg,highway_379.jpg,7.0,A3ATB5GC4BQIH0
936,0.0,right,right,1.0,2.344,0.0,36.0,36.0,36.0,1.0,highway_60.jpg,highway_415.jpg,8.0,A3ATB5GC4BQIH0
937,0.0,left,right,0.0,3.306,0.0,37.0,37.0,37.0,1.0,badlands_23.jpg,badlands_114.jpg,8.0,A3ATB5GC4BQIH0
938,1.0,right,left,0.0,4.962,0.0,38.0,38.0,38.0,1.0,bridge_163.jpg,bridge_172.jpg,7.0,A3ATB5GC4BQIH0
939,1.0,left,left,1.0,1.978,0.0,39.0,39.0,39.0,1.0,mountain_232.jpg,mountain_54.jpg,7.0,A3ATB5GC4BQIH0
940,1.0,right,left,0.0,3.321,0.0,40.0,40.0,40.0,1.0,highway_171.jpg,highway_273.jpg,8.0,A3ATB5GC4BQIH0
941,1.0,right,left,0.0,3.63,0.0,41.0,41.0,41.0,1.0,badlands_53.jpg,badlands_24.jpg,6.0,A3ATB5GC4BQIH0
942,0.0,right,left,0.0,4.199,0.0,42.0,42.0,42.0,1.0,bridge_54.jpg,bridge_256.jpg,5.0,A3ATB5GC4BQIH0
943,1.0,right,right,1.0,2.942,0.0,43.0,43.0,43.0,1.0,playground_215.jpg,playground_257.jpg,5.0,A3ATB5GC4BQIH0
944,1.0,right,right,1.0,2.945,0.0,44.0,44.0,44.0,1.0,mountain_95.jpg,mountain_154.jpg,7.0,A3ATB5GC4BQIH0
945,1.0,right,right,1.0,2.323,0.0,45.0,45.0,45.0,1.0,golf_course_317.jpg,golf_course_214.jpg,8.0,A3ATB5GC4BQIH0
946,1.0,left,left,1.0,4.017,0.0,46.0,46.0,46.0,1.0,bridge_191.jpg,bridge_75.jpg,8.0,A3ATB5GC4BQIH0
947,0.0,right,right,1.0,2.601,0.0,47.0,47.0,47.0,1.0,bridge_27.jpg,bridge_146.jpg,8.0,A3ATB5GC4BQIH0
948,0.0,left,left,1.0,4.045,0.0,48.0,48.0,48.0,1.0,playground_76.jpg,playground_22.jpg,7.0,A3ATB5GC4BQIH0
949,0.0,left,right,0.0,3.495,0.0,49.0,49.0,49.0,1.0,bridge_250.jpg,bridge_134.jpg,8.0,A3ATB5GC4BQIH0
