button.numClicks,button.timesOn,button.timesOff,workID,Age,Gender,Hours slept (last night),date,expName,psychopyVersion,OS,frameRate,space_key_responce.keys,space_key_responce.rt,demo_encoding_response.keys,demo_encoding_response.corr,demo_encoding_loop.thisRepN,demo_encoding_loop.thisTrialN,demo_encoding_loop.thisN,demo_encoding_loop.thisIndex,demo_encoding_loop.ran,DemoImage,DemoCorrect,demo_encoding_response.rt,demo_test_response.keys,demo_test_response.corr,demo_test_response.rt,demo_test_loop.thisRepN,demo_test_loop.thisTrialN,demo_test_loop.thisN,demo_test_loop.thisIndex,demo_test_loop.ran,DemoImage1,DemoImage2,DemoCorrectTest,test_encoding_response.keys,test_encoding_response.corr,trials.thisRepN,trials.thisTrialN,trials.thisN,trials.thisIndex,trials.ran,target_image,pair,layer,correct,test_encoding_response.rt,key_resp_end.keys,key_resp_end.rt,test_test_response.keys,test_test_response.corr,test_test_response.rt,trials_2.thisRepN,trials_2.thisTrialN,trials_2.thisN,trials_2.thisIndex,trials_2.ran,image1,image2,key_resp_end_2.keys,key_resp_end_2.rt
1,[20.136000000000024],[20.137],A209V2VHLLQ59W,34,Genderqueer,3,2022-12-27_12h03.20.300,memory_pilot_most_recent,2022.2.4,Win32,29.9940012,,,,,,,,,,,,,,,,,,,,,,,,,,,,,,,,,,,,,,,,,,,,,,,,,
,,,A209V2VHLLQ59W,34,Genderqueer,3,2022-12-27_12h03.20.300,memory_pilot_most_recent,2022.2.4,Win32,29.9940012,,,,,,,,,,,,,,,,,,,,,,,,,,,,,,,,,,,,,,,,,,,,,,,,,
,,,A209V2VHLLQ59W,34,Genderqueer,3,2022-12-27_12h03.20.300,memory_pilot_most_recent,2022.2.4,Win32,29.9940012,space,4.518,,,,,,,,,,,,,,,,,,,,,,,,,,,,,,,,,,,,,,,,,,,,,,,
,,,A209V2VHLLQ59W,34,Genderqueer,3,2022-12-27_12h03.20.300,memory_pilot_most_recent,2022.2.4,Win32,29.9940012,,,,,,,,,,,,,,,,,,,,,,,,,,,,,,,,,,,,,,,,,,,,,,,,,
,,,A209V2VHLLQ59W,34,Genderqueer,3,2022-12-27_12h03.20.300,memory_pilot_most_recent,2022.2.4,Win32,29.9940012,,,,1,0,0,0,0,1,flower1.jpg,,,,,,,,,,,,,,,,,,,,,,,,,,,,,,,,,,,,,,,
,,,A209V2VHLLQ59W,34,Genderqueer,3,2022-12-27_12h03.20.300,memory_pilot_most_recent,2022.2.4,Win32,29.9940012,,,,1,0,1,1,1,1,flower2.jpg,,,,,,,,,,,,,,,,,,,,,,,,,,,,,,,,,,,,,,,
,,,A209V2VHLLQ59W,34,Genderqueer,3,2022-12-27_12h03.20.300,memory_pilot_most_recent,2022.2.4,Win32,29.9940012,,,left,1,0,2,2,2,1,left.jpg,left,0.898,,,,,,,,,,,,,,,,,,,,,,,,,,,,,,,,,,,,,
,,,A209V2VHLLQ59W,34,Genderqueer,3,2022-12-27_12h03.20.300,memory_pilot_most_recent,2022.2.4,Win32,29.9940012,,,,1,0,3,3,3,1,flower3.jpg,,,,,,,,,,,,,,,,,,,,,,,,,,,,,,,,,,,,,,,
,,,A209V2VHLLQ59W,34,Genderqueer,3,2022-12-27_12h03.20.300,memory_pilot_most_recent,2022.2.4,Win32,29.9940012,,,,1,0,4,4,4,1,flower4.jpg,,,,,,,,,,,,,,,,,,,,,,,,,,,,,,,,,,,,,,,
,,,A209V2VHLLQ59W,34,Genderqueer,3,2022-12-27_12h03.20.300,memory_pilot_most_recent,2022.2.4,Win32,29.9940012,,,,1,0,5,5,5,1,flower5.jpg,,,,,,,,,,,,,,,,,,,,,,,,,,,,,,,,,,,,,,,
,,,A209V2VHLLQ59W,34,Genderqueer,3,2022-12-27_12h03.20.300,memory_pilot_most_recent,2022.2.4,Win32,29.9940012,,,,1,0,6,6,6,1,flower6.jpg,,,,,,,,,,,,,,,,,,,,,,,,,,,,,,,,,,,,,,,
,,,A209V2VHLLQ59W,34,Genderqueer,3,2022-12-27_12h03.20.300,memory_pilot_most_recent,2022.2.4,Win32,29.9940012,,,,,,,,,,,,,,,,,,,,,,,,,,,,,,,,,,,,,,,,,,,,,,,,,
,,,A209V2VHLLQ59W,34,Genderqueer,3,2022-12-27_12h03.20.300,memory_pilot_most_recent,2022.2.4,Win32,29.9940012,,,,,,,,,,,,,left,1,2.079,0,0,0,0,1,flower1.jpg,flower1_pair.jpg,left,,,,,,,,,,,,,,,,,,,,,,,,,,
,,,A209V2VHLLQ59W,34,Genderqueer,3,2022-12-27_12h03.20.300,memory_pilot_most_recent,2022.2.4,Win32,29.9940012,,,,,,,,,,,,,left,0,2.23,0,1,1,1,1,flower2_pair.jpg,flower2.jpg,right,,,,,,,,,,,,,,,,,,,,,,,,,,
,,,A209V2VHLLQ59W,34,Genderqueer,3,2022-12-27_12h03.20.300,memory_pilot_most_recent,2022.2.4,Win32,29.9940012,,,,,,,,,,,,,left,1,2.186,0,2,2,2,1,flower3.jpg,flower3_pair.jpg,left,,,,,,,,,,,,,,,,,,,,,,,,,,
,,,A209V2VHLLQ59W,34,Genderqueer,3,2022-12-27_12h03.20.300,memory_pilot_most_recent,2022.2.4,Win32,29.9940012,,,,,,,,,,,,,left,1,2.105,0,3,3,3,1,flower4.jpg,flower4_pair.jpg,left,,,,,,,,,,,,,,,,,,,,,,,,,,
,,,A209V2VHLLQ59W,34,Genderqueer,3,2022-12-27_12h03.20.300,memory_pilot_most_recent,2022.2.4,Win32,29.9940012,,,,,,,,,,,,,right,1,1.836,0,4,4,4,1,flower5_pair.jpg,flower5.jpg,right,,,,,,,,,,,,,,,,,,,,,,,,,,
,,,A209V2VHLLQ59W,34,Genderqueer,3,2022-12-27_12h03.20.300,memory_pilot_most_recent,2022.2.4,Win32,29.9940012,,,,,,,,,,,,,left,1,1.865,0,5,5,5,1,flower6.jpg,flower6_pair.jpg,left,,,,,,,,,,,,,,,,,,,,,,,,,,
,,,A209V2VHLLQ59W,34,Genderqueer,3,2022-12-27_12h03.20.300,memory_pilot_most_recent,2022.2.4,Win32,29.9940012,,,,,,,,,,,,,,,,,,,,,,,,,,,,,,,,,,,,,,,,,,,,,,,,,
,,,A209V2VHLLQ59W,34,Genderqueer,3,2022-12-27_12h03.20.300,memory_pilot_most_recent,2022.2.4,Win32,29.9940012,space,2.617,,,,,,,,,,,,,,,,,,,,,,,,,,,,,,,,,,,,,,,,,,,,,,,
,,,A209V2VHLLQ59W,34,Genderqueer,3,2022-12-27_12h03.20.300,memory_pilot_most_recent,2022.2.4,Win32,29.9940012,,,,,,,,,,,,,,,,,,,,,,,,,1,0,0,0,0,1,BROWN_THRASHER_3.jpg,DOUBLE_EYED_FIG_PARROT_3.jpg,1,,,,,,,,,,,,,,,,
,,,A209V2VHLLQ59W,34,Genderqueer,3,2022-12-27_12h03.20.300,memory_pilot_most_recent,2022.2.4,Win32,29.9940012,,,,,,,,,,,,,,,,,,,,,,,,,1,0,1,1,1,1,LESSER_ADJUTANT_4.jpg,FAIRY_TERN_3.jpg,3,,,,,,,,,,,,,,,,
,,,A209V2VHLLQ59W,34,Genderqueer,3,2022-12-27_12h03.20.300,memory_pilot_most_recent,2022.2.4,Win32,29.9940012,,,,,,,,,,,,,,,,,,,,,,,,,1,0,2,2,2,1,KAGU_5.jpg,ASHY_STORM_PETREL_1.jpg,2,,,,,,,,,,,,,,,,
,,,A209V2VHLLQ59W,34,Genderqueer,3,2022-12-27_12h03.20.300,memory_pilot_most_recent,2022.2.4,Win32,29.9940012,,,,,,,,,,,,,,,,,,,,,,,,,1,0,3,3,3,1,MALACHITE_KINGFISHER_2.jpg,AMERICAN_FLAMINGO_1.jpg,1,,,,,,,,,,,,,,,,
,,,A209V2VHLLQ59W,34,Genderqueer,3,2022-12-27_12h03.20.300,memory_pilot_most_recent,2022.2.4,Win32,29.9940012,,,,,,,,,,,,,,,,,,,,,,,,,1,0,4,4,4,1,RUBY_THROATED_HUMMINGBIRD_3.jpg,MALAGASY_WHITE_EYE_2.jpg,1,,,,,,,,,,,,,,,,
,,,A209V2VHLLQ59W,34,Genderqueer,3,2022-12-27_12h03.20.300,memory_pilot_most_recent,2022.2.4,Win32,29.9940012,,,,,,,,,,,,,,,,,,,,,,,,,1,0,5,5,5,1,TASMANIAN_HEN_5.jpg,GREEN_BROADBILL_1.jpg,1,,,,,,,,,,,,,,,,
,,,A209V2VHLLQ59W,34,Genderqueer,3,2022-12-27_12h03.20.300,memory_pilot_most_recent,2022.2.4,Win32,29.9940012,,,,,,,,,,,,,,,,,,,,,,,,,1,0,6,6,6,1,INDIGO_BUNTING_1.jpg,NORTHERN_GANNET_1.jpg,2,,,,,,,,,,,,,,,,
,,,A209V2VHLLQ59W,34,Genderqueer,3,2022-12-27_12h03.20.300,memory_pilot_most_recent,2022.2.4,Win32,29.9940012,,,,,,,,,,,,,,,,,,,,,,,,,1,0,7,7,7,1,ALPINE_CHOUGH_4.jpg,SNOWY_EGRET_2.jpg,1,,,,,,,,,,,,,,,,
,,,A209V2VHLLQ59W,34,Genderqueer,3,2022-12-27_12h03.20.300,memory_pilot_most_recent,2022.2.4,Win32,29.9940012,,,,,,,,,,,,,,,,,,,,,,,,,1,0,8,8,8,1,MYNA_1.jpg,PARADISE_TANAGER_3.jpg,3,,,,,,,,,,,,,,,,
,,,A209V2VHLLQ59W,34,Genderqueer,3,2022-12-27_12h03.20.300,memory_pilot_most_recent,2022.2.4,Win32,29.9940012,,,,,,,,,,,,,,,,,,,,,,,,,1,0,9,9,9,1,BREWERS_BLACKBIRD_3.jpg,GOLDEN_CHEEKED_WARBLER_3.jpg,2,,,,,,,,,,,,,,,,
,,,A209V2VHLLQ59W,34,Genderqueer,3,2022-12-27_12h03.20.300,memory_pilot_most_recent,2022.2.4,Win32,29.9940012,,,,,,,,,,,,,,,,,,,,,,,,,1,0,10,10,10,1,AMERICAN_PIPIT_5.jpg,HEPATIC_TANAGER_5.jpg,3,,,,,,,,,,,,,,,,
,,,A209V2VHLLQ59W,34,Genderqueer,3,2022-12-27_12h03.20.300,memory_pilot_most_recent,2022.2.4,Win32,29.9940012,,,,,,,,,,,,,,,,,,,,,,,,,1,0,11,11,11,1,EUROPEAN_TURTLE_DOVE_3.jpg,PAINTED_BUNTING_3.jpg,2,,,,,,,,,,,,,,,,
,,,A209V2VHLLQ59W,34,Genderqueer,3,2022-12-27_12h03.20.300,memory_pilot_most_recent,2022.2.4,Win32,29.9940012,,,,,,,,,,,,,,,,,,,,,,,,,1,0,12,12,12,1,AFRICAN_PIED_HORNBILL_5.jpg,KIWI_4.jpg,1,,,,,,,,,,,,,,,,
,,,A209V2VHLLQ59W,34,Genderqueer,3,2022-12-27_12h03.20.300,memory_pilot_most_recent,2022.2.4,Win32,29.9940012,,,,,,,,,,,,,,,,,,,,,,,,left,1,0,13,13,13,1,left.jpg,,,left,0.741,,,,,,,,,,,,,,
,,,A209V2VHLLQ59W,34,Genderqueer,3,2022-12-27_12h03.20.300,memory_pilot_most_recent,2022.2.4,Win32,29.9940012,,,,,,,,,,,,,,,,,,,,,,,,,1,0,14,14,14,1,ECUADORIAN_HILLSTAR_5.jpg,BOBOLINK_5.jpg,2,,,,,,,,,,,,,,,,
,,,A209V2VHLLQ59W,34,Genderqueer,3,2022-12-27_12h03.20.300,memory_pilot_most_recent,2022.2.4,Win32,29.9940012,,,,,,,,,,,,,,,,,,,,,,,,,1,0,15,15,15,1,BROWN_NOODY_3.jpg,GUINEA_TURACO_5.jpg,3,,,,,,,,,,,,,,,,
,,,A209V2VHLLQ59W,34,Genderqueer,3,2022-12-27_12h03.20.300,memory_pilot_most_recent,2022.2.4,Win32,29.9940012,,,,,,,,,,,,,,,,,,,,,,,,,1,0,16,16,16,1,NORTHERN_JACANA_3.jpg,CRAB_PLOVER_3.jpg,2,,,,,,,,,,,,,,,,
,,,A209V2VHLLQ59W,34,Genderqueer,3,2022-12-27_12h03.20.300,memory_pilot_most_recent,2022.2.4,Win32,29.9940012,,,,,,,,,,,,,,,,,,,,,,,,,1,0,17,17,17,1,GOLDEN_CHLOROPHONIA_5.jpg,COMMON_HOUSE_MARTIN_4.jpg,2,,,,,,,,,,,,,,,,
,,,A209V2VHLLQ59W,34,Genderqueer,3,2022-12-27_12h03.20.300,memory_pilot_most_recent,2022.2.4,Win32,29.9940012,,,,,,,,,,,,,,,,,,,,,,,,,1,0,18,18,18,1,SCARLET_TANAGER_2.jpg,BEARDED_BARBET_2.jpg,1,,,,,,,,,,,,,,,,
,,,A209V2VHLLQ59W,34,Genderqueer,3,2022-12-27_12h03.20.300,memory_pilot_most_recent,2022.2.4,Win32,29.9940012,,,,,,,,,,,,,,,,,,,,,,,,,1,0,19,19,19,1,BALI_STARLING_1.jpg,PURPLE_FINCH_2.jpg,2,,,,,,,,,,,,,,,,
,,,A209V2VHLLQ59W,34,Genderqueer,3,2022-12-27_12h03.20.300,memory_pilot_most_recent,2022.2.4,Win32,29.9940012,,,,,,,,,,,,,,,,,,,,,,,,right,1,0,20,20,20,1,right.jpg,,,right,0.505,,,,,,,,,,,,,,
,,,A209V2VHLLQ59W,34,Genderqueer,3,2022-12-27_12h03.20.300,memory_pilot_most_recent,2022.2.4,Win32,29.9940012,,,,,,,,,,,,,,,,,,,,,,,,,1,0,21,21,21,1,KILLDEAR_2.jpg,PEACOCK_5.jpg,1,,,,,,,,,,,,,,,,
,,,A209V2VHLLQ59W,34,Genderqueer,3,2022-12-27_12h03.20.300,memory_pilot_most_recent,2022.2.4,Win32,29.9940012,,,,,,,,,,,,,,,,,,,,,,,,,1,0,22,22,22,1,PYGMY_KINGFISHER_5.jpg,GRANDALA_2.jpg,1,,,,,,,,,,,,,,,,
,,,A209V2VHLLQ59W,34,Genderqueer,3,2022-12-27_12h03.20.300,memory_pilot_most_recent,2022.2.4,Win32,29.9940012,,,,,,,,,,,,,,,,,,,,,,,,,1,0,23,23,23,1,RED_HEADED_WOODPECKER_5.jpg,CRIMSON_CHAT_3.jpg,2,,,,,,,,,,,,,,,,
,,,A209V2VHLLQ59W,34,Genderqueer,3,2022-12-27_12h03.20.300,memory_pilot_most_recent,2022.2.4,Win32,29.9940012,,,,,,,,,,,,,,,,,,,,,,,,,1,0,24,24,24,1,SPLENDID_WREN_1.jpg,POMARINE_JAEGER_5.jpg,1,,,,,,,,,,,,,,,,
,,,A209V2VHLLQ59W,34,Genderqueer,3,2022-12-27_12h03.20.300,memory_pilot_most_recent,2022.2.4,Win32,29.9940012,,,,,,,,,,,,,,,,,,,,,,,,,1,0,25,25,25,1,RUFOUS_KINGFISHER_1.jpg,HORNED_SUNGEM_4.jpg,3,,,,,,,,,,,,,,,,
,,,A209V2VHLLQ59W,34,Genderqueer,3,2022-12-27_12h03.20.300,memory_pilot_most_recent,2022.2.4,Win32,29.9940012,,,,,,,,,,,,,,,,,,,,,,,,,1,0,26,26,26,1,IVORY_GULL_3.jpg,INDIGO_FLYCATCHER_2.jpg,1,,,,,,,,,,,,,,,,
,,,A209V2VHLLQ59W,34,Genderqueer,3,2022-12-27_12h03.20.300,memory_pilot_most_recent,2022.2.4,Win32,29.9940012,,,,,,,,,,,,,,,,,,,,,,,,,1,0,27,27,27,1,STRIPPED_SWALLOW_1.jpg,MAGPIE_GOOSE_4.jpg,2,,,,,,,,,,,,,,,,
,,,A209V2VHLLQ59W,34,Genderqueer,3,2022-12-27_12h03.20.300,memory_pilot_most_recent,2022.2.4,Win32,29.9940012,,,,,,,,,,,,,,,,,,,,,,,,right,1,0,28,28,28,1,right.jpg,,,right,0.76,,,,,,,,,,,,,,
,,,A209V2VHLLQ59W,34,Genderqueer,3,2022-12-27_12h03.20.300,memory_pilot_most_recent,2022.2.4,Win32,29.9940012,,,,,,,,,,,,,,,,,,,,,,,,,1,0,29,29,29,1,EASTERN_TOWEE_2.jpg,NORTHERN_BEARDLESS_TYRANNULET_5.jpg,3,,,,,,,,,,,,,,,,
,,,A209V2VHLLQ59W,34,Genderqueer,3,2022-12-27_12h03.20.300,memory_pilot_most_recent,2022.2.4,Win32,29.9940012,,,,,,,,,,,,,,,,,,,,,,,,,1,0,30,30,30,1,SHOEBILL_3.jpg,GILDED_FLICKER_5.jpg,2,,,,,,,,,,,,,,,,
,,,A209V2VHLLQ59W,34,Genderqueer,3,2022-12-27_12h03.20.300,memory_pilot_most_recent,2022.2.4,Win32,29.9940012,,,,,,,,,,,,,,,,,,,,,,,,,1,0,31,31,31,1,GYRFALCON_1.jpg,FAIRY_TERN_1.jpg,3,,,,,,,,,,,,,,,,
,,,A209V2VHLLQ59W,34,Genderqueer,3,2022-12-27_12h03.20.300,memory_pilot_most_recent,2022.2.4,Win32,29.9940012,,,,,,,,,,,,,,,,,,,,,,,,,1,0,32,32,32,1,LESSER_ADJUTANT_5.jpg,GAMBELS_QUAIL_1.jpg,2,,,,,,,,,,,,,,,,
,,,A209V2VHLLQ59W,34,Genderqueer,3,2022-12-27_12h03.20.300,memory_pilot_most_recent,2022.2.4,Win32,29.9940012,,,,,,,,,,,,,,,,,,,,,,,,,1,0,33,33,33,1,VERMILION_FLYCATHER_3.jpg,INDIAN_BUSTARD_1.jpg,1,,,,,,,,,,,,,,,,
,,,A209V2VHLLQ59W,34,Genderqueer,3,2022-12-27_12h03.20.300,memory_pilot_most_recent,2022.2.4,Win32,29.9940012,,,,,,,,,,,,,,,,,,,,,,,,,1,0,34,34,34,1,CRESTED_NUTHATCH_2.jpg,SCARLET_IBIS_3.jpg,1,,,,,,,,,,,,,,,,
,,,A209V2VHLLQ59W,34,Genderqueer,3,2022-12-27_12h03.20.300,memory_pilot_most_recent,2022.2.4,Win32,29.9940012,,,,,,,,,,,,,,,,,,,,,,,,,1,0,35,35,35,1,ASIAN_DOLLARD_BIRD_2.jpg,VIOLET_GREEN_SWALLOW_4.jpg,3,,,,,,,,,,,,,,,,
,,,A209V2VHLLQ59W,34,Genderqueer,3,2022-12-27_12h03.20.300,memory_pilot_most_recent,2022.2.4,Win32,29.9940012,,,,,,,,,,,,,,,,,,,,,,,,,1,0,36,36,36,1,LITTLE_AUK_5.jpg,BEARDED_BELLBIRD_1.jpg,3,,,,,,,,,,,,,,,,
,,,A209V2VHLLQ59W,34,Genderqueer,3,2022-12-27_12h03.20.300,memory_pilot_most_recent,2022.2.4,Win32,29.9940012,,,,,,,,,,,,,,,,,,,,,,,,,1,0,37,37,37,1,CHUKAR_PARTRIDGE_5.jpg,OSTRICH_5.jpg,1,,,,,,,,,,,,,,,,
,,,A209V2VHLLQ59W,34,Genderqueer,3,2022-12-27_12h03.20.300,memory_pilot_most_recent,2022.2.4,Win32,29.9940012,,,,,,,,,,,,,,,,,,,,,,,,,1,0,38,38,38,1,PARUS_MAJOR_1.jpg,PINK_ROBIN_3.jpg,3,,,,,,,,,,,,,,,,
,,,A209V2VHLLQ59W,34,Genderqueer,3,2022-12-27_12h03.20.300,memory_pilot_most_recent,2022.2.4,Win32,29.9940012,,,,,,,,,,,,,,,,,,,,,,,,,1,0,39,39,39,1,OCELLATED_TURKEY_1.jpg,PURPLE_SWAMPHEN_4.jpg,3,,,,,,,,,,,,,,,,
,,,A209V2VHLLQ59W,34,Genderqueer,3,2022-12-27_12h03.20.300,memory_pilot_most_recent,2022.2.4,Win32,29.9940012,,,,,,,,,,,,,,,,,,,,,,,,right,1,0,40,40,40,1,right.jpg,,,right,0.643,,,,,,,,,,,,,,
,,,A209V2VHLLQ59W,34,Genderqueer,3,2022-12-27_12h03.20.300,memory_pilot_most_recent,2022.2.4,Win32,29.9940012,,,,,,,,,,,,,,,,,,,,,,,,,1,0,41,41,41,1,CRESTED_CARACARA_4.jpg,TOUCHAN_4.jpg,3,,,,,,,,,,,,,,,,
,,,A209V2VHLLQ59W,34,Genderqueer,3,2022-12-27_12h03.20.300,memory_pilot_most_recent,2022.2.4,Win32,29.9940012,,,,,,,,,,,,,,,,,,,,,,,,,1,0,42,42,42,1,CERULEAN_WARBLER_1.jpg,AMERICAN_FLAMINGO_5.jpg,2,,,,,,,,,,,,,,,,
,,,A209V2VHLLQ59W,34,Genderqueer,3,2022-12-27_12h03.20.300,memory_pilot_most_recent,2022.2.4,Win32,29.9940012,,,,,,,,,,,,,,,,,,,,,,,,,1,0,43,43,43,1,WHITE_CHEEKED_TURACO_5.jpg,PYGMY_KINGFISHER_2.jpg,3,,,,,,,,,,,,,,,,
,,,A209V2VHLLQ59W,34,Genderqueer,3,2022-12-27_12h03.20.300,memory_pilot_most_recent,2022.2.4,Win32,29.9940012,,,,,,,,,,,,,,,,,,,,,,,,,1,0,44,44,44,1,RUBY_THROATED_HUMMINGBIRD_1.jpg,FRIGATE_1.jpg,3,,,,,,,,,,,,,,,,
,,,A209V2VHLLQ59W,34,Genderqueer,3,2022-12-27_12h03.20.300,memory_pilot_most_recent,2022.2.4,Win32,29.9940012,,,,,,,,,,,,,,,,,,,,,,,,,1,0,45,45,45,1,CASSOWARY_1.jpg,SCARLET_MACAW_1.jpg,2,,,,,,,,,,,,,,,,
,,,A209V2VHLLQ59W,34,Genderqueer,3,2022-12-27_12h03.20.300,memory_pilot_most_recent,2022.2.4,Win32,29.9940012,,,,,,,,,,,,,,,,,,,,,,,,,1,0,46,46,46,1,ASIAN_CRESTED_IBIS_4.jpg,IVORY_GULL_2.jpg,3,,,,,,,,,,,,,,,,
,,,A209V2VHLLQ59W,34,Genderqueer,3,2022-12-27_12h03.20.300,memory_pilot_most_recent,2022.2.4,Win32,29.9940012,,,,,,,,,,,,,,,,,,,,,,,,,1,0,47,47,47,1,GRAY_KINGBIRD_5.jpg,BALD_EAGLE_2.jpg,1,,,,,,,,,,,,,,,,
,,,A209V2VHLLQ59W,34,Genderqueer,3,2022-12-27_12h03.20.300,memory_pilot_most_recent,2022.2.4,Win32,29.9940012,,,,,,,,,,,,,,,,,,,,,,,,,1,0,48,48,48,1,GOLDEN_CHEEKED_WARBLER_2.jpg,SPOONBILL_1.jpg,1,,,,,,,,,,,,,,,,
,,,A209V2VHLLQ59W,34,Genderqueer,3,2022-12-27_12h03.20.300,memory_pilot_most_recent,2022.2.4,Win32,29.9940012,,,,,,,,,,,,,,,,,,,,,,,,left,1,0,49,49,49,1,left.jpg,,,left,0.652,,,,,,,,,,,,,,
,,,A209V2VHLLQ59W,34,Genderqueer,3,2022-12-27_12h03.20.300,memory_pilot_most_recent,2022.2.4,Win32,29.9940012,,,,,,,,,,,,,,,,,,,,,,,,,1,0,50,50,50,1,RUBY_THROATED_HUMMINGBIRD_2.jpg,DUSKY_ROBIN_5.jpg,3,,,,,,,,,,,,,,,,
,,,A209V2VHLLQ59W,34,Genderqueer,3,2022-12-27_12h03.20.300,memory_pilot_most_recent,2022.2.4,Win32,29.9940012,,,,,,,,,,,,,,,,,,,,,,,,,1,0,51,51,51,1,CASPIAN_TERN_1.jpg,COMMON_LOON_2.jpg,3,,,,,,,,,,,,,,,,
,,,A209V2VHLLQ59W,34,Genderqueer,3,2022-12-27_12h03.20.300,memory_pilot_most_recent,2022.2.4,Win32,29.9940012,,,,,,,,,,,,,,,,,,,,,,,,,1,0,52,52,52,1,INCA_TERN_4.jpg,ELLIOTS__PHEASANT_4.jpg,1,,,,,,,,,,,,,,,,
,,,A209V2VHLLQ59W,34,Genderqueer,3,2022-12-27_12h03.20.300,memory_pilot_most_recent,2022.2.4,Win32,29.9940012,,,,,,,,,,,,,,,,,,,,,,,,,1,0,53,53,53,1,GREY_PLOVER_1.jpg,HYACINTH_MACAW_3.jpg,1,,,,,,,,,,,,,,,,
,,,A209V2VHLLQ59W,34,Genderqueer,3,2022-12-27_12h03.20.300,memory_pilot_most_recent,2022.2.4,Win32,29.9940012,,,,,,,,,,,,,,,,,,,,,,,,,1,0,54,54,54,1,PEACOCK_3.jpg,STRAWBERRY_FINCH_4.jpg,2,,,,,,,,,,,,,,,,
,,,A209V2VHLLQ59W,34,Genderqueer,3,2022-12-27_12h03.20.300,memory_pilot_most_recent,2022.2.4,Win32,29.9940012,,,,,,,,,,,,,,,,,,,,,,,,,1,0,55,55,55,1,DOUBLE_BRESTED_CORMARANT_5.jpg,CHINESE_POND_HERON_2.jpg,3,,,,,,,,,,,,,,,,
,,,A209V2VHLLQ59W,34,Genderqueer,3,2022-12-27_12h03.20.300,memory_pilot_most_recent,2022.2.4,Win32,29.9940012,,,,,,,,,,,,,,,,,,,,,,,,,1,0,56,56,56,1,ARARIPE_MANAKIN_4.jpg,BLACK_VULTURE_1.jpg,2,,,,,,,,,,,,,,,,
,,,A209V2VHLLQ59W,34,Genderqueer,3,2022-12-27_12h03.20.300,memory_pilot_most_recent,2022.2.4,Win32,29.9940012,,,,,,,,,,,,,,,,,,,,,,,,,1,0,57,57,57,1,LARK_BUNTING_2.jpg,CACTUS_WREN_3.jpg,3,,,,,,,,,,,,,,,,
,,,A209V2VHLLQ59W,34,Genderqueer,3,2022-12-27_12h03.20.300,memory_pilot_most_recent,2022.2.4,Win32,29.9940012,,,,,,,,,,,,,,,,,,,,,,,,,1,0,58,58,58,1,MAGPIE_GOOSE_5.jpg,OYSTER_CATCHER_3.jpg,3,,,,,,,,,,,,,,,,
,,,A209V2VHLLQ59W,34,Genderqueer,3,2022-12-27_12h03.20.300,memory_pilot_most_recent,2022.2.4,Win32,29.9940012,,,,,,,,,,,,,,,,,,,,,,,,,1,0,59,59,59,1,INLAND_DOTTEREL_4.jpg,NICOBAR_PIGEON_4.jpg,2,,,,,,,,,,,,,,,,
,,,A209V2VHLLQ59W,34,Genderqueer,3,2022-12-27_12h03.20.300,memory_pilot_most_recent,2022.2.4,Win32,29.9940012,,,,,,,,,,,,,,,,,,,,,,,,,1,0,60,60,60,1,PINK_ROBIN_4.jpg,ALBATROSS_4.jpg,2,,,,,,,,,,,,,,,,
,,,A209V2VHLLQ59W,34,Genderqueer,3,2022-12-27_12h03.20.300,memory_pilot_most_recent,2022.2.4,Win32,29.9940012,,,,,,,,,,,,,,,,,,,,,,,,,1,0,61,61,61,1,OVENBIRD_5.jpg,FAIRY_PENGUIN_1.jpg,2,,,,,,,,,,,,,,,,
,,,A209V2VHLLQ59W,34,Genderqueer,3,2022-12-27_12h03.20.300,memory_pilot_most_recent,2022.2.4,Win32,29.9940012,,,,,,,,,,,,,,,,,,,,,,,,,1,0,62,62,62,1,FLAME_BOWERBIRD_3.jpg,BROWN_THRASHER_4.jpg,2,,,,,,,,,,,,,,,,
,,,A209V2VHLLQ59W,34,Genderqueer,3,2022-12-27_12h03.20.300,memory_pilot_most_recent,2022.2.4,Win32,29.9940012,,,,,,,,,,,,,,,,,,,,,,,,,1,0,63,63,63,1,HAWAIIAN_GOOSE_4.jpg,CUBAN_TODY_3.jpg,1,,,,,,,,,,,,,,,,
,,,A209V2VHLLQ59W,34,Genderqueer,3,2022-12-27_12h03.20.300,memory_pilot_most_recent,2022.2.4,Win32,29.9940012,,,,,,,,,,,,,,,,,,,,,,,,,1,0,64,64,64,1,IVORY_GULL_1.jpg,WILSONS_BIRD_OF_PARADISE_4.jpg,1,,,,,,,,,,,,,,,,
,,,A209V2VHLLQ59W,34,Genderqueer,3,2022-12-27_12h03.20.300,memory_pilot_most_recent,2022.2.4,Win32,29.9940012,,,,,,,,,,,,,,,,,,,,,,,,,,,,,,,,,,,,space,2.177,,,,,,,,,,,,
,,,A209V2VHLLQ59W,34,Genderqueer,3,2022-12-27_12h03.20.300,memory_pilot_most_recent,2022.2.4,Win32,29.9940012,,,,,,,,,,,,,,,,,,,,,,,,,,,,,,,,,,,,,,,,,,,,,,,,,
,,,A209V2VHLLQ59W,34,Genderqueer,3,2022-12-27_12h03.20.300,memory_pilot_most_recent,2022.2.4,Win32,29.9940012,,,,,,,,,,,,,,,,,,,,,,,,,,,,,,,,,1,right,,,,right,1,1.22,0,0,0,0,1,SPOONBILL_1.jpg,GOLDEN_CHEEKED_WARBLER_2.jpg,,
,,,A209V2VHLLQ59W,34,Genderqueer,3,2022-12-27_12h03.20.300,memory_pilot_most_recent,2022.2.4,Win32,29.9940012,,,,,,,,,,,,,,,,,,,,,,,,,,,,,,,,,2,left,,,,left,1,2.497,0,1,1,1,1,BREWERS_BLACKBIRD_3.jpg,GOLDEN_CHEEKED_WARBLER_3.jpg,,
,,,A209V2VHLLQ59W,34,Genderqueer,3,2022-12-27_12h03.20.300,memory_pilot_most_recent,2022.2.4,Win32,29.9940012,,,,,,,,,,,,,,,,,,,,,,,,,,,,,,,,,3,left,,,,left,1,1.309,0,2,2,2,1,RUFOUS_KINGFISHER_1.jpg,HORNED_SUNGEM_4.jpg,,
,,,A209V2VHLLQ59W,34,Genderqueer,3,2022-12-27_12h03.20.300,memory_pilot_most_recent,2022.2.4,Win32,29.9940012,,,,,,,,,,,,,,,,,,,,,,,,,,,,,,,,,1,right,,,,right,1,1.561,0,3,3,3,1,DOUBLE_EYED_FIG_PARROT_3.jpg,BROWN_THRASHER_3.jpg,,
,,,A209V2VHLLQ59W,34,Genderqueer,3,2022-12-27_12h03.20.300,memory_pilot_most_recent,2022.2.4,Win32,29.9940012,,,,,,,,,,,,,,,,,,,,,,,,,,,,,,,,,2,left,,,,left,1,1.821,0,4,4,4,1,OVENBIRD_5.jpg,FAIRY_PENGUIN_1.jpg,,
,,,A209V2VHLLQ59W,34,Genderqueer,3,2022-12-27_12h03.20.300,memory_pilot_most_recent,2022.2.4,Win32,29.9940012,,,,,,,,,,,,,,,,,,,,,,,,,,,,,,,,,3,right,,,,right,1,1.646,0,5,5,5,1,BEARDED_BELLBIRD_1.jpg,LITTLE_AUK_5.jpg,,
,,,A209V2VHLLQ59W,34,Genderqueer,3,2022-12-27_12h03.20.300,memory_pilot_most_recent,2022.2.4,Win32,29.9940012,,,,,,,,,,,,,,,,,,,,,,,,,,,,,,,,,1,left,,,,left,1,1.918,0,6,6,6,1,GREY_PLOVER_1.jpg,HYACINTH_MACAW_3.jpg,,
,,,A209V2VHLLQ59W,34,Genderqueer,3,2022-12-27_12h03.20.300,memory_pilot_most_recent,2022.2.4,Win32,29.9940012,,,,,,,,,,,,,,,,,,,,,,,,,,,,,,,,,3,right,,,,left,0,2,0,7,7,7,1,PARADISE_TANAGER_3.jpg,MYNA_1.jpg,,
,,,A209V2VHLLQ59W,34,Genderqueer,3,2022-12-27_12h03.20.300,memory_pilot_most_recent,2022.2.4,Win32,29.9940012,,,,,,,,,,,,,,,,,,,,,,,,,,,,,,,,,1,right,,,,right,1,1.098,0,8,8,8,1,AMERICAN_FLAMINGO_1.jpg,MALACHITE_KINGFISHER_2.jpg,,
,,,A209V2VHLLQ59W,34,Genderqueer,3,2022-12-27_12h03.20.300,memory_pilot_most_recent,2022.2.4,Win32,29.9940012,,,,,,,,,,,,,,,,,,,,,,,,,,,,,,,,,1,right,,,,right,1,1.255,0,9,9,9,1,KIWI_4.jpg,AFRICAN_PIED_HORNBILL_5.jpg,,
,,,A209V2VHLLQ59W,34,Genderqueer,3,2022-12-27_12h03.20.300,memory_pilot_most_recent,2022.2.4,Win32,29.9940012,,,,,,,,,,,,,,,,,,,,,,,,,,,,,,,,,3,right,,,,right,1,1.308,0,10,10,10,1,COMMON_LOON_2.jpg,CASPIAN_TERN_1.jpg,,
,,,A209V2VHLLQ59W,34,Genderqueer,3,2022-12-27_12h03.20.300,memory_pilot_most_recent,2022.2.4,Win32,29.9940012,,,,,,,,,,,,,,,,,,,,,,,,,,,,,,,,,2,left,,,,left,1,0.963,0,11,11,11,1,PEACOCK_3.jpg,STRAWBERRY_FINCH_4.jpg,,
,,,A209V2VHLLQ59W,34,Genderqueer,3,2022-12-27_12h03.20.300,memory_pilot_most_recent,2022.2.4,Win32,29.9940012,,,,,,,,,,,,,,,,,,,,,,,,,,,,,,,,,1,left,,,,left,1,1.373,0,12,12,12,1,IVORY_GULL_3.jpg,INDIGO_FLYCATCHER_2.jpg,,
,,,A209V2VHLLQ59W,34,Genderqueer,3,2022-12-27_12h03.20.300,memory_pilot_most_recent,2022.2.4,Win32,29.9940012,,,,,,,,,,,,,,,,,,,,,,,,,,,,,,,,,1,left,,,,left,1,0.773,0,13,13,13,1,VERMILION_FLYCATHER_3.jpg,INDIAN_BUSTARD_1.jpg,,
,,,A209V2VHLLQ59W,34,Genderqueer,3,2022-12-27_12h03.20.300,memory_pilot_most_recent,2022.2.4,Win32,29.9940012,,,,,,,,,,,,,,,,,,,,,,,,,,,,,,,,,1,right,,,,right,1,1.1,0,14,14,14,1,GRANDALA_2.jpg,PYGMY_KINGFISHER_5.jpg,,
,,,A209V2VHLLQ59W,34,Genderqueer,3,2022-12-27_12h03.20.300,memory_pilot_most_recent,2022.2.4,Win32,29.9940012,,,,,,,,,,,,,,,,,,,,,,,,,,,,,,,,,3,right,,,,right,1,1.242,0,15,15,15,1,GUINEA_TURACO_5.jpg,BROWN_NOODY_3.jpg,,
,,,A209V2VHLLQ59W,34,Genderqueer,3,2022-12-27_12h03.20.300,memory_pilot_most_recent,2022.2.4,Win32,29.9940012,,,,,,,,,,,,,,,,,,,,,,,,,,,,,,,,,2,left,,,,right,0,3.011,0,16,16,16,1,EUROPEAN_TURTLE_DOVE_3.jpg,PAINTED_BUNTING_3.jpg,,
,,,A209V2VHLLQ59W,34,Genderqueer,3,2022-12-27_12h03.20.300,memory_pilot_most_recent,2022.2.4,Win32,29.9940012,,,,,,,,,,,,,,,,,,,,,,,,,,,,,,,,,2,right,,,,right,1,1.086,0,17,17,17,1,ASHY_STORM_PETREL_1.jpg,KAGU_5.jpg,,
,,,A209V2VHLLQ59W,34,Genderqueer,3,2022-12-27_12h03.20.300,memory_pilot_most_recent,2022.2.4,Win32,29.9940012,,,,,,,,,,,,,,,,,,,,,,,,,,,,,,,,,1,right,,,,right,1,1.504,0,18,18,18,1,PEACOCK_5.jpg,KILLDEAR_2.jpg,,
,,,A209V2VHLLQ59W,34,Genderqueer,3,2022-12-27_12h03.20.300,memory_pilot_most_recent,2022.2.4,Win32,29.9940012,,,,,,,,,,,,,,,,,,,,,,,,,,,,,,,,,1,left,,,,left,1,1.116,0,19,19,19,1,GRAY_KINGBIRD_5.jpg,BALD_EAGLE_2.jpg,,
,,,A209V2VHLLQ59W,34,Genderqueer,3,2022-12-27_12h03.20.300,memory_pilot_most_recent,2022.2.4,Win32,29.9940012,,,,,,,,,,,,,,,,,,,,,,,,,,,,,,,,,3,right,,,,right,1,2.802,0,20,20,20,1,CHINESE_POND_HERON_2.jpg,DOUBLE_BRESTED_CORMARANT_5.jpg,,
,,,A209V2VHLLQ59W,34,Genderqueer,3,2022-12-27_12h03.20.300,memory_pilot_most_recent,2022.2.4,Win32,29.9940012,,,,,,,,,,,,,,,,,,,,,,,,,,,,,,,,,3,right,,,,right,1,1.273,0,21,21,21,1,FAIRY_TERN_1.jpg,GYRFALCON_1.jpg,,
,,,A209V2VHLLQ59W,34,Genderqueer,3,2022-12-27_12h03.20.300,memory_pilot_most_recent,2022.2.4,Win32,29.9940012,,,,,,,,,,,,,,,,,,,,,,,,,,,,,,,,,2,right,,,,right,1,1.745,0,22,22,22,1,COMMON_HOUSE_MARTIN_4.jpg,GOLDEN_CHLOROPHONIA_5.jpg,,
,,,A209V2VHLLQ59W,34,Genderqueer,3,2022-12-27_12h03.20.300,memory_pilot_most_recent,2022.2.4,Win32,29.9940012,,,,,,,,,,,,,,,,,,,,,,,,,,,,,,,,,2,left,,,,left,1,1.741,0,23,23,23,1,STRIPPED_SWALLOW_1.jpg,MAGPIE_GOOSE_4.jpg,,
,,,A209V2VHLLQ59W,34,Genderqueer,3,2022-12-27_12h03.20.300,memory_pilot_most_recent,2022.2.4,Win32,29.9940012,,,,,,,,,,,,,,,,,,,,,,,,,,,,,,,,,2,right,,,,right,1,1.041,0,24,24,24,1,SCARLET_MACAW_1.jpg,CASSOWARY_1.jpg,,
,,,A209V2VHLLQ59W,34,Genderqueer,3,2022-12-27_12h03.20.300,memory_pilot_most_recent,2022.2.4,Win32,29.9940012,,,,,,,,,,,,,,,,,,,,,,,,,,,,,,,,,3,left,,,,left,1,1.68,0,25,25,25,1,ASIAN_DOLLARD_BIRD_2.jpg,VIOLET_GREEN_SWALLOW_4.jpg,,
,,,A209V2VHLLQ59W,34,Genderqueer,3,2022-12-27_12h03.20.300,memory_pilot_most_recent,2022.2.4,Win32,29.9940012,,,,,,,,,,,,,,,,,,,,,,,,,,,,,,,,,2,right,,,,right,1,0.94,0,26,26,26,1,ALBATROSS_4.jpg,PINK_ROBIN_4.jpg,,
,,,A209V2VHLLQ59W,34,Genderqueer,3,2022-12-27_12h03.20.300,memory_pilot_most_recent,2022.2.4,Win32,29.9940012,,,,,,,,,,,,,,,,,,,,,,,,,,,,,,,,,3,right,,,,left,0,2.389,0,27,27,27,1,PINK_ROBIN_3.jpg,PARUS_MAJOR_1.jpg,,
,,,A209V2VHLLQ59W,34,Genderqueer,3,2022-12-27_12h03.20.300,memory_pilot_most_recent,2022.2.4,Win32,29.9940012,,,,,,,,,,,,,,,,,,,,,,,,,,,,,,,,,2,right,,,,right,1,1.823,0,28,28,28,1,GAMBELS_QUAIL_1.jpg,LESSER_ADJUTANT_5.jpg,,
,,,A209V2VHLLQ59W,34,Genderqueer,3,2022-12-27_12h03.20.300,memory_pilot_most_recent,2022.2.4,Win32,29.9940012,,,,,,,,,,,,,,,,,,,,,,,,,,,,,,,,,1,right,,,,right,1,1.191,0,29,29,29,1,SCARLET_IBIS_3.jpg,CRESTED_NUTHATCH_2.jpg,,
,,,A209V2VHLLQ59W,34,Genderqueer,3,2022-12-27_12h03.20.300,memory_pilot_most_recent,2022.2.4,Win32,29.9940012,,,,,,,,,,,,,,,,,,,,,,,,,,,,,,,,,2,right,,,,right,1,1.606,0,30,30,30,1,CRAB_PLOVER_3.jpg,NORTHERN_JACANA_3.jpg,,
,,,A209V2VHLLQ59W,34,Genderqueer,3,2022-12-27_12h03.20.300,memory_pilot_most_recent,2022.2.4,Win32,29.9940012,,,,,,,,,,,,,,,,,,,,,,,,,,,,,,,,,2,left,,,,left,1,1.771,0,31,31,31,1,INLAND_DOTTEREL_4.jpg,NICOBAR_PIGEON_4.jpg,,
,,,A209V2VHLLQ59W,34,Genderqueer,3,2022-12-27_12h03.20.300,memory_pilot_most_recent,2022.2.4,Win32,29.9940012,,,,,,,,,,,,,,,,,,,,,,,,,,,,,,,,,2,left,,,,left,1,0.957,0,32,32,32,1,SHOEBILL_3.jpg,GILDED_FLICKER_5.jpg,,
,,,A209V2VHLLQ59W,34,Genderqueer,3,2022-12-27_12h03.20.300,memory_pilot_most_recent,2022.2.4,Win32,29.9940012,,,,,,,,,,,,,,,,,,,,,,,,,,,,,,,,,2,left,,,,right,0,1.163,0,33,33,33,1,FLAME_BOWERBIRD_3.jpg,BROWN_THRASHER_4.jpg,,
,,,A209V2VHLLQ59W,34,Genderqueer,3,2022-12-27_12h03.20.300,memory_pilot_most_recent,2022.2.4,Win32,29.9940012,,,,,,,,,,,,,,,,,,,,,,,,,,,,,,,,,1,left,,,,left,1,1.884,0,34,34,34,1,ALPINE_CHOUGH_4.jpg,SNOWY_EGRET_2.jpg,,
,,,A209V2VHLLQ59W,34,Genderqueer,3,2022-12-27_12h03.20.300,memory_pilot_most_recent,2022.2.4,Win32,29.9940012,,,,,,,,,,,,,,,,,,,,,,,,,,,,,,,,,1,right,,,,right,1,2.629,0,35,35,35,1,ELLIOTS__PHEASANT_4.jpg,INCA_TERN_4.jpg,,
,,,A209V2VHLLQ59W,34,Genderqueer,3,2022-12-27_12h03.20.300,memory_pilot_most_recent,2022.2.4,Win32,29.9940012,,,,,,,,,,,,,,,,,,,,,,,,,,,,,,,,,3,right,,,,left,0,3.191,0,36,36,36,1,CACTUS_WREN_3.jpg,LARK_BUNTING_2.jpg,,
,,,A209V2VHLLQ59W,34,Genderqueer,3,2022-12-27_12h03.20.300,memory_pilot_most_recent,2022.2.4,Win32,29.9940012,,,,,,,,,,,,,,,,,,,,,,,,,,,,,,,,,2,left,,,,left,1,1.058,0,37,37,37,1,CERULEAN_WARBLER_1.jpg,AMERICAN_FLAMINGO_5.jpg,,
,,,A209V2VHLLQ59W,34,Genderqueer,3,2022-12-27_12h03.20.300,memory_pilot_most_recent,2022.2.4,Win32,29.9940012,,,,,,,,,,,,,,,,,,,,,,,,,,,,,,,,,2,left,,,,left,1,1.334,0,38,38,38,1,ECUADORIAN_HILLSTAR_5.jpg,BOBOLINK_5.jpg,,
,,,A209V2VHLLQ59W,34,Genderqueer,3,2022-12-27_12h03.20.300,memory_pilot_most_recent,2022.2.4,Win32,29.9940012,,,,,,,,,,,,,,,,,,,,,,,,,,,,,,,,,3,right,,,,left,0,2.509,0,39,39,39,1,HEPATIC_TANAGER_5.jpg,AMERICAN_PIPIT_5.jpg,,
,,,A209V2VHLLQ59W,34,Genderqueer,3,2022-12-27_12h03.20.300,memory_pilot_most_recent,2022.2.4,Win32,29.9940012,,,,,,,,,,,,,,,,,,,,,,,,,,,,,,,,,1,left,,,,left,1,1.308,0,40,40,40,1,SCARLET_TANAGER_2.jpg,BEARDED_BARBET_2.jpg,,
,,,A209V2VHLLQ59W,34,Genderqueer,3,2022-12-27_12h03.20.300,memory_pilot_most_recent,2022.2.4,Win32,29.9940012,,,,,,,,,,,,,,,,,,,,,,,,,,,,,,,,,3,right,,,,right,1,1.66,0,41,41,41,1,FAIRY_TERN_3.jpg,LESSER_ADJUTANT_4.jpg,,
,,,A209V2VHLLQ59W,34,Genderqueer,3,2022-12-27_12h03.20.300,memory_pilot_most_recent,2022.2.4,Win32,29.9940012,,,,,,,,,,,,,,,,,,,,,,,,,,,,,,,,,1,right,,,,right,1,1.298,0,42,42,42,1,POMARINE_JAEGER_5.jpg,SPLENDID_WREN_1.jpg,,
,,,A209V2VHLLQ59W,34,Genderqueer,3,2022-12-27_12h03.20.300,memory_pilot_most_recent,2022.2.4,Win32,29.9940012,,,,,,,,,,,,,,,,,,,,,,,,,,,,,,,,,2,left,,,,left,1,1.018,0,43,43,43,1,BALI_STARLING_1.jpg,PURPLE_FINCH_2.jpg,,
,,,A209V2VHLLQ59W,34,Genderqueer,3,2022-12-27_12h03.20.300,memory_pilot_most_recent,2022.2.4,Win32,29.9940012,,,,,,,,,,,,,,,,,,,,,,,,,,,,,,,,,2,right,,,,right,1,1.902,0,44,44,44,1,NORTHERN_GANNET_1.jpg,INDIGO_BUNTING_1.jpg,,
,,,A209V2VHLLQ59W,34,Genderqueer,3,2022-12-27_12h03.20.300,memory_pilot_most_recent,2022.2.4,Win32,29.9940012,,,,,,,,,,,,,,,,,,,,,,,,,,,,,,,,,1,left,,,,left,1,1.398,0,45,45,45,1,IVORY_GULL_1.jpg,WILSONS_BIRD_OF_PARADISE_4.jpg,,
,,,A209V2VHLLQ59W,34,Genderqueer,3,2022-12-27_12h03.20.300,memory_pilot_most_recent,2022.2.4,Win32,29.9940012,,,,,,,,,,,,,,,,,,,,,,,,,,,,,,,,,2,right,,,,right,1,2.029,0,46,46,46,1,BLACK_VULTURE_1.jpg,ARARIPE_MANAKIN_4.jpg,,
,,,A209V2VHLLQ59W,34,Genderqueer,3,2022-12-27_12h03.20.300,memory_pilot_most_recent,2022.2.4,Win32,29.9940012,,,,,,,,,,,,,,,,,,,,,,,,,,,,,,,,,3,left,,,,right,0,1.61,0,47,47,47,1,EASTERN_TOWEE_2.jpg,NORTHERN_BEARDLESS_TYRANNULET_5.jpg,,
,,,A209V2VHLLQ59W,34,Genderqueer,3,2022-12-27_12h03.20.300,memory_pilot_most_recent,2022.2.4,Win32,29.9940012,,,,,,,,,,,,,,,,,,,,,,,,,,,,,,,,,3,right,,,,right,1,2.933,0,48,48,48,1,DUSKY_ROBIN_5.jpg,RUBY_THROATED_HUMMINGBIRD_2.jpg,,
,,,A209V2VHLLQ59W,34,Genderqueer,3,2022-12-27_12h03.20.300,memory_pilot_most_recent,2022.2.4,Win32,29.9940012,,,,,,,,,,,,,,,,,,,,,,,,,,,,,,,,,1,left,,,,left,1,1.767,0,49,49,49,1,CHUKAR_PARTRIDGE_5.jpg,OSTRICH_5.jpg,,
,,,A209V2VHLLQ59W,34,Genderqueer,3,2022-12-27_12h03.20.300,memory_pilot_most_recent,2022.2.4,Win32,29.9940012,,,,,,,,,,,,,,,,,,,,,,,,,,,,,,,,,2,right,,,,right,1,1.147,0,50,50,50,1,CRIMSON_CHAT_3.jpg,RED_HEADED_WOODPECKER_5.jpg,,
,,,A209V2VHLLQ59W,34,Genderqueer,3,2022-12-27_12h03.20.300,memory_pilot_most_recent,2022.2.4,Win32,29.9940012,,,,,,,,,,,,,,,,,,,,,,,,,,,,,,,,,1,left,,,,left,1,1.377,0,51,51,51,1,TASMANIAN_HEN_5.jpg,GREEN_BROADBILL_1.jpg,,
,,,A209V2VHLLQ59W,34,Genderqueer,3,2022-12-27_12h03.20.300,memory_pilot_most_recent,2022.2.4,Win32,29.9940012,,,,,,,,,,,,,,,,,,,,,,,,,,,,,,,,,3,left,,,,right,0,2.843,0,52,52,52,1,MAGPIE_GOOSE_5.jpg,OYSTER_CATCHER_3.jpg,,
,,,A209V2VHLLQ59W,34,Genderqueer,3,2022-12-27_12h03.20.300,memory_pilot_most_recent,2022.2.4,Win32,29.9940012,,,,,,,,,,,,,,,,,,,,,,,,,,,,,,,,,1,right,,,,right,1,1.143,0,53,53,53,1,MALAGASY_WHITE_EYE_2.jpg,RUBY_THROATED_HUMMINGBIRD_3.jpg,,
,,,A209V2VHLLQ59W,34,Genderqueer,3,2022-12-27_12h03.20.300,memory_pilot_most_recent,2022.2.4,Win32,29.9940012,,,,,,,,,,,,,,,,,,,,,,,,,,,,,,,,,3,right,,,,right,1,2.039,0,54,54,54,1,PYGMY_KINGFISHER_2.jpg,WHITE_CHEEKED_TURACO_5.jpg,,
,,,A209V2VHLLQ59W,34,Genderqueer,3,2022-12-27_12h03.20.300,memory_pilot_most_recent,2022.2.4,Win32,29.9940012,,,,,,,,,,,,,,,,,,,,,,,,,,,,,,,,,3,left,,,,left,1,2.517,0,55,55,55,1,CRESTED_CARACARA_4.jpg,TOUCHAN_4.jpg,,
,,,A209V2VHLLQ59W,34,Genderqueer,3,2022-12-27_12h03.20.300,memory_pilot_most_recent,2022.2.4,Win32,29.9940012,,,,,,,,,,,,,,,,,,,,,,,,,,,,,,,,,3,left,,,,left,1,1.47,0,56,56,56,1,ASIAN_CRESTED_IBIS_4.jpg,IVORY_GULL_2.jpg,,
,,,A209V2VHLLQ59W,34,Genderqueer,3,2022-12-27_12h03.20.300,memory_pilot_most_recent,2022.2.4,Win32,29.9940012,,,,,,,,,,,,,,,,,,,,,,,,,,,,,,,,,3,left,,,,left,1,1.091,0,57,57,57,1,RUBY_THROATED_HUMMINGBIRD_1.jpg,FRIGATE_1.jpg,,
,,,A209V2VHLLQ59W,34,Genderqueer,3,2022-12-27_12h03.20.300,memory_pilot_most_recent,2022.2.4,Win32,29.9940012,,,,,,,,,,,,,,,,,,,,,,,,,,,,,,,,,1,left,,,,right,0,1.246,0,58,58,58,1,HAWAIIAN_GOOSE_4.jpg,CUBAN_TODY_3.jpg,,
,,,A209V2VHLLQ59W,34,Genderqueer,3,2022-12-27_12h03.20.300,memory_pilot_most_recent,2022.2.4,Win32,29.9940012,,,,,,,,,,,,,,,,,,,,,,,,,,,,,,,,,3,right,,,,left,0,1.729,0,59,59,59,1,PURPLE_SWAMPHEN_4.jpg,OCELLATED_TURKEY_1.jpg,,
,,,A209V2VHLLQ59W,34,Genderqueer,3,2022-12-27_12h03.20.300,memory_pilot_most_recent,2022.2.4,Win32,29.9940012,,,,,,,,,,,,,,,,,,,,,,,,,,,,,,,,,,,,,,,,,,,,,,,,space,30.714
