button.numClicks,button.timesOn,button.timesOff,workID,Age,Gender,Hours slept (last night),date,expName,psychopyVersion,OS,frameRate,space_key_responce.keys,space_key_responce.rt,demo_encoding_response.keys,demo_encoding_response.corr,demo_encoding_loop.thisRepN,demo_encoding_loop.thisTrialN,demo_encoding_loop.thisN,demo_encoding_loop.thisIndex,demo_encoding_loop.ran,DemoImage,DemoCorrect,demo_encoding_response.rt,demo_test_response.keys,demo_test_response.corr,demo_test_response.rt,demo_test_loop.thisRepN,demo_test_loop.thisTrialN,demo_test_loop.thisN,demo_test_loop.thisIndex,demo_test_loop.ran,DemoImage1,DemoImage2,DemoCorrectTest,test_encoding_response.keys,test_encoding_response.corr,trials.thisRepN,trials.thisTrialN,trials.thisN,trials.thisIndex,trials.ran,target_image,pair,layer,correct,test_encoding_response.rt,key_resp_end.keys,key_resp_end.rt,test_test_response.keys,test_test_response.corr,test_test_response.rt,trials_2.thisRepN,trials_2.thisTrialN,trials_2.thisN,trials_2.thisIndex,trials_2.ran,image1,image2,key_resp_end_2.keys,key_resp_end_2.rt
1,[48.47399999999999],[48.47399999999999],A2CZ8O9PGNTC2L,36,Male,8,2022-12-27_12h40.45.240,memory_pilot_most_recent,2022.2.4,Win32,10.66666667,,,,,,,,,,,,,,,,,,,,,,,,,,,,,,,,,,,,,,,,,,,,,,,,,
,,,A2CZ8O9PGNTC2L,36,Male,8,2022-12-27_12h40.45.240,memory_pilot_most_recent,2022.2.4,Win32,10.66666667,,,,,,,,,,,,,,,,,,,,,,,,,,,,,,,,,,,,,,,,,,,,,,,,,
,,,A2CZ8O9PGNTC2L,36,Male,8,2022-12-27_12h40.45.240,memory_pilot_most_recent,2022.2.4,Win32,10.66666667,space,2.501,,,,,,,,,,,,,,,,,,,,,,,,,,,,,,,,,,,,,,,,,,,,,,,
,,,A2CZ8O9PGNTC2L,36,Male,8,2022-12-27_12h40.45.240,memory_pilot_most_recent,2022.2.4,Win32,10.66666667,,,,,,,,,,,,,,,,,,,,,,,,,,,,,,,,,,,,,,,,,,,,,,,,,
,,,A2CZ8O9PGNTC2L,36,Male,8,2022-12-27_12h40.45.240,memory_pilot_most_recent,2022.2.4,Win32,10.66666667,,,,1,0,0,0,0,1,flower1.jpg,,,,,,,,,,,,,,,,,,,,,,,,,,,,,,,,,,,,,,,
,,,A2CZ8O9PGNTC2L,36,Male,8,2022-12-27_12h40.45.240,memory_pilot_most_recent,2022.2.4,Win32,10.66666667,,,,1,0,1,1,1,1,flower2.jpg,,,,,,,,,,,,,,,,,,,,,,,,,,,,,,,,,,,,,,,
,,,A2CZ8O9PGNTC2L,36,Male,8,2022-12-27_12h40.45.240,memory_pilot_most_recent,2022.2.4,Win32,10.66666667,,,left,1,0,2,2,2,1,left.jpg,left,1.334,,,,,,,,,,,,,,,,,,,,,,,,,,,,,,,,,,,,,
,,,A2CZ8O9PGNTC2L,36,Male,8,2022-12-27_12h40.45.240,memory_pilot_most_recent,2022.2.4,Win32,10.66666667,,,,1,0,3,3,3,1,flower3.jpg,,,,,,,,,,,,,,,,,,,,,,,,,,,,,,,,,,,,,,,
,,,A2CZ8O9PGNTC2L,36,Male,8,2022-12-27_12h40.45.240,memory_pilot_most_recent,2022.2.4,Win32,10.66666667,,,,1,0,4,4,4,1,flower4.jpg,,,,,,,,,,,,,,,,,,,,,,,,,,,,,,,,,,,,,,,
,,,A2CZ8O9PGNTC2L,36,Male,8,2022-12-27_12h40.45.240,memory_pilot_most_recent,2022.2.4,Win32,10.66666667,,,,1,0,5,5,5,1,flower5.jpg,,,,,,,,,,,,,,,,,,,,,,,,,,,,,,,,,,,,,,,
,,,A2CZ8O9PGNTC2L,36,Male,8,2022-12-27_12h40.45.240,memory_pilot_most_recent,2022.2.4,Win32,10.66666667,,,,1,0,6,6,6,1,flower6.jpg,,,,,,,,,,,,,,,,,,,,,,,,,,,,,,,,,,,,,,,
,,,A2CZ8O9PGNTC2L,36,Male,8,2022-12-27_12h40.45.240,memory_pilot_most_recent,2022.2.4,Win32,10.66666667,,,,,,,,,,,,,,,,,,,,,,,,,,,,,,,,,,,,,,,,,,,,,,,,,
,,,A2CZ8O9PGNTC2L,36,Male,8,2022-12-27_12h40.45.240,memory_pilot_most_recent,2022.2.4,Win32,10.66666667,,,,,,,,,,,,,left,1,9.864,0,0,0,0,1,flower1.jpg,flower1_pair.jpg,left,,,,,,,,,,,,,,,,,,,,,,,,,,
,,,A2CZ8O9PGNTC2L,36,Male,8,2022-12-27_12h40.45.240,memory_pilot_most_recent,2022.2.4,Win32,10.66666667,,,,,,,,,,,,,right,1,2.469,0,1,1,1,1,flower2_pair.jpg,flower2.jpg,right,,,,,,,,,,,,,,,,,,,,,,,,,,
,,,A2CZ8O9PGNTC2L,36,Male,8,2022-12-27_12h40.45.240,memory_pilot_most_recent,2022.2.4,Win32,10.66666667,,,,,,,,,,,,,left,1,1.534,0,2,2,2,1,flower3.jpg,flower3_pair.jpg,left,,,,,,,,,,,,,,,,,,,,,,,,,,
,,,A2CZ8O9PGNTC2L,36,Male,8,2022-12-27_12h40.45.240,memory_pilot_most_recent,2022.2.4,Win32,10.66666667,,,,,,,,,,,,,left,1,2.796,0,3,3,3,1,flower4.jpg,flower4_pair.jpg,left,,,,,,,,,,,,,,,,,,,,,,,,,,
,,,A2CZ8O9PGNTC2L,36,Male,8,2022-12-27_12h40.45.240,memory_pilot_most_recent,2022.2.4,Win32,10.66666667,,,,,,,,,,,,,right,1,1.85,0,4,4,4,1,flower5_pair.jpg,flower5.jpg,right,,,,,,,,,,,,,,,,,,,,,,,,,,
,,,A2CZ8O9PGNTC2L,36,Male,8,2022-12-27_12h40.45.240,memory_pilot_most_recent,2022.2.4,Win32,10.66666667,,,,,,,,,,,,,right,0,1.89,0,5,5,5,1,flower6.jpg,flower6_pair.jpg,left,,,,,,,,,,,,,,,,,,,,,,,,,,
,,,A2CZ8O9PGNTC2L,36,Male,8,2022-12-27_12h40.45.240,memory_pilot_most_recent,2022.2.4,Win32,10.66666667,,,,,,,,,,,,,,,,,,,,,,,,,,,,,,,,,,,,,,,,,,,,,,,,,
,,,A2CZ8O9PGNTC2L,36,Male,8,2022-12-27_12h40.45.240,memory_pilot_most_recent,2022.2.4,Win32,10.66666667,space,1.96,,,,,,,,,,,,,,,,,,,,,,,,,,,,,,,,,,,,,,,,,,,,,,,
,,,A2CZ8O9PGNTC2L,36,Male,8,2022-12-27_12h40.45.240,memory_pilot_most_recent,2022.2.4,Win32,10.66666667,,,,,,,,,,,,,,,,,,,,,,,,,1,0,0,0,0,1,AMERICAN_PIPIT_5.jpg,HEPATIC_TANAGER_5.jpg,3,,,,,,,,,,,,,,,,
,,,A2CZ8O9PGNTC2L,36,Male,8,2022-12-27_12h40.45.240,memory_pilot_most_recent,2022.2.4,Win32,10.66666667,,,,,,,,,,,,,,,,,,,,,,,,,1,0,1,1,1,1,CRESTED_CARACARA_4.jpg,FAIRY_PENGUIN_5.jpg,1,,,,,,,,,,,,,,,,
,,,A2CZ8O9PGNTC2L,36,Male,8,2022-12-27_12h40.45.240,memory_pilot_most_recent,2022.2.4,Win32,10.66666667,,,,,,,,,,,,,,,,,,,,,,,,,1,0,2,2,2,1,NORTHERN_JACANA_3.jpg,CRAB_PLOVER_3.jpg,2,,,,,,,,,,,,,,,,
,,,A2CZ8O9PGNTC2L,36,Male,8,2022-12-27_12h40.45.240,memory_pilot_most_recent,2022.2.4,Win32,10.66666667,,,,,,,,,,,,,,,,,,,,,,,,,1,0,3,3,3,1,SHOEBILL_3.jpg,EASTERN_MEADOWLARK_1.jpg,1,,,,,,,,,,,,,,,,
,,,A2CZ8O9PGNTC2L,36,Male,8,2022-12-27_12h40.45.240,memory_pilot_most_recent,2022.2.4,Win32,10.66666667,,,,,,,,,,,,,,,,,,,,,,,,,1,0,4,4,4,1,ASIAN_DOLLARD_BIRD_2.jpg,ALBATROSS_2.jpg,1,,,,,,,,,,,,,,,,
,,,A2CZ8O9PGNTC2L,36,Male,8,2022-12-27_12h40.45.240,memory_pilot_most_recent,2022.2.4,Win32,10.66666667,,,,,,,,,,,,,,,,,,,,,,,,,1,0,5,5,5,1,CRESTED_NUTHATCH_2.jpg,CANARY_1.jpg,3,,,,,,,,,,,,,,,,
,,,A2CZ8O9PGNTC2L,36,Male,8,2022-12-27_12h40.45.240,memory_pilot_most_recent,2022.2.4,Win32,10.66666667,,,,,,,,,,,,,,,,,,,,,,,,,1,0,6,6,6,1,RUBY_THROATED_HUMMINGBIRD_3.jpg,MALAGASY_WHITE_EYE_2.jpg,1,,,,,,,,,,,,,,,,
,,,A2CZ8O9PGNTC2L,36,Male,8,2022-12-27_12h40.45.240,memory_pilot_most_recent,2022.2.4,Win32,10.66666667,,,,,,,,,,,,,,,,,,,,,,,,,1,0,7,7,7,1,RUBY_THROATED_HUMMINGBIRD_2.jpg,DUSKY_ROBIN_5.jpg,3,,,,,,,,,,,,,,,,
,,,A2CZ8O9PGNTC2L,36,Male,8,2022-12-27_12h40.45.240,memory_pilot_most_recent,2022.2.4,Win32,10.66666667,,,,,,,,,,,,,,,,,,,,,,,,,1,0,8,8,8,1,RED_HEADED_WOODPECKER_5.jpg,CRIMSON_CHAT_3.jpg,2,,,,,,,,,,,,,,,,
,,,A2CZ8O9PGNTC2L,36,Male,8,2022-12-27_12h40.45.240,memory_pilot_most_recent,2022.2.4,Win32,10.66666667,,,,,,,,,,,,,,,,,,,,,,,,,1,0,9,9,9,1,GOLDEN_CHEEKED_WARBLER_2.jpg,WHITE_THROATED_BEE_EATER_1.jpg,3,,,,,,,,,,,,,,,,
,,,A2CZ8O9PGNTC2L,36,Male,8,2022-12-27_12h40.45.240,memory_pilot_most_recent,2022.2.4,Win32,10.66666667,,,,,,,,,,,,,,,,,,,,,,,,,1,0,10,10,10,1,BROWN_NOODY_3.jpg,SPANGLED_COTINGA_4.jpg,2,,,,,,,,,,,,,,,,
,,,A2CZ8O9PGNTC2L,36,Male,8,2022-12-27_12h40.45.240,memory_pilot_most_recent,2022.2.4,Win32,10.66666667,,,,,,,,,,,,,,,,,,,,,,,,left,1,0,11,11,11,1,left.jpg,,,left,0.956,,,,,,,,,,,,,,
,,,A2CZ8O9PGNTC2L,36,Male,8,2022-12-27_12h40.45.240,memory_pilot_most_recent,2022.2.4,Win32,10.66666667,,,,,,,,,,,,,,,,,,,,,,,,,1,0,12,12,12,1,LESSER_ADJUTANT_5.jpg,GREEN_BROADBILL_4.jpg,1,,,,,,,,,,,,,,,,
,,,A2CZ8O9PGNTC2L,36,Male,8,2022-12-27_12h40.45.240,memory_pilot_most_recent,2022.2.4,Win32,10.66666667,,,,,,,,,,,,,,,,,,,,,,,,,1,0,13,13,13,1,CERULEAN_WARBLER_1.jpg,AMERICAN_FLAMINGO_5.jpg,2,,,,,,,,,,,,,,,,
,,,A2CZ8O9PGNTC2L,36,Male,8,2022-12-27_12h40.45.240,memory_pilot_most_recent,2022.2.4,Win32,10.66666667,,,,,,,,,,,,,,,,,,,,,,,,,1,0,14,14,14,1,MALACHITE_KINGFISHER_2.jpg,GREEN_BROADBILL_5.jpg,3,,,,,,,,,,,,,,,,
,,,A2CZ8O9PGNTC2L,36,Male,8,2022-12-27_12h40.45.240,memory_pilot_most_recent,2022.2.4,Win32,10.66666667,,,,,,,,,,,,,,,,,,,,,,,,,1,0,15,15,15,1,PYGMY_KINGFISHER_5.jpg,GRANDALA_2.jpg,1,,,,,,,,,,,,,,,,
,,,A2CZ8O9PGNTC2L,36,Male,8,2022-12-27_12h40.45.240,memory_pilot_most_recent,2022.2.4,Win32,10.66666667,,,,,,,,,,,,,,,,,,,,,,,,right,1,0,16,16,16,1,right.jpg,,,right,1.746,,,,,,,,,,,,,,
,,,A2CZ8O9PGNTC2L,36,Male,8,2022-12-27_12h40.45.240,memory_pilot_most_recent,2022.2.4,Win32,10.66666667,,,,,,,,,,,,,,,,,,,,,,,,,1,0,17,17,17,1,EUROPEAN_TURTLE_DOVE_3.jpg,PAINTED_BUNTING_3.jpg,2,,,,,,,,,,,,,,,,
,,,A2CZ8O9PGNTC2L,36,Male,8,2022-12-27_12h40.45.240,memory_pilot_most_recent,2022.2.4,Win32,10.66666667,,,,,,,,,,,,,,,,,,,,,,,,,1,0,18,18,18,1,HAWAIIAN_GOOSE_4.jpg,HIMALAYAN_MONAL_2.jpg,2,,,,,,,,,,,,,,,,
,,,A2CZ8O9PGNTC2L,36,Male,8,2022-12-27_12h40.45.240,memory_pilot_most_recent,2022.2.4,Win32,10.66666667,,,,,,,,,,,,,,,,,,,,,,,,,1,0,19,19,19,1,PEACOCK_3.jpg,CHATTERING_LORY_2.jpg,3,,,,,,,,,,,,,,,,
,,,A2CZ8O9PGNTC2L,36,Male,8,2022-12-27_12h40.45.240,memory_pilot_most_recent,2022.2.4,Win32,10.66666667,,,,,,,,,,,,,,,,,,,,,,,,,1,0,20,20,20,1,IVORY_GULL_1.jpg,EASTERN_GOLDEN_WEAVER_5.jpg,2,,,,,,,,,,,,,,,,
,,,A2CZ8O9PGNTC2L,36,Male,8,2022-12-27_12h40.45.240,memory_pilot_most_recent,2022.2.4,Win32,10.66666667,,,,,,,,,,,,,,,,,,,,,,,,,1,0,21,21,21,1,WHITE_CHEEKED_TURACO_5.jpg,PYGMY_KINGFISHER_2.jpg,3,,,,,,,,,,,,,,,,
,,,A2CZ8O9PGNTC2L,36,Male,8,2022-12-27_12h40.45.240,memory_pilot_most_recent,2022.2.4,Win32,10.66666667,,,,,,,,,,,,,,,,,,,,,,,,,1,0,22,22,22,1,GYRFALCON_1.jpg,CINNAMON_ATTILA_2.jpg,2,,,,,,,,,,,,,,,,
,,,A2CZ8O9PGNTC2L,36,Male,8,2022-12-27_12h40.45.240,memory_pilot_most_recent,2022.2.4,Win32,10.66666667,,,,,,,,,,,,,,,,,,,,,,,,,1,0,23,23,23,1,BALI_STARLING_1.jpg,IBERIAN_MAGPIE_1.jpg,3,,,,,,,,,,,,,,,,
,,,A2CZ8O9PGNTC2L,36,Male,8,2022-12-27_12h40.45.240,memory_pilot_most_recent,2022.2.4,Win32,10.66666667,,,,,,,,,,,,,,,,,,,,,,,,,1,0,24,24,24,1,RUBY_THROATED_HUMMINGBIRD_1.jpg,VULTURINE_GUINEAFOWL_4.jpg,2,,,,,,,,,,,,,,,,
,,,A2CZ8O9PGNTC2L,36,Male,8,2022-12-27_12h40.45.240,memory_pilot_most_recent,2022.2.4,Win32,10.66666667,,,,,,,,,,,,,,,,,,,,,,,,,1,0,25,25,25,1,LITTLE_AUK_5.jpg,ORANGE_BRESTED_BUNTING_3.jpg,2,,,,,,,,,,,,,,,,
,,,A2CZ8O9PGNTC2L,36,Male,8,2022-12-27_12h40.45.240,memory_pilot_most_recent,2022.2.4,Win32,10.66666667,,,,,,,,,,,,,,,,,,,,,,,,,1,0,26,26,26,1,RUFOUS_KINGFISHER_1.jpg,MAGPIE_GOOSE_3.jpg,2,,,,,,,,,,,,,,,,
,,,A2CZ8O9PGNTC2L,36,Male,8,2022-12-27_12h40.45.240,memory_pilot_most_recent,2022.2.4,Win32,10.66666667,,,,,,,,,,,,,,,,,,,,,,,,,1,0,27,27,27,1,IVORY_GULL_3.jpg,SNOWY_EGRET_4.jpg,3,,,,,,,,,,,,,,,,
,,,A2CZ8O9PGNTC2L,36,Male,8,2022-12-27_12h40.45.240,memory_pilot_most_recent,2022.2.4,Win32,10.66666667,,,,,,,,,,,,,,,,,,,,,,,,,1,0,28,28,28,1,OCELLATED_TURKEY_1.jpg,CHIPPING_SPARROW_1.jpg,1,,,,,,,,,,,,,,,,
,,,A2CZ8O9PGNTC2L,36,Male,8,2022-12-27_12h40.45.240,memory_pilot_most_recent,2022.2.4,Win32,10.66666667,,,,,,,,,,,,,,,,,,,,,,,,,1,0,29,29,29,1,KILLDEAR_2.jpg,AZURE_TIT_5.jpg,3,,,,,,,,,,,,,,,,
,,,A2CZ8O9PGNTC2L,36,Male,8,2022-12-27_12h40.45.240,memory_pilot_most_recent,2022.2.4,Win32,10.66666667,,,,,,,,,,,,,,,,,,,,,,,,,1,0,30,30,30,1,INCA_TERN_4.jpg,ELLIOTS__PHEASANT_4.jpg,1,,,,,,,,,,,,,,,,
,,,A2CZ8O9PGNTC2L,36,Male,8,2022-12-27_12h40.45.240,memory_pilot_most_recent,2022.2.4,Win32,10.66666667,,,,,,,,,,,,,,,,,,,,,,,,,1,0,31,31,31,1,SPLENDID_WREN_1.jpg,POMARINE_JAEGER_5.jpg,1,,,,,,,,,,,,,,,,
,,,A2CZ8O9PGNTC2L,36,Male,8,2022-12-27_12h40.45.240,memory_pilot_most_recent,2022.2.4,Win32,10.66666667,,,,,,,,,,,,,,,,,,,,,,,,,1,0,32,32,32,1,SCARLET_TANAGER_2.jpg,BEARDED_BARBET_2.jpg,1,,,,,,,,,,,,,,,,
,,,A2CZ8O9PGNTC2L,36,Male,8,2022-12-27_12h40.45.240,memory_pilot_most_recent,2022.2.4,Win32,10.66666667,,,,,,,,,,,,,,,,,,,,,,,,left,1,0,33,33,33,1,left.jpg,,,left,1.156,,,,,,,,,,,,,,
,,,A2CZ8O9PGNTC2L,36,Male,8,2022-12-27_12h40.45.240,memory_pilot_most_recent,2022.2.4,Win32,10.66666667,,,,,,,,,,,,,,,,,,,,,,,,,1,0,34,34,34,1,TASMANIAN_HEN_5.jpg,GREEN_BROADBILL_1.jpg,1,,,,,,,,,,,,,,,,
,,,A2CZ8O9PGNTC2L,36,Male,8,2022-12-27_12h40.45.240,memory_pilot_most_recent,2022.2.4,Win32,10.66666667,,,,,,,,,,,,,,,,,,,,,,,,,1,0,35,35,35,1,LESSER_ADJUTANT_4.jpg,RAINBOW_LORIKEET_5.jpg,2,,,,,,,,,,,,,,,,
,,,A2CZ8O9PGNTC2L,36,Male,8,2022-12-27_12h40.45.240,memory_pilot_most_recent,2022.2.4,Win32,10.66666667,,,,,,,,,,,,,,,,,,,,,,,,,1,0,36,36,36,1,ECUADORIAN_HILLSTAR_5.jpg,SCARLET_IBIS_2.jpg,1,,,,,,,,,,,,,,,,
,,,A2CZ8O9PGNTC2L,36,Male,8,2022-12-27_12h40.45.240,memory_pilot_most_recent,2022.2.4,Win32,10.66666667,,,,,,,,,,,,,,,,,,,,,,,,left,1,0,37,37,37,1,left.jpg,,,left,1.834,,,,,,,,,,,,,,
,,,A2CZ8O9PGNTC2L,36,Male,8,2022-12-27_12h40.45.240,memory_pilot_most_recent,2022.2.4,Win32,10.66666667,,,,,,,,,,,,,,,,,,,,,,,,,1,0,38,38,38,1,INLAND_DOTTEREL_4.jpg,CRESTED_KINGFISHER_1.jpg,3,,,,,,,,,,,,,,,,
,,,A2CZ8O9PGNTC2L,36,Male,8,2022-12-27_12h40.45.240,memory_pilot_most_recent,2022.2.4,Win32,10.66666667,,,,,,,,,,,,,,,,,,,,,,,,,1,0,39,39,39,1,BROWN_THRASHER_3.jpg,BLACK_BAZA_4.jpg,3,,,,,,,,,,,,,,,,
,,,A2CZ8O9PGNTC2L,36,Male,8,2022-12-27_12h40.45.240,memory_pilot_most_recent,2022.2.4,Win32,10.66666667,,,,,,,,,,,,,,,,,,,,,,,,,1,0,40,40,40,1,BREWERS_BLACKBIRD_3.jpg,GOLDEN_CHEEKED_WARBLER_3.jpg,2,,,,,,,,,,,,,,,,
,,,A2CZ8O9PGNTC2L,36,Male,8,2022-12-27_12h40.45.240,memory_pilot_most_recent,2022.2.4,Win32,10.66666667,,,,,,,,,,,,,,,,,,,,,,,,,1,0,41,41,41,1,PINK_ROBIN_4.jpg,COMMON_IORA_4.jpg,3,,,,,,,,,,,,,,,,
,,,A2CZ8O9PGNTC2L,36,Male,8,2022-12-27_12h40.45.240,memory_pilot_most_recent,2022.2.4,Win32,10.66666667,,,,,,,,,,,,,,,,,,,,,,,,,1,0,42,42,42,1,MAGPIE_GOOSE_5.jpg,DOUBLE_EYED_FIG_PARROT_5.jpg,1,,,,,,,,,,,,,,,,
,,,A2CZ8O9PGNTC2L,36,Male,8,2022-12-27_12h40.45.240,memory_pilot_most_recent,2022.2.4,Win32,10.66666667,,,,,,,,,,,,,,,,,,,,,,,,,1,0,43,43,43,1,KAGU_5.jpg,ASHY_STORM_PETREL_1.jpg,2,,,,,,,,,,,,,,,,
,,,A2CZ8O9PGNTC2L,36,Male,8,2022-12-27_12h40.45.240,memory_pilot_most_recent,2022.2.4,Win32,10.66666667,,,,,,,,,,,,,,,,,,,,,,,,,1,0,44,44,44,1,GRAY_KINGBIRD_5.jpg,AFRICAN_FIREFINCH_3.jpg,3,,,,,,,,,,,,,,,,
,,,A2CZ8O9PGNTC2L,36,Male,8,2022-12-27_12h40.45.240,memory_pilot_most_recent,2022.2.4,Win32,10.66666667,,,,,,,,,,,,,,,,,,,,,,,,,1,0,45,45,45,1,DOUBLE_BRESTED_CORMARANT_5.jpg,GILDED_FLICKER_2.jpg,1,,,,,,,,,,,,,,,,
,,,A2CZ8O9PGNTC2L,36,Male,8,2022-12-27_12h40.45.240,memory_pilot_most_recent,2022.2.4,Win32,10.66666667,,,,,,,,,,,,,,,,,,,,,,,,,1,0,46,46,46,1,CASPIAN_TERN_1.jpg,COMMON_LOON_2.jpg,3,,,,,,,,,,,,,,,,
,,,A2CZ8O9PGNTC2L,36,Male,8,2022-12-27_12h40.45.240,memory_pilot_most_recent,2022.2.4,Win32,10.66666667,,,,,,,,,,,,,,,,,,,,,,,,,1,0,47,47,47,1,STRIPPED_SWALLOW_1.jpg,MAGPIE_GOOSE_4.jpg,2,,,,,,,,,,,,,,,,
,,,A2CZ8O9PGNTC2L,36,Male,8,2022-12-27_12h40.45.240,memory_pilot_most_recent,2022.2.4,Win32,10.66666667,,,,,,,,,,,,,,,,,,,,,,,,,1,0,48,48,48,1,GOLDEN_CHLOROPHONIA_5.jpg,COMMON_HOUSE_MARTIN_4.jpg,2,,,,,,,,,,,,,,,,
,,,A2CZ8O9PGNTC2L,36,Male,8,2022-12-27_12h40.45.240,memory_pilot_most_recent,2022.2.4,Win32,10.66666667,,,,,,,,,,,,,,,,,,,,,,,,,1,0,49,49,49,1,AFRICAN_PIED_HORNBILL_5.jpg,ALEXANDRINE_PARAKEET_1.jpg,2,,,,,,,,,,,,,,,,
,,,A2CZ8O9PGNTC2L,36,Male,8,2022-12-27_12h40.45.240,memory_pilot_most_recent,2022.2.4,Win32,10.66666667,,,,,,,,,,,,,,,,,,,,,,,,,1,0,50,50,50,1,ALPINE_CHOUGH_4.jpg,BOBOLINK_3.jpg,3,,,,,,,,,,,,,,,,
,,,A2CZ8O9PGNTC2L,36,Male,8,2022-12-27_12h40.45.240,memory_pilot_most_recent,2022.2.4,Win32,10.66666667,,,,,,,,,,,,,,,,,,,,,,,,,1,0,51,51,51,1,ASIAN_CRESTED_IBIS_4.jpg,CANARY_2.jpg,1,,,,,,,,,,,,,,,,
,,,A2CZ8O9PGNTC2L,36,Male,8,2022-12-27_12h40.45.240,memory_pilot_most_recent,2022.2.4,Win32,10.66666667,,,,,,,,,,,,,,,,,,,,,,,,left,1,0,52,52,52,1,left.jpg,,,left,1.25,,,,,,,,,,,,,,
,,,A2CZ8O9PGNTC2L,36,Male,8,2022-12-27_12h40.45.240,memory_pilot_most_recent,2022.2.4,Win32,10.66666667,,,,,,,,,,,,,,,,,,,,,,,,,1,0,53,53,53,1,LARK_BUNTING_2.jpg,PEACOCK_1.jpg,1,,,,,,,,,,,,,,,,
,,,A2CZ8O9PGNTC2L,36,Male,8,2022-12-27_12h40.45.240,memory_pilot_most_recent,2022.2.4,Win32,10.66666667,,,,,,,,,,,,,,,,,,,,,,,,,1,0,54,54,54,1,CHUKAR_PARTRIDGE_5.jpg,BLACK_THROATED_BUSHTIT_1.jpg,3,,,,,,,,,,,,,,,,
,,,A2CZ8O9PGNTC2L,36,Male,8,2022-12-27_12h40.45.240,memory_pilot_most_recent,2022.2.4,Win32,10.66666667,,,,,,,,,,,,,,,,,,,,,,,,,1,0,55,55,55,1,OVENBIRD_5.jpg,MYNA_4.jpg,1,,,,,,,,,,,,,,,,
,,,A2CZ8O9PGNTC2L,36,Male,8,2022-12-27_12h40.45.240,memory_pilot_most_recent,2022.2.4,Win32,10.66666667,,,,,,,,,,,,,,,,,,,,,,,,,1,0,56,56,56,1,ARARIPE_MANAKIN_4.jpg,KIWI_3.jpg,1,,,,,,,,,,,,,,,,
,,,A2CZ8O9PGNTC2L,36,Male,8,2022-12-27_12h40.45.240,memory_pilot_most_recent,2022.2.4,Win32,10.66666667,,,,,,,,,,,,,,,,,,,,,,,,,1,0,57,57,57,1,PARUS_MAJOR_1.jpg,SANDHILL_CRANE_4.jpg,1,,,,,,,,,,,,,,,,
,,,A2CZ8O9PGNTC2L,36,Male,8,2022-12-27_12h40.45.240,memory_pilot_most_recent,2022.2.4,Win32,10.66666667,,,,,,,,,,,,,,,,,,,,,,,,,1,0,58,58,58,1,FLAME_BOWERBIRD_3.jpg,BROWN_THRASHER_4.jpg,2,,,,,,,,,,,,,,,,
,,,A2CZ8O9PGNTC2L,36,Male,8,2022-12-27_12h40.45.240,memory_pilot_most_recent,2022.2.4,Win32,10.66666667,,,,,,,,,,,,,,,,,,,,,,,,,1,0,59,59,59,1,CASSOWARY_1.jpg,ROSY_FACED_LOVEBIRD_4.jpg,1,,,,,,,,,,,,,,,,
,,,A2CZ8O9PGNTC2L,36,Male,8,2022-12-27_12h40.45.240,memory_pilot_most_recent,2022.2.4,Win32,10.66666667,,,,,,,,,,,,,,,,,,,,,,,,,1,0,60,60,60,1,INDIGO_BUNTING_1.jpg,DARWINS_FLYCATCHER_2.jpg,3,,,,,,,,,,,,,,,,
,,,A2CZ8O9PGNTC2L,36,Male,8,2022-12-27_12h40.45.240,memory_pilot_most_recent,2022.2.4,Win32,10.66666667,,,,,,,,,,,,,,,,,,,,,,,,,1,0,61,61,61,1,MYNA_1.jpg,GREY_PLOVER_4.jpg,2,,,,,,,,,,,,,,,,
,,,A2CZ8O9PGNTC2L,36,Male,8,2022-12-27_12h40.45.240,memory_pilot_most_recent,2022.2.4,Win32,10.66666667,,,,,,,,,,,,,,,,,,,,,,,,,1,0,62,62,62,1,EASTERN_TOWEE_2.jpg,GOLDEN_CHLOROPHONIA_1.jpg,2,,,,,,,,,,,,,,,,
,,,A2CZ8O9PGNTC2L,36,Male,8,2022-12-27_12h40.45.240,memory_pilot_most_recent,2022.2.4,Win32,10.66666667,,,,,,,,,,,,,,,,,,,,,,,,,1,0,63,63,63,1,GREY_PLOVER_1.jpg,ECUADORIAN_HILLSTAR_3.jpg,3,,,,,,,,,,,,,,,,
,,,A2CZ8O9PGNTC2L,36,Male,8,2022-12-27_12h40.45.240,memory_pilot_most_recent,2022.2.4,Win32,10.66666667,,,,,,,,,,,,,,,,,,,,,,,,,1,0,64,64,64,1,VERMILION_FLYCATHER_3.jpg,RED_BEARDED_BEE_EATER_1.jpg,3,,,,,,,,,,,,,,,,
,,,A2CZ8O9PGNTC2L,36,Male,8,2022-12-27_12h40.45.240,memory_pilot_most_recent,2022.2.4,Win32,10.66666667,,,,,,,,,,,,,,,,,,,,,,,,,,,,,,,,,,,,space,2.134,,,,,,,,,,,,
,,,A2CZ8O9PGNTC2L,36,Male,8,2022-12-27_12h40.45.240,memory_pilot_most_recent,2022.2.4,Win32,10.66666667,,,,,,,,,,,,,,,,,,,,,,,,,,,,,,,,,,,,,,,,,,,,,,,,,
,,,A2CZ8O9PGNTC2L,36,Male,8,2022-12-27_12h40.45.240,memory_pilot_most_recent,2022.2.4,Win32,10.66666667,,,,,,,,,,,,,,,,,,,,,,,,,,,,,,,,,2,right,,,,left,0,3.507,0,0,0,0,1,AMERICAN_FLAMINGO_5.jpg,CERULEAN_WARBLER_1.jpg,,
,,,A2CZ8O9PGNTC2L,36,Male,8,2022-12-27_12h40.45.240,memory_pilot_most_recent,2022.2.4,Win32,10.66666667,,,,,,,,,,,,,,,,,,,,,,,,,,,,,,,,,1,left,,,,left,1,2.509,0,1,1,1,1,PYGMY_KINGFISHER_5.jpg,GRANDALA_2.jpg,,
,,,A2CZ8O9PGNTC2L,36,Male,8,2022-12-27_12h40.45.240,memory_pilot_most_recent,2022.2.4,Win32,10.66666667,,,,,,,,,,,,,,,,,,,,,,,,,,,,,,,,,1,left,,,,left,1,2.014,0,2,2,2,1,ARARIPE_MANAKIN_4.jpg,KIWI_3.jpg,,
,,,A2CZ8O9PGNTC2L,36,Male,8,2022-12-27_12h40.45.240,memory_pilot_most_recent,2022.2.4,Win32,10.66666667,,,,,,,,,,,,,,,,,,,,,,,,,,,,,,,,,2,left,,,,left,1,1.614,0,3,3,3,1,RUBY_THROATED_HUMMINGBIRD_1.jpg,VULTURINE_GUINEAFOWL_4.jpg,,
,,,A2CZ8O9PGNTC2L,36,Male,8,2022-12-27_12h40.45.240,memory_pilot_most_recent,2022.2.4,Win32,10.66666667,,,,,,,,,,,,,,,,,,,,,,,,,,,,,,,,,3,right,,,,right,1,2.312,0,4,4,4,1,WHITE_THROATED_BEE_EATER_1.jpg,GOLDEN_CHEEKED_WARBLER_2.jpg,,
,,,A2CZ8O9PGNTC2L,36,Male,8,2022-12-27_12h40.45.240,memory_pilot_most_recent,2022.2.4,Win32,10.66666667,,,,,,,,,,,,,,,,,,,,,,,,,,,,,,,,,2,left,,,,left,1,1.607,0,5,5,5,1,AFRICAN_PIED_HORNBILL_5.jpg,ALEXANDRINE_PARAKEET_1.jpg,,
,,,A2CZ8O9PGNTC2L,36,Male,8,2022-12-27_12h40.45.240,memory_pilot_most_recent,2022.2.4,Win32,10.66666667,,,,,,,,,,,,,,,,,,,,,,,,,,,,,,,,,2,left,,,,right,0,1.568,0,6,6,6,1,EUROPEAN_TURTLE_DOVE_3.jpg,PAINTED_BUNTING_3.jpg,,
,,,A2CZ8O9PGNTC2L,36,Male,8,2022-12-27_12h40.45.240,memory_pilot_most_recent,2022.2.4,Win32,10.66666667,,,,,,,,,,,,,,,,,,,,,,,,,,,,,,,,,3,right,,,,right,1,1.797,0,7,7,7,1,SNOWY_EGRET_4.jpg,IVORY_GULL_3.jpg,,
,,,A2CZ8O9PGNTC2L,36,Male,8,2022-12-27_12h40.45.240,memory_pilot_most_recent,2022.2.4,Win32,10.66666667,,,,,,,,,,,,,,,,,,,,,,,,,,,,,,,,,1,left,,,,left,1,1.695,0,8,8,8,1,PARUS_MAJOR_1.jpg,SANDHILL_CRANE_4.jpg,,
,,,A2CZ8O9PGNTC2L,36,Male,8,2022-12-27_12h40.45.240,memory_pilot_most_recent,2022.2.4,Win32,10.66666667,,,,,,,,,,,,,,,,,,,,,,,,,,,,,,,,,2,right,,,,right,1,2.254,0,9,9,9,1,CRAB_PLOVER_3.jpg,NORTHERN_JACANA_3.jpg,,
,,,A2CZ8O9PGNTC2L,36,Male,8,2022-12-27_12h40.45.240,memory_pilot_most_recent,2022.2.4,Win32,10.66666667,,,,,,,,,,,,,,,,,,,,,,,,,,,,,,,,,3,left,,,,left,1,2.656,0,10,10,10,1,RUBY_THROATED_HUMMINGBIRD_2.jpg,DUSKY_ROBIN_5.jpg,,
,,,A2CZ8O9PGNTC2L,36,Male,8,2022-12-27_12h40.45.240,memory_pilot_most_recent,2022.2.4,Win32,10.66666667,,,,,,,,,,,,,,,,,,,,,,,,,,,,,,,,,1,right,,,,right,1,1.466,0,11,11,11,1,BEARDED_BARBET_2.jpg,SCARLET_TANAGER_2.jpg,,
,,,A2CZ8O9PGNTC2L,36,Male,8,2022-12-27_12h40.45.240,memory_pilot_most_recent,2022.2.4,Win32,10.66666667,,,,,,,,,,,,,,,,,,,,,,,,,,,,,,,,,2,left,,,,right,0,2.095,0,12,12,12,1,MYNA_1.jpg,GREY_PLOVER_4.jpg,,
,,,A2CZ8O9PGNTC2L,36,Male,8,2022-12-27_12h40.45.240,memory_pilot_most_recent,2022.2.4,Win32,10.66666667,,,,,,,,,,,,,,,,,,,,,,,,,,,,,,,,,2,right,,,,right,1,2.724,0,13,13,13,1,COMMON_HOUSE_MARTIN_4.jpg,GOLDEN_CHLOROPHONIA_5.jpg,,
,,,A2CZ8O9PGNTC2L,36,Male,8,2022-12-27_12h40.45.240,memory_pilot_most_recent,2022.2.4,Win32,10.66666667,,,,,,,,,,,,,,,,,,,,,,,,,,,,,,,,,1,right,,,,right,1,1.26,0,14,14,14,1,EASTERN_MEADOWLARK_1.jpg,SHOEBILL_3.jpg,,
,,,A2CZ8O9PGNTC2L,36,Male,8,2022-12-27_12h40.45.240,memory_pilot_most_recent,2022.2.4,Win32,10.66666667,,,,,,,,,,,,,,,,,,,,,,,,,,,,,,,,,3,right,,,,right,1,1.287,0,15,15,15,1,BOBOLINK_3.jpg,ALPINE_CHOUGH_4.jpg,,
,,,A2CZ8O9PGNTC2L,36,Male,8,2022-12-27_12h40.45.240,memory_pilot_most_recent,2022.2.4,Win32,10.66666667,,,,,,,,,,,,,,,,,,,,,,,,,,,,,,,,,1,right,,,,left,0,3.295,0,16,16,16,1,MYNA_4.jpg,OVENBIRD_5.jpg,,
,,,A2CZ8O9PGNTC2L,36,Male,8,2022-12-27_12h40.45.240,memory_pilot_most_recent,2022.2.4,Win32,10.66666667,,,,,,,,,,,,,,,,,,,,,,,,,,,,,,,,,3,left,,,,right,0,1.577,0,17,17,17,1,PEACOCK_3.jpg,CHATTERING_LORY_2.jpg,,
,,,A2CZ8O9PGNTC2L,36,Male,8,2022-12-27_12h40.45.240,memory_pilot_most_recent,2022.2.4,Win32,10.66666667,,,,,,,,,,,,,,,,,,,,,,,,,,,,,,,,,1,left,,,,left,1,2.627,0,18,18,18,1,SPLENDID_WREN_1.jpg,POMARINE_JAEGER_5.jpg,,
,,,A2CZ8O9PGNTC2L,36,Male,8,2022-12-27_12h40.45.240,memory_pilot_most_recent,2022.2.4,Win32,10.66666667,,,,,,,,,,,,,,,,,,,,,,,,,,,,,,,,,3,left,,,,left,1,1.779,0,19,19,19,1,VERMILION_FLYCATHER_3.jpg,RED_BEARDED_BEE_EATER_1.jpg,,
,,,A2CZ8O9PGNTC2L,36,Male,8,2022-12-27_12h40.45.240,memory_pilot_most_recent,2022.2.4,Win32,10.66666667,,,,,,,,,,,,,,,,,,,,,,,,,,,,,,,,,3,left,,,,right,0,1.921,0,20,20,20,1,KILLDEAR_2.jpg,AZURE_TIT_5.jpg,,
,,,A2CZ8O9PGNTC2L,36,Male,8,2022-12-27_12h40.45.240,memory_pilot_most_recent,2022.2.4,Win32,10.66666667,,,,,,,,,,,,,,,,,,,,,,,,,,,,,,,,,1,left,,,,left,1,1.503,0,21,21,21,1,LESSER_ADJUTANT_5.jpg,GREEN_BROADBILL_4.jpg,,
,,,A2CZ8O9PGNTC2L,36,Male,8,2022-12-27_12h40.45.240,memory_pilot_most_recent,2022.2.4,Win32,10.66666667,,,,,,,,,,,,,,,,,,,,,,,,,,,,,,,,,3,left,,,,left,1,2.097,0,22,22,22,1,MALACHITE_KINGFISHER_2.jpg,GREEN_BROADBILL_5.jpg,,
,,,A2CZ8O9PGNTC2L,36,Male,8,2022-12-27_12h40.45.240,memory_pilot_most_recent,2022.2.4,Win32,10.66666667,,,,,,,,,,,,,,,,,,,,,,,,,,,,,,,,,2,left,,,,right,0,1.703,0,23,23,23,1,STRIPPED_SWALLOW_1.jpg,MAGPIE_GOOSE_4.jpg,,
,,,A2CZ8O9PGNTC2L,36,Male,8,2022-12-27_12h40.45.240,memory_pilot_most_recent,2022.2.4,Win32,10.66666667,,,,,,,,,,,,,,,,,,,,,,,,,,,,,,,,,2,right,,,,right,1,2.415,0,24,24,24,1,RAINBOW_LORIKEET_5.jpg,LESSER_ADJUTANT_4.jpg,,
,,,A2CZ8O9PGNTC2L,36,Male,8,2022-12-27_12h40.45.240,memory_pilot_most_recent,2022.2.4,Win32,10.66666667,,,,,,,,,,,,,,,,,,,,,,,,,,,,,,,,,1,right,,,,left,0,2.905,0,25,25,25,1,DOUBLE_EYED_FIG_PARROT_5.jpg,MAGPIE_GOOSE_5.jpg,,
,,,A2CZ8O9PGNTC2L,36,Male,8,2022-12-27_12h40.45.240,memory_pilot_most_recent,2022.2.4,Win32,10.66666667,,,,,,,,,,,,,,,,,,,,,,,,,,,,,,,,,2,left,,,,left,1,3.896,0,26,26,26,1,HAWAIIAN_GOOSE_4.jpg,HIMALAYAN_MONAL_2.jpg,,
,,,A2CZ8O9PGNTC2L,36,Male,8,2022-12-27_12h40.45.240,memory_pilot_most_recent,2022.2.4,Win32,10.66666667,,,,,,,,,,,,,,,,,,,,,,,,,,,,,,,,,1,right,,,,left,0,1.156,0,27,27,27,1,CHIPPING_SPARROW_1.jpg,OCELLATED_TURKEY_1.jpg,,
,,,A2CZ8O9PGNTC2L,36,Male,8,2022-12-27_12h40.45.240,memory_pilot_most_recent,2022.2.4,Win32,10.66666667,,,,,,,,,,,,,,,,,,,,,,,,,,,,,,,,,2,left,,,,right,0,3.025,0,28,28,28,1,LITTLE_AUK_5.jpg,ORANGE_BRESTED_BUNTING_3.jpg,,
,,,A2CZ8O9PGNTC2L,36,Male,8,2022-12-27_12h40.45.240,memory_pilot_most_recent,2022.2.4,Win32,10.66666667,,,,,,,,,,,,,,,,,,,,,,,,,,,,,,,,,2,left,,,,right,0,1.273,0,29,29,29,1,EASTERN_TOWEE_2.jpg,GOLDEN_CHLOROPHONIA_1.jpg,,
,,,A2CZ8O9PGNTC2L,36,Male,8,2022-12-27_12h40.45.240,memory_pilot_most_recent,2022.2.4,Win32,10.66666667,,,,,,,,,,,,,,,,,,,,,,,,,,,,,,,,,1,left,,,,right,0,2.022,0,30,30,30,1,ECUADORIAN_HILLSTAR_5.jpg,SCARLET_IBIS_2.jpg,,
,,,A2CZ8O9PGNTC2L,36,Male,8,2022-12-27_12h40.45.240,memory_pilot_most_recent,2022.2.4,Win32,10.66666667,,,,,,,,,,,,,,,,,,,,,,,,,,,,,,,,,1,left,,,,right,0,2.258,0,31,31,31,1,TASMANIAN_HEN_5.jpg,GREEN_BROADBILL_1.jpg,,
,,,A2CZ8O9PGNTC2L,36,Male,8,2022-12-27_12h40.45.240,memory_pilot_most_recent,2022.2.4,Win32,10.66666667,,,,,,,,,,,,,,,,,,,,,,,,,,,,,,,,,1,left,,,,left,1,1.426,0,32,32,32,1,RUBY_THROATED_HUMMINGBIRD_3.jpg,MALAGASY_WHITE_EYE_2.jpg,,
,,,A2CZ8O9PGNTC2L,36,Male,8,2022-12-27_12h40.45.240,memory_pilot_most_recent,2022.2.4,Win32,10.66666667,,,,,,,,,,,,,,,,,,,,,,,,,,,,,,,,,2,right,,,,left,0,2.438,0,33,33,33,1,GOLDEN_CHEEKED_WARBLER_3.jpg,BREWERS_BLACKBIRD_3.jpg,,
,,,A2CZ8O9PGNTC2L,36,Male,8,2022-12-27_12h40.45.240,memory_pilot_most_recent,2022.2.4,Win32,10.66666667,,,,,,,,,,,,,,,,,,,,,,,,,,,,,,,,,3,right,,,,right,1,2.725,0,34,34,34,1,HEPATIC_TANAGER_5.jpg,AMERICAN_PIPIT_5.jpg,,
,,,A2CZ8O9PGNTC2L,36,Male,8,2022-12-27_12h40.45.240,memory_pilot_most_recent,2022.2.4,Win32,10.66666667,,,,,,,,,,,,,,,,,,,,,,,,,,,,,,,,,2,left,,,,left,1,1.57,0,35,35,35,1,GYRFALCON_1.jpg,CINNAMON_ATTILA_2.jpg,,
,,,A2CZ8O9PGNTC2L,36,Male,8,2022-12-27_12h40.45.240,memory_pilot_most_recent,2022.2.4,Win32,10.66666667,,,,,,,,,,,,,,,,,,,,,,,,,,,,,,,,,3,right,,,,right,1,4.853,0,36,36,36,1,IBERIAN_MAGPIE_1.jpg,BALI_STARLING_1.jpg,,
,,,A2CZ8O9PGNTC2L,36,Male,8,2022-12-27_12h40.45.240,memory_pilot_most_recent,2022.2.4,Win32,10.66666667,,,,,,,,,,,,,,,,,,,,,,,,,,,,,,,,,2,left,,,,left,1,1.791,0,37,37,37,1,KAGU_5.jpg,ASHY_STORM_PETREL_1.jpg,,
,,,A2CZ8O9PGNTC2L,36,Male,8,2022-12-27_12h40.45.240,memory_pilot_most_recent,2022.2.4,Win32,10.66666667,,,,,,,,,,,,,,,,,,,,,,,,,,,,,,,,,2,right,,,,right,1,3.451,0,38,38,38,1,BROWN_THRASHER_4.jpg,FLAME_BOWERBIRD_3.jpg,,
,,,A2CZ8O9PGNTC2L,36,Male,8,2022-12-27_12h40.45.240,memory_pilot_most_recent,2022.2.4,Win32,10.66666667,,,,,,,,,,,,,,,,,,,,,,,,,,,,,,,,,3,left,,,,left,1,1.949,0,39,39,39,1,WHITE_CHEEKED_TURACO_5.jpg,PYGMY_KINGFISHER_2.jpg,,
,,,A2CZ8O9PGNTC2L,36,Male,8,2022-12-27_12h40.45.240,memory_pilot_most_recent,2022.2.4,Win32,10.66666667,,,,,,,,,,,,,,,,,,,,,,,,,,,,,,,,,3,right,,,,left,0,1.265,0,40,40,40,1,COMMON_IORA_4.jpg,PINK_ROBIN_4.jpg,,
,,,A2CZ8O9PGNTC2L,36,Male,8,2022-12-27_12h40.45.240,memory_pilot_most_recent,2022.2.4,Win32,10.66666667,,,,,,,,,,,,,,,,,,,,,,,,,,,,,,,,,3,left,,,,right,0,3.4,0,41,41,41,1,GRAY_KINGBIRD_5.jpg,AFRICAN_FIREFINCH_3.jpg,,
,,,A2CZ8O9PGNTC2L,36,Male,8,2022-12-27_12h40.45.240,memory_pilot_most_recent,2022.2.4,Win32,10.66666667,,,,,,,,,,,,,,,,,,,,,,,,,,,,,,,,,2,left,,,,right,0,3.27,0,42,42,42,1,RED_HEADED_WOODPECKER_5.jpg,CRIMSON_CHAT_3.jpg,,
,,,A2CZ8O9PGNTC2L,36,Male,8,2022-12-27_12h40.45.240,memory_pilot_most_recent,2022.2.4,Win32,10.66666667,,,,,,,,,,,,,,,,,,,,,,,,,,,,,,,,,3,right,,,,right,1,1.607,0,43,43,43,1,COMMON_LOON_2.jpg,CASPIAN_TERN_1.jpg,,
,,,A2CZ8O9PGNTC2L,36,Male,8,2022-12-27_12h40.45.240,memory_pilot_most_recent,2022.2.4,Win32,10.66666667,,,,,,,,,,,,,,,,,,,,,,,,,,,,,,,,,3,left,,,,left,1,1.922,0,44,44,44,1,INDIGO_BUNTING_1.jpg,DARWINS_FLYCATCHER_2.jpg,,
,,,A2CZ8O9PGNTC2L,36,Male,8,2022-12-27_12h40.45.240,memory_pilot_most_recent,2022.2.4,Win32,10.66666667,,,,,,,,,,,,,,,,,,,,,,,,,,,,,,,,,2,left,,,,left,1,1.791,0,45,45,45,1,BROWN_NOODY_3.jpg,SPANGLED_COTINGA_4.jpg,,
,,,A2CZ8O9PGNTC2L,36,Male,8,2022-12-27_12h40.45.240,memory_pilot_most_recent,2022.2.4,Win32,10.66666667,,,,,,,,,,,,,,,,,,,,,,,,,,,,,,,,,1,left,,,,left,1,3.006,0,46,46,46,1,CRESTED_CARACARA_4.jpg,FAIRY_PENGUIN_5.jpg,,
,,,A2CZ8O9PGNTC2L,36,Male,8,2022-12-27_12h40.45.240,memory_pilot_most_recent,2022.2.4,Win32,10.66666667,,,,,,,,,,,,,,,,,,,,,,,,,,,,,,,,,3,right,,,,right,1,1.623,0,47,47,47,1,CRESTED_KINGFISHER_1.jpg,INLAND_DOTTEREL_4.jpg,,
,,,A2CZ8O9PGNTC2L,36,Male,8,2022-12-27_12h40.45.240,memory_pilot_most_recent,2022.2.4,Win32,10.66666667,,,,,,,,,,,,,,,,,,,,,,,,,,,,,,,,,1,left,,,,right,0,1.922,0,48,48,48,1,CASSOWARY_1.jpg,ROSY_FACED_LOVEBIRD_4.jpg,,
,,,A2CZ8O9PGNTC2L,36,Male,8,2022-12-27_12h40.45.240,memory_pilot_most_recent,2022.2.4,Win32,10.66666667,,,,,,,,,,,,,,,,,,,,,,,,,,,,,,,,,2,left,,,,right,0,1.587,0,49,49,49,1,IVORY_GULL_1.jpg,EASTERN_GOLDEN_WEAVER_5.jpg,,
,,,A2CZ8O9PGNTC2L,36,Male,8,2022-12-27_12h40.45.240,memory_pilot_most_recent,2022.2.4,Win32,10.66666667,,,,,,,,,,,,,,,,,,,,,,,,,,,,,,,,,1,left,,,,left,1,1.235,0,50,50,50,1,ASIAN_DOLLARD_BIRD_2.jpg,ALBATROSS_2.jpg,,
,,,A2CZ8O9PGNTC2L,36,Male,8,2022-12-27_12h40.45.240,memory_pilot_most_recent,2022.2.4,Win32,10.66666667,,,,,,,,,,,,,,,,,,,,,,,,,,,,,,,,,3,left,,,,left,1,1.426,0,51,51,51,1,BROWN_THRASHER_3.jpg,BLACK_BAZA_4.jpg,,
,,,A2CZ8O9PGNTC2L,36,Male,8,2022-12-27_12h40.45.240,memory_pilot_most_recent,2022.2.4,Win32,10.66666667,,,,,,,,,,,,,,,,,,,,,,,,,,,,,,,,,1,right,,,,left,0,1.219,0,52,52,52,1,PEACOCK_1.jpg,LARK_BUNTING_2.jpg,,
,,,A2CZ8O9PGNTC2L,36,Male,8,2022-12-27_12h40.45.240,memory_pilot_most_recent,2022.2.4,Win32,10.66666667,,,,,,,,,,,,,,,,,,,,,,,,,,,,,,,,,3,left,,,,left,1,1.838,0,53,53,53,1,CRESTED_NUTHATCH_2.jpg,CANARY_1.jpg,,
,,,A2CZ8O9PGNTC2L,36,Male,8,2022-12-27_12h40.45.240,memory_pilot_most_recent,2022.2.4,Win32,10.66666667,,,,,,,,,,,,,,,,,,,,,,,,,,,,,,,,,3,left,,,,left,1,2.357,0,54,54,54,1,GREY_PLOVER_1.jpg,ECUADORIAN_HILLSTAR_3.jpg,,
,,,A2CZ8O9PGNTC2L,36,Male,8,2022-12-27_12h40.45.240,memory_pilot_most_recent,2022.2.4,Win32,10.66666667,,,,,,,,,,,,,,,,,,,,,,,,,,,,,,,,,1,left,,,,right,0,1.437,0,55,55,55,1,ASIAN_CRESTED_IBIS_4.jpg,CANARY_2.jpg,,
,,,A2CZ8O9PGNTC2L,36,Male,8,2022-12-27_12h40.45.240,memory_pilot_most_recent,2022.2.4,Win32,10.66666667,,,,,,,,,,,,,,,,,,,,,,,,,,,,,,,,,1,left,,,,right,0,1.223,0,56,56,56,1,DOUBLE_BRESTED_CORMARANT_5.jpg,GILDED_FLICKER_2.jpg,,
,,,A2CZ8O9PGNTC2L,36,Male,8,2022-12-27_12h40.45.240,memory_pilot_most_recent,2022.2.4,Win32,10.66666667,,,,,,,,,,,,,,,,,,,,,,,,,,,,,,,,,2,right,,,,right,1,4.015,0,57,57,57,1,MAGPIE_GOOSE_3.jpg,RUFOUS_KINGFISHER_1.jpg,,
,,,A2CZ8O9PGNTC2L,36,Male,8,2022-12-27_12h40.45.240,memory_pilot_most_recent,2022.2.4,Win32,10.66666667,,,,,,,,,,,,,,,,,,,,,,,,,,,,,,,,,1,right,,,,right,1,3.918,0,58,58,58,1,ELLIOTS__PHEASANT_4.jpg,INCA_TERN_4.jpg,,
,,,A2CZ8O9PGNTC2L,36,Male,8,2022-12-27_12h40.45.240,memory_pilot_most_recent,2022.2.4,Win32,10.66666667,,,,,,,,,,,,,,,,,,,,,,,,,,,,,,,,,3,right,,,,left,0,6.783,0,59,59,59,1,BLACK_THROATED_BUSHTIT_1.jpg,CHUKAR_PARTRIDGE_5.jpg,,
,,,A2CZ8O9PGNTC2L,36,Male,8,2022-12-27_12h40.45.240,memory_pilot_most_recent,2022.2.4,Win32,10.66666667,,,,,,,,,,,,,,,,,,,,,,,,,,,,,,,,,,,,,,,,,,,,,,,,space,28.579
