button.numClicks,button.timesOn,button.timesOff,workID,Age,Gender,Hours slept (last night),date,expName,psychopyVersion,OS,frameRate,space_key_responce.keys,space_key_responce.rt,demo_encoding_response.keys,demo_encoding_response.corr,demo_encoding_loop.thisRepN,demo_encoding_loop.thisTrialN,demo_encoding_loop.thisN,demo_encoding_loop.thisIndex,demo_encoding_loop.ran,DemoImage,DemoCorrect,demo_encoding_response.rt,demo_test_response.keys,demo_test_response.corr,demo_test_response.rt,demo_test_loop.thisRepN,demo_test_loop.thisTrialN,demo_test_loop.thisN,demo_test_loop.thisIndex,demo_test_loop.ran,DemoImage1,DemoImage2,DemoCorrectTest,test_encoding_response.keys,test_encoding_response.corr,trials.thisRepN,trials.thisTrialN,trials.thisN,trials.thisIndex,trials.ran,target_image,pair,layer,correct,test_encoding_response.rt,key_resp_end.keys,key_resp_end.rt,test_test_response.keys,test_test_response.corr,test_test_response.rt,trials_2.thisRepN,trials_2.thisTrialN,trials_2.thisN,trials_2.thisIndex,trials_2.ran,image1,image2,key_resp_end_2.keys,key_resp_end_2.rt
1,[4.960099999904628],[4.960200000286079],A3E0IFFHYQPLFE,40,Female,8,2022-12-27_14h38.52.974,memory_pilot_most_recent,2022.2.4,Win32,16.13423685,,,,,,,,,,,,,,,,,,,,,,,,,,,,,,,,,,,,,,,,,,,,,,,,,
,,,A3E0IFFHYQPLFE,40,Female,8,2022-12-27_14h38.52.974,memory_pilot_most_recent,2022.2.4,Win32,16.13423685,,,,,,,,,,,,,,,,,,,,,,,,,,,,,,,,,,,,,,,,,,,,,,,,,
,,,A3E0IFFHYQPLFE,40,Female,8,2022-12-27_14h38.52.974,memory_pilot_most_recent,2022.2.4,Win32,16.13423685,space,2.3533,,,,,,,,,,,,,,,,,,,,,,,,,,,,,,,,,,,,,,,,,,,,,,,
,,,A3E0IFFHYQPLFE,40,Female,8,2022-12-27_14h38.52.974,memory_pilot_most_recent,2022.2.4,Win32,16.13423685,,,,,,,,,,,,,,,,,,,,,,,,,,,,,,,,,,,,,,,,,,,,,,,,,
,,,A3E0IFFHYQPLFE,40,Female,8,2022-12-27_14h38.52.974,memory_pilot_most_recent,2022.2.4,Win32,16.13423685,,,,1,0,0,0,0,1,flower1.jpg,,,,,,,,,,,,,,,,,,,,,,,,,,,,,,,,,,,,,,,
,,,A3E0IFFHYQPLFE,40,Female,8,2022-12-27_14h38.52.974,memory_pilot_most_recent,2022.2.4,Win32,16.13423685,,,,1,0,1,1,1,1,flower2.jpg,,,,,,,,,,,,,,,,,,,,,,,,,,,,,,,,,,,,,,,
,,,A3E0IFFHYQPLFE,40,Female,8,2022-12-27_14h38.52.974,memory_pilot_most_recent,2022.2.4,Win32,16.13423685,,,left,1,0,2,2,2,1,left.jpg,left,1.1384,,,,,,,,,,,,,,,,,,,,,,,,,,,,,,,,,,,,,
,,,A3E0IFFHYQPLFE,40,Female,8,2022-12-27_14h38.52.974,memory_pilot_most_recent,2022.2.4,Win32,16.13423685,,,,1,0,3,3,3,1,flower3.jpg,,,,,,,,,,,,,,,,,,,,,,,,,,,,,,,,,,,,,,,
,,,A3E0IFFHYQPLFE,40,Female,8,2022-12-27_14h38.52.974,memory_pilot_most_recent,2022.2.4,Win32,16.13423685,,,,1,0,4,4,4,1,flower4.jpg,,,,,,,,,,,,,,,,,,,,,,,,,,,,,,,,,,,,,,,
,,,A3E0IFFHYQPLFE,40,Female,8,2022-12-27_14h38.52.974,memory_pilot_most_recent,2022.2.4,Win32,16.13423685,,,,1,0,5,5,5,1,flower5.jpg,,,,,,,,,,,,,,,,,,,,,,,,,,,,,,,,,,,,,,,
,,,A3E0IFFHYQPLFE,40,Female,8,2022-12-27_14h38.52.974,memory_pilot_most_recent,2022.2.4,Win32,16.13423685,,,,1,0,6,6,6,1,flower6.jpg,,,,,,,,,,,,,,,,,,,,,,,,,,,,,,,,,,,,,,,
,,,A3E0IFFHYQPLFE,40,Female,8,2022-12-27_14h38.52.974,memory_pilot_most_recent,2022.2.4,Win32,16.13423685,,,,,,,,,,,,,,,,,,,,,,,,,,,,,,,,,,,,,,,,,,,,,,,,,
,,,A3E0IFFHYQPLFE,40,Female,8,2022-12-27_14h38.52.974,memory_pilot_most_recent,2022.2.4,Win32,16.13423685,,,,,,,,,,,,,right,0,1.8767,0,0,0,0,1,flower1.jpg,flower1_pair.jpg,left,,,,,,,,,,,,,,,,,,,,,,,,,,
,,,A3E0IFFHYQPLFE,40,Female,8,2022-12-27_14h38.52.974,memory_pilot_most_recent,2022.2.4,Win32,16.13423685,,,,,,,,,,,,,right,1,0.8158,0,1,1,1,1,flower2_pair.jpg,flower2.jpg,right,,,,,,,,,,,,,,,,,,,,,,,,,,
,,,A3E0IFFHYQPLFE,40,Female,8,2022-12-27_14h38.52.974,memory_pilot_most_recent,2022.2.4,Win32,16.13423685,,,,,,,,,,,,,left,1,0.0869,0,2,2,2,1,flower3.jpg,flower3_pair.jpg,left,,,,,,,,,,,,,,,,,,,,,,,,,,
,,,A3E0IFFHYQPLFE,40,Female,8,2022-12-27_14h38.52.974,memory_pilot_most_recent,2022.2.4,Win32,16.13423685,,,,,,,,,,,,,right,0,0.8947,0,3,3,3,1,flower4.jpg,flower4_pair.jpg,left,,,,,,,,,,,,,,,,,,,,,,,,,,
,,,A3E0IFFHYQPLFE,40,Female,8,2022-12-27_14h38.52.974,memory_pilot_most_recent,2022.2.4,Win32,16.13423685,,,,,,,,,,,,,right,1,0.0874,0,4,4,4,1,flower5_pair.jpg,flower5.jpg,right,,,,,,,,,,,,,,,,,,,,,,,,,,
,,,A3E0IFFHYQPLFE,40,Female,8,2022-12-27_14h38.52.974,memory_pilot_most_recent,2022.2.4,Win32,16.13423685,,,,,,,,,,,,,left,1,0.3319,0,5,5,5,1,flower6.jpg,flower6_pair.jpg,left,,,,,,,,,,,,,,,,,,,,,,,,,,
,,,A3E0IFFHYQPLFE,40,Female,8,2022-12-27_14h38.52.974,memory_pilot_most_recent,2022.2.4,Win32,16.13423685,,,,,,,,,,,,,,,,,,,,,,,,,,,,,,,,,,,,,,,,,,,,,,,,,
,,,A3E0IFFHYQPLFE,40,Female,8,2022-12-27_14h38.52.974,memory_pilot_most_recent,2022.2.4,Win32,16.13423685,space,2.0366,,,,,,,,,,,,,,,,,,,,,,,,,,,,,,,,,,,,,,,,,,,,,,,
,,,A3E0IFFHYQPLFE,40,Female,8,2022-12-27_14h38.52.974,memory_pilot_most_recent,2022.2.4,Win32,16.13423685,,,,,,,,,,,,,,,,,,,,,,,,,1,0,0,0,0,1,BALI_STARLING_1.jpg,CAPE_LONGCLAW_5.jpg,1,,,,,,,,,,,,,,,,
,,,A3E0IFFHYQPLFE,40,Female,8,2022-12-27_14h38.52.974,memory_pilot_most_recent,2022.2.4,Win32,16.13423685,,,,,,,,,,,,,,,,,,,,,,,,,1,0,1,1,1,1,LESSER_ADJUTANT_4.jpg,ALTAMIRA_YELLOWTHROAT_5.jpg,1,,,,,,,,,,,,,,,,
,,,A3E0IFFHYQPLFE,40,Female,8,2022-12-27_14h38.52.974,memory_pilot_most_recent,2022.2.4,Win32,16.13423685,,,,,,,,,,,,,,,,,,,,,,,,,1,0,2,2,2,1,EASTERN_TOWEE_2.jpg,NORTHERN_BEARDLESS_TYRANNULET_5.jpg,3,,,,,,,,,,,,,,,,
,,,A3E0IFFHYQPLFE,40,Female,8,2022-12-27_14h38.52.974,memory_pilot_most_recent,2022.2.4,Win32,16.13423685,,,,,,,,,,,,,,,,,,,,,,,,,1,0,3,3,3,1,EUROPEAN_TURTLE_DOVE_3.jpg,TEAL_DUCK_2.jpg,1,,,,,,,,,,,,,,,,
,,,A3E0IFFHYQPLFE,40,Female,8,2022-12-27_14h38.52.974,memory_pilot_most_recent,2022.2.4,Win32,16.13423685,,,,,,,,,,,,,,,,,,,,,,,,,1,0,4,4,4,1,LITTLE_AUK_5.jpg,ORANGE_BRESTED_BUNTING_3.jpg,2,,,,,,,,,,,,,,,,
,,,A3E0IFFHYQPLFE,40,Female,8,2022-12-27_14h38.52.974,memory_pilot_most_recent,2022.2.4,Win32,16.13423685,,,,,,,,,,,,,,,,,,,,,,,,,1,0,5,5,5,1,GYRFALCON_1.jpg,FAIRY_TERN_1.jpg,3,,,,,,,,,,,,,,,,
,,,A3E0IFFHYQPLFE,40,Female,8,2022-12-27_14h38.52.974,memory_pilot_most_recent,2022.2.4,Win32,16.13423685,,,,,,,,,,,,,,,,,,,,,,,,,1,0,6,6,6,1,ALPINE_CHOUGH_4.jpg,BOBOLINK_3.jpg,3,,,,,,,,,,,,,,,,
,,,A3E0IFFHYQPLFE,40,Female,8,2022-12-27_14h38.52.974,memory_pilot_most_recent,2022.2.4,Win32,16.13423685,,,,,,,,,,,,,,,,,,,,,,,,,1,0,7,7,7,1,GREY_PLOVER_1.jpg,ECUADORIAN_HILLSTAR_3.jpg,3,,,,,,,,,,,,,,,,
,,,A3E0IFFHYQPLFE,40,Female,8,2022-12-27_14h38.52.974,memory_pilot_most_recent,2022.2.4,Win32,16.13423685,,,,,,,,,,,,,,,,,,,,,,,,,1,0,8,8,8,1,ASIAN_CRESTED_IBIS_4.jpg,OYSTER_CATCHER_2.jpg,2,,,,,,,,,,,,,,,,
,,,A3E0IFFHYQPLFE,40,Female,8,2022-12-27_14h38.52.974,memory_pilot_most_recent,2022.2.4,Win32,16.13423685,,,,,,,,,,,,,,,,,,,,,,,,,1,0,9,9,9,1,WHITE_CHEEKED_TURACO_5.jpg,PYGMY_KINGFISHER_2.jpg,3,,,,,,,,,,,,,,,,
,,,A3E0IFFHYQPLFE,40,Female,8,2022-12-27_14h38.52.974,memory_pilot_most_recent,2022.2.4,Win32,16.13423685,,,,,,,,,,,,,,,,,,,,,,,,left,1,0,10,10,10,1,left.jpg,,,left,1.0647,,,,,,,,,,,,,,
,,,A3E0IFFHYQPLFE,40,Female,8,2022-12-27_14h38.52.974,memory_pilot_most_recent,2022.2.4,Win32,16.13423685,,,,,,,,,,,,,,,,,,,,,,,,,1,0,11,11,11,1,NORTHERN_JACANA_3.jpg,AMERICAN_GOLDFINCH_4.jpg,1,,,,,,,,,,,,,,,,
,,,A3E0IFFHYQPLFE,40,Female,8,2022-12-27_14h38.52.974,memory_pilot_most_recent,2022.2.4,Win32,16.13423685,,,,,,,,,,,,,,,,,,,,,,,,,1,0,12,12,12,1,STRIPPED_SWALLOW_1.jpg,MAGPIE_GOOSE_4.jpg,2,,,,,,,,,,,,,,,,
,,,A3E0IFFHYQPLFE,40,Female,8,2022-12-27_14h38.52.974,memory_pilot_most_recent,2022.2.4,Win32,16.13423685,,,,,,,,,,,,,,,,,,,,,,,,,1,0,13,13,13,1,OVENBIRD_5.jpg,SHORT_BILLED_DOWITCHER_5.jpg,3,,,,,,,,,,,,,,,,
,,,A3E0IFFHYQPLFE,40,Female,8,2022-12-27_14h38.52.974,memory_pilot_most_recent,2022.2.4,Win32,16.13423685,,,,,,,,,,,,,,,,,,,,,,,,,1,0,14,14,14,1,PARUS_MAJOR_1.jpg,CALIFORNIA_GULL_2.jpg,2,,,,,,,,,,,,,,,,
,,,A3E0IFFHYQPLFE,40,Female,8,2022-12-27_14h38.52.974,memory_pilot_most_recent,2022.2.4,Win32,16.13423685,,,,,,,,,,,,,,,,,,,,,,,,,1,0,15,15,15,1,INLAND_DOTTEREL_4.jpg,CASSOWARY_2.jpg,1,,,,,,,,,,,,,,,,
,,,A3E0IFFHYQPLFE,40,Female,8,2022-12-27_14h38.52.974,memory_pilot_most_recent,2022.2.4,Win32,16.13423685,,,,,,,,,,,,,,,,,,,,,,,,left,0,0,16,16,16,1,right.jpg,,,right,0.082,,,,,,,,,,,,,,
,,,A3E0IFFHYQPLFE,40,Female,8,2022-12-27_14h38.52.974,memory_pilot_most_recent,2022.2.4,Win32,16.13423685,,,,,,,,,,,,,,,,,,,,,,,,,1,0,17,17,17,1,BREWERS_BLACKBIRD_3.jpg,GOLDEN_CHEEKED_WARBLER_3.jpg,2,,,,,,,,,,,,,,,,
,,,A3E0IFFHYQPLFE,40,Female,8,2022-12-27_14h38.52.974,memory_pilot_most_recent,2022.2.4,Win32,16.13423685,,,,,,,,,,,,,,,,,,,,,,,,,1,0,18,18,18,1,INDIGO_BUNTING_1.jpg,DARWINS_FLYCATCHER_2.jpg,3,,,,,,,,,,,,,,,,
,,,A3E0IFFHYQPLFE,40,Female,8,2022-12-27_14h38.52.974,memory_pilot_most_recent,2022.2.4,Win32,16.13423685,,,,,,,,,,,,,,,,,,,,,,,,,1,0,19,19,19,1,IVORY_GULL_3.jpg,FLAME_TANAGER_3.jpg,2,,,,,,,,,,,,,,,,
,,,A3E0IFFHYQPLFE,40,Female,8,2022-12-27_14h38.52.974,memory_pilot_most_recent,2022.2.4,Win32,16.13423685,,,,,,,,,,,,,,,,,,,,,,,,,1,0,20,20,20,1,HAWAIIAN_GOOSE_4.jpg,HIMALAYAN_MONAL_2.jpg,2,,,,,,,,,,,,,,,,
,,,A3E0IFFHYQPLFE,40,Female,8,2022-12-27_14h38.52.974,memory_pilot_most_recent,2022.2.4,Win32,16.13423685,,,,,,,,,,,,,,,,,,,,,,,,,1,0,21,21,21,1,CHUKAR_PARTRIDGE_5.jpg,BLACK_THROATED_BUSHTIT_1.jpg,3,,,,,,,,,,,,,,,,
,,,A3E0IFFHYQPLFE,40,Female,8,2022-12-27_14h38.52.974,memory_pilot_most_recent,2022.2.4,Win32,16.13423685,,,,,,,,,,,,,,,,,,,,,,,,,1,0,22,22,22,1,TASMANIAN_HEN_5.jpg,AFRICAN_EMERALD_CUCKOO_5.jpg,2,,,,,,,,,,,,,,,,
,,,A3E0IFFHYQPLFE,40,Female,8,2022-12-27_14h38.52.974,memory_pilot_most_recent,2022.2.4,Win32,16.13423685,,,,,,,,,,,,,,,,,,,,,,,,,1,0,23,23,23,1,KILLDEAR_2.jpg,CAATINGA_CACHOLOTE_4.jpg,2,,,,,,,,,,,,,,,,
,,,A3E0IFFHYQPLFE,40,Female,8,2022-12-27_14h38.52.974,memory_pilot_most_recent,2022.2.4,Win32,16.13423685,,,,,,,,,,,,,,,,,,,,,,,,,1,0,24,24,24,1,PINK_ROBIN_4.jpg,SPOONBILL_3.jpg,1,,,,,,,,,,,,,,,,
,,,A3E0IFFHYQPLFE,40,Female,8,2022-12-27_14h38.52.974,memory_pilot_most_recent,2022.2.4,Win32,16.13423685,,,,,,,,,,,,,,,,,,,,,,,,,1,0,25,25,25,1,RUBY_THROATED_HUMMINGBIRD_1.jpg,FRIGATE_1.jpg,3,,,,,,,,,,,,,,,,
,,,A3E0IFFHYQPLFE,40,Female,8,2022-12-27_14h38.52.974,memory_pilot_most_recent,2022.2.4,Win32,16.13423685,,,,,,,,,,,,,,,,,,,,,,,,,1,0,26,26,26,1,RUBY_THROATED_HUMMINGBIRD_2.jpg,GOLDEN_CHLOROPHONIA_2.jpg,1,,,,,,,,,,,,,,,,
,,,A3E0IFFHYQPLFE,40,Female,8,2022-12-27_14h38.52.974,memory_pilot_most_recent,2022.2.4,Win32,16.13423685,,,,,,,,,,,,,,,,,,,,,,,,,1,0,27,27,27,1,MYNA_1.jpg,PARADISE_TANAGER_3.jpg,3,,,,,,,,,,,,,,,,
,,,A3E0IFFHYQPLFE,40,Female,8,2022-12-27_14h38.52.974,memory_pilot_most_recent,2022.2.4,Win32,16.13423685,,,,,,,,,,,,,,,,,,,,,,,,,1,0,28,28,28,1,CRESTED_CARACARA_4.jpg,INDIAN_PITTA_2.jpg,2,,,,,,,,,,,,,,,,
,,,A3E0IFFHYQPLFE,40,Female,8,2022-12-27_14h38.52.974,memory_pilot_most_recent,2022.2.4,Win32,16.13423685,,,,,,,,,,,,,,,,,,,,,,,,,1,0,29,29,29,1,BROWN_THRASHER_3.jpg,OYSTER_CATCHER_4.jpg,2,,,,,,,,,,,,,,,,
,,,A3E0IFFHYQPLFE,40,Female,8,2022-12-27_14h38.52.974,memory_pilot_most_recent,2022.2.4,Win32,16.13423685,,,,,,,,,,,,,,,,,,,,,,,,,1,0,30,30,30,1,AFRICAN_PIED_HORNBILL_5.jpg,ALEXANDRINE_PARAKEET_1.jpg,2,,,,,,,,,,,,,,,,
,,,A3E0IFFHYQPLFE,40,Female,8,2022-12-27_14h38.52.974,memory_pilot_most_recent,2022.2.4,Win32,16.13423685,,,,,,,,,,,,,,,,,,,,,,,,,1,0,31,31,31,1,SPLENDID_WREN_1.jpg,DOUBLE_BRESTED_CORMARANT_1.jpg,2,,,,,,,,,,,,,,,,
,,,A3E0IFFHYQPLFE,40,Female,8,2022-12-27_14h38.52.974,memory_pilot_most_recent,2022.2.4,Win32,16.13423685,,,,,,,,,,,,,,,,,,,,,,,,,1,0,32,32,32,1,PEACOCK_3.jpg,STRAWBERRY_FINCH_4.jpg,2,,,,,,,,,,,,,,,,
,,,A3E0IFFHYQPLFE,40,Female,8,2022-12-27_14h38.52.974,memory_pilot_most_recent,2022.2.4,Win32,16.13423685,,,,,,,,,,,,,,,,,,,,,,,,,1,0,33,33,33,1,MAGPIE_GOOSE_5.jpg,HAMERKOP_1.jpg,2,,,,,,,,,,,,,,,,
,,,A3E0IFFHYQPLFE,40,Female,8,2022-12-27_14h38.52.974,memory_pilot_most_recent,2022.2.4,Win32,16.13423685,,,,,,,,,,,,,,,,,,,,,,,,right,1,0,34,34,34,1,right.jpg,,,right,0.0075,,,,,,,,,,,,,,
,,,A3E0IFFHYQPLFE,40,Female,8,2022-12-27_14h38.52.974,memory_pilot_most_recent,2022.2.4,Win32,16.13423685,,,,,,,,,,,,,,,,,,,,,,,,,1,0,35,35,35,1,DOUBLE_BRESTED_CORMARANT_5.jpg,GILDED_FLICKER_2.jpg,1,,,,,,,,,,,,,,,,
,,,A3E0IFFHYQPLFE,40,Female,8,2022-12-27_14h38.52.974,memory_pilot_most_recent,2022.2.4,Win32,16.13423685,,,,,,,,,,,,,,,,,,,,,,,,,1,0,36,36,36,1,CERULEAN_WARBLER_1.jpg,AMERICAN_FLAMINGO_2.jpg,1,,,,,,,,,,,,,,,,
,,,A3E0IFFHYQPLFE,40,Female,8,2022-12-27_14h38.52.974,memory_pilot_most_recent,2022.2.4,Win32,16.13423685,,,,,,,,,,,,,,,,,,,,,,,,,1,0,37,37,37,1,VERMILION_FLYCATHER_3.jpg,RED_BEARDED_BEE_EATER_1.jpg,3,,,,,,,,,,,,,,,,
,,,A3E0IFFHYQPLFE,40,Female,8,2022-12-27_14h38.52.974,memory_pilot_most_recent,2022.2.4,Win32,16.13423685,,,,,,,,,,,,,,,,,,,,,,,,left,1,0,38,38,38,1,left.jpg,,,left,0.2283,,,,,,,,,,,,,,
,,,A3E0IFFHYQPLFE,40,Female,8,2022-12-27_14h38.52.974,memory_pilot_most_recent,2022.2.4,Win32,16.13423685,,,,,,,,,,,,,,,,,,,,,,,,,1,0,39,39,39,1,LARK_BUNTING_2.jpg,CACTUS_WREN_3.jpg,3,,,,,,,,,,,,,,,,
,,,A3E0IFFHYQPLFE,40,Female,8,2022-12-27_14h38.52.974,memory_pilot_most_recent,2022.2.4,Win32,16.13423685,,,,,,,,,,,,,,,,,,,,,,,,,1,0,40,40,40,1,ECUADORIAN_HILLSTAR_5.jpg,CRIMSON_SUNBIRD_5.jpg,3,,,,,,,,,,,,,,,,
,,,A3E0IFFHYQPLFE,40,Female,8,2022-12-27_14h38.52.974,memory_pilot_most_recent,2022.2.4,Win32,16.13423685,,,,,,,,,,,,,,,,,,,,,,,,,1,0,41,41,41,1,MALACHITE_KINGFISHER_2.jpg,INCA_TERN_2.jpg,2,,,,,,,,,,,,,,,,
,,,A3E0IFFHYQPLFE,40,Female,8,2022-12-27_14h38.52.974,memory_pilot_most_recent,2022.2.4,Win32,16.13423685,,,,,,,,,,,,,,,,,,,,,,,,,1,0,42,42,42,1,SCARLET_TANAGER_2.jpg,BEARDED_BARBET_2.jpg,1,,,,,,,,,,,,,,,,
,,,A3E0IFFHYQPLFE,40,Female,8,2022-12-27_14h38.52.974,memory_pilot_most_recent,2022.2.4,Win32,16.13423685,,,,,,,,,,,,,,,,,,,,,,,,,1,0,43,43,43,1,INCA_TERN_4.jpg,BORNEAN_BRISTLEHEAD_5.jpg,3,,,,,,,,,,,,,,,,
,,,A3E0IFFHYQPLFE,40,Female,8,2022-12-27_14h38.52.974,memory_pilot_most_recent,2022.2.4,Win32,16.13423685,,,,,,,,,,,,,,,,,,,,,,,,,1,0,44,44,44,1,CASSOWARY_1.jpg,ROSY_FACED_LOVEBIRD_4.jpg,1,,,,,,,,,,,,,,,,
,,,A3E0IFFHYQPLFE,40,Female,8,2022-12-27_14h38.52.974,memory_pilot_most_recent,2022.2.4,Win32,16.13423685,,,,,,,,,,,,,,,,,,,,,,,,,1,0,45,45,45,1,IVORY_GULL_1.jpg,FAIRY_TERN_4.jpg,3,,,,,,,,,,,,,,,,
,,,A3E0IFFHYQPLFE,40,Female,8,2022-12-27_14h38.52.974,memory_pilot_most_recent,2022.2.4,Win32,16.13423685,,,,,,,,,,,,,,,,,,,,,,,,,1,0,46,46,46,1,RUBY_THROATED_HUMMINGBIRD_3.jpg,MYNA_5.jpg,2,,,,,,,,,,,,,,,,
,,,A3E0IFFHYQPLFE,40,Female,8,2022-12-27_14h38.52.974,memory_pilot_most_recent,2022.2.4,Win32,16.13423685,,,,,,,,,,,,,,,,,,,,,,,,,1,0,47,47,47,1,GOLDEN_CHLOROPHONIA_5.jpg,ROADRUNNER_2.jpg,1,,,,,,,,,,,,,,,,
,,,A3E0IFFHYQPLFE,40,Female,8,2022-12-27_14h38.52.974,memory_pilot_most_recent,2022.2.4,Win32,16.13423685,,,,,,,,,,,,,,,,,,,,,,,,,1,0,48,48,48,1,CASPIAN_TERN_1.jpg,GREAT_GRAY_OWL_4.jpg,1,,,,,,,,,,,,,,,,
,,,A3E0IFFHYQPLFE,40,Female,8,2022-12-27_14h38.52.974,memory_pilot_most_recent,2022.2.4,Win32,16.13423685,,,,,,,,,,,,,,,,,,,,,,,,,1,0,49,49,49,1,OCELLATED_TURKEY_1.jpg,PURPLE_SWAMPHEN_4.jpg,3,,,,,,,,,,,,,,,,
,,,A3E0IFFHYQPLFE,40,Female,8,2022-12-27_14h38.52.974,memory_pilot_most_recent,2022.2.4,Win32,16.13423685,,,,,,,,,,,,,,,,,,,,,,,,,1,0,50,50,50,1,RED_HEADED_WOODPECKER_5.jpg,ASHY_STORM_PETREL_2.jpg,1,,,,,,,,,,,,,,,,
,,,A3E0IFFHYQPLFE,40,Female,8,2022-12-27_14h38.52.974,memory_pilot_most_recent,2022.2.4,Win32,16.13423685,,,,,,,,,,,,,,,,,,,,,,,,,1,0,51,51,51,1,ASIAN_DOLLARD_BIRD_2.jpg,VIOLET_GREEN_SWALLOW_4.jpg,3,,,,,,,,,,,,,,,,
,,,A3E0IFFHYQPLFE,40,Female,8,2022-12-27_14h38.52.974,memory_pilot_most_recent,2022.2.4,Win32,16.13423685,,,,,,,,,,,,,,,,,,,,,,,,,1,0,52,52,52,1,KAGU_5.jpg,ASHY_STORM_PETREL_1.jpg,2,,,,,,,,,,,,,,,,
,,,A3E0IFFHYQPLFE,40,Female,8,2022-12-27_14h38.52.974,memory_pilot_most_recent,2022.2.4,Win32,16.13423685,,,,,,,,,,,,,,,,,,,,,,,,,1,0,53,53,53,1,PYGMY_KINGFISHER_5.jpg,MASKED_BOOBY_5.jpg,2,,,,,,,,,,,,,,,,
,,,A3E0IFFHYQPLFE,40,Female,8,2022-12-27_14h38.52.974,memory_pilot_most_recent,2022.2.4,Win32,16.13423685,,,,,,,,,,,,,,,,,,,,,,,,left,1,0,54,54,54,1,left.jpg,,,left,0.0075,,,,,,,,,,,,,,
,,,A3E0IFFHYQPLFE,40,Female,8,2022-12-27_14h38.52.974,memory_pilot_most_recent,2022.2.4,Win32,16.13423685,,,,,,,,,,,,,,,,,,,,,,,,,1,0,55,55,55,1,RUFOUS_KINGFISHER_1.jpg,SNOWY_OWL_5.jpg,1,,,,,,,,,,,,,,,,
,,,A3E0IFFHYQPLFE,40,Female,8,2022-12-27_14h38.52.974,memory_pilot_most_recent,2022.2.4,Win32,16.13423685,,,,,,,,,,,,,,,,,,,,,,,,,1,0,56,56,56,1,SHOEBILL_3.jpg,BALD_EAGLE_5.jpg,3,,,,,,,,,,,,,,,,
,,,A3E0IFFHYQPLFE,40,Female,8,2022-12-27_14h38.52.974,memory_pilot_most_recent,2022.2.4,Win32,16.13423685,,,,,,,,,,,,,,,,,,,,,,,,,1,0,57,57,57,1,ARARIPE_MANAKIN_4.jpg,BLACK_VULTURE_1.jpg,2,,,,,,,,,,,,,,,,
,,,A3E0IFFHYQPLFE,40,Female,8,2022-12-27_14h38.52.974,memory_pilot_most_recent,2022.2.4,Win32,16.13423685,,,,,,,,,,,,,,,,,,,,,,,,,1,0,58,58,58,1,CRESTED_NUTHATCH_2.jpg,SCARLET_IBIS_3.jpg,1,,,,,,,,,,,,,,,,
,,,A3E0IFFHYQPLFE,40,Female,8,2022-12-27_14h38.52.974,memory_pilot_most_recent,2022.2.4,Win32,16.13423685,,,,,,,,,,,,,,,,,,,,,,,,,1,0,59,59,59,1,AMERICAN_PIPIT_5.jpg,EMU_2.jpg,1,,,,,,,,,,,,,,,,
,,,A3E0IFFHYQPLFE,40,Female,8,2022-12-27_14h38.52.974,memory_pilot_most_recent,2022.2.4,Win32,16.13423685,,,,,,,,,,,,,,,,,,,,,,,,,1,0,60,60,60,1,GOLDEN_CHEEKED_WARBLER_2.jpg,SPOONBILL_1.jpg,1,,,,,,,,,,,,,,,,
,,,A3E0IFFHYQPLFE,40,Female,8,2022-12-27_14h38.52.974,memory_pilot_most_recent,2022.2.4,Win32,16.13423685,,,,,,,,,,,,,,,,,,,,,,,,,1,0,61,61,61,1,FLAME_BOWERBIRD_3.jpg,INDIAN_BUSTARD_2.jpg,1,,,,,,,,,,,,,,,,
,,,A3E0IFFHYQPLFE,40,Female,8,2022-12-27_14h38.52.974,memory_pilot_most_recent,2022.2.4,Win32,16.13423685,,,,,,,,,,,,,,,,,,,,,,,,,1,0,62,62,62,1,LESSER_ADJUTANT_5.jpg,GREEN_BROADBILL_4.jpg,1,,,,,,,,,,,,,,,,
,,,A3E0IFFHYQPLFE,40,Female,8,2022-12-27_14h38.52.974,memory_pilot_most_recent,2022.2.4,Win32,16.13423685,,,,,,,,,,,,,,,,,,,,,,,,,1,0,63,63,63,1,GRAY_KINGBIRD_5.jpg,AFRICAN_FIREFINCH_3.jpg,3,,,,,,,,,,,,,,,,
,,,A3E0IFFHYQPLFE,40,Female,8,2022-12-27_14h38.52.974,memory_pilot_most_recent,2022.2.4,Win32,16.13423685,,,,,,,,,,,,,,,,,,,,,,,,,1,0,64,64,64,1,BROWN_NOODY_3.jpg,GUINEA_TURACO_5.jpg,3,,,,,,,,,,,,,,,,
,,,A3E0IFFHYQPLFE,40,Female,8,2022-12-27_14h38.52.974,memory_pilot_most_recent,2022.2.4,Win32,16.13423685,,,,,,,,,,,,,,,,,,,,,,,,,,,,,,,,,,,,space,3.2902,,,,,,,,,,,,
,,,A3E0IFFHYQPLFE,40,Female,8,2022-12-27_14h38.52.974,memory_pilot_most_recent,2022.2.4,Win32,16.13423685,,,,,,,,,,,,,,,,,,,,,,,,,,,,,,,,,,,,,,,,,,,,,,,,,
,,,A3E0IFFHYQPLFE,40,Female,8,2022-12-27_14h38.52.974,memory_pilot_most_recent,2022.2.4,Win32,16.13423685,,,,,,,,,,,,,,,,,,,,,,,,,,,,,,,,,1,left,,,,left,1,11.0013,0,0,0,0,1,EUROPEAN_TURTLE_DOVE_3.jpg,TEAL_DUCK_2.jpg,,
,,,A3E0IFFHYQPLFE,40,Female,8,2022-12-27_14h38.52.974,memory_pilot_most_recent,2022.2.4,Win32,16.13423685,,,,,,,,,,,,,,,,,,,,,,,,,,,,,,,,,1,right,,,,left,0,4.2953,0,1,1,1,1,ALTAMIRA_YELLOWTHROAT_5.jpg,LESSER_ADJUTANT_4.jpg,,
,,,A3E0IFFHYQPLFE,40,Female,8,2022-12-27_14h38.52.974,memory_pilot_most_recent,2022.2.4,Win32,16.13423685,,,,,,,,,,,,,,,,,,,,,,,,,,,,,,,,,1,left,,,,right,0,2.0492,0,2,2,2,1,RUBY_THROATED_HUMMINGBIRD_2.jpg,GOLDEN_CHLOROPHONIA_2.jpg,,
,,,A3E0IFFHYQPLFE,40,Female,8,2022-12-27_14h38.52.974,memory_pilot_most_recent,2022.2.4,Win32,16.13423685,,,,,,,,,,,,,,,,,,,,,,,,,,,,,,,,,3,right,,,,right,1,1.8846,0,3,3,3,1,BORNEAN_BRISTLEHEAD_5.jpg,INCA_TERN_4.jpg,,
,,,A3E0IFFHYQPLFE,40,Female,8,2022-12-27_14h38.52.974,memory_pilot_most_recent,2022.2.4,Win32,16.13423685,,,,,,,,,,,,,,,,,,,,,,,,,,,,,,,,,2,left,,,,right,0,2.1276,0,4,4,4,1,BREWERS_BLACKBIRD_3.jpg,GOLDEN_CHEEKED_WARBLER_3.jpg,,
,,,A3E0IFFHYQPLFE,40,Female,8,2022-12-27_14h38.52.974,memory_pilot_most_recent,2022.2.4,Win32,16.13423685,,,,,,,,,,,,,,,,,,,,,,,,,,,,,,,,,1,left,,,,left,1,1.8228,0,5,5,5,1,NORTHERN_JACANA_3.jpg,AMERICAN_GOLDFINCH_4.jpg,,
,,,A3E0IFFHYQPLFE,40,Female,8,2022-12-27_14h38.52.974,memory_pilot_most_recent,2022.2.4,Win32,16.13423685,,,,,,,,,,,,,,,,,,,,,,,,,,,,,,,,,2,right,,,,right,1,2.5409,0,6,6,6,1,ORANGE_BRESTED_BUNTING_3.jpg,LITTLE_AUK_5.jpg,,
,,,A3E0IFFHYQPLFE,40,Female,8,2022-12-27_14h38.52.974,memory_pilot_most_recent,2022.2.4,Win32,16.13423685,,,,,,,,,,,,,,,,,,,,,,,,,,,,,,,,,2,right,,,,right,1,1.5666,0,7,7,7,1,OYSTER_CATCHER_2.jpg,ASIAN_CRESTED_IBIS_4.jpg,,
,,,A3E0IFFHYQPLFE,40,Female,8,2022-12-27_14h38.52.974,memory_pilot_most_recent,2022.2.4,Win32,16.13423685,,,,,,,,,,,,,,,,,,,,,,,,,,,,,,,,,1,left,,,,right,0,0.4234,0,8,8,8,1,AMERICAN_PIPIT_5.jpg,EMU_2.jpg,,
,,,A3E0IFFHYQPLFE,40,Female,8,2022-12-27_14h38.52.974,memory_pilot_most_recent,2022.2.4,Win32,16.13423685,,,,,,,,,,,,,,,,,,,,,,,,,,,,,,,,,3,right,,,,left,0,0.1735,0,9,9,9,1,PURPLE_SWAMPHEN_4.jpg,OCELLATED_TURKEY_1.jpg,,
,,,A3E0IFFHYQPLFE,40,Female,8,2022-12-27_14h38.52.974,memory_pilot_most_recent,2022.2.4,Win32,16.13423685,,,,,,,,,,,,,,,,,,,,,,,,,,,,,,,,,2,right,,,,right,1,0.0897,0,10,10,10,1,OYSTER_CATCHER_4.jpg,BROWN_THRASHER_3.jpg,,
,,,A3E0IFFHYQPLFE,40,Female,8,2022-12-27_14h38.52.974,memory_pilot_most_recent,2022.2.4,Win32,16.13423685,,,,,,,,,,,,,,,,,,,,,,,,,,,,,,,,,1,left,,,,left,1,0.0075,0,11,11,11,1,LESSER_ADJUTANT_5.jpg,GREEN_BROADBILL_4.jpg,,
,,,A3E0IFFHYQPLFE,40,Female,8,2022-12-27_14h38.52.974,memory_pilot_most_recent,2022.2.4,Win32,16.13423685,,,,,,,,,,,,,,,,,,,,,,,,,,,,,,,,,3,left,,,,right,0,0.0075,0,12,12,12,1,INDIGO_BUNTING_1.jpg,DARWINS_FLYCATCHER_2.jpg,,
,,,A3E0IFFHYQPLFE,40,Female,8,2022-12-27_14h38.52.974,memory_pilot_most_recent,2022.2.4,Win32,16.13423685,,,,,,,,,,,,,,,,,,,,,,,,,,,,,,,,,1,right,,,,left,0,0.1745,0,13,13,13,1,SNOWY_OWL_5.jpg,RUFOUS_KINGFISHER_1.jpg,,
,,,A3E0IFFHYQPLFE,40,Female,8,2022-12-27_14h38.52.974,memory_pilot_most_recent,2022.2.4,Win32,16.13423685,,,,,,,,,,,,,,,,,,,,,,,,,,,,,,,,,2,left,,,,left,1,0.1725,0,14,14,14,1,PARUS_MAJOR_1.jpg,CALIFORNIA_GULL_2.jpg,,
,,,A3E0IFFHYQPLFE,40,Female,8,2022-12-27_14h38.52.974,memory_pilot_most_recent,2022.2.4,Win32,16.13423685,,,,,,,,,,,,,,,,,,,,,,,,,,,,,,,,,3,left,,,,left,1,0.4207,0,15,15,15,1,ECUADORIAN_HILLSTAR_5.jpg,CRIMSON_SUNBIRD_5.jpg,,
,,,A3E0IFFHYQPLFE,40,Female,8,2022-12-27_14h38.52.974,memory_pilot_most_recent,2022.2.4,Win32,16.13423685,,,,,,,,,,,,,,,,,,,,,,,,,,,,,,,,,3,left,,,,right,0,0.1726,0,16,16,16,1,IVORY_GULL_1.jpg,FAIRY_TERN_4.jpg,,
,,,A3E0IFFHYQPLFE,40,Female,8,2022-12-27_14h38.52.974,memory_pilot_most_recent,2022.2.4,Win32,16.13423685,,,,,,,,,,,,,,,,,,,,,,,,,,,,,,,,,3,right,,,,left,0,0.1697,0,17,17,17,1,FAIRY_TERN_1.jpg,GYRFALCON_1.jpg,,
,,,A3E0IFFHYQPLFE,40,Female,8,2022-12-27_14h38.52.974,memory_pilot_most_recent,2022.2.4,Win32,16.13423685,,,,,,,,,,,,,,,,,,,,,,,,,,,,,,,,,3,left,,,,left,1,0.4165,0,18,18,18,1,ASIAN_DOLLARD_BIRD_2.jpg,VIOLET_GREEN_SWALLOW_4.jpg,,
,,,A3E0IFFHYQPLFE,40,Female,8,2022-12-27_14h38.52.974,memory_pilot_most_recent,2022.2.4,Win32,16.13423685,,,,,,,,,,,,,,,,,,,,,,,,,,,,,,,,,1,left,,,,right,0,0.171,0,19,19,19,1,GOLDEN_CHEEKED_WARBLER_2.jpg,SPOONBILL_1.jpg,,
,,,A3E0IFFHYQPLFE,40,Female,8,2022-12-27_14h38.52.974,memory_pilot_most_recent,2022.2.4,Win32,16.13423685,,,,,,,,,,,,,,,,,,,,,,,,,,,,,,,,,3,left,,,,left,1,0.0074,0,20,20,20,1,WHITE_CHEEKED_TURACO_5.jpg,PYGMY_KINGFISHER_2.jpg,,
,,,A3E0IFFHYQPLFE,40,Female,8,2022-12-27_14h38.52.974,memory_pilot_most_recent,2022.2.4,Win32,16.13423685,,,,,,,,,,,,,,,,,,,,,,,,,,,,,,,,,3,right,,,,right,1,0.0074,0,21,21,21,1,NORTHERN_BEARDLESS_TYRANNULET_5.jpg,EASTERN_TOWEE_2.jpg,,
,,,A3E0IFFHYQPLFE,40,Female,8,2022-12-27_14h38.52.974,memory_pilot_most_recent,2022.2.4,Win32,16.13423685,,,,,,,,,,,,,,,,,,,,,,,,,,,,,,,,,3,right,,,,left,0,0.0895,0,22,22,22,1,RED_BEARDED_BEE_EATER_1.jpg,VERMILION_FLYCATHER_3.jpg,,
,,,A3E0IFFHYQPLFE,40,Female,8,2022-12-27_14h38.52.974,memory_pilot_most_recent,2022.2.4,Win32,16.13423685,,,,,,,,,,,,,,,,,,,,,,,,,,,,,,,,,3,right,,,,left,0,0.2513,0,23,23,23,1,BALD_EAGLE_5.jpg,SHOEBILL_3.jpg,,
,,,A3E0IFFHYQPLFE,40,Female,8,2022-12-27_14h38.52.974,memory_pilot_most_recent,2022.2.4,Win32,16.13423685,,,,,,,,,,,,,,,,,,,,,,,,,,,,,,,,,2,right,,,,left,0,0.1718,0,24,24,24,1,INDIAN_PITTA_2.jpg,CRESTED_CARACARA_4.jpg,,
,,,A3E0IFFHYQPLFE,40,Female,8,2022-12-27_14h38.52.974,memory_pilot_most_recent,2022.2.4,Win32,16.13423685,,,,,,,,,,,,,,,,,,,,,,,,,,,,,,,,,3,right,,,,right,1,0.0884,0,25,25,25,1,FRIGATE_1.jpg,RUBY_THROATED_HUMMINGBIRD_1.jpg,,
,,,A3E0IFFHYQPLFE,40,Female,8,2022-12-27_14h38.52.974,memory_pilot_most_recent,2022.2.4,Win32,16.13423685,,,,,,,,,,,,,,,,,,,,,,,,,,,,,,,,,3,right,,,,left,0,0.0906,0,26,26,26,1,BOBOLINK_3.jpg,ALPINE_CHOUGH_4.jpg,,
,,,A3E0IFFHYQPLFE,40,Female,8,2022-12-27_14h38.52.974,memory_pilot_most_recent,2022.2.4,Win32,16.13423685,,,,,,,,,,,,,,,,,,,,,,,,,,,,,,,,,2,right,,,,right,1,0.0074,0,27,27,27,1,CAATINGA_CACHOLOTE_4.jpg,KILLDEAR_2.jpg,,
,,,A3E0IFFHYQPLFE,40,Female,8,2022-12-27_14h38.52.974,memory_pilot_most_recent,2022.2.4,Win32,16.13423685,,,,,,,,,,,,,,,,,,,,,,,,,,,,,,,,,1,left,,,,left,1,0.0076,0,28,28,28,1,GOLDEN_CHLOROPHONIA_5.jpg,ROADRUNNER_2.jpg,,
,,,A3E0IFFHYQPLFE,40,Female,8,2022-12-27_14h38.52.974,memory_pilot_most_recent,2022.2.4,Win32,16.13423685,,,,,,,,,,,,,,,,,,,,,,,,,,,,,,,,,2,right,,,,left,0,0.1701,0,29,29,29,1,INCA_TERN_2.jpg,MALACHITE_KINGFISHER_2.jpg,,
,,,A3E0IFFHYQPLFE,40,Female,8,2022-12-27_14h38.52.974,memory_pilot_most_recent,2022.2.4,Win32,16.13423685,,,,,,,,,,,,,,,,,,,,,,,,,,,,,,,,,2,right,,,,left,0,0.2531,0,30,30,30,1,ASHY_STORM_PETREL_1.jpg,KAGU_5.jpg,,
,,,A3E0IFFHYQPLFE,40,Female,8,2022-12-27_14h38.52.974,memory_pilot_most_recent,2022.2.4,Win32,16.13423685,,,,,,,,,,,,,,,,,,,,,,,,,,,,,,,,,2,left,,,,right,0,0.0905,0,31,31,31,1,SPLENDID_WREN_1.jpg,DOUBLE_BRESTED_CORMARANT_1.jpg,,
,,,A3E0IFFHYQPLFE,40,Female,8,2022-12-27_14h38.52.974,memory_pilot_most_recent,2022.2.4,Win32,16.13423685,,,,,,,,,,,,,,,,,,,,,,,,,,,,,,,,,1,left,,,,left,1,0.0073,0,32,32,32,1,CRESTED_NUTHATCH_2.jpg,SCARLET_IBIS_3.jpg,,
,,,A3E0IFFHYQPLFE,40,Female,8,2022-12-27_14h38.52.974,memory_pilot_most_recent,2022.2.4,Win32,16.13423685,,,,,,,,,,,,,,,,,,,,,,,,,,,,,,,,,1,left,,,,right,0,0.0074,0,33,33,33,1,CASSOWARY_1.jpg,ROSY_FACED_LOVEBIRD_4.jpg,,
,,,A3E0IFFHYQPLFE,40,Female,8,2022-12-27_14h38.52.974,memory_pilot_most_recent,2022.2.4,Win32,16.13423685,,,,,,,,,,,,,,,,,,,,,,,,,,,,,,,,,1,left,,,,left,1,0.0908,0,34,34,34,1,SCARLET_TANAGER_2.jpg,BEARDED_BARBET_2.jpg,,
,,,A3E0IFFHYQPLFE,40,Female,8,2022-12-27_14h38.52.974,memory_pilot_most_recent,2022.2.4,Win32,16.13423685,,,,,,,,,,,,,,,,,,,,,,,,,,,,,,,,,2,right,,,,left,0,0.1705,0,35,35,35,1,HIMALAYAN_MONAL_2.jpg,HAWAIIAN_GOOSE_4.jpg,,
,,,A3E0IFFHYQPLFE,40,Female,8,2022-12-27_14h38.52.974,memory_pilot_most_recent,2022.2.4,Win32,16.13423685,,,,,,,,,,,,,,,,,,,,,,,,,,,,,,,,,2,right,,,,left,0,0.1733,0,36,36,36,1,MAGPIE_GOOSE_4.jpg,STRIPPED_SWALLOW_1.jpg,,
,,,A3E0IFFHYQPLFE,40,Female,8,2022-12-27_14h38.52.974,memory_pilot_most_recent,2022.2.4,Win32,16.13423685,,,,,,,,,,,,,,,,,,,,,,,,,,,,,,,,,2,right,,,,right,1,0.0894,0,37,37,37,1,MASKED_BOOBY_5.jpg,PYGMY_KINGFISHER_5.jpg,,
,,,A3E0IFFHYQPLFE,40,Female,8,2022-12-27_14h38.52.974,memory_pilot_most_recent,2022.2.4,Win32,16.13423685,,,,,,,,,,,,,,,,,,,,,,,,,,,,,,,,,3,left,,,,left,1,0.0074,0,38,38,38,1,GRAY_KINGBIRD_5.jpg,AFRICAN_FIREFINCH_3.jpg,,
,,,A3E0IFFHYQPLFE,40,Female,8,2022-12-27_14h38.52.974,memory_pilot_most_recent,2022.2.4,Win32,16.13423685,,,,,,,,,,,,,,,,,,,,,,,,,,,,,,,,,2,left,,,,right,0,0.0908,0,39,39,39,1,IVORY_GULL_3.jpg,FLAME_TANAGER_3.jpg,,
,,,A3E0IFFHYQPLFE,40,Female,8,2022-12-27_14h38.52.974,memory_pilot_most_recent,2022.2.4,Win32,16.13423685,,,,,,,,,,,,,,,,,,,,,,,,,,,,,,,,,2,right,,,,left,0,0.0074,0,40,40,40,1,AFRICAN_EMERALD_CUCKOO_5.jpg,TASMANIAN_HEN_5.jpg,,
,,,A3E0IFFHYQPLFE,40,Female,8,2022-12-27_14h38.52.974,memory_pilot_most_recent,2022.2.4,Win32,16.13423685,,,,,,,,,,,,,,,,,,,,,,,,,,,,,,,,,1,left,,,,left,1,0.1748,0,41,41,41,1,CERULEAN_WARBLER_1.jpg,AMERICAN_FLAMINGO_2.jpg,,
,,,A3E0IFFHYQPLFE,40,Female,8,2022-12-27_14h38.52.974,memory_pilot_most_recent,2022.2.4,Win32,16.13423685,,,,,,,,,,,,,,,,,,,,,,,,,,,,,,,,,1,right,,,,left,0,0.171,0,42,42,42,1,INDIAN_BUSTARD_2.jpg,FLAME_BOWERBIRD_3.jpg,,
,,,A3E0IFFHYQPLFE,40,Female,8,2022-12-27_14h38.52.974,memory_pilot_most_recent,2022.2.4,Win32,16.13423685,,,,,,,,,,,,,,,,,,,,,,,,,,,,,,,,,1,right,,,,left,0,0.1501,0,43,43,43,1,SPOONBILL_3.jpg,PINK_ROBIN_4.jpg,,
,,,A3E0IFFHYQPLFE,40,Female,8,2022-12-27_14h38.52.974,memory_pilot_most_recent,2022.2.4,Win32,16.13423685,,,,,,,,,,,,,,,,,,,,,,,,,,,,,,,,,1,right,,,,right,1,0.0879,0,44,44,44,1,CASSOWARY_2.jpg,INLAND_DOTTEREL_4.jpg,,
,,,A3E0IFFHYQPLFE,40,Female,8,2022-12-27_14h38.52.974,memory_pilot_most_recent,2022.2.4,Win32,16.13423685,,,,,,,,,,,,,,,,,,,,,,,,,,,,,,,,,3,left,,,,left,1,0.0074,0,45,45,45,1,LARK_BUNTING_2.jpg,CACTUS_WREN_3.jpg,,
,,,A3E0IFFHYQPLFE,40,Female,8,2022-12-27_14h38.52.974,memory_pilot_most_recent,2022.2.4,Win32,16.13423685,,,,,,,,,,,,,,,,,,,,,,,,,,,,,,,,,2,left,,,,left,1,0.171,0,46,46,46,1,ARARIPE_MANAKIN_4.jpg,BLACK_VULTURE_1.jpg,,
,,,A3E0IFFHYQPLFE,40,Female,8,2022-12-27_14h38.52.974,memory_pilot_most_recent,2022.2.4,Win32,16.13423685,,,,,,,,,,,,,,,,,,,,,,,,,,,,,,,,,1,right,,,,left,0,0.1724,0,47,47,47,1,GREAT_GRAY_OWL_4.jpg,CASPIAN_TERN_1.jpg,,
,,,A3E0IFFHYQPLFE,40,Female,8,2022-12-27_14h38.52.974,memory_pilot_most_recent,2022.2.4,Win32,16.13423685,,,,,,,,,,,,,,,,,,,,,,,,,,,,,,,,,1,left,,,,left,1,0.1745,0,48,48,48,1,DOUBLE_BRESTED_CORMARANT_5.jpg,GILDED_FLICKER_2.jpg,,
,,,A3E0IFFHYQPLFE,40,Female,8,2022-12-27_14h38.52.974,memory_pilot_most_recent,2022.2.4,Win32,16.13423685,,,,,,,,,,,,,,,,,,,,,,,,,,,,,,,,,1,left,,,,left,1,0.0903,0,49,49,49,1,BALI_STARLING_1.jpg,CAPE_LONGCLAW_5.jpg,,
,,,A3E0IFFHYQPLFE,40,Female,8,2022-12-27_14h38.52.974,memory_pilot_most_recent,2022.2.4,Win32,16.13423685,,,,,,,,,,,,,,,,,,,,,,,,,,,,,,,,,1,right,,,,right,1,0.0892,0,50,50,50,1,ASHY_STORM_PETREL_2.jpg,RED_HEADED_WOODPECKER_5.jpg,,
,,,A3E0IFFHYQPLFE,40,Female,8,2022-12-27_14h38.52.974,memory_pilot_most_recent,2022.2.4,Win32,16.13423685,,,,,,,,,,,,,,,,,,,,,,,,,,,,,,,,,3,right,,,,left,0,0.0075,0,51,51,51,1,GUINEA_TURACO_5.jpg,BROWN_NOODY_3.jpg,,
,,,A3E0IFFHYQPLFE,40,Female,8,2022-12-27_14h38.52.974,memory_pilot_most_recent,2022.2.4,Win32,16.13423685,,,,,,,,,,,,,,,,,,,,,,,,,,,,,,,,,2,left,,,,left,1,0.1715,0,52,52,52,1,PEACOCK_3.jpg,STRAWBERRY_FINCH_4.jpg,,
,,,A3E0IFFHYQPLFE,40,Female,8,2022-12-27_14h38.52.974,memory_pilot_most_recent,2022.2.4,Win32,16.13423685,,,,,,,,,,,,,,,,,,,,,,,,,,,,,,,,,2,left,,,,left,1,0.1707,0,53,53,53,1,RUBY_THROATED_HUMMINGBIRD_3.jpg,MYNA_5.jpg,,
,,,A3E0IFFHYQPLFE,40,Female,8,2022-12-27_14h38.52.974,memory_pilot_most_recent,2022.2.4,Win32,16.13423685,,,,,,,,,,,,,,,,,,,,,,,,,,,,,,,,,3,right,,,,right,1,0.0896,0,54,54,54,1,SHORT_BILLED_DOWITCHER_5.jpg,OVENBIRD_5.jpg,,
,,,A3E0IFFHYQPLFE,40,Female,8,2022-12-27_14h38.52.974,memory_pilot_most_recent,2022.2.4,Win32,16.13423685,,,,,,,,,,,,,,,,,,,,,,,,,,,,,,,,,3,right,,,,left,0,0.0074,0,55,55,55,1,BLACK_THROATED_BUSHTIT_1.jpg,CHUKAR_PARTRIDGE_5.jpg,,
,,,A3E0IFFHYQPLFE,40,Female,8,2022-12-27_14h38.52.974,memory_pilot_most_recent,2022.2.4,Win32,16.13423685,,,,,,,,,,,,,,,,,,,,,,,,,,,,,,,,,2,right,,,,right,1,0.0075,0,56,56,56,1,HAMERKOP_1.jpg,MAGPIE_GOOSE_5.jpg,,
,,,A3E0IFFHYQPLFE,40,Female,8,2022-12-27_14h38.52.974,memory_pilot_most_recent,2022.2.4,Win32,16.13423685,,,,,,,,,,,,,,,,,,,,,,,,,,,,,,,,,3,left,,,,left,1,0.0897,0,57,57,57,1,GREY_PLOVER_1.jpg,ECUADORIAN_HILLSTAR_3.jpg,,
,,,A3E0IFFHYQPLFE,40,Female,8,2022-12-27_14h38.52.974,memory_pilot_most_recent,2022.2.4,Win32,16.13423685,,,,,,,,,,,,,,,,,,,,,,,,,,,,,,,,,2,right,,,,left,0,0.1766,0,58,58,58,1,ALEXANDRINE_PARAKEET_1.jpg,AFRICAN_PIED_HORNBILL_5.jpg,,
,,,A3E0IFFHYQPLFE,40,Female,8,2022-12-27_14h38.52.974,memory_pilot_most_recent,2022.2.4,Win32,16.13423685,,,,,,,,,,,,,,,,,,,,,,,,,,,,,,,,,3,left,,,,left,1,0.0895,0,59,59,59,1,MYNA_1.jpg,PARADISE_TANAGER_3.jpg,,
,,,A3E0IFFHYQPLFE,40,Female,8,2022-12-27_14h38.52.974,memory_pilot_most_recent,2022.2.4,Win32,16.13423685,,,,,,,,,,,,,,,,,,,,,,,,,,,,,,,,,,,,,,,,,,,,,,,,space,80.6438
