,target_image,target_match,option1,option2,option3,option1_layer,option2_layer,option3_layer,match_layer,correct_answer,trial_num,key_resp.keys,key_resp.corr,key_resp.rt,trials.thisRepN,trials.thisTrialN,trials.thisN,trials.thisIndex,trials.ran,subject
0,INLAND_DOTTEREL_4.jpg,NICOBAR_PIGEON_4.jpg,JANDAYA_PARAKEET_5.jpg,COCK_OF_THE__ROCK_5.jpg,CRESTED_KINGFISHER_1.jpg,1.0,2.0,3.0,2.0,2.0,0.0,3.0,0.0,6.9692,0.0,0.0,0.0,0.0,1.0,A3QPVH0DRW0ZQV
1,left.png,left.png,left.png,up.png,right.png,,,,,3.0,1.0,3.0,1.0,2.0216,0.0,1.0,1.0,1.0,1.0,A3QPVH0DRW0ZQV
2,SCARLET_TANAGER_2.jpg,CARMINE_BEE-EATER_1.jpg,BORNEAN_LEAFBIRD_1.jpg,BIRD_OF_PARADISE_3.jpg,LITTLE_AUK_3.jpg,3.0,1.0,2.0,1.0,2.0,2.0,1.0,0.0,9.5665,0.0,2.0,2.0,2.0,1.0,A3QPVH0DRW0ZQV
3,SHOEBILL_3.jpg,GILDED_FLICKER_5.jpg,BALD_EAGLE_5.jpg,IWI_1.jpg,MALAGASY_WHITE_EYE_3.jpg,3.0,2.0,1.0,2.0,2.0,3.0,1.0,0.0,3.1608,0.0,3.0,3.0,3.0,1.0,A3QPVH0DRW0ZQV
4,INDIGO_BUNTING_1.jpg,FRIGATE_4.jpg,DARWINS_FLYCATCHER_2.jpg,POMARINE_JAEGER_5.jpg,SNOWY_PLOVER_1.jpg,3.0,1.0,2.0,1.0,2.0,4.0,1.0,0.0,5.505,0.0,4.0,4.0,4.0,1.0,A3QPVH0DRW0ZQV
5,RUBY_THROATED_HUMMINGBIRD_1.jpg,FRIGATE_1.jpg,NORTHERN_CARDINAL_1.jpg,EURASIAN_GOLDEN_ORIOLE_5.jpg,VULTURINE_GUINEAFOWL_4.jpg,3.0,1.0,2.0,3.0,1.0,5.0,3.0,0.0,5.5849,0.0,5.0,5.0,5.0,1.0,A3QPVH0DRW0ZQV
6,BROWN_NOODY_3.jpg,SPANGLED_COTINGA_4.jpg,COMMON_IORA_3.jpg,GUINEA_TURACO_5.jpg,KIWI_2.jpg,2.0,3.0,1.0,2.0,1.0,6.0,3.0,0.0,7.768,0.0,6.0,6.0,6.0,1.0,A3QPVH0DRW0ZQV
7,GOLDEN_CHEEKED_WARBLER_2.jpg,WHITE_THROATED_BEE_EATER_1.jpg,DARJEELING_WOODPECKER_1.jpg,AMERICAN_FLAMINGO_3.jpg,SPOONBILL_1.jpg,3.0,2.0,1.0,3.0,1.0,7.0,1.0,1.0,2.7996,0.0,7.0,7.0,7.0,1.0,A3QPVH0DRW0ZQV
8,KAGU_5.jpg,IMPERIAL_SHAQ_2.jpg,EASTERN_MEADOWLARK_1.jpg,VICTORIA_CROWNED_PIGEON_5.jpg,ASHY_STORM_PETREL_1.jpg,1.0,3.0,2.0,3.0,2.0,8.0,2.0,1.0,9.1134,0.0,8.0,8.0,8.0,1.0,A3QPVH0DRW0ZQV
9,EUROPEAN_TURTLE_DOVE_3.jpg,TEAL_DUCK_2.jpg,PAINTED_BUNTING_3.jpg,SNOWY_EGRET_3.jpg,MALABAR_HORNBILL_2.jpg,2.0,1.0,3.0,1.0,2.0,9.0,1.0,0.0,11.357,0.0,9.0,9.0,9.0,1.0,A3QPVH0DRW0ZQV
10,RUBY_THROATED_HUMMINGBIRD_2.jpg,GOLDEN_PARAKEET_2.jpg,DUSKY_ROBIN_5.jpg,APAPANE_4.jpg,GREEN_JAY_2.jpg,3.0,2.0,1.0,1.0,3.0,10.0,3.0,1.0,6.4168,0.0,10.0,10.0,10.0,1.0,A3QPVH0DRW0ZQV
11,PARUS_MAJOR_1.jpg,COMMON_POORWILL_1.jpg,PINK_ROBIN_3.jpg,OSTRICH_4.jpg,CALIFORNIA_GULL_2.jpg,3.0,1.0,2.0,1.0,2.0,11.0,1.0,0.0,14.0251,0.0,11.0,11.0,11.0,1.0,A3QPVH0DRW0ZQV
12,VERMILION_FLYCATHER_3.jpg,CROWNED_PIGEON_1.jpg,INDIAN_BUSTARD_1.jpg,LITTLE_AUK_4.jpg,RED_BEARDED_BEE_EATER_1.jpg,1.0,2.0,3.0,2.0,2.0,12.0,3.0,0.0,6.9325,0.0,12.0,12.0,12.0,1.0,A3QPVH0DRW0ZQV
13,CASSOWARY_1.jpg,DEMOISELLE_CRANE_1.jpg,WHITE_NECKED_RAVEN_5.jpg,ROSY_FACED_LOVEBIRD_4.jpg,SCARLET_MACAW_1.jpg,3.0,1.0,2.0,3.0,1.0,13.0,1.0,1.0,2.7112,0.0,13.0,13.0,13.0,1.0,A3QPVH0DRW0ZQV
14,PINK_ROBIN_4.jpg,SPOONBILL_3.jpg,BEARDED_BARBET_2.jpg,ALBATROSS_4.jpg,COMMON_IORA_4.jpg,1.0,2.0,3.0,1.0,1.0,14.0,2.0,0.0,2.1655,0.0,14.0,14.0,14.0,1.0,A3QPVH0DRW0ZQV
15,LESSER_ADJUTANT_4.jpg,ALTAMIRA_YELLOWTHROAT_5.jpg,DOUBLE_EYED_FIG_PARROT_4.jpg,RAINBOW_LORIKEET_5.jpg,FAIRY_TERN_3.jpg,1.0,2.0,3.0,1.0,1.0,15.0,3.0,0.0,2.542,0.0,15.0,15.0,15.0,1.0,A3QPVH0DRW0ZQV
16,AFRICAN_PIED_HORNBILL_5.jpg,KIWI_4.jpg,BORNEAN_PHEASANT_4.jpg,ALEXANDRINE_PARAKEET_1.jpg,CAPUCHINBIRD_2.jpg,1.0,2.0,3.0,1.0,1.0,16.0,3.0,0.0,2.4343,0.0,16.0,16.0,16.0,1.0,A3QPVH0DRW0ZQV
17,DOUBLE_BRESTED_CORMARANT_5.jpg,GILDED_FLICKER_2.jpg,CHINESE_POND_HERON_2.jpg,SNOWY_OWL_3.jpg,EURASIAN_MAGPIE_4.jpg,3.0,1.0,2.0,1.0,2.0,17.0,1.0,0.0,2.6891,0.0,17.0,17.0,17.0,1.0,A3QPVH0DRW0ZQV
18,CHUKAR_PARTRIDGE_5.jpg,OSTRICH_3.jpg,RAZORBILL_1.jpg,BLACK_THROATED_BUSHTIT_1.jpg,EMU_1.jpg,2.0,3.0,1.0,1.0,3.0,18.0,3.0,1.0,2.3094,0.0,18.0,18.0,18.0,1.0,A3QPVH0DRW0ZQV
19,HAWAIIAN_GOOSE_4.jpg,HIMALAYAN_MONAL_2.jpg,WATTLED_LAPWING_3.jpg,RED_BEARDED_BEE_EATER_3.jpg,NORTHERN_GANNET_1.jpg,3.0,1.0,2.0,2.0,3.0,19.0,2.0,0.0,2.6353,0.0,19.0,19.0,19.0,1.0,A3QPVH0DRW0ZQV
20,RED_HEADED_WOODPECKER_5.jpg,GREAT_GRAY_OWL_5.jpg,KIWI_1.jpg,CRIMSON_CHAT_3.jpg,COLLARED_ARACARI_1.jpg,1.0,2.0,3.0,1.0,1.0,20.0,3.0,0.0,9.6091,0.0,20.0,20.0,20.0,1.0,A3QPVH0DRW0ZQV
21,MAGPIE_GOOSE_5.jpg,OYSTER_CATCHER_3.jpg,WOOD_DUCK_5.jpg,DOUBLE_EYED_FIG_PARROT_5.jpg,HAMERKOP_1.jpg,3.0,1.0,2.0,3.0,1.0,21.0,3.0,0.0,5.3485,0.0,21.0,21.0,21.0,1.0,A3QPVH0DRW0ZQV
22,KILLDEAR_2.jpg,CAATINGA_CACHOLOTE_4.jpg,ALEXANDRINE_PARAKEET_5.jpg,AZURE_TIT_5.jpg,CHATTERING_LORY_1.jpg,1.0,3.0,2.0,2.0,3.0,22.0,2.0,0.0,4.4174,0.0,22.0,22.0,22.0,1.0,A3QPVH0DRW0ZQV
23,SPLENDID_WREN_1.jpg,CUBAN_TODY_4.jpg,PARAKETT__AKULET_3.jpg,DOUBLE_BRESTED_CORMARANT_1.jpg,CRESTED_KINGFISHER_4.jpg,1.0,2.0,3.0,3.0,3.0,23.0,3.0,1.0,2.7247,0.0,23.0,23.0,23.0,1.0,A3QPVH0DRW0ZQV
24,BREWERS_BLACKBIRD_3.jpg,CAPE_LONGCLAW_2.jpg,AFRICAN_OYSTER_CATCHER_2.jpg,GOLDEN_CHEEKED_WARBLER_3.jpg,PEACOCK_4.jpg,3.0,2.0,1.0,3.0,1.0,24.0,2.0,0.0,3.8754,0.0,24.0,24.0,24.0,1.0,A3QPVH0DRW0ZQV
25,BARRED_PUFFBIRD_3.jpg,VEERY_4.jpg,RED_TAILED_THRUSH_2.jpg,WHITE_CHEEKED_TURACO_2.jpg,NORTHERN_CARDINAL_5.jpg,3.0,1.0,2.0,3.0,1.0,25.0,1.0,1.0,2.0957,0.0,25.0,25.0,25.0,1.0,A3QPVH0DRW0ZQV
26,RUFOUS_KINGFISHER_1.jpg,MAGPIE_GOOSE_3.jpg,HORNED_SUNGEM_4.jpg,COCKATOO_5.jpg,BLACK_VENTED_SHEARWATER_2.jpg,3.0,2.0,1.0,2.0,2.0,26.0,2.0,1.0,11.4833,0.0,26.0,26.0,26.0,1.0,A3QPVH0DRW0ZQV
27,left.png,left.png,up.png,left.png,right.png,,,,,3.0,27.0,3.0,1.0,1.9211,0.0,27.0,27.0,27.0,1.0,A3QPVH0DRW0ZQV
28,IVORY_GULL_3.jpg,SNOWY_EGRET_4.jpg,FLAME_TANAGER_3.jpg,FAN_TAILED_WIDOW_1.jpg,INDIGO_FLYCATCHER_2.jpg,2.0,3.0,1.0,3.0,2.0,28.0,2.0,1.0,7.3095,0.0,28.0,28.0,28.0,1.0,A3QPVH0DRW0ZQV
29,GOLDEN_CHLOROPHONIA_5.jpg,ROADRUNNER_2.jpg,COMMON_HOUSE_MARTIN_4.jpg,WHIMBREL_1.jpg,VERMILION_FLYCATHER_5.jpg,2.0,1.0,3.0,1.0,2.0,29.0,2.0,1.0,5.455,0.0,29.0,29.0,29.0,1.0,A3QPVH0DRW0ZQV
30,ASIAN_DOLLARD_BIRD_2.jpg,ALBATROSS_2.jpg,OSTRICH_1.jpg,HAWAIIAN_GOOSE_1.jpg,VIOLET_GREEN_SWALLOW_4.jpg,1.0,2.0,3.0,1.0,1.0,30.0,3.0,0.0,10.1562,0.0,30.0,30.0,30.0,1.0,A3QPVH0DRW0ZQV
31,LARK_BUNTING_2.jpg,CACTUS_WREN_3.jpg,GRANDALA_4.jpg,EMU_3.jpg,KING_VULTURE_3.jpg,3.0,1.0,2.0,3.0,1.0,31.0,1.0,1.0,2.6905,0.0,31.0,31.0,31.0,1.0,A3QPVH0DRW0ZQV
32,PEACOCK_3.jpg,ANIANIAU_2.jpg,STRAWBERRY_FINCH_4.jpg,ANDEAN_SISKIN_5.jpg,IBERIAN_MAGPIE_2.jpg,2.0,1.0,3.0,1.0,2.0,32.0,2.0,1.0,8.1803,0.0,32.0,32.0,32.0,1.0,A3QPVH0DRW0ZQV
33,GREY_PLOVER_1.jpg,AMETHYST_WOODSTAR_4.jpg,GOULDIAN_FINCH_4.jpg,BURCHELLS_COURSER_5.jpg,HYACINTH_MACAW_3.jpg,2.0,3.0,1.0,3.0,2.0,33.0,2.0,1.0,3.0648,0.0,33.0,33.0,33.0,1.0,A3QPVH0DRW0ZQV
34,GRAY_KINGBIRD_5.jpg,COCK_OF_THE__ROCK_4.jpg,BALD_EAGLE_2.jpg,BLACK_SWAN_5.jpg,AFRICAN_FIREFINCH_3.jpg,1.0,2.0,3.0,2.0,2.0,34.0,3.0,0.0,2.9575,0.0,34.0,34.0,34.0,1.0,A3QPVH0DRW0ZQV
35,NICOBAR_PIGEON_1.jpg,EASTERN_BLUEBIRD_3.jpg,MYNA_4.jpg,LITTLE_AUK_1.jpg,ROSY_FACED_LOVEBIRD_2.jpg,1.0,2.0,3.0,3.0,3.0,35.0,3.0,1.0,8.8685,0.0,35.0,35.0,35.0,1.0,A3QPVH0DRW0ZQV
36,AMERICAN_PIPIT_5.jpg,GREEN_MAGPIE_1.jpg,EMU_2.jpg,LOGGERHEAD_SHRIKE_4.jpg,HEPATIC_TANAGER_5.jpg,1.0,2.0,3.0,2.0,2.0,36.0,2.0,1.0,3.3008,0.0,36.0,36.0,36.0,1.0,A3QPVH0DRW0ZQV
37,CERULEAN_WARBLER_1.jpg,BANANAQUIT_1.jpg,CRESTED_OROPENDOLA_5.jpg,AMERICAN_FLAMINGO_5.jpg,ORIENTAL_BAY_OWL_1.jpg,3.0,2.0,1.0,3.0,1.0,37.0,1.0,1.0,5.6412,0.0,37.0,37.0,37.0,1.0,A3QPVH0DRW0ZQV
38,MALACHITE_KINGFISHER_2.jpg,GREEN_BROADBILL_5.jpg,SKUA_3.jpg,INCA_TERN_2.jpg,JAVA_SPARROW_5.jpg,1.0,2.0,3.0,3.0,3.0,38.0,3.0,1.0,2.3364,0.0,38.0,38.0,38.0,1.0,A3QPVH0DRW0ZQV
39,OVENBIRD_5.jpg,PURPLE_FINCH_5.jpg,GILDED_FLICKER_1.jpg,FAIRY_PENGUIN_1.jpg,JABIRU_4.jpg,3.0,2.0,1.0,3.0,1.0,39.0,1.0,1.0,2.7092,0.0,39.0,39.0,39.0,1.0,A3QPVH0DRW0ZQV
40,BROWN_THRASHER_3.jpg,DOUBLE_EYED_FIG_PARROT_3.jpg,RED_BEARDED_BEE_EATER_4.jpg,OYSTER_CATCHER_4.jpg,BLACK_BAZA_4.jpg,1.0,2.0,3.0,1.0,1.0,40.0,1.0,1.0,3.4906,0.0,40.0,40.0,40.0,1.0,A3QPVH0DRW0ZQV
41,CRESTED_CARACARA_4.jpg,BLUE_DACNIS_4.jpg,PARADISE_TANAGER_1.jpg,TOUCHAN_4.jpg,FAIRY_PENGUIN_5.jpg,2.0,3.0,1.0,2.0,1.0,41.0,1.0,1.0,2.592,0.0,41.0,41.0,41.0,1.0,A3QPVH0DRW0ZQV
42,WHITE_CHEEKED_TURACO_5.jpg,CHINESE_POND_HERON_1.jpg,CHARA_DE_COLLAR_2.jpg,PYGMY_KINGFISHER_2.jpg,SNOWY_EGRET_1.jpg,1.0,3.0,2.0,1.0,1.0,42.0,2.0,0.0,5.3893,0.0,42.0,42.0,42.0,1.0,A3QPVH0DRW0ZQV
43,BALI_STARLING_1.jpg,PURPLE_FINCH_2.jpg,IBERIAN_MAGPIE_1.jpg,AMERICAN_PIPIT_1.jpg,CAPE_LONGCLAW_5.jpg,3.0,2.0,1.0,2.0,2.0,43.0,2.0,1.0,6.2817,0.0,43.0,43.0,43.0,1.0,A3QPVH0DRW0ZQV
44,TREE_SWALLOW_4.jpg,RED_FODY_3.jpg,ROBIN_3.jpg,RED_HEADED_DUCK_5.jpg,BORNEAN_LEAFBIRD_4.jpg,2.0,1.0,3.0,3.0,3.0,44.0,3.0,1.0,6.4433,0.0,44.0,44.0,44.0,1.0,A3QPVH0DRW0ZQV
45,MCKAYS_BUNTING_3.jpg,IWI_2.jpg,EMU_4.jpg,AMERICAN_GOLDFINCH_4.jpg,PAINTED_BUNTING_1.jpg,1.0,3.0,2.0,2.0,3.0,45.0,1.0,0.0,6.4255,0.0,45.0,45.0,45.0,1.0,A3QPVH0DRW0ZQV
46,RUBY_THROATED_HUMMINGBIRD_3.jpg,WHITE_CHEEKED_TURACO_4.jpg,MALABAR_HORNBILL_5.jpg,NORTHERN_SHOVELER_1.jpg,MYNA_5.jpg,1.0,3.0,2.0,1.0,1.0,46.0,3.0,0.0,8.6958,0.0,46.0,46.0,46.0,1.0,A3QPVH0DRW0ZQV
47,OCELLATED_TURKEY_1.jpg,LARK_BUNTING_1.jpg,AMERICAN_KESTREL_2.jpg,CHIPPING_SPARROW_1.jpg,PURPLE_SWAMPHEN_4.jpg,2.0,1.0,3.0,2.0,1.0,47.0,3.0,0.0,4.5426,0.0,47.0,47.0,47.0,1.0,A3QPVH0DRW0ZQV
48,NORTHERN_JACANA_2.jpg,RED_FACED_CORMORANT_1.jpg,VULTURINE_GUINEAFOWL_5.jpg,GREEN_BROADBILL_1.jpg,SCARLET_IBIS_4.jpg,2.0,1.0,3.0,3.0,3.0,48.0,3.0,1.0,4.9421,0.0,48.0,48.0,48.0,1.0,A3QPVH0DRW0ZQV
49,CASPIAN_TERN_1.jpg,COMMON_LOON_2.jpg,MASKED_BOOBY_1.jpg,EUROPEAN_GOLDFINCH_4.jpg,BRANDT_CORMARANT_4.jpg,3.0,2.0,1.0,3.0,1.0,49.0,1.0,1.0,2.2994,0.0,49.0,49.0,49.0,1.0,A3QPVH0DRW0ZQV
50,ECUADORIAN_HILLSTAR_5.jpg,BOBOLINK_5.jpg,CRIMSON_SUNBIRD_5.jpg,CASSOWARY_2.jpg,SCARLET_IBIS_2.jpg,3.0,2.0,1.0,2.0,2.0,50.0,1.0,0.0,5.3022,0.0,50.0,50.0,50.0,1.0,A3QPVH0DRW0ZQV
51,NORTHERN_GANNET_2.jpg,STRAWBERRY_FINCH_1.jpg,MASKED_BOOBY_5.jpg,PAINTED_BUNTING_5.jpg,VENEZUELIAN_TROUPIAL_1.jpg,3.0,1.0,2.0,2.0,3.0,51.0,3.0,1.0,5.5321,0.0,51.0,51.0,51.0,1.0,A3QPVH0DRW0ZQV
52,SKUA_4.jpg,ROADRUNNER_5.jpg,SNOWY_EGRET_5.jpg,AMERICAN_WIGEON_2.jpg,PARUS_MAJOR_2.jpg,1.0,3.0,2.0,3.0,2.0,52.0,2.0,1.0,1.5787,0.0,52.0,52.0,52.0,1.0,A3QPVH0DRW0ZQV
53,LESSER_ADJUTANT_5.jpg,GAMBELS_QUAIL_1.jpg,AMERICAN_GOLDFINCH_1.jpg,CANARY_4.jpg,RED_HEADED_WOODPECKER_1.jpg,1.0,2.0,3.0,2.0,2.0,53.0,3.0,0.0,5.5304,0.0,53.0,53.0,53.0,1.0,A3QPVH0DRW0ZQV
54,TASMANIAN_HEN_5.jpg,AFRICAN_EMERALD_CUCKOO_5.jpg,COPPERY_TAILED_COUCAL_1.jpg,BLACKBURNIAM_WARBLER_3.jpg,BORNEAN_PHEASANT_2.jpg,3.0,1.0,2.0,2.0,3.0,54.0,3.0,1.0,3.2215,0.0,54.0,54.0,54.0,1.0,A3QPVH0DRW0ZQV
55,ALPINE_CHOUGH_4.jpg,EUROPEAN_GOLDFINCH_3.jpg,SNOWY_EGRET_2.jpg,HOUSE_FINCH_2.jpg,BOBOLINK_3.jpg,1.0,2.0,3.0,2.0,2.0,55.0,3.0,0.0,3.1112,0.0,55.0,55.0,55.0,1.0,A3QPVH0DRW0ZQV
56,GYRFALCON_1.jpg,CINNAMON_ATTILA_2.jpg,FAIRY_TERN_1.jpg,ASHY_STORM_PETREL_2.jpg,CAPE_ROCK_THRUSH_2.jpg,3.0,1.0,2.0,2.0,3.0,56.0,3.0,1.0,3.9601,0.0,56.0,56.0,56.0,1.0,A3QPVH0DRW0ZQV
57,NORTHERN_JACANA_3.jpg,BANANAQUIT_3.jpg,REGENT_BOWERBIRD_5.jpg,BEARDED_BELLBIRD_3.jpg,BAR-TAILED_GODWIT_3.jpg,2.0,1.0,3.0,1.0,2.0,57.0,1.0,0.0,5.3038,0.0,57.0,57.0,57.0,1.0,A3QPVH0DRW0ZQV
58,FLAME_BOWERBIRD_3.jpg,QUETZAL_3.jpg,GOULDIAN_FINCH_1.jpg,BROWN_THRASHER_4.jpg,INDIAN_BUSTARD_2.jpg,3.0,2.0,1.0,3.0,1.0,58.0,1.0,1.0,2.3081,0.0,58.0,58.0,58.0,1.0,A3QPVH0DRW0ZQV
59,ARARIPE_MANAKIN_4.jpg,BLACK_VULTURE_1.jpg,UMBRELLA_BIRD_5.jpg,KIWI_3.jpg,BORNEAN_LEAFBIRD_3.jpg,2.0,1.0,3.0,2.0,1.0,59.0,1.0,1.0,8.1913,0.0,59.0,59.0,59.0,1.0,A3QPVH0DRW0ZQV
60,IVORY_GULL_1.jpg,WILSONS_BIRD_OF_PARADISE_4.jpg,OCELLATED_TURKEY_2.jpg,FAIRY_TERN_4.jpg,EASTERN_GOLDEN_WEAVER_5.jpg,1.0,3.0,2.0,1.0,1.0,60.0,1.0,1.0,3.369,0.0,60.0,60.0,60.0,1.0,A3QPVH0DRW0ZQV
61,right.png,right.png,up.png,left.png,right.png,,,,,2.0,61.0,2.0,1.0,3.6483,0.0,61.0,61.0,61.0,1.0,A3QPVH0DRW0ZQV
62,left.png,left.png,left.png,up.png,right.png,,,,,3.0,62.0,3.0,1.0,1.8322,0.0,62.0,62.0,62.0,1.0,A3QPVH0DRW0ZQV
63,right.png,right.png,right.png,up.png,left.png,,,,,3.0,63.0,3.0,1.0,2.1793,0.0,63.0,63.0,63.0,1.0,A3QPVH0DRW0ZQV
64,CRESTED_NUTHATCH_2.jpg,SCARLET_IBIS_3.jpg,CANARY_1.jpg,AFRICAN_FIREFINCH_1.jpg,DOUBLE_BRESTED_CORMARANT_4.jpg,3.0,2.0,1.0,1.0,3.0,64.0,3.0,1.0,8.2581,0.0,64.0,64.0,64.0,1.0,A3QPVH0DRW0ZQV
65,IVORY_GULL_3.jpg,FLAME_TANAGER_3.jpg,SNOWY_EGRET_4.jpg,INDIGO_FLYCATCHER_2.jpg,CACTUS_WREN_1.jpg,3.0,1.0,2.0,2.0,3.0,0.0,1.0,0.0,5.471,0.0,0.0,0.0,0.0,1.0,AWWBF2RVU8HNM
66,STRIPPED_SWALLOW_1.jpg,MAGPIE_GOOSE_4.jpg,ANDEAN_GOOSE_1.jpg,EMPEROR_PENGUIN_5.jpg,GO_AWAY_BIRD_5.jpg,2.0,1.0,3.0,2.0,1.0,1.0,3.0,0.0,6.389,0.0,1.0,1.0,1.0,1.0,AWWBF2RVU8HNM
67,GRAY_KINGBIRD_5.jpg,AFRICAN_FIREFINCH_3.jpg,COCK_OF_THE__ROCK_4.jpg,BALD_EAGLE_2.jpg,EVENING_GROSBEAK_4.jpg,2.0,1.0,3.0,3.0,3.0,2.0,2.0,0.0,11.47,0.0,2.0,2.0,2.0,1.0,AWWBF2RVU8HNM
68,GOLDEN_CHLOROPHONIA_5.jpg,VERMILION_FLYCATHER_5.jpg,DARWINS_FLYCATCHER_3.jpg,ROADRUNNER_2.jpg,COMMON_HOUSE_MARTIN_4.jpg,3.0,1.0,2.0,3.0,1.0,3.0,2.0,0.0,9.38,0.0,3.0,3.0,3.0,1.0,AWWBF2RVU8HNM
69,INLAND_DOTTEREL_4.jpg,NICOBAR_PIGEON_4.jpg,CRESTED_KINGFISHER_1.jpg,COCK_OF_THE__ROCK_5.jpg,JANDAYA_PARAKEET_5.jpg,3.0,2.0,1.0,2.0,2.0,4.0,1.0,0.0,5.686,0.0,4.0,4.0,4.0,1.0,AWWBF2RVU8HNM
70,ASIAN_DOLLARD_BIRD_2.jpg,HAWAIIAN_GOOSE_1.jpg,VIOLET_GREEN_SWALLOW_4.jpg,MCKAYS_BUNTING_1.jpg,ALBATROSS_2.jpg,3.0,2.0,1.0,2.0,2.0,5.0,3.0,0.0,6.662,0.0,5.0,5.0,5.0,1.0,AWWBF2RVU8HNM
71,TASMANIAN_HEN_5.jpg,COPPERY_TAILED_COUCAL_1.jpg,BLACKBURNIAM_WARBLER_3.jpg,AUCKLAND_SHAQ_2.jpg,AFRICAN_EMERALD_CUCKOO_5.jpg,1.0,3.0,2.0,3.0,2.0,6.0,2.0,1.0,6.588,0.0,6.0,6.0,6.0,1.0,AWWBF2RVU8HNM
72,BREWERS_BLACKBIRD_3.jpg,GOLDEN_CHEEKED_WARBLER_3.jpg,AMERICAN_AVOCET_5.jpg,PEACOCK_4.jpg,CAPE_LONGCLAW_2.jpg,2.0,1.0,3.0,2.0,1.0,7.0,2.0,0.0,2.607,0.0,7.0,7.0,7.0,1.0,AWWBF2RVU8HNM
73,BROWN_THRASHER_3.jpg,OYSTER_CATCHER_4.jpg,DOUBLE_EYED_FIG_PARROT_3.jpg,RED_HEADED_WOODPECKER_2.jpg,BLACK_BAZA_4.jpg,1.0,2.0,3.0,2.0,2.0,8.0,1.0,0.0,3.352,0.0,8.0,8.0,8.0,1.0,AWWBF2RVU8HNM
74,right.png,right.png,left.png,right.png,up.png,,,,,1.0,9.0,1.0,1.0,2.066,0.0,9.0,9.0,9.0,1.0,AWWBF2RVU8HNM
75,VERMILION_FLYCATHER_3.jpg,CROWNED_PIGEON_1.jpg,LITTLE_AUK_4.jpg,INDIAN_BUSTARD_1.jpg,RED_BEARDED_BEE_EATER_1.jpg,2.0,1.0,3.0,2.0,1.0,10.0,2.0,0.0,4.576,0.0,10.0,10.0,10.0,1.0,AWWBF2RVU8HNM
76,NORTHERN_JACANA_2.jpg,RED_FACED_CORMORANT_1.jpg,VULTURINE_GUINEAFOWL_5.jpg,SCARLET_IBIS_4.jpg,GREEN_BROADBILL_1.jpg,2.0,3.0,1.0,3.0,2.0,11.0,1.0,0.0,4.165,0.0,11.0,11.0,11.0,1.0,AWWBF2RVU8HNM
77,MCKAYS_BUNTING_3.jpg,AMERICAN_GOLDFINCH_4.jpg,EMU_4.jpg,PALILA_5.jpg,IWI_2.jpg,1.0,3.0,2.0,3.0,2.0,12.0,1.0,0.0,4.741,0.0,12.0,12.0,12.0,1.0,AWWBF2RVU8HNM
78,AFRICAN_PIED_HORNBILL_5.jpg,KIWI_4.jpg,BORNEAN_PHEASANT_4.jpg,CAPUCHINBIRD_2.jpg,ALEXANDRINE_PARAKEET_1.jpg,1.0,3.0,2.0,1.0,1.0,13.0,3.0,0.0,7.96,0.0,13.0,13.0,13.0,1.0,AWWBF2RVU8HNM
79,AMERICAN_PIPIT_5.jpg,EMU_2.jpg,PEACOCK_2.jpg,HEPATIC_TANAGER_5.jpg,GREEN_MAGPIE_1.jpg,1.0,3.0,2.0,1.0,1.0,14.0,1.0,1.0,4.403,0.0,14.0,14.0,14.0,1.0,AWWBF2RVU8HNM
80,BROWN_NOODY_3.jpg,KIWI_2.jpg,PEACOCK_5.jpg,SPANGLED_COTINGA_4.jpg,GUINEA_TURACO_5.jpg,1.0,2.0,3.0,1.0,1.0,15.0,1.0,1.0,1.684,0.0,15.0,15.0,15.0,1.0,AWWBF2RVU8HNM
81,CERULEAN_WARBLER_1.jpg,ORIENTAL_BAY_OWL_1.jpg,DALMATIAN_PELICAN_5.jpg,BANANAQUIT_1.jpg,AMERICAN_FLAMINGO_5.jpg,1.0,3.0,2.0,1.0,1.0,16.0,2.0,0.0,4.835,0.0,16.0,16.0,16.0,1.0,AWWBF2RVU8HNM
82,MALACHITE_KINGFISHER_2.jpg,INCA_TERN_2.jpg,SKUA_3.jpg,COCKATOO_2.jpg,GREEN_BROADBILL_5.jpg,1.0,2.0,3.0,2.0,2.0,17.0,1.0,0.0,3.38,0.0,17.0,17.0,17.0,1.0,AWWBF2RVU8HNM
83,DOUBLE_BRESTED_CORMARANT_5.jpg,CHINESE_POND_HERON_2.jpg,GILDED_FLICKER_2.jpg,ANHINGA_5.jpg,EURASIAN_MAGPIE_4.jpg,1.0,3.0,2.0,3.0,2.0,18.0,1.0,0.0,1.47,0.0,18.0,18.0,18.0,1.0,AWWBF2RVU8HNM
84,CRESTED_NUTHATCH_2.jpg,AFRICAN_FIREFINCH_1.jpg,CANARY_1.jpg,GOLDEN_CHLOROPHONIA_1.jpg,SCARLET_IBIS_3.jpg,3.0,2.0,1.0,2.0,2.0,19.0,2.0,1.0,1.001,0.0,19.0,19.0,19.0,1.0,AWWBF2RVU8HNM
85,GILA_WOODPECKER_3.jpg,BLACK_VULTURE_3.jpg,AZURE_TANAGER_1.jpg,BLACK_SWAN_3.jpg,SNOWY_OWL_4.jpg,3.0,1.0,2.0,3.0,1.0,20.0,3.0,0.0,0.671,0.0,20.0,20.0,20.0,1.0,AWWBF2RVU8HNM
86,CRESTED_CARACARA_4.jpg,BLUE_DACNIS_4.jpg,TOUCHAN_4.jpg,PARADISE_TANAGER_1.jpg,FAIRY_PENGUIN_5.jpg,3.0,2.0,1.0,2.0,2.0,21.0,1.0,0.0,1.003,0.0,21.0,21.0,21.0,1.0,AWWBF2RVU8HNM
87,LESSER_ADJUTANT_4.jpg,RAINBOW_LORIKEET_5.jpg,CHATTERING_LORY_2.jpg,ALTAMIRA_YELLOWTHROAT_5.jpg,FAIRY_TERN_3.jpg,2.0,1.0,3.0,2.0,1.0,22.0,3.0,0.0,0.995,0.0,22.0,22.0,22.0,1.0,AWWBF2RVU8HNM
88,CASSOWARY_1.jpg,ROSY_FACED_LOVEBIRD_4.jpg,CEDAR_WAXWING_4.jpg,SCARLET_MACAW_1.jpg,DEMOISELLE_CRANE_1.jpg,1.0,2.0,3.0,1.0,1.0,23.0,3.0,0.0,1.244,0.0,23.0,23.0,23.0,1.0,AWWBF2RVU8HNM
89,GREY_PLOVER_1.jpg,HYACINTH_MACAW_3.jpg,AMETHYST_WOODSTAR_4.jpg,TURKEY_VULTURE_1.jpg,GOULDIAN_FINCH_4.jpg,3.0,1.0,2.0,1.0,2.0,24.0,3.0,0.0,1.855,0.0,24.0,24.0,24.0,1.0,AWWBF2RVU8HNM
90,RED_HEADED_WOODPECKER_5.jpg,GREAT_GRAY_OWL_5.jpg,COLLARED_ARACARI_1.jpg,CRIMSON_CHAT_3.jpg,KIWI_1.jpg,3.0,2.0,1.0,1.0,3.0,25.0,2.0,0.0,1.796,0.0,25.0,25.0,25.0,1.0,AWWBF2RVU8HNM
91,ECUADORIAN_HILLSTAR_5.jpg,CRIMSON_SUNBIRD_5.jpg,GREEN_BROADBILL_4.jpg,SCARLET_IBIS_2.jpg,BOBOLINK_5.jpg,3.0,1.0,2.0,3.0,1.0,26.0,2.0,0.0,1.651,0.0,26.0,26.0,26.0,1.0,AWWBF2RVU8HNM
92,left.png,left.png,right.png,left.png,up.png,,,,,1.0,27.0,1.0,1.0,1.402,0.0,27.0,27.0,27.0,1.0,AWWBF2RVU8HNM
93,EASTERN_TOWEE_2.jpg,HYACINTH_MACAW_4.jpg,NORTHERN_BEARDLESS_TYRANNULET_5.jpg,ANDEAN_GOOSE_3.jpg,SANDHILL_CRANE_2.jpg,3.0,2.0,1.0,2.0,2.0,28.0,2.0,1.0,2.015,0.0,28.0,28.0,28.0,1.0,AWWBF2RVU8HNM
94,ASIAN_CRESTED_IBIS_4.jpg,IVORY_GULL_2.jpg,CASPIAN_TERN_4.jpg,OYSTER_CATCHER_2.jpg,CANARY_2.jpg,3.0,2.0,1.0,3.0,1.0,29.0,1.0,1.0,1.785,0.0,29.0,29.0,29.0,1.0,AWWBF2RVU8HNM
95,BARRED_PUFFBIRD_3.jpg,VEERY_4.jpg,WHITE_CHEEKED_TURACO_2.jpg,RED_TAILED_THRUSH_2.jpg,NORTHERN_CARDINAL_5.jpg,1.0,3.0,2.0,3.0,2.0,30.0,2.0,1.0,1.778,0.0,30.0,30.0,30.0,1.0,AWWBF2RVU8HNM
96,PYGMY_KINGFISHER_5.jpg,GREAT_POTOO_3.jpg,GRANDALA_2.jpg,OYSTER_CATCHER_5.jpg,NORTHERN_PARULA_5.jpg,1.0,2.0,3.0,2.0,2.0,31.0,1.0,0.0,0.88,0.0,31.0,31.0,31.0,1.0,AWWBF2RVU8HNM
97,NORTHERN_JACANA_3.jpg,BANANAQUIT_3.jpg,BAR-TAILED_GODWIT_3.jpg,REGENT_BOWERBIRD_5.jpg,BEARDED_BELLBIRD_3.jpg,3.0,2.0,1.0,1.0,3.0,32.0,3.0,1.0,1.04,0.0,32.0,32.0,32.0,1.0,AWWBF2RVU8HNM
98,KILLDEAR_2.jpg,ALEXANDRINE_PARAKEET_5.jpg,CAATINGA_CACHOLOTE_4.jpg,AZURE_TIT_5.jpg,GOLDEN_CHLOROPHONIA_2.jpg,2.0,3.0,1.0,1.0,3.0,33.0,2.0,0.0,1.06,0.0,33.0,33.0,33.0,1.0,AWWBF2RVU8HNM
99,NORTHERN_GANNET_2.jpg,STRAWBERRY_FINCH_1.jpg,VENEZUELIAN_TROUPIAL_1.jpg,MASKED_BOOBY_5.jpg,PAINTED_BUNTING_5.jpg,2.0,3.0,1.0,2.0,1.0,34.0,2.0,0.0,8.677,0.0,34.0,34.0,34.0,1.0,AWWBF2RVU8HNM
100,LESSER_ADJUTANT_5.jpg,AMERICAN_GOLDFINCH_1.jpg,RED_HEADED_WOODPECKER_1.jpg,GAMBELS_QUAIL_1.jpg,MALAGASY_WHITE_EYE_2.jpg,3.0,2.0,1.0,1.0,3.0,35.0,1.0,0.0,1.45,0.0,35.0,35.0,35.0,1.0,AWWBF2RVU8HNM
101,GYRFALCON_1.jpg,ASHY_STORM_PETREL_2.jpg,FAIRY_TERN_1.jpg,GREY_PLOVER_3.jpg,CINNAMON_ATTILA_2.jpg,3.0,1.0,2.0,1.0,2.0,36.0,3.0,0.0,0.457,0.0,36.0,36.0,36.0,1.0,AWWBF2RVU8HNM
102,right.png,right.png,left.png,right.png,up.png,,,,,1.0,37.0,1.0,1.0,0.609,0.0,37.0,37.0,37.0,1.0,AWWBF2RVU8HNM
103,GOLDEN_CHEEKED_WARBLER_2.jpg,SPOONBILL_1.jpg,AMERICAN_FLAMINGO_3.jpg,RED_HEADED_DUCK_3.jpg,WHITE_THROATED_BEE_EATER_1.jpg,2.0,1.0,3.0,1.0,2.0,38.0,3.0,0.0,0.651,0.0,38.0,38.0,38.0,1.0,AWWBF2RVU8HNM
104,FLAME_BOWERBIRD_3.jpg,INDIAN_BUSTARD_2.jpg,QUETZAL_3.jpg,SPOON_BILED_SANDPIPER_5.jpg,BROWN_THRASHER_4.jpg,3.0,1.0,2.0,1.0,2.0,39.0,1.0,0.0,0.228,0.0,39.0,39.0,39.0,1.0,AWWBF2RVU8HNM
105,MYNA_1.jpg,PARADISE_TANAGER_3.jpg,SANDHILL_CRANE_4.jpg,GREY_PLOVER_4.jpg,INDIGO_BUNTING_2.jpg,1.0,2.0,3.0,3.0,3.0,40.0,3.0,1.0,0.111,0.0,40.0,40.0,40.0,1.0,AWWBF2RVU8HNM
106,CASPIAN_TERN_1.jpg,BRANDT_CORMARANT_4.jpg,COMMON_POORWILL_4.jpg,COMMON_LOON_2.jpg,EUROPEAN_GOLDFINCH_4.jpg,1.0,3.0,2.0,1.0,1.0,41.0,1.0,1.0,0.116,0.0,41.0,41.0,41.0,1.0,AWWBF2RVU8HNM
107,INCA_TERN_4.jpg,BORNEAN_BRISTLEHEAD_5.jpg,SMITHS_LONGSPUR_5.jpg,ELLIOTS__PHEASANT_4.jpg,WHITE_NECKED_RAVEN_4.jpg,2.0,1.0,3.0,3.0,3.0,42.0,3.0,1.0,2.365,0.0,42.0,42.0,42.0,1.0,AWWBF2RVU8HNM
108,RUFOUS_KINGFISHER_1.jpg,HORNED_SUNGEM_4.jpg,BLACK_VENTED_SHEARWATER_2.jpg,GREEN_JAY_4.jpg,MAGPIE_GOOSE_3.jpg,1.0,3.0,2.0,3.0,2.0,43.0,1.0,0.0,0.241,0.0,43.0,43.0,43.0,1.0,AWWBF2RVU8HNM
109,LITTLE_AUK_5.jpg,BEARDED_BELLBIRD_1.jpg,SANDHILL_CRANE_3.jpg,DOWNY_WOODPECKER_1.jpg,ORANGE_BRESTED_BUNTING_3.jpg,1.0,3.0,2.0,3.0,2.0,44.0,2.0,1.0,0.114,0.0,44.0,44.0,44.0,1.0,AWWBF2RVU8HNM
110,SKUA_4.jpg,SNOWY_EGRET_5.jpg,BLACK-NECKED_GREBE_3.jpg,PARUS_MAJOR_2.jpg,ROADRUNNER_5.jpg,1.0,2.0,3.0,1.0,1.0,45.0,1.0,1.0,0.694,0.0,45.0,45.0,45.0,1.0,AWWBF2RVU8HNM
111,INDIGO_BUNTING_1.jpg,FRIGATE_4.jpg,POMARINE_JAEGER_5.jpg,SNOWY_PLOVER_1.jpg,DARWINS_FLYCATCHER_2.jpg,1.0,2.0,3.0,1.0,1.0,46.0,2.0,0.0,1.154,0.0,46.0,46.0,46.0,1.0,AWWBF2RVU8HNM
112,RED_FACED_WARBLER_1.jpg,BLACK_VENTED_SHEARWATER_4.jpg,COMMON_LOON_4.jpg,CAPE_GLOSSY_STARLING_2.jpg,EMU_5.jpg,2.0,3.0,1.0,2.0,1.0,47.0,1.0,1.0,0.232,0.0,47.0,47.0,47.0,1.0,AWWBF2RVU8HNM
113,RUBY_THROATED_HUMMINGBIRD_2.jpg,APAPANE_4.jpg,SCARLET_MACAW_3.jpg,GOLDEN_PARAKEET_2.jpg,DUSKY_ROBIN_5.jpg,2.0,1.0,3.0,2.0,1.0,48.0,2.0,0.0,0.229,0.0,48.0,48.0,48.0,1.0,AWWBF2RVU8HNM
114,ALPINE_CHOUGH_4.jpg,BOBOLINK_3.jpg,SNOWY_EGRET_2.jpg,EUROPEAN_GOLDFINCH_3.jpg,UMBRELLA_BIRD_1.jpg,1.0,2.0,3.0,3.0,3.0,49.0,3.0,1.0,0.237,0.0,49.0,49.0,49.0,1.0,AWWBF2RVU8HNM
115,IVORY_GULL_1.jpg,WILSONS_BIRD_OF_PARADISE_4.jpg,FAIRY_TERN_4.jpg,EASTERN_GOLDEN_WEAVER_5.jpg,OCELLATED_TURKEY_2.jpg,3.0,2.0,1.0,1.0,3.0,50.0,2.0,0.0,0.333,0.0,50.0,50.0,50.0,1.0,AWWBF2RVU8HNM
116,OVENBIRD_5.jpg,JABIRU_4.jpg,FAIRY_PENGUIN_1.jpg,PURPLE_FINCH_5.jpg,TURQUOISE_MOTMOT_3.jpg,2.0,3.0,1.0,1.0,3.0,51.0,1.0,0.0,0.11,0.0,51.0,51.0,51.0,1.0,AWWBF2RVU8HNM
117,SPLENDID_WREN_1.jpg,DOUBLE_BRESTED_CORMARANT_1.jpg,BLACK_SWAN_2.jpg,CUBAN_TODY_4.jpg,PARAKETT__AKULET_3.jpg,2.0,3.0,1.0,2.0,1.0,52.0,2.0,0.0,0.552,0.0,52.0,52.0,52.0,1.0,AWWBF2RVU8HNM
118,MAGPIE_GOOSE_5.jpg,OYSTER_CATCHER_3.jpg,WOOD_DUCK_5.jpg,HAMERKOP_1.jpg,DOUBLE_EYED_FIG_PARROT_5.jpg,3.0,2.0,1.0,3.0,1.0,53.0,3.0,0.0,0.796,0.0,53.0,53.0,53.0,1.0,AWWBF2RVU8HNM
119,TREE_SWALLOW_4.jpg,RED_FODY_3.jpg,RED_HEADED_DUCK_5.jpg,BORNEAN_LEAFBIRD_4.jpg,ROBIN_3.jpg,1.0,3.0,2.0,3.0,2.0,54.0,1.0,0.0,0.554,0.0,54.0,54.0,54.0,1.0,AWWBF2RVU8HNM
120,LARK_BUNTING_2.jpg,EMU_3.jpg,CACTUS_WREN_3.jpg,KING_VULTURE_5.jpg,KING_VULTURE_3.jpg,3.0,1.0,2.0,1.0,2.0,55.0,3.0,0.0,0.34,0.0,55.0,55.0,55.0,1.0,AWWBF2RVU8HNM
121,left.png,left.png,right.png,up.png,left.png,,,,,1.0,56.0,2.0,0.0,0.125,0.0,56.0,56.0,56.0,1.0,AWWBF2RVU8HNM
122,left.png,left.png,left.png,up.png,right.png,,,,,3.0,57.0,3.0,1.0,2.75,0.0,57.0,57.0,57.0,1.0,AWWBF2RVU8HNM
123,PEACOCK_3.jpg,ANIANIAU_2.jpg,IBERIAN_MAGPIE_2.jpg,STRAWBERRY_FINCH_4.jpg,ANDEAN_SISKIN_5.jpg,3.0,2.0,1.0,1.0,3.0,58.0,2.0,0.0,2.287,0.0,58.0,58.0,58.0,1.0,AWWBF2RVU8HNM
124,SHOEBILL_3.jpg,GILDED_FLICKER_5.jpg,MALAGASY_WHITE_EYE_3.jpg,IWI_1.jpg,BALD_EAGLE_5.jpg,1.0,2.0,3.0,2.0,2.0,59.0,3.0,0.0,1.014,0.0,59.0,59.0,59.0,1.0,AWWBF2RVU8HNM
125,ARARIPE_MANAKIN_4.jpg,BORNEAN_LEAFBIRD_3.jpg,GUINEA_TURACO_3.jpg,KIWI_3.jpg,BLACK_VULTURE_1.jpg,3.0,1.0,2.0,3.0,1.0,60.0,1.0,1.0,0.897,0.0,60.0,60.0,60.0,1.0,AWWBF2RVU8HNM
126,RUBY_THROATED_HUMMINGBIRD_1.jpg,FRIGATE_1.jpg,VULTURINE_GUINEAFOWL_4.jpg,NORTHERN_CARDINAL_1.jpg,EURASIAN_GOLDEN_ORIOLE_5.jpg,2.0,3.0,1.0,3.0,2.0,61.0,3.0,0.0,1.118,0.0,61.0,61.0,61.0,1.0,AWWBF2RVU8HNM
127,PINK_ROBIN_4.jpg,COMMON_IORA_4.jpg,ALBATROSS_4.jpg,SPOONBILL_3.jpg,GREEN_MAGPIE_3.jpg,2.0,1.0,3.0,3.0,3.0,62.0,2.0,0.0,0.558,0.0,62.0,62.0,62.0,1.0,AWWBF2RVU8HNM
128,HAWAIIAN_GOOSE_4.jpg,HIMALAYAN_MONAL_2.jpg,WATTLED_LAPWING_3.jpg,RED_BEARDED_BEE_EATER_3.jpg,NORTHERN_GANNET_1.jpg,3.0,1.0,2.0,2.0,3.0,63.0,1.0,0.0,0.796,0.0,63.0,63.0,63.0,1.0,AWWBF2RVU8HNM
129,KAGU_5.jpg,ASHY_STORM_PETREL_1.jpg,MANDRIN_DUCK_4.jpg,IMPERIAL_SHAQ_2.jpg,EASTERN_MEADOWLARK_1.jpg,2.0,3.0,1.0,2.0,1.0,64.0,3.0,0.0,1.117,0.0,64.0,64.0,64.0,1.0,AWWBF2RVU8HNM
130,PINK_ROBIN_4.jpg,SPOONBILL_3.jpg,COMMON_IORA_4.jpg,BEARDED_BARBET_2.jpg,ALBATROSS_4.jpg,3.0,1.0,2.0,1.0,2.0,0.0,1.0,0.0,4.2396,0.0,0.0,0.0,0.0,1.0,A2OL5U1YWPFBDI
131,GYRFALCON_1.jpg,FAIRY_TERN_1.jpg,ASHY_STORM_PETREL_2.jpg,CINNAMON_ATTILA_2.jpg,YELLOW_HEADED_BLACKBIRD_3.jpg,1.0,2.0,3.0,3.0,3.0,1.0,1.0,0.0,6.276,0.0,1.0,1.0,1.0,1.0,A2OL5U1YWPFBDI
132,LESSER_ADJUTANT_5.jpg,AMERICAN_GOLDFINCH_1.jpg,GAMBELS_QUAIL_1.jpg,MALAGASY_WHITE_EYE_2.jpg,RED_HEADED_WOODPECKER_1.jpg,2.0,1.0,3.0,1.0,2.0,2.0,3.0,0.0,13.4572,0.0,2.0,2.0,2.0,1.0,A2OL5U1YWPFBDI
133,BARRED_PUFFBIRD_3.jpg,VEERY_4.jpg,NORTHERN_CARDINAL_5.jpg,RED_TAILED_THRUSH_2.jpg,WHITE_CHEEKED_TURACO_2.jpg,2.0,3.0,1.0,3.0,2.0,3.0,1.0,0.0,3.8296,0.0,3.0,3.0,3.0,1.0,A2OL5U1YWPFBDI
134,GILA_WOODPECKER_3.jpg,SNOWY_OWL_4.jpg,BLACK_SWAN_3.jpg,BLACK_VULTURE_3.jpg,ALEXANDRINE_PARAKEET_2.jpg,1.0,3.0,2.0,2.0,3.0,4.0,2.0,0.0,6.5028,0.0,4.0,4.0,4.0,1.0,A2OL5U1YWPFBDI
135,ARARIPE_MANAKIN_4.jpg,BLACK_VULTURE_1.jpg,KIWI_3.jpg,BORNEAN_LEAFBIRD_3.jpg,UMBRELLA_BIRD_5.jpg,1.0,3.0,2.0,2.0,3.0,5.0,2.0,0.0,4.277,0.0,5.0,5.0,5.0,1.0,A2OL5U1YWPFBDI
136,ASIAN_CRESTED_IBIS_4.jpg,IVORY_GULL_2.jpg,CASPIAN_TERN_4.jpg,OYSTER_CATCHER_2.jpg,CANARY_2.jpg,3.0,2.0,1.0,3.0,1.0,6.0,1.0,1.0,4.3059,0.0,6.0,6.0,6.0,1.0,A2OL5U1YWPFBDI
137,RUFOUS_KINGFISHER_1.jpg,HORNED_SUNGEM_4.jpg,MAGPIE_GOOSE_3.jpg,GREEN_JAY_4.jpg,BLACK_VENTED_SHEARWATER_2.jpg,2.0,3.0,1.0,3.0,2.0,7.0,2.0,1.0,7.8192,0.0,7.0,7.0,7.0,1.0,A2OL5U1YWPFBDI
138,KILLDEAR_2.jpg,AZURE_TIT_5.jpg,ALEXANDRINE_PARAKEET_5.jpg,CAATINGA_CACHOLOTE_4.jpg,WHITE_TAILED_TROPIC_2.jpg,1.0,2.0,3.0,3.0,3.0,8.0,2.0,0.0,9.6672,0.0,8.0,8.0,8.0,1.0,A2OL5U1YWPFBDI
139,HAWAIIAN_GOOSE_4.jpg,WATTLED_LAPWING_3.jpg,RED_BEARDED_BEE_EATER_3.jpg,HIMALAYAN_MONAL_2.jpg,BROWN_NOODY_5.jpg,1.0,2.0,3.0,3.0,3.0,9.0,3.0,1.0,3.868,0.0,9.0,9.0,9.0,1.0,A2OL5U1YWPFBDI
140,AMERICAN_PIPIT_5.jpg,HEPATIC_TANAGER_5.jpg,AMERICAN_GOLDFINCH_5.jpg,EMU_2.jpg,GREEN_MAGPIE_1.jpg,3.0,1.0,2.0,3.0,1.0,10.0,1.0,1.0,4.5713,0.0,10.0,10.0,10.0,1.0,A2OL5U1YWPFBDI
141,AFRICAN_PIED_HORNBILL_5.jpg,CAPUCHINBIRD_2.jpg,ALEXANDRINE_PARAKEET_1.jpg,ECUADORIAN_HILLSTAR_3.jpg,KIWI_4.jpg,2.0,3.0,1.0,3.0,2.0,11.0,1.0,0.0,8.7216,0.0,11.0,11.0,11.0,1.0,A2OL5U1YWPFBDI
142,ALPINE_CHOUGH_4.jpg,EUROPEAN_GOLDFINCH_3.jpg,BOBOLINK_3.jpg,SNOWY_EGRET_2.jpg,HOUSE_FINCH_2.jpg,3.0,1.0,2.0,2.0,3.0,12.0,1.0,0.0,5.3003,0.0,12.0,12.0,12.0,1.0,A2OL5U1YWPFBDI
143,GOLDEN_CHEEKED_WARBLER_2.jpg,AMERICAN_FLAMINGO_3.jpg,SPOONBILL_1.jpg,GUINEAFOWL_3.jpg,WHITE_THROATED_BEE_EATER_1.jpg,1.0,2.0,3.0,2.0,2.0,13.0,3.0,0.0,4.15,0.0,13.0,13.0,13.0,1.0,A2OL5U1YWPFBDI
144,MALACHITE_KINGFISHER_2.jpg,SKUA_3.jpg,GREEN_BROADBILL_5.jpg,INCA_TERN_2.jpg,GANG_GANG_COCKATOO_4.jpg,3.0,2.0,1.0,1.0,3.0,14.0,2.0,0.0,7.5001,0.0,14.0,14.0,14.0,1.0,A2OL5U1YWPFBDI
145,CERULEAN_WARBLER_1.jpg,ORIENTAL_BAY_OWL_1.jpg,BANANAQUIT_1.jpg,DALMATIAN_PELICAN_5.jpg,AMERICAN_FLAMINGO_5.jpg,3.0,1.0,2.0,1.0,2.0,15.0,1.0,0.0,4.9139,0.0,15.0,15.0,15.0,1.0,A2OL5U1YWPFBDI
146,RED_FACED_WARBLER_1.jpg,EMU_5.jpg,SPOONBILL_4.jpg,CAPE_GLOSSY_STARLING_2.jpg,BLACK_VENTED_SHEARWATER_4.jpg,1.0,3.0,2.0,1.0,1.0,16.0,2.0,0.0,3.6771,0.0,16.0,16.0,16.0,1.0,A2OL5U1YWPFBDI
147,FLAME_BOWERBIRD_3.jpg,BROWN_THRASHER_4.jpg,BLACK_THROATED_WARBLER_4.jpg,QUETZAL_3.jpg,INDIAN_BUSTARD_2.jpg,2.0,3.0,1.0,2.0,1.0,17.0,2.0,0.0,4.7787,0.0,17.0,17.0,17.0,1.0,A2OL5U1YWPFBDI
148,left.png,left.png,right.png,up.png,left.png,,,,,1.0,18.0,3.0,0.0,6.1724,0.0,18.0,18.0,18.0,1.0,A2OL5U1YWPFBDI
149,INCA_TERN_4.jpg,SMITHS_LONGSPUR_5.jpg,ELLIOTS__PHEASANT_4.jpg,FASCIATED_WREN_4.jpg,BORNEAN_BRISTLEHEAD_5.jpg,1.0,2.0,3.0,2.0,2.0,19.0,3.0,0.0,8.3874,0.0,19.0,19.0,19.0,1.0,A2OL5U1YWPFBDI
150,NORTHERN_GANNET_2.jpg,MASKED_BOOBY_5.jpg,HOODED_MERGANSER_4.jpg,PAINTED_BUNTING_5.jpg,STRAWBERRY_FINCH_1.jpg,3.0,1.0,2.0,3.0,1.0,20.0,1.0,1.0,3.9082,0.0,20.0,20.0,20.0,1.0,A2OL5U1YWPFBDI
151,BROWN_NOODY_3.jpg,SPANGLED_COTINGA_4.jpg,KIWI_2.jpg,GUINEA_TURACO_5.jpg,COMMON_IORA_3.jpg,1.0,3.0,2.0,2.0,3.0,21.0,1.0,0.0,4.7089,0.0,21.0,21.0,21.0,1.0,A2OL5U1YWPFBDI
152,INDIGO_BUNTING_1.jpg,DARWINS_FLYCATCHER_2.jpg,SNOWY_PLOVER_1.jpg,BALTIMORE_ORIOLE_4.jpg,FRIGATE_4.jpg,2.0,3.0,1.0,3.0,2.0,22.0,1.0,0.0,5.2967,0.0,22.0,22.0,22.0,1.0,A2OL5U1YWPFBDI
153,LESSER_ADJUTANT_4.jpg,ALTAMIRA_YELLOWTHROAT_5.jpg,RAINBOW_LORIKEET_5.jpg,DOUBLE_EYED_FIG_PARROT_4.jpg,FAIRY_TERN_3.jpg,2.0,1.0,3.0,1.0,2.0,23.0,3.0,0.0,5.5826,0.0,23.0,23.0,23.0,1.0,A2OL5U1YWPFBDI
154,STRIPPED_SWALLOW_1.jpg,MAGPIE_GOOSE_4.jpg,EMPEROR_PENGUIN_5.jpg,ANDEAN_GOOSE_1.jpg,GO_AWAY_BIRD_5.jpg,1.0,2.0,3.0,2.0,2.0,24.0,3.0,0.0,4.7068,0.0,24.0,24.0,24.0,1.0,A2OL5U1YWPFBDI
155,left.png,left.png,left.png,right.png,up.png,,,,,2.0,25.0,1.0,0.0,4.3229,0.0,25.0,25.0,25.0,1.0,A2OL5U1YWPFBDI
156,GRAY_KINGBIRD_5.jpg,COCK_OF_THE__ROCK_4.jpg,AFRICAN_FIREFINCH_3.jpg,BALD_EAGLE_2.jpg,BLACK_SWAN_5.jpg,3.0,1.0,2.0,2.0,3.0,26.0,1.0,0.0,8.9956,0.0,26.0,26.0,26.0,1.0,A2OL5U1YWPFBDI
157,BALI_STARLING_1.jpg,PURPLE_FINCH_2.jpg,CAPE_LONGCLAW_5.jpg,IBERIAN_MAGPIE_1.jpg,AMERICAN_PIPIT_1.jpg,1.0,3.0,2.0,2.0,3.0,27.0,2.0,0.0,5.1954,0.0,27.0,27.0,27.0,1.0,A2OL5U1YWPFBDI
158,NORTHERN_JACANA_2.jpg,VULTURINE_GUINEAFOWL_5.jpg,GREEN_BROADBILL_1.jpg,RED_FACED_CORMORANT_1.jpg,CRAB_PLOVER_3.jpg,1.0,3.0,2.0,2.0,3.0,28.0,3.0,1.0,7.3307,0.0,28.0,28.0,28.0,1.0,A2OL5U1YWPFBDI
159,CRESTED_CARACARA_4.jpg,FAIRY_PENGUIN_5.jpg,BLUE_DACNIS_4.jpg,CRAB_PLOVER_5.jpg,TOUCHAN_4.jpg,2.0,1.0,3.0,1.0,2.0,29.0,3.0,0.0,7.0997,0.0,29.0,29.0,29.0,1.0,A2OL5U1YWPFBDI
160,OVENBIRD_5.jpg,JABIRU_4.jpg,PURPLE_FINCH_5.jpg,TURQUOISE_MOTMOT_3.jpg,FAIRY_PENGUIN_1.jpg,3.0,1.0,2.0,1.0,2.0,30.0,1.0,0.0,9.4026,0.0,30.0,30.0,30.0,1.0,A2OL5U1YWPFBDI
161,CASPIAN_TERN_1.jpg,BRANDT_CORMARANT_4.jpg,COMMON_LOON_2.jpg,COMMON_POORWILL_4.jpg,EUROPEAN_GOLDFINCH_4.jpg,3.0,1.0,2.0,1.0,2.0,31.0,3.0,0.0,6.1546,0.0,31.0,31.0,31.0,1.0,A2OL5U1YWPFBDI
162,CHUKAR_PARTRIDGE_5.jpg,OSTRICH_3.jpg,BLACK_THROATED_BUSHTIT_1.jpg,EMU_1.jpg,RAZORBILL_1.jpg,3.0,1.0,2.0,1.0,2.0,32.0,1.0,0.0,5.3749,0.0,32.0,32.0,32.0,1.0,A2OL5U1YWPFBDI
163,ASIAN_DOLLARD_BIRD_2.jpg,HAWAIIAN_GOOSE_1.jpg,ALBATROSS_2.jpg,VIOLET_GREEN_SWALLOW_4.jpg,MCKAYS_BUNTING_1.jpg,1.0,3.0,2.0,2.0,3.0,33.0,3.0,1.0,5.279,0.0,33.0,33.0,33.0,1.0,A2OL5U1YWPFBDI
164,BREWERS_BLACKBIRD_3.jpg,PEACOCK_4.jpg,DOUBLE_EYED_FIG_PARROT_2.jpg,CAPE_LONGCLAW_2.jpg,GOLDEN_CHEEKED_WARBLER_3.jpg,1.0,3.0,2.0,1.0,1.0,34.0,3.0,0.0,3.7121,0.0,34.0,34.0,34.0,1.0,A2OL5U1YWPFBDI
165,IVORY_GULL_3.jpg,INDIGO_FLYCATCHER_2.jpg,FLAME_TANAGER_3.jpg,BUSH_TURKEY_1.jpg,SNOWY_EGRET_4.jpg,2.0,1.0,3.0,1.0,2.0,35.0,1.0,0.0,6.5199,0.0,35.0,35.0,35.0,1.0,A2OL5U1YWPFBDI
166,PARUS_MAJOR_1.jpg,PINK_ROBIN_3.jpg,FAIRY_BLUEBIRD_5.jpg,CALIFORNIA_GULL_2.jpg,COMMON_POORWILL_1.jpg,3.0,2.0,1.0,3.0,1.0,36.0,1.0,1.0,3.6016,0.0,36.0,36.0,36.0,1.0,A2OL5U1YWPFBDI
167,VERMILION_FLYCATHER_3.jpg,INDIAN_BUSTARD_1.jpg,SATYR_TRAGOPAN_1.jpg,RED_BEARDED_BEE_EATER_1.jpg,CROWNED_PIGEON_1.jpg,1.0,3.0,2.0,1.0,1.0,37.0,2.0,0.0,3.2472,0.0,37.0,37.0,37.0,1.0,A2OL5U1YWPFBDI
168,CRESTED_NUTHATCH_2.jpg,SCARLET_IBIS_3.jpg,AFRICAN_FIREFINCH_1.jpg,CANARY_1.jpg,DOUBLE_BRESTED_CORMARANT_4.jpg,2.0,3.0,1.0,1.0,3.0,38.0,2.0,0.0,3.9076,0.0,38.0,38.0,38.0,1.0,A2OL5U1YWPFBDI
169,SKUA_4.jpg,ROADRUNNER_5.jpg,PARUS_MAJOR_2.jpg,AMERICAN_WIGEON_2.jpg,SNOWY_EGRET_5.jpg,2.0,3.0,1.0,3.0,2.0,39.0,1.0,0.0,7.8697,0.0,39.0,39.0,39.0,1.0,A2OL5U1YWPFBDI
170,left.png,left.png,right.png,up.png,left.png,,,,,1.0,40.0,3.0,0.0,8.9616,0.0,40.0,40.0,40.0,1.0,A2OL5U1YWPFBDI
171,TREE_SWALLOW_4.jpg,RED_FODY_3.jpg,ROBIN_3.jpg,BORNEAN_LEAFBIRD_4.jpg,RED_HEADED_DUCK_5.jpg,2.0,3.0,1.0,3.0,2.0,41.0,1.0,0.0,3.6055,0.0,41.0,41.0,41.0,1.0,A2OL5U1YWPFBDI
172,CASSOWARY_1.jpg,SCARLET_MACAW_1.jpg,ROSY_FACED_LOVEBIRD_4.jpg,EASTERN_ROSELLA_2.jpg,DEMOISELLE_CRANE_1.jpg,1.0,2.0,3.0,2.0,2.0,42.0,3.0,0.0,8.8672,0.0,42.0,42.0,42.0,1.0,A2OL5U1YWPFBDI
173,NICOBAR_PIGEON_1.jpg,LITTLE_AUK_1.jpg,MYNA_4.jpg,GREY_PLOVER_5.jpg,EASTERN_BLUEBIRD_3.jpg,1.0,2.0,3.0,2.0,2.0,43.0,3.0,0.0,8.7822,0.0,43.0,43.0,43.0,1.0,A2OL5U1YWPFBDI
174,LARK_BUNTING_2.jpg,EMU_3.jpg,KING_VULTURE_3.jpg,CACTUS_WREN_3.jpg,KING_VULTURE_5.jpg,2.0,3.0,1.0,1.0,3.0,44.0,1.0,0.0,5.7716,0.0,44.0,44.0,44.0,1.0,A2OL5U1YWPFBDI
175,SHOEBILL_3.jpg,GILDED_FLICKER_5.jpg,BALD_EAGLE_5.jpg,IWI_1.jpg,MALAGASY_WHITE_EYE_3.jpg,3.0,2.0,1.0,2.0,2.0,45.0,1.0,0.0,4.1694,0.0,45.0,45.0,45.0,1.0,A2OL5U1YWPFBDI
176,NORTHERN_JACANA_3.jpg,BAR-TAILED_GODWIT_3.jpg,SHORT_BILLED_DOWITCHER_5.jpg,REGENT_BOWERBIRD_5.jpg,BANANAQUIT_3.jpg,3.0,2.0,1.0,3.0,1.0,46.0,1.0,1.0,5.6748,0.0,46.0,46.0,46.0,1.0,A2OL5U1YWPFBDI
177,WHITE_CHEEKED_TURACO_5.jpg,PYGMY_KINGFISHER_2.jpg,MALAGASY_WHITE_EYE_5.jpg,SNOWY_EGRET_1.jpg,CHINESE_POND_HERON_1.jpg,3.0,2.0,1.0,3.0,1.0,47.0,1.0,1.0,5.4401,0.0,47.0,47.0,47.0,1.0,A2OL5U1YWPFBDI
178,SPLENDID_WREN_1.jpg,DOUBLE_BRESTED_CORMARANT_1.jpg,PARAKETT__AKULET_3.jpg,CUBAN_TODY_4.jpg,BLACK_SWAN_2.jpg,1.0,3.0,2.0,2.0,3.0,48.0,2.0,0.0,4.1293,0.0,48.0,48.0,48.0,1.0,A2OL5U1YWPFBDI
179,BROWN_THRASHER_3.jpg,DOUBLE_EYED_FIG_PARROT_3.jpg,OYSTER_CATCHER_4.jpg,BLACK_BAZA_4.jpg,RED_BEARDED_BEE_EATER_4.jpg,2.0,3.0,1.0,1.0,3.0,49.0,3.0,1.0,3.288,0.0,49.0,49.0,49.0,1.0,A2OL5U1YWPFBDI
180,RUBY_THROATED_HUMMINGBIRD_3.jpg,NORTHERN_SHOVELER_1.jpg,MYNA_5.jpg,WHITE_CHEEKED_TURACO_4.jpg,WALL_CREAPER_3.jpg,2.0,1.0,3.0,3.0,3.0,50.0,3.0,1.0,4.9455,0.0,50.0,50.0,50.0,1.0,A2OL5U1YWPFBDI
181,RED_HEADED_WOODPECKER_5.jpg,COLLARED_ARACARI_1.jpg,GREAT_GRAY_OWL_5.jpg,CRIMSON_CHAT_3.jpg,BLACKBURNIAM_WARBLER_4.jpg,1.0,2.0,3.0,3.0,3.0,51.0,2.0,0.0,7.381,0.0,51.0,51.0,51.0,1.0,A2OL5U1YWPFBDI
182,TASMANIAN_HEN_5.jpg,COPPERY_TAILED_COUCAL_1.jpg,AFRICAN_EMERALD_CUCKOO_5.jpg,BLACKBURNIAM_WARBLER_3.jpg,AUCKLAND_SHAQ_2.jpg,2.0,1.0,3.0,3.0,3.0,52.0,1.0,0.0,7.1432,0.0,52.0,52.0,52.0,1.0,A2OL5U1YWPFBDI
183,IVORY_GULL_1.jpg,WILSONS_BIRD_OF_PARADISE_4.jpg,FAIRY_TERN_4.jpg,EASTERN_GOLDEN_WEAVER_5.jpg,OCELLATED_TURKEY_2.jpg,3.0,2.0,1.0,1.0,3.0,53.0,2.0,0.0,3.812,0.0,53.0,53.0,53.0,1.0,A2OL5U1YWPFBDI
184,left.png,left.png,right.png,left.png,up.png,,,,,1.0,54.0,2.0,0.0,4.1207,0.0,54.0,54.0,54.0,1.0,A2OL5U1YWPFBDI
185,DOUBLE_BRESTED_CORMARANT_5.jpg,EURASIAN_MAGPIE_4.jpg,PATAGONIAN_SIERRA_FINCH_2.jpg,GILDED_FLICKER_2.jpg,CHINESE_POND_HERON_2.jpg,2.0,1.0,3.0,2.0,1.0,55.0,1.0,1.0,7.9876,0.0,55.0,55.0,55.0,1.0,A2OL5U1YWPFBDI
186,PEACOCK_3.jpg,ANIANIAU_2.jpg,ANDEAN_SISKIN_5.jpg,STRAWBERRY_FINCH_4.jpg,IBERIAN_MAGPIE_2.jpg,1.0,2.0,3.0,1.0,1.0,56.0,1.0,1.0,7.3406,0.0,56.0,56.0,56.0,1.0,A2OL5U1YWPFBDI
187,EASTERN_TOWEE_2.jpg,HYACINTH_MACAW_4.jpg,NORTHERN_BEARDLESS_TYRANNULET_5.jpg,ANDEAN_GOOSE_3.jpg,SANDHILL_CRANE_2.jpg,3.0,2.0,1.0,2.0,2.0,57.0,1.0,0.0,3.2733,0.0,57.0,57.0,57.0,1.0,A2OL5U1YWPFBDI
188,right.png,right.png,up.png,right.png,left.png,,,,,3.0,58.0,2.0,0.0,4.312,0.0,58.0,58.0,58.0,1.0,A2OL5U1YWPFBDI
189,MAGPIE_GOOSE_5.jpg,DOUBLE_EYED_FIG_PARROT_5.jpg,MALAGASY_WHITE_EYE_1.jpg,OYSTER_CATCHER_3.jpg,HAMERKOP_1.jpg,1.0,3.0,2.0,1.0,1.0,59.0,2.0,0.0,5.058,0.0,59.0,59.0,59.0,1.0,A2OL5U1YWPFBDI
190,RUBY_THROATED_HUMMINGBIRD_1.jpg,FRIGATE_1.jpg,EURASIAN_GOLDEN_ORIOLE_5.jpg,NORTHERN_CARDINAL_1.jpg,VULTURINE_GUINEAFOWL_4.jpg,1.0,3.0,2.0,3.0,2.0,60.0,1.0,0.0,5.0656,0.0,60.0,60.0,60.0,1.0,A2OL5U1YWPFBDI
191,RUBY_THROATED_HUMMINGBIRD_2.jpg,APAPANE_4.jpg,GOLDEN_PARAKEET_2.jpg,SCARLET_MACAW_3.jpg,DUSKY_ROBIN_5.jpg,1.0,2.0,3.0,2.0,2.0,61.0,3.0,0.0,5.5582,0.0,61.0,61.0,61.0,1.0,A2OL5U1YWPFBDI
192,GREY_PLOVER_1.jpg,GOULDIAN_FINCH_4.jpg,AMETHYST_WOODSTAR_4.jpg,BORNEAN_LEAFBIRD_2.jpg,HYACINTH_MACAW_3.jpg,3.0,2.0,1.0,2.0,2.0,62.0,1.0,0.0,4.9366,0.0,62.0,62.0,62.0,1.0,A2OL5U1YWPFBDI
193,EUROPEAN_TURTLE_DOVE_3.jpg,MALABAR_HORNBILL_2.jpg,TEAL_DUCK_2.jpg,BROWN_THRASHER_2.jpg,PAINTED_BUNTING_3.jpg,1.0,3.0,2.0,3.0,2.0,63.0,2.0,1.0,4.9025,0.0,63.0,63.0,63.0,1.0,A2OL5U1YWPFBDI
194,GOLDEN_CHLOROPHONIA_5.jpg,ROADRUNNER_2.jpg,WHIMBREL_1.jpg,COMMON_HOUSE_MARTIN_4.jpg,VERMILION_FLYCATHER_5.jpg,1.0,2.0,3.0,1.0,1.0,64.0,3.0,0.0,4.4706,0.0,64.0,64.0,64.0,1.0,A2OL5U1YWPFBDI
195,CRESTED_NUTHATCH_2.jpg,CANARY_1.jpg,VERMILION_FLYCATHER_4.jpg,AFRICAN_FIREFINCH_1.jpg,SCARLET_IBIS_3.jpg,3.0,2.0,1.0,3.0,1.0,0.0,3.0,0.0,9.9238,0.0,0.0,0.0,0.0,1.0,A19FEU28J4WZ1Z
196,SKUA_4.jpg,PARUS_MAJOR_2.jpg,SNOWY_EGRET_5.jpg,PURPLE_FINCH_4.jpg,ROADRUNNER_5.jpg,1.0,2.0,3.0,2.0,2.0,1.0,3.0,0.0,5.5318,0.0,1.0,1.0,1.0,1.0,A19FEU28J4WZ1Z
197,BALI_STARLING_1.jpg,CAPE_LONGCLAW_5.jpg,OSTRICH_5.jpg,IBERIAN_MAGPIE_1.jpg,PURPLE_FINCH_2.jpg,1.0,3.0,2.0,1.0,1.0,2.0,2.0,0.0,3.3517,0.0,2.0,2.0,2.0,1.0,A19FEU28J4WZ1Z
198,LESSER_ADJUTANT_4.jpg,FAIRY_TERN_3.jpg,ALTAMIRA_YELLOWTHROAT_5.jpg,RAINBOW_LORIKEET_5.jpg,CRAB_PLOVER_4.jpg,1.0,2.0,3.0,3.0,3.0,3.0,3.0,1.0,2.642,0.0,3.0,3.0,3.0,1.0,A19FEU28J4WZ1Z
199,IVORY_GULL_1.jpg,FAIRY_TERN_4.jpg,EASTERN_GOLDEN_WEAVER_5.jpg,WILSONS_BIRD_OF_PARADISE_4.jpg,BANDED_STILT_4.jpg,2.0,1.0,3.0,3.0,3.0,4.0,3.0,1.0,2.1958,0.0,4.0,4.0,4.0,1.0,A19FEU28J4WZ1Z
200,OCELLATED_TURKEY_1.jpg,PURPLE_SWAMPHEN_4.jpg,GLOSSY_IBIS_2.jpg,CHIPPING_SPARROW_1.jpg,LARK_BUNTING_1.jpg,3.0,1.0,2.0,3.0,1.0,5.0,1.0,1.0,3.5092,0.0,5.0,5.0,5.0,1.0,A19FEU28J4WZ1Z
201,GILA_WOODPECKER_3.jpg,BLACK_SWAN_3.jpg,BLACK_VULTURE_3.jpg,SNOWY_OWL_4.jpg,EGYPTIAN_GOOSE_3.jpg,3.0,2.0,1.0,1.0,3.0,6.0,1.0,0.0,4.0044,0.0,6.0,6.0,6.0,1.0,A19FEU28J4WZ1Z
202,CRESTED_CARACARA_4.jpg,FAIRY_PENGUIN_5.jpg,BLUE_DACNIS_4.jpg,TOUCHAN_4.jpg,CRAB_PLOVER_5.jpg,2.0,3.0,1.0,1.0,3.0,7.0,2.0,0.0,2.1541,0.0,7.0,7.0,7.0,1.0,A19FEU28J4WZ1Z
203,LARK_BUNTING_2.jpg,EMU_3.jpg,CACTUS_WREN_3.jpg,KING_VULTURE_3.jpg,KING_VULTURE_5.jpg,3.0,2.0,1.0,1.0,3.0,8.0,1.0,0.0,2.2272,0.0,8.0,8.0,8.0,1.0,A19FEU28J4WZ1Z
204,PINK_ROBIN_4.jpg,ALBATROSS_4.jpg,JACK_SNIPE_5.jpg,COMMON_IORA_4.jpg,SPOONBILL_3.jpg,2.0,3.0,1.0,2.0,1.0,9.0,3.0,0.0,1.8825,0.0,9.0,9.0,9.0,1.0,A19FEU28J4WZ1Z
205,ECUADORIAN_HILLSTAR_5.jpg,CRIMSON_SUNBIRD_5.jpg,SCARLET_IBIS_2.jpg,GREEN_BROADBILL_4.jpg,BOBOLINK_5.jpg,1.0,3.0,2.0,3.0,2.0,10.0,2.0,1.0,4.9584,0.0,10.0,10.0,10.0,1.0,A19FEU28J4WZ1Z
206,PEACOCK_3.jpg,ANIANIAU_2.jpg,STRAWBERRY_FINCH_4.jpg,IBERIAN_MAGPIE_2.jpg,ANDEAN_SISKIN_5.jpg,2.0,3.0,1.0,1.0,3.0,11.0,3.0,1.0,2.7759,0.0,11.0,11.0,11.0,1.0,A19FEU28J4WZ1Z
207,TREE_SWALLOW_4.jpg,RED_FODY_3.jpg,BORNEAN_LEAFBIRD_4.jpg,RED_HEADED_DUCK_5.jpg,ROBIN_3.jpg,3.0,1.0,2.0,3.0,1.0,12.0,1.0,1.0,4.3659,0.0,12.0,12.0,12.0,1.0,A19FEU28J4WZ1Z
208,VERMILION_FLYCATHER_3.jpg,INDIAN_BUSTARD_1.jpg,CROWNED_PIGEON_1.jpg,SATYR_TRAGOPAN_1.jpg,RED_BEARDED_BEE_EATER_1.jpg,2.0,1.0,3.0,1.0,2.0,13.0,3.0,0.0,5.7212,0.0,13.0,13.0,13.0,1.0,A19FEU28J4WZ1Z
209,NORTHERN_JACANA_3.jpg,BAR-TAILED_GODWIT_3.jpg,BANANAQUIT_3.jpg,SHORT_BILLED_DOWITCHER_5.jpg,REGENT_BOWERBIRD_5.jpg,1.0,3.0,2.0,3.0,2.0,14.0,2.0,1.0,3.658,0.0,14.0,14.0,14.0,1.0,A19FEU28J4WZ1Z
210,MALACHITE_KINGFISHER_2.jpg,SKUA_3.jpg,INCA_TERN_2.jpg,GANG_GANG_COCKATOO_4.jpg,GREEN_BROADBILL_5.jpg,2.0,1.0,3.0,1.0,2.0,15.0,2.0,1.0,3.3911,0.0,15.0,15.0,15.0,1.0,A19FEU28J4WZ1Z
211,SHOEBILL_3.jpg,GILDED_FLICKER_5.jpg,BALD_EAGLE_5.jpg,MALAGASY_WHITE_EYE_3.jpg,IWI_1.jpg,3.0,1.0,2.0,2.0,3.0,16.0,2.0,0.0,3.1209,0.0,16.0,16.0,16.0,1.0,A19FEU28J4WZ1Z
212,NORTHERN_JACANA_2.jpg,VULTURINE_GUINEAFOWL_5.jpg,CRAB_PLOVER_3.jpg,RED_FACED_CORMORANT_1.jpg,GREEN_BROADBILL_1.jpg,2.0,3.0,1.0,2.0,1.0,17.0,2.0,0.0,3.9472,0.0,17.0,17.0,17.0,1.0,A19FEU28J4WZ1Z
213,CHUKAR_PARTRIDGE_5.jpg,RAZORBILL_1.jpg,BLACK_THROATED_BUSHTIT_1.jpg,OSTRICH_3.jpg,ASIAN_DOLLARD_BIRD_4.jpg,3.0,1.0,2.0,2.0,3.0,18.0,1.0,0.0,12.2667,0.0,18.0,18.0,18.0,1.0,A19FEU28J4WZ1Z
214,BROWN_THRASHER_3.jpg,DOUBLE_EYED_FIG_PARROT_3.jpg,OYSTER_CATCHER_4.jpg,RED_BEARDED_BEE_EATER_4.jpg,BLACK_BAZA_4.jpg,2.0,1.0,3.0,1.0,2.0,19.0,2.0,1.0,6.257,0.0,19.0,19.0,19.0,1.0,A19FEU28J4WZ1Z
215,left.png,left.png,up.png,left.png,right.png,,,,,3.0,20.0,3.0,1.0,2.1788,0.0,20.0,20.0,20.0,1.0,A19FEU28J4WZ1Z
216,EUROPEAN_TURTLE_DOVE_3.jpg,PAINTED_BUNTING_3.jpg,TEAL_DUCK_2.jpg,CAPE_GLOSSY_STARLING_1.jpg,MALABAR_HORNBILL_2.jpg,1.0,2.0,3.0,2.0,2.0,21.0,1.0,0.0,3.2343,0.0,21.0,21.0,21.0,1.0,A19FEU28J4WZ1Z
217,ARARIPE_MANAKIN_4.jpg,BORNEAN_LEAFBIRD_3.jpg,BLACK_VULTURE_1.jpg,KIWI_3.jpg,GUINEA_TURACO_3.jpg,2.0,1.0,3.0,3.0,3.0,22.0,3.0,1.0,2.1087,0.0,22.0,22.0,22.0,1.0,A19FEU28J4WZ1Z
218,MAGPIE_GOOSE_5.jpg,OYSTER_CATCHER_3.jpg,HAMERKOP_1.jpg,DOUBLE_EYED_FIG_PARROT_5.jpg,WOOD_DUCK_5.jpg,2.0,1.0,3.0,3.0,3.0,23.0,3.0,1.0,2.1811,0.0,23.0,23.0,23.0,1.0,A19FEU28J4WZ1Z
219,TASMANIAN_HEN_5.jpg,AFRICAN_EMERALD_CUCKOO_5.jpg,BLACKBURNIAM_WARBLER_3.jpg,COPPERY_TAILED_COUCAL_1.jpg,BORNEAN_PHEASANT_2.jpg,1.0,3.0,2.0,2.0,3.0,24.0,1.0,0.0,2.4659,0.0,24.0,24.0,24.0,1.0,A19FEU28J4WZ1Z
220,BREWERS_BLACKBIRD_3.jpg,GOLDEN_CHEEKED_WARBLER_3.jpg,AMERICAN_AVOCET_5.jpg,CAPE_LONGCLAW_2.jpg,PEACOCK_4.jpg,2.0,3.0,1.0,2.0,1.0,25.0,1.0,1.0,2.5361,0.0,25.0,25.0,25.0,1.0,A19FEU28J4WZ1Z
221,SPLENDID_WREN_1.jpg,PARAKETT__AKULET_3.jpg,CUBAN_TODY_4.jpg,DOUBLE_BRESTED_CORMARANT_1.jpg,BLACK_SWAN_1.jpg,3.0,2.0,1.0,1.0,3.0,26.0,3.0,1.0,3.3843,0.0,26.0,26.0,26.0,1.0,A19FEU28J4WZ1Z
222,CASSOWARY_1.jpg,ROSY_FACED_LOVEBIRD_4.jpg,CEDAR_WAXWING_4.jpg,SCARLET_MACAW_1.jpg,DEMOISELLE_CRANE_1.jpg,1.0,2.0,3.0,1.0,1.0,27.0,2.0,0.0,3.2286,0.0,27.0,27.0,27.0,1.0,A19FEU28J4WZ1Z
223,INLAND_DOTTEREL_4.jpg,CRESTED_KINGFISHER_1.jpg,NICOBAR_PIGEON_4.jpg,ANNAS_HUMMINGBIRD_2.jpg,JANDAYA_PARAKEET_5.jpg,2.0,3.0,1.0,3.0,2.0,28.0,3.0,0.0,1.7106,0.0,28.0,28.0,28.0,1.0,A19FEU28J4WZ1Z
224,RUBY_THROATED_HUMMINGBIRD_1.jpg,VULTURINE_GUINEAFOWL_4.jpg,EURASIAN_GOLDEN_ORIOLE_5.jpg,BEARDED_REEDLING_3.jpg,FRIGATE_1.jpg,1.0,2.0,3.0,2.0,2.0,29.0,3.0,0.0,4.0793,0.0,29.0,29.0,29.0,1.0,A19FEU28J4WZ1Z
225,BARRED_PUFFBIRD_3.jpg,WHITE_CHEEKED_TURACO_2.jpg,CUBAN_TODY_3.jpg,NORTHERN_CARDINAL_5.jpg,VEERY_4.jpg,1.0,2.0,3.0,1.0,1.0,30.0,2.0,0.0,3.0996,0.0,30.0,30.0,30.0,1.0,A19FEU28J4WZ1Z
226,CERULEAN_WARBLER_1.jpg,ORIENTAL_BAY_OWL_1.jpg,AMERICAN_FLAMINGO_5.jpg,DALMATIAN_PELICAN_5.jpg,BANANAQUIT_1.jpg,2.0,1.0,3.0,1.0,2.0,31.0,2.0,1.0,1.8661,0.0,31.0,31.0,31.0,1.0,A19FEU28J4WZ1Z
227,HAWAIIAN_GOOSE_4.jpg,RED_BEARDED_BEE_EATER_3.jpg,WATTLED_LAPWING_3.jpg,HIMALAYAN_MONAL_2.jpg,DOUBLE_EYED_FIG_PARROT_1.jpg,3.0,2.0,1.0,1.0,3.0,32.0,3.0,1.0,1.9689,0.0,32.0,32.0,32.0,1.0,A19FEU28J4WZ1Z
228,GOLDEN_CHEEKED_WARBLER_2.jpg,AMERICAN_FLAMINGO_3.jpg,GUINEAFOWL_3.jpg,SPOONBILL_1.jpg,WHITE_THROATED_BEE_EATER_1.jpg,2.0,1.0,3.0,2.0,1.0,33.0,3.0,0.0,3.1489,0.0,33.0,33.0,33.0,1.0,A19FEU28J4WZ1Z
229,LESSER_ADJUTANT_5.jpg,GAMBELS_QUAIL_1.jpg,RED_HEADED_WOODPECKER_1.jpg,AMERICAN_GOLDFINCH_1.jpg,CANARY_4.jpg,3.0,1.0,2.0,2.0,3.0,34.0,1.0,0.0,1.7017,0.0,34.0,34.0,34.0,1.0,A19FEU28J4WZ1Z
230,FLAME_BOWERBIRD_3.jpg,QUETZAL_3.jpg,GOULDIAN_FINCH_1.jpg,BROWN_THRASHER_4.jpg,INDIAN_BUSTARD_2.jpg,3.0,2.0,1.0,3.0,1.0,35.0,3.0,0.0,4.7578,0.0,35.0,35.0,35.0,1.0,A19FEU28J4WZ1Z
231,WHITE_CHEEKED_TURACO_5.jpg,SNOWY_EGRET_1.jpg,PYGMY_KINGFISHER_2.jpg,ORIENTAL_BAY_OWL_5.jpg,CHINESE_POND_HERON_1.jpg,3.0,2.0,1.0,2.0,2.0,36.0,2.0,1.0,2.067,0.0,36.0,36.0,36.0,1.0,A19FEU28J4WZ1Z
232,EASTERN_TOWEE_2.jpg,HYACINTH_MACAW_4.jpg,ANDEAN_GOOSE_3.jpg,SANDHILL_CRANE_2.jpg,NORTHERN_BEARDLESS_TYRANNULET_5.jpg,2.0,1.0,3.0,2.0,1.0,37.0,1.0,1.0,2.4203,0.0,37.0,37.0,37.0,1.0,A19FEU28J4WZ1Z
233,KILLDEAR_2.jpg,ALEXANDRINE_PARAKEET_5.jpg,AZURE_TIT_5.jpg,GOLDEN_CHLOROPHONIA_2.jpg,CAATINGA_CACHOLOTE_4.jpg,3.0,1.0,2.0,1.0,2.0,38.0,2.0,1.0,2.12,0.0,38.0,38.0,38.0,1.0,A19FEU28J4WZ1Z
234,INCA_TERN_4.jpg,BORNEAN_BRISTLEHEAD_5.jpg,SMITHS_LONGSPUR_5.jpg,ELLIOTS__PHEASANT_4.jpg,WHITE_NECKED_RAVEN_4.jpg,2.0,1.0,3.0,3.0,3.0,39.0,2.0,0.0,2.2102,0.0,39.0,39.0,39.0,1.0,A19FEU28J4WZ1Z
235,PYGMY_KINGFISHER_5.jpg,NORTHERN_PARULA_5.jpg,GRANDALA_2.jpg,GREAT_POTOO_3.jpg,BLUE_THROATED_TOUCANET_3.jpg,1.0,2.0,3.0,3.0,3.0,40.0,1.0,0.0,1.3523,0.0,40.0,40.0,40.0,1.0,A19FEU28J4WZ1Z
236,GOLDEN_CHLOROPHONIA_5.jpg,COMMON_HOUSE_MARTIN_4.jpg,VERMILION_FLYCATHER_5.jpg,ROADRUNNER_2.jpg,INLAND_DOTTEREL_5.jpg,3.0,1.0,2.0,2.0,3.0,41.0,2.0,0.0,2.3172,0.0,41.0,41.0,41.0,1.0,A19FEU28J4WZ1Z
237,OVENBIRD_5.jpg,JABIRU_4.jpg,PURPLE_FINCH_5.jpg,FAIRY_PENGUIN_1.jpg,TURQUOISE_MOTMOT_3.jpg,3.0,2.0,1.0,1.0,3.0,42.0,1.0,0.0,2.3994,0.0,42.0,42.0,42.0,1.0,A19FEU28J4WZ1Z
238,SCARLET_TANAGER_2.jpg,BORNEAN_LEAFBIRD_1.jpg,BLONDE_CRESTED_WOODPECKER_3.jpg,CARMINE_BEE-EATER_1.jpg,LITTLE_AUK_3.jpg,3.0,1.0,2.0,3.0,1.0,43.0,2.0,0.0,1.5847,0.0,43.0,43.0,43.0,1.0,A19FEU28J4WZ1Z
239,RED_FACED_WARBLER_1.jpg,BLACK_VENTED_SHEARWATER_4.jpg,CAPE_GLOSSY_STARLING_2.jpg,EMU_5.jpg,COMMON_LOON_4.jpg,3.0,1.0,2.0,2.0,3.0,44.0,2.0,0.0,3.154,0.0,44.0,44.0,44.0,1.0,A19FEU28J4WZ1Z
240,RED_HEADED_WOODPECKER_5.jpg,CRIMSON_CHAT_3.jpg,GREAT_GRAY_OWL_5.jpg,DAURIAN_REDSTART_5.jpg,COLLARED_ARACARI_1.jpg,1.0,2.0,3.0,2.0,2.0,45.0,2.0,1.0,1.9613,0.0,45.0,45.0,45.0,1.0,A19FEU28J4WZ1Z
241,left.png,left.png,up.png,right.png,left.png,,,,,2.0,46.0,2.0,1.0,3.49,0.0,46.0,46.0,46.0,1.0,A19FEU28J4WZ1Z
242,NICOBAR_PIGEON_1.jpg,LITTLE_AUK_1.jpg,EASTERN_BLUEBIRD_3.jpg,MYNA_4.jpg,GREY_PLOVER_5.jpg,3.0,1.0,2.0,2.0,3.0,47.0,3.0,1.0,3.0826,0.0,47.0,47.0,47.0,1.0,A19FEU28J4WZ1Z
243,GRAY_KINGBIRD_5.jpg,AFRICAN_FIREFINCH_3.jpg,BALD_EAGLE_2.jpg,COCK_OF_THE__ROCK_4.jpg,EVENING_GROSBEAK_4.jpg,1.0,2.0,3.0,3.0,3.0,48.0,1.0,0.0,1.5888,0.0,48.0,48.0,48.0,1.0,A19FEU28J4WZ1Z
244,CASPIAN_TERN_1.jpg,EUROPEAN_GOLDFINCH_4.jpg,AMERICAN_GOLDFINCH_3.jpg,COMMON_LOON_2.jpg,BRANDT_CORMARANT_4.jpg,2.0,3.0,1.0,2.0,1.0,49.0,2.0,0.0,1.8463,0.0,49.0,49.0,49.0,1.0,A19FEU28J4WZ1Z
245,right.png,right.png,up.png,left.png,right.png,,,,,2.0,50.0,2.0,1.0,2.6579,0.0,50.0,50.0,50.0,1.0,A19FEU28J4WZ1Z
246,PARUS_MAJOR_1.jpg,COMMON_POORWILL_1.jpg,OSTRICH_4.jpg,CALIFORNIA_GULL_2.jpg,PINK_ROBIN_3.jpg,1.0,2.0,3.0,1.0,1.0,51.0,1.0,1.0,1.6793,0.0,51.0,51.0,51.0,1.0,A19FEU28J4WZ1Z
247,right.png,right.png,left.png,up.png,right.png,,,,,1.0,52.0,1.0,1.0,2.4339,0.0,52.0,52.0,52.0,1.0,A19FEU28J4WZ1Z
248,RUFOUS_KINGFISHER_1.jpg,HORNED_SUNGEM_4.jpg,BLACK_VENTED_SHEARWATER_2.jpg,MAGPIE_GOOSE_3.jpg,GREEN_JAY_4.jpg,1.0,2.0,3.0,3.0,3.0,53.0,3.0,1.0,2.5605,0.0,53.0,53.0,53.0,1.0,A19FEU28J4WZ1Z
249,BROWN_NOODY_3.jpg,KIWI_2.jpg,PEACOCK_5.jpg,GUINEA_TURACO_5.jpg,SPANGLED_COTINGA_4.jpg,1.0,3.0,2.0,1.0,1.0,54.0,3.0,0.0,2.9701,0.0,54.0,54.0,54.0,1.0,A19FEU28J4WZ1Z
250,ALPINE_CHOUGH_4.jpg,SNOWY_EGRET_2.jpg,AMERICAN_FLAMINGO_2.jpg,BOBOLINK_3.jpg,EUROPEAN_GOLDFINCH_3.jpg,1.0,3.0,2.0,1.0,1.0,55.0,2.0,0.0,1.8538,0.0,55.0,55.0,55.0,1.0,A19FEU28J4WZ1Z
251,RUBY_THROATED_HUMMINGBIRD_3.jpg,NORTHERN_SHOVELER_1.jpg,WALL_CREAPER_3.jpg,WHITE_CHEEKED_TURACO_4.jpg,MYNA_5.jpg,3.0,1.0,2.0,3.0,1.0,56.0,1.0,1.0,2.3223,0.0,56.0,56.0,56.0,1.0,A19FEU28J4WZ1Z
252,LITTLE_AUK_5.jpg,SANDHILL_CRANE_3.jpg,SCARLET_IBIS_1.jpg,ORANGE_BRESTED_BUNTING_3.jpg,BEARDED_BELLBIRD_1.jpg,1.0,2.0,3.0,1.0,1.0,57.0,3.0,0.0,3.0665,0.0,57.0,57.0,57.0,1.0,A19FEU28J4WZ1Z
253,DOUBLE_BRESTED_CORMARANT_5.jpg,GILDED_FLICKER_2.jpg,SNOWY_OWL_3.jpg,CHINESE_POND_HERON_2.jpg,EURASIAN_MAGPIE_4.jpg,1.0,3.0,2.0,1.0,1.0,58.0,2.0,0.0,2.2057,0.0,58.0,58.0,58.0,1.0,A19FEU28J4WZ1Z
254,STRIPPED_SWALLOW_1.jpg,GO_AWAY_BIRD_5.jpg,WHITE_THROATED_BEE_EATER_5.jpg,EMPEROR_PENGUIN_5.jpg,MAGPIE_GOOSE_4.jpg,3.0,1.0,2.0,3.0,1.0,59.0,1.0,1.0,1.7144,0.0,59.0,59.0,59.0,1.0,A19FEU28J4WZ1Z
255,AMERICAN_PIPIT_5.jpg,GREEN_MAGPIE_1.jpg,LOGGERHEAD_SHRIKE_4.jpg,EMU_2.jpg,HEPATIC_TANAGER_5.jpg,2.0,1.0,3.0,2.0,1.0,60.0,2.0,0.0,1.4388,0.0,60.0,60.0,60.0,1.0,A19FEU28J4WZ1Z
256,GYRFALCON_1.jpg,FAIRY_TERN_1.jpg,ASHY_STORM_PETREL_2.jpg,CINNAMON_ATTILA_2.jpg,YELLOW_HEADED_BLACKBIRD_3.jpg,1.0,2.0,3.0,3.0,3.0,61.0,1.0,0.0,1.324,0.0,61.0,61.0,61.0,1.0,A19FEU28J4WZ1Z
257,right.png,right.png,up.png,right.png,left.png,,,,,3.0,62.0,3.0,1.0,2.4349,0.0,62.0,62.0,62.0,1.0,A19FEU28J4WZ1Z
258,KAGU_5.jpg,ASHY_STORM_PETREL_1.jpg,IMPERIAL_SHAQ_2.jpg,MANDRIN_DUCK_4.jpg,EASTERN_MEADOWLARK_1.jpg,3.0,2.0,1.0,2.0,2.0,63.0,1.0,0.0,2.5124,0.0,63.0,63.0,63.0,1.0,A19FEU28J4WZ1Z
259,MYNA_1.jpg,PARADISE_TANAGER_3.jpg,INDIGO_BUNTING_2.jpg,SANDHILL_CRANE_4.jpg,GREY_PLOVER_4.jpg,3.0,1.0,2.0,3.0,1.0,64.0,1.0,1.0,2.5734,0.0,64.0,64.0,64.0,1.0,A19FEU28J4WZ1Z
260,WHITE_CHEEKED_TURACO_5.jpg,SNOWY_EGRET_1.jpg,PYGMY_KINGFISHER_2.jpg,CHINESE_POND_HERON_1.jpg,ORIENTAL_BAY_OWL_5.jpg,3.0,1.0,2.0,2.0,3.0,0.0,1.0,0.0,18.8422,0.0,0.0,0.0,0.0,1.0,ADNZW2B8WEZ0Z
261,INLAND_DOTTEREL_4.jpg,NICOBAR_PIGEON_4.jpg,CRESTED_KINGFISHER_1.jpg,JANDAYA_PARAKEET_5.jpg,COCK_OF_THE__ROCK_5.jpg,3.0,1.0,2.0,2.0,3.0,1.0,2.0,0.0,23.0122,0.0,1.0,1.0,1.0,1.0,ADNZW2B8WEZ0Z
262,EASTERN_TOWEE_2.jpg,NORTHERN_BEARDLESS_TYRANNULET_5.jpg,HYACINTH_MACAW_4.jpg,GOLDEN_CHEEKED_WARBLER_1.jpg,SANDHILL_CRANE_2.jpg,2.0,3.0,1.0,3.0,2.0,2.0,2.0,1.0,3.8644,0.0,2.0,2.0,2.0,1.0,ADNZW2B8WEZ0Z
263,CERULEAN_WARBLER_1.jpg,AMERICAN_FLAMINGO_5.jpg,COCK_OF_THE__ROCK_2.jpg,BANANAQUIT_1.jpg,ORIENTAL_BAY_OWL_1.jpg,2.0,3.0,1.0,2.0,1.0,3.0,2.0,0.0,11.7769,0.0,3.0,3.0,3.0,1.0,ADNZW2B8WEZ0Z
264,LARK_BUNTING_2.jpg,KING_VULTURE_3.jpg,EMU_3.jpg,CACTUS_WREN_3.jpg,CHARA_DE_COLLAR_4.jpg,1.0,3.0,2.0,2.0,3.0,4.0,3.0,1.0,13.1828,0.0,4.0,4.0,4.0,1.0,ADNZW2B8WEZ0Z
265,PEACOCK_3.jpg,ANIANIAU_2.jpg,IBERIAN_MAGPIE_2.jpg,STRAWBERRY_FINCH_4.jpg,ANDEAN_SISKIN_5.jpg,3.0,2.0,1.0,1.0,3.0,5.0,3.0,1.0,2.5369,0.0,5.0,5.0,5.0,1.0,ADNZW2B8WEZ0Z
266,SKUA_4.jpg,PARUS_MAJOR_2.jpg,PURPLE_FINCH_4.jpg,SNOWY_EGRET_5.jpg,ROADRUNNER_5.jpg,2.0,1.0,3.0,2.0,1.0,6.0,1.0,1.0,5.2809,0.0,6.0,6.0,6.0,1.0,ADNZW2B8WEZ0Z
267,BALI_STARLING_1.jpg,CAPE_LONGCLAW_5.jpg,IBERIAN_MAGPIE_1.jpg,PURPLE_FINCH_2.jpg,OSTRICH_5.jpg,3.0,2.0,1.0,1.0,3.0,7.0,2.0,0.0,12.6979,0.0,7.0,7.0,7.0,1.0,ADNZW2B8WEZ0Z
268,BREWERS_BLACKBIRD_3.jpg,CAPE_LONGCLAW_2.jpg,AFRICAN_OYSTER_CATCHER_2.jpg,PEACOCK_4.jpg,GOLDEN_CHEEKED_WARBLER_3.jpg,3.0,1.0,2.0,3.0,1.0,8.0,1.0,1.0,5.6265,0.0,8.0,8.0,8.0,1.0,ADNZW2B8WEZ0Z
269,GOLDEN_CHLOROPHONIA_5.jpg,COMMON_HOUSE_MARTIN_4.jpg,INLAND_DOTTEREL_5.jpg,ROADRUNNER_2.jpg,VERMILION_FLYCATHER_5.jpg,2.0,1.0,3.0,2.0,1.0,9.0,1.0,1.0,3.3131,0.0,9.0,9.0,9.0,1.0,ADNZW2B8WEZ0Z
270,GYRFALCON_1.jpg,ASHY_STORM_PETREL_2.jpg,GREY_PLOVER_3.jpg,FAIRY_TERN_1.jpg,CINNAMON_ATTILA_2.jpg,1.0,3.0,2.0,1.0,1.0,10.0,1.0,1.0,7.8236,0.0,10.0,10.0,10.0,1.0,ADNZW2B8WEZ0Z
271,right.png,right.png,right.png,left.png,up.png,,,,,2.0,11.0,2.0,1.0,4.1389,0.0,11.0,11.0,11.0,1.0,ADNZW2B8WEZ0Z
272,ASIAN_CRESTED_IBIS_4.jpg,CANARY_2.jpg,OYSTER_CATCHER_2.jpg,IVORY_GULL_2.jpg,GREAT_JACAMAR_4.jpg,2.0,3.0,1.0,1.0,3.0,12.0,1.0,0.0,2.5395,0.0,12.0,12.0,12.0,1.0,ADNZW2B8WEZ0Z
273,LITTLE_AUK_5.jpg,ORANGE_BRESTED_BUNTING_3.jpg,LILAC_ROLLER_5.jpg,SANDHILL_CRANE_3.jpg,BEARDED_BELLBIRD_1.jpg,2.0,1.0,3.0,2.0,1.0,13.0,3.0,0.0,9.796,0.0,13.0,13.0,13.0,1.0,ADNZW2B8WEZ0Z
274,right.png,right.png,right.png,left.png,up.png,,,,,2.0,14.0,2.0,1.0,2.3719,0.0,14.0,14.0,14.0,1.0,ADNZW2B8WEZ0Z
275,VERMILION_FLYCATHER_3.jpg,CROWNED_PIGEON_1.jpg,LITTLE_AUK_4.jpg,INDIAN_BUSTARD_1.jpg,RED_BEARDED_BEE_EATER_1.jpg,2.0,1.0,3.0,2.0,1.0,15.0,1.0,1.0,113.0546,0.0,15.0,15.0,15.0,1.0,ADNZW2B8WEZ0Z
276,RED_FACED_WARBLER_1.jpg,BLACK_VENTED_SHEARWATER_4.jpg,CAPE_GLOSSY_STARLING_2.jpg,COMMON_LOON_4.jpg,EMU_5.jpg,3.0,2.0,1.0,2.0,2.0,16.0,3.0,0.0,2.7436,0.0,16.0,16.0,16.0,1.0,ADNZW2B8WEZ0Z
277,CRESTED_NUTHATCH_2.jpg,SCARLET_IBIS_3.jpg,CANARY_1.jpg,DOUBLE_BRESTED_CORMARANT_4.jpg,AFRICAN_FIREFINCH_1.jpg,3.0,1.0,2.0,1.0,2.0,17.0,3.0,0.0,4.6847,0.0,17.0,17.0,17.0,1.0,ADNZW2B8WEZ0Z
278,PARUS_MAJOR_1.jpg,PINK_ROBIN_3.jpg,FAIRY_BLUEBIRD_5.jpg,COMMON_POORWILL_1.jpg,CALIFORNIA_GULL_2.jpg,3.0,1.0,2.0,3.0,1.0,18.0,3.0,0.0,5.0884,0.0,18.0,18.0,18.0,1.0,ADNZW2B8WEZ0Z
279,KILLDEAR_2.jpg,CAATINGA_CACHOLOTE_4.jpg,ALEXANDRINE_PARAKEET_5.jpg,AZURE_TIT_5.jpg,CHATTERING_LORY_1.jpg,1.0,3.0,2.0,2.0,3.0,19.0,2.0,0.0,112.65,0.0,19.0,19.0,19.0,1.0,ADNZW2B8WEZ0Z
280,SCARLET_TANAGER_2.jpg,BORNEAN_LEAFBIRD_1.jpg,BLONDE_CRESTED_WOODPECKER_3.jpg,CARMINE_BEE-EATER_1.jpg,LITTLE_AUK_3.jpg,3.0,1.0,2.0,3.0,1.0,20.0,2.0,0.0,1.736,0.0,20.0,20.0,20.0,1.0,ADNZW2B8WEZ0Z
281,left.png,left.png,up.png,right.png,left.png,,,,,2.0,21.0,2.0,1.0,2.3632,0.0,21.0,21.0,21.0,1.0,ADNZW2B8WEZ0Z
282,MALACHITE_KINGFISHER_2.jpg,GREEN_BROADBILL_5.jpg,INCA_TERN_2.jpg,SKUA_3.jpg,JAVA_SPARROW_5.jpg,2.0,1.0,3.0,3.0,3.0,22.0,3.0,1.0,6.6677,0.0,22.0,22.0,22.0,1.0,ADNZW2B8WEZ0Z
283,RUBY_THROATED_HUMMINGBIRD_3.jpg,NORTHERN_SHOVELER_1.jpg,MYNA_5.jpg,WHITE_CHEEKED_TURACO_4.jpg,WALL_CREAPER_3.jpg,2.0,1.0,3.0,3.0,3.0,23.0,1.0,0.0,2.8956,0.0,23.0,23.0,23.0,1.0,ADNZW2B8WEZ0Z
284,AMERICAN_PIPIT_5.jpg,GREEN_MAGPIE_1.jpg,LOGGERHEAD_SHRIKE_4.jpg,HEPATIC_TANAGER_5.jpg,EMU_2.jpg,2.0,3.0,1.0,2.0,1.0,24.0,1.0,1.0,2.0277,0.0,24.0,24.0,24.0,1.0,ADNZW2B8WEZ0Z
285,MCKAYS_BUNTING_3.jpg,EMU_4.jpg,AMERICAN_GOLDFINCH_4.jpg,DEMOISELLE_CRANE_3.jpg,IWI_2.jpg,3.0,1.0,2.0,1.0,2.0,25.0,2.0,1.0,2.2199,0.0,25.0,25.0,25.0,1.0,ADNZW2B8WEZ0Z
286,GOLDEN_CHEEKED_WARBLER_2.jpg,WHITE_THROATED_BEE_EATER_1.jpg,DARJEELING_WOODPECKER_1.jpg,SPOONBILL_1.jpg,AMERICAN_FLAMINGO_3.jpg,3.0,1.0,2.0,3.0,1.0,26.0,1.0,1.0,3.207,0.0,26.0,26.0,26.0,1.0,ADNZW2B8WEZ0Z
287,STRIPPED_SWALLOW_1.jpg,GO_AWAY_BIRD_5.jpg,MAGPIE_GOOSE_4.jpg,EMPEROR_PENGUIN_5.jpg,WHITE_THROATED_BEE_EATER_5.jpg,2.0,1.0,3.0,3.0,3.0,27.0,3.0,1.0,16.7328,0.0,27.0,27.0,27.0,1.0,ADNZW2B8WEZ0Z
288,ECUADORIAN_HILLSTAR_5.jpg,SCARLET_IBIS_2.jpg,CRIMSON_SUNBIRD_5.jpg,BOBOLINK_5.jpg,AMERICAN_FLAMINGO_1.jpg,3.0,2.0,1.0,1.0,3.0,28.0,3.0,1.0,1.7389,0.0,28.0,28.0,28.0,1.0,ADNZW2B8WEZ0Z
289,ALPINE_CHOUGH_4.jpg,BOBOLINK_3.jpg,UMBRELLA_BIRD_1.jpg,EUROPEAN_GOLDFINCH_3.jpg,SNOWY_EGRET_2.jpg,3.0,2.0,1.0,3.0,1.0,29.0,1.0,1.0,3.6525,0.0,29.0,29.0,29.0,1.0,ADNZW2B8WEZ0Z
290,GILA_WOODPECKER_3.jpg,BLACK_VULTURE_3.jpg,BLACK_SWAN_3.jpg,SNOWY_OWL_4.jpg,AZURE_TANAGER_1.jpg,1.0,2.0,3.0,3.0,3.0,30.0,2.0,0.0,2.1154,0.0,30.0,30.0,30.0,1.0,ADNZW2B8WEZ0Z
291,BARRED_PUFFBIRD_3.jpg,NORTHERN_CARDINAL_5.jpg,VEERY_4.jpg,WHITE_CHEEKED_TURACO_2.jpg,CAPPED_HERON_5.jpg,3.0,1.0,2.0,2.0,3.0,31.0,1.0,0.0,4.3242,0.0,31.0,31.0,31.0,1.0,ADNZW2B8WEZ0Z
292,CHUKAR_PARTRIDGE_5.jpg,OSTRICH_3.jpg,RAZORBILL_1.jpg,BLACK_THROATED_BUSHTIT_1.jpg,EMU_1.jpg,2.0,3.0,1.0,1.0,3.0,32.0,3.0,1.0,2.5227,0.0,32.0,32.0,32.0,1.0,ADNZW2B8WEZ0Z
293,FLAME_BOWERBIRD_3.jpg,INDIAN_BUSTARD_2.jpg,BROWN_THRASHER_4.jpg,QUETZAL_3.jpg,SPOON_BILED_SANDPIPER_5.jpg,2.0,3.0,1.0,1.0,3.0,33.0,2.0,0.0,3.0816,0.0,33.0,33.0,33.0,1.0,ADNZW2B8WEZ0Z
294,HAWAIIAN_GOOSE_4.jpg,RED_BEARDED_BEE_EATER_3.jpg,WATTLED_LAPWING_3.jpg,DOUBLE_EYED_FIG_PARROT_1.jpg,HIMALAYAN_MONAL_2.jpg,3.0,1.0,2.0,1.0,2.0,34.0,2.0,1.0,3.4387,0.0,34.0,34.0,34.0,1.0,ADNZW2B8WEZ0Z
295,NORTHERN_GANNET_2.jpg,PAINTED_BUNTING_5.jpg,STRAWBERRY_FINCH_1.jpg,MASKED_BOOBY_5.jpg,EASTERN_TOWEE_1.jpg,2.0,3.0,1.0,1.0,3.0,35.0,2.0,0.0,3.47,0.0,35.0,35.0,35.0,1.0,ADNZW2B8WEZ0Z
296,TREE_SWALLOW_4.jpg,ROBIN_3.jpg,RED_FODY_3.jpg,RED_HEADED_DUCK_5.jpg,CALIFORNIA_GULL_1.jpg,3.0,1.0,2.0,2.0,3.0,36.0,1.0,0.0,2.8728,0.0,36.0,36.0,36.0,1.0,ADNZW2B8WEZ0Z
297,TASMANIAN_HEN_5.jpg,COPPERY_TAILED_COUCAL_1.jpg,AUCKLAND_SHAQ_2.jpg,AFRICAN_EMERALD_CUCKOO_5.jpg,BLACKBURNIAM_WARBLER_3.jpg,3.0,2.0,1.0,3.0,1.0,37.0,1.0,1.0,8.3224,0.0,37.0,37.0,37.0,1.0,ADNZW2B8WEZ0Z
298,CASSOWARY_1.jpg,ROSY_FACED_LOVEBIRD_4.jpg,CEDAR_WAXWING_4.jpg,SCARLET_MACAW_1.jpg,DEMOISELLE_CRANE_1.jpg,1.0,2.0,3.0,1.0,1.0,38.0,2.0,0.0,2.0155,0.0,38.0,38.0,38.0,1.0,ADNZW2B8WEZ0Z
299,SHOEBILL_3.jpg,GILDED_FLICKER_5.jpg,IWI_1.jpg,MALAGASY_WHITE_EYE_3.jpg,BALD_EAGLE_5.jpg,2.0,1.0,3.0,2.0,1.0,39.0,1.0,1.0,3.8938,0.0,39.0,39.0,39.0,1.0,ADNZW2B8WEZ0Z
300,RED_HEADED_WOODPECKER_5.jpg,CRIMSON_CHAT_3.jpg,COLLARED_ARACARI_1.jpg,GREAT_GRAY_OWL_5.jpg,DAURIAN_REDSTART_5.jpg,3.0,1.0,2.0,2.0,3.0,40.0,3.0,1.0,2.3108,0.0,40.0,40.0,40.0,1.0,ADNZW2B8WEZ0Z
301,LESSER_ADJUTANT_5.jpg,RED_HEADED_WOODPECKER_1.jpg,GAMBELS_QUAIL_1.jpg,CASPIAN_TERN_2.jpg,AMERICAN_GOLDFINCH_1.jpg,2.0,3.0,1.0,3.0,2.0,41.0,2.0,1.0,3.6043,0.0,41.0,41.0,41.0,1.0,ADNZW2B8WEZ0Z
302,BROWN_THRASHER_3.jpg,OYSTER_CATCHER_4.jpg,DOUBLE_EYED_FIG_PARROT_3.jpg,RED_HEADED_WOODPECKER_2.jpg,BLACK_BAZA_4.jpg,1.0,2.0,3.0,2.0,2.0,42.0,2.0,1.0,2.453,0.0,42.0,42.0,42.0,1.0,ADNZW2B8WEZ0Z
303,BROWN_NOODY_3.jpg,SPANGLED_COTINGA_4.jpg,KIWI_2.jpg,COMMON_IORA_3.jpg,GUINEA_TURACO_5.jpg,1.0,2.0,3.0,2.0,2.0,43.0,2.0,1.0,3.9859,0.0,43.0,43.0,43.0,1.0,ADNZW2B8WEZ0Z
304,GRAY_KINGBIRD_5.jpg,BALD_EAGLE_2.jpg,COCK_OF_THE__ROCK_4.jpg,AFRICAN_FIREFINCH_3.jpg,PEACOCK_1.jpg,2.0,3.0,1.0,1.0,3.0,44.0,2.0,0.0,2.7983,0.0,44.0,44.0,44.0,1.0,ADNZW2B8WEZ0Z
305,IVORY_GULL_1.jpg,EASTERN_GOLDEN_WEAVER_5.jpg,FAIRY_TERN_4.jpg,RED_FODY_1.jpg,WILSONS_BIRD_OF_PARADISE_4.jpg,3.0,2.0,1.0,2.0,2.0,45.0,2.0,1.0,19.9221,0.0,45.0,45.0,45.0,1.0,ADNZW2B8WEZ0Z
306,CRESTED_CARACARA_4.jpg,TOUCHAN_4.jpg,BLUE_DACNIS_4.jpg,CREAM_COLORED_WOODPECKER_1.jpg,FAIRY_PENGUIN_5.jpg,2.0,3.0,1.0,3.0,2.0,46.0,2.0,1.0,12.3112,0.0,46.0,46.0,46.0,1.0,ADNZW2B8WEZ0Z
307,RUFOUS_KINGFISHER_1.jpg,HORNED_SUNGEM_4.jpg,MAGPIE_GOOSE_3.jpg,GREEN_JAY_4.jpg,BLACK_VENTED_SHEARWATER_2.jpg,2.0,3.0,1.0,3.0,2.0,47.0,2.0,1.0,6.1932,0.0,47.0,47.0,47.0,1.0,ADNZW2B8WEZ0Z
308,LESSER_ADJUTANT_4.jpg,ALTAMIRA_YELLOWTHROAT_5.jpg,DOUBLE_EYED_FIG_PARROT_4.jpg,RAINBOW_LORIKEET_5.jpg,FAIRY_TERN_3.jpg,1.0,2.0,3.0,1.0,1.0,48.0,3.0,0.0,5.2307,0.0,48.0,48.0,48.0,1.0,ADNZW2B8WEZ0Z
309,right.png,right.png,up.png,left.png,right.png,,,,,2.0,49.0,2.0,1.0,3.1661,0.0,49.0,49.0,49.0,1.0,ADNZW2B8WEZ0Z
310,CASPIAN_TERN_1.jpg,EUROPEAN_GOLDFINCH_4.jpg,AMERICAN_GOLDFINCH_3.jpg,COMMON_LOON_2.jpg,BRANDT_CORMARANT_4.jpg,2.0,3.0,1.0,2.0,1.0,50.0,1.0,1.0,2.818,0.0,50.0,50.0,50.0,1.0,ADNZW2B8WEZ0Z
311,OVENBIRD_5.jpg,JABIRU_4.jpg,PURPLE_FINCH_5.jpg,TURQUOISE_MOTMOT_3.jpg,FAIRY_PENGUIN_1.jpg,3.0,1.0,2.0,1.0,2.0,51.0,1.0,0.0,48.1875,0.0,51.0,51.0,51.0,1.0,ADNZW2B8WEZ0Z
312,RUBY_THROATED_HUMMINGBIRD_1.jpg,VULTURINE_GUINEAFOWL_4.jpg,FRIGATE_1.jpg,EURASIAN_GOLDEN_ORIOLE_5.jpg,BEARDED_REEDLING_3.jpg,3.0,1.0,2.0,2.0,3.0,52.0,1.0,0.0,10.2489,0.0,52.0,52.0,52.0,1.0,ADNZW2B8WEZ0Z
313,PYGMY_KINGFISHER_5.jpg,GRANDALA_2.jpg,NORTHERN_PARULA_5.jpg,GREAT_POTOO_3.jpg,MIKADO__PHEASANT_5.jpg,3.0,2.0,1.0,1.0,3.0,53.0,2.0,0.0,3.4221,0.0,53.0,53.0,53.0,1.0,ADNZW2B8WEZ0Z
314,NORTHERN_JACANA_2.jpg,RED_FACED_CORMORANT_1.jpg,VULTURINE_GUINEAFOWL_5.jpg,SCARLET_IBIS_4.jpg,GREEN_BROADBILL_1.jpg,2.0,3.0,1.0,3.0,2.0,54.0,2.0,1.0,5.8766,0.0,54.0,54.0,54.0,1.0,ADNZW2B8WEZ0Z
315,IVORY_GULL_3.jpg,SNOWY_EGRET_4.jpg,INDIGO_FLYCATCHER_2.jpg,FAN_TAILED_WIDOW_1.jpg,FLAME_TANAGER_3.jpg,1.0,3.0,2.0,3.0,2.0,55.0,1.0,0.0,2.0323,0.0,55.0,55.0,55.0,1.0,ADNZW2B8WEZ0Z
316,OCELLATED_TURKEY_1.jpg,PURPLE_SWAMPHEN_4.jpg,LARK_BUNTING_1.jpg,CHIPPING_SPARROW_1.jpg,GLOSSY_IBIS_2.jpg,2.0,1.0,3.0,3.0,3.0,56.0,3.0,1.0,4.2887,0.0,56.0,56.0,56.0,1.0,ADNZW2B8WEZ0Z
317,MYNA_1.jpg,SANDHILL_CRANE_4.jpg,OSTRICH_2.jpg,PARADISE_TANAGER_3.jpg,GREY_PLOVER_4.jpg,1.0,3.0,2.0,1.0,1.0,57.0,1.0,1.0,7.0272,0.0,57.0,57.0,57.0,1.0,ADNZW2B8WEZ0Z
318,PINK_ROBIN_4.jpg,SPOONBILL_3.jpg,BEARDED_BARBET_2.jpg,COMMON_IORA_4.jpg,ALBATROSS_4.jpg,1.0,3.0,2.0,1.0,1.0,58.0,2.0,0.0,2.7889,0.0,58.0,58.0,58.0,1.0,ADNZW2B8WEZ0Z
319,INDIGO_BUNTING_1.jpg,DARWINS_FLYCATCHER_2.jpg,FRIGATE_4.jpg,BALTIMORE_ORIOLE_4.jpg,SNOWY_PLOVER_1.jpg,1.0,3.0,2.0,3.0,2.0,59.0,2.0,1.0,1.7381,0.0,59.0,59.0,59.0,1.0,ADNZW2B8WEZ0Z
320,AFRICAN_PIED_HORNBILL_5.jpg,KIWI_4.jpg,BORNEAN_PHEASANT_4.jpg,CAPUCHINBIRD_2.jpg,ALEXANDRINE_PARAKEET_1.jpg,1.0,3.0,2.0,1.0,1.0,60.0,2.0,0.0,4.4548,0.0,60.0,60.0,60.0,1.0,ADNZW2B8WEZ0Z
321,EUROPEAN_TURTLE_DOVE_3.jpg,MALABAR_HORNBILL_2.jpg,TEAL_DUCK_2.jpg,BROWN_THRASHER_2.jpg,PAINTED_BUNTING_3.jpg,1.0,3.0,2.0,3.0,2.0,61.0,2.0,1.0,3.893,0.0,61.0,61.0,61.0,1.0,ADNZW2B8WEZ0Z
322,MAGPIE_GOOSE_5.jpg,OYSTER_CATCHER_3.jpg,WOOD_DUCK_5.jpg,DOUBLE_EYED_FIG_PARROT_5.jpg,HAMERKOP_1.jpg,3.0,1.0,2.0,3.0,1.0,62.0,1.0,1.0,1.9455,0.0,62.0,62.0,62.0,1.0,ADNZW2B8WEZ0Z
323,NORTHERN_JACANA_3.jpg,BANANAQUIT_3.jpg,BEARDED_BELLBIRD_3.jpg,BAR-TAILED_GODWIT_3.jpg,REGENT_BOWERBIRD_5.jpg,1.0,3.0,2.0,1.0,1.0,63.0,3.0,0.0,4.3038,0.0,63.0,63.0,63.0,1.0,ADNZW2B8WEZ0Z
324,right.png,right.png,right.png,left.png,up.png,,,,,2.0,64.0,2.0,1.0,3.3794,0.0,64.0,64.0,64.0,1.0,ADNZW2B8WEZ0Z
325,GYRFALCON_1.jpg,FAIRY_TERN_1.jpg,CINNAMON_ATTILA_2.jpg,YELLOW_HEADED_BLACKBIRD_3.jpg,ASHY_STORM_PETREL_2.jpg,2.0,3.0,1.0,3.0,2.0,0.0,3.0,0.0,3.522,0.0,0.0,0.0,0.0,1.0,A2RE8G7FOGBR3W
326,SCARLET_TANAGER_2.jpg,CARMINE_BEE-EATER_1.jpg,LITTLE_AUK_3.jpg,BIRD_OF_PARADISE_3.jpg,BORNEAN_LEAFBIRD_1.jpg,2.0,1.0,3.0,1.0,2.0,1.0,2.0,1.0,2.789,0.0,1.0,1.0,1.0,1.0,A2RE8G7FOGBR3W
327,SHOEBILL_3.jpg,GILDED_FLICKER_5.jpg,MALAGASY_WHITE_EYE_3.jpg,IWI_1.jpg,BALD_EAGLE_5.jpg,1.0,2.0,3.0,2.0,2.0,2.0,3.0,0.0,4.836,0.0,2.0,2.0,2.0,1.0,A2RE8G7FOGBR3W
328,CASPIAN_TERN_1.jpg,BRANDT_CORMARANT_4.jpg,COMMON_LOON_2.jpg,COMMON_POORWILL_4.jpg,EUROPEAN_GOLDFINCH_4.jpg,3.0,1.0,2.0,1.0,2.0,3.0,2.0,1.0,20.484,0.0,3.0,3.0,3.0,1.0,A2RE8G7FOGBR3W
329,AMERICAN_PIPIT_5.jpg,GREEN_MAGPIE_1.jpg,EMU_2.jpg,HEPATIC_TANAGER_5.jpg,LOGGERHEAD_SHRIKE_4.jpg,1.0,3.0,2.0,2.0,3.0,4.0,1.0,0.0,1.267,0.0,4.0,4.0,4.0,1.0,A2RE8G7FOGBR3W
330,GRAY_KINGBIRD_5.jpg,BALD_EAGLE_2.jpg,PEACOCK_1.jpg,COCK_OF_THE__ROCK_4.jpg,AFRICAN_FIREFINCH_3.jpg,1.0,2.0,3.0,1.0,1.0,5.0,3.0,0.0,3.225,0.0,5.0,5.0,5.0,1.0,A2RE8G7FOGBR3W
331,MYNA_1.jpg,PARADISE_TANAGER_3.jpg,GREY_PLOVER_4.jpg,SANDHILL_CRANE_4.jpg,INDIGO_BUNTING_2.jpg,2.0,1.0,3.0,3.0,3.0,6.0,1.0,0.0,5.295,0.0,6.0,6.0,6.0,1.0,A2RE8G7FOGBR3W
332,AFRICAN_PIED_HORNBILL_5.jpg,KIWI_4.jpg,CAPUCHINBIRD_2.jpg,ALEXANDRINE_PARAKEET_1.jpg,BORNEAN_PHEASANT_4.jpg,3.0,2.0,1.0,1.0,3.0,7.0,1.0,0.0,7.831,0.0,7.0,7.0,7.0,1.0,A2RE8G7FOGBR3W
333,OVENBIRD_5.jpg,JABIRU_4.jpg,PURPLE_FINCH_5.jpg,TURQUOISE_MOTMOT_3.jpg,FAIRY_PENGUIN_1.jpg,3.0,1.0,2.0,1.0,2.0,8.0,2.0,1.0,27.75,0.0,8.0,8.0,8.0,1.0,A2RE8G7FOGBR3W
334,ALPINE_CHOUGH_4.jpg,SNOWY_EGRET_2.jpg,BOBOLINK_3.jpg,AMERICAN_FLAMINGO_2.jpg,EUROPEAN_GOLDFINCH_3.jpg,3.0,1.0,2.0,1.0,2.0,9.0,1.0,0.0,7.486,0.0,9.0,9.0,9.0,1.0,A2RE8G7FOGBR3W
335,right.png,right.png,left.png,right.png,up.png,,,,,1.0,10.0,2.0,0.0,10.73,0.0,10.0,10.0,10.0,1.0,A2RE8G7FOGBR3W
336,MAGPIE_GOOSE_5.jpg,OYSTER_CATCHER_3.jpg,WOOD_DUCK_5.jpg,DOUBLE_EYED_FIG_PARROT_5.jpg,HAMERKOP_1.jpg,3.0,1.0,2.0,3.0,1.0,11.0,1.0,1.0,6.198,0.0,11.0,11.0,11.0,1.0,A2RE8G7FOGBR3W
337,MCKAYS_BUNTING_3.jpg,IWI_2.jpg,EMU_4.jpg,AMERICAN_GOLDFINCH_4.jpg,PAINTED_BUNTING_1.jpg,1.0,3.0,2.0,2.0,3.0,12.0,3.0,1.0,3.433,0.0,12.0,12.0,12.0,1.0,A2RE8G7FOGBR3W
338,RED_FACED_WARBLER_1.jpg,BLACK_VENTED_SHEARWATER_4.jpg,CAPE_GLOSSY_STARLING_2.jpg,COMMON_LOON_4.jpg,EMU_5.jpg,3.0,2.0,1.0,2.0,2.0,13.0,1.0,0.0,3.263,0.0,13.0,13.0,13.0,1.0,A2RE8G7FOGBR3W
339,EUROPEAN_TURTLE_DOVE_3.jpg,MALABAR_HORNBILL_2.jpg,BROWN_THRASHER_2.jpg,TEAL_DUCK_2.jpg,PAINTED_BUNTING_3.jpg,3.0,1.0,2.0,3.0,1.0,14.0,2.0,0.0,8.51,0.0,14.0,14.0,14.0,1.0,A2RE8G7FOGBR3W
340,INDIGO_BUNTING_1.jpg,DARWINS_FLYCATCHER_2.jpg,BALTIMORE_ORIOLE_4.jpg,FRIGATE_4.jpg,SNOWY_PLOVER_1.jpg,3.0,1.0,2.0,3.0,1.0,15.0,1.0,1.0,8.417,0.0,15.0,15.0,15.0,1.0,A2RE8G7FOGBR3W
341,HAWAIIAN_GOOSE_4.jpg,RED_BEARDED_BEE_EATER_3.jpg,WATTLED_LAPWING_3.jpg,DOUBLE_EYED_FIG_PARROT_1.jpg,HIMALAYAN_MONAL_2.jpg,3.0,1.0,2.0,1.0,2.0,16.0,2.0,1.0,9.473,0.0,16.0,16.0,16.0,1.0,A2RE8G7FOGBR3W
342,ASIAN_CRESTED_IBIS_4.jpg,IVORY_GULL_2.jpg,CANARY_2.jpg,CASPIAN_TERN_4.jpg,OYSTER_CATCHER_2.jpg,1.0,3.0,2.0,3.0,2.0,17.0,2.0,1.0,8.517,0.0,17.0,17.0,17.0,1.0,A2RE8G7FOGBR3W
343,ARARIPE_MANAKIN_4.jpg,KIWI_3.jpg,GREAT_GRAY_OWL_4.jpg,BLACK_VULTURE_1.jpg,BORNEAN_LEAFBIRD_3.jpg,1.0,2.0,3.0,1.0,1.0,18.0,3.0,0.0,7.915,0.0,18.0,18.0,18.0,1.0,A2RE8G7FOGBR3W
344,CERULEAN_WARBLER_1.jpg,BANANAQUIT_1.jpg,CRESTED_OROPENDOLA_5.jpg,ORIENTAL_BAY_OWL_1.jpg,AMERICAN_FLAMINGO_5.jpg,3.0,1.0,2.0,3.0,1.0,19.0,2.0,0.0,17.925,0.0,19.0,19.0,19.0,1.0,A2RE8G7FOGBR3W
345,BREWERS_BLACKBIRD_3.jpg,PEACOCK_4.jpg,DOUBLE_EYED_FIG_PARROT_2.jpg,CAPE_LONGCLAW_2.jpg,GOLDEN_CHEEKED_WARBLER_3.jpg,1.0,3.0,2.0,1.0,1.0,20.0,1.0,1.0,6.621,0.0,20.0,20.0,20.0,1.0,A2RE8G7FOGBR3W
346,BALI_STARLING_1.jpg,PURPLE_FINCH_2.jpg,AMERICAN_PIPIT_1.jpg,CAPE_LONGCLAW_5.jpg,IBERIAN_MAGPIE_1.jpg,2.0,1.0,3.0,2.0,1.0,21.0,1.0,1.0,9.632,0.0,21.0,21.0,21.0,1.0,A2RE8G7FOGBR3W
347,RED_HEADED_WOODPECKER_5.jpg,COLLARED_ARACARI_1.jpg,GREAT_GRAY_OWL_5.jpg,BLACKBURNIAM_WARBLER_4.jpg,CRIMSON_CHAT_3.jpg,1.0,3.0,2.0,3.0,2.0,22.0,3.0,0.0,3.42,0.0,22.0,22.0,22.0,1.0,A2RE8G7FOGBR3W
348,BROWN_NOODY_3.jpg,SPANGLED_COTINGA_4.jpg,COMMON_IORA_3.jpg,GUINEA_TURACO_5.jpg,KIWI_2.jpg,2.0,3.0,1.0,2.0,1.0,23.0,3.0,0.0,2.973,0.0,23.0,23.0,23.0,1.0,A2RE8G7FOGBR3W
349,GREY_PLOVER_1.jpg,AMETHYST_WOODSTAR_4.jpg,BURCHELLS_COURSER_5.jpg,HYACINTH_MACAW_3.jpg,GOULDIAN_FINCH_4.jpg,3.0,1.0,2.0,3.0,1.0,24.0,1.0,1.0,2.978,0.0,24.0,24.0,24.0,1.0,A2RE8G7FOGBR3W
350,OCELLATED_TURKEY_1.jpg,LARK_BUNTING_1.jpg,CHIPPING_SPARROW_1.jpg,PURPLE_SWAMPHEN_4.jpg,AMERICAN_KESTREL_2.jpg,1.0,3.0,2.0,2.0,3.0,25.0,3.0,1.0,4.802,0.0,25.0,25.0,25.0,1.0,A2RE8G7FOGBR3W
351,SPLENDID_WREN_1.jpg,PARAKETT__AKULET_3.jpg,BLACK_SWAN_1.jpg,CUBAN_TODY_4.jpg,DOUBLE_BRESTED_CORMARANT_1.jpg,1.0,3.0,2.0,1.0,1.0,26.0,2.0,0.0,3.5,0.0,26.0,26.0,26.0,1.0,A2RE8G7FOGBR3W
352,EASTERN_TOWEE_2.jpg,HYACINTH_MACAW_4.jpg,ANDEAN_GOOSE_3.jpg,NORTHERN_BEARDLESS_TYRANNULET_5.jpg,SANDHILL_CRANE_2.jpg,2.0,3.0,1.0,2.0,1.0,27.0,2.0,0.0,6.767,0.0,27.0,27.0,27.0,1.0,A2RE8G7FOGBR3W
353,CHUKAR_PARTRIDGE_5.jpg,BLACK_THROATED_BUSHTIT_1.jpg,RAZORBILL_1.jpg,OSTRICH_3.jpg,PUFFIN_3.jpg,2.0,1.0,3.0,3.0,3.0,28.0,3.0,1.0,6.374,0.0,28.0,28.0,28.0,1.0,A2RE8G7FOGBR3W
354,CRESTED_NUTHATCH_2.jpg,CANARY_1.jpg,AFRICAN_FIREFINCH_1.jpg,VERMILION_FLYCATHER_4.jpg,SCARLET_IBIS_3.jpg,2.0,3.0,1.0,3.0,2.0,29.0,2.0,1.0,9.988,0.0,29.0,29.0,29.0,1.0,A2RE8G7FOGBR3W
355,FLAME_BOWERBIRD_3.jpg,QUETZAL_3.jpg,BROWN_THRASHER_4.jpg,GOULDIAN_FINCH_1.jpg,INDIAN_BUSTARD_2.jpg,2.0,3.0,1.0,3.0,2.0,30.0,2.0,1.0,6.16,0.0,30.0,30.0,30.0,1.0,A2RE8G7FOGBR3W
356,NORTHERN_JACANA_3.jpg,REGENT_BOWERBIRD_5.jpg,BAR-TAILED_GODWIT_3.jpg,ASHY_THRUSHBIRD_4.jpg,BANANAQUIT_3.jpg,3.0,2.0,1.0,2.0,2.0,31.0,3.0,0.0,3.089,0.0,31.0,31.0,31.0,1.0,A2RE8G7FOGBR3W
357,left.png,left.png,right.png,left.png,up.png,,,,,1.0,32.0,2.0,0.0,3.343,0.0,32.0,32.0,32.0,1.0,A2RE8G7FOGBR3W
358,CASSOWARY_1.jpg,DEMOISELLE_CRANE_1.jpg,SCARLET_MACAW_1.jpg,WHITE_NECKED_RAVEN_5.jpg,ROSY_FACED_LOVEBIRD_4.jpg,2.0,3.0,1.0,3.0,2.0,33.0,2.0,1.0,6.466,0.0,33.0,33.0,33.0,1.0,A2RE8G7FOGBR3W
359,right.png,right.png,left.png,right.png,up.png,,,,,1.0,34.0,2.0,0.0,32.407,0.0,34.0,34.0,34.0,1.0,A2RE8G7FOGBR3W
360,NICOBAR_PIGEON_1.jpg,MYNA_4.jpg,NORTHERN_MOCKINGBIRD_4.jpg,LITTLE_AUK_1.jpg,EASTERN_BLUEBIRD_3.jpg,1.0,2.0,3.0,1.0,1.0,35.0,3.0,0.0,4.026,0.0,35.0,35.0,35.0,1.0,A2RE8G7FOGBR3W
361,KAGU_5.jpg,IMPERIAL_SHAQ_2.jpg,ASHY_STORM_PETREL_1.jpg,VICTORIA_CROWNED_PIGEON_5.jpg,EASTERN_MEADOWLARK_1.jpg,2.0,3.0,1.0,3.0,2.0,36.0,3.0,0.0,6.214,0.0,36.0,36.0,36.0,1.0,A2RE8G7FOGBR3W
362,IVORY_GULL_3.jpg,SNOWY_EGRET_4.jpg,FLAME_TANAGER_3.jpg,INDIGO_FLYCATCHER_2.jpg,FAN_TAILED_WIDOW_1.jpg,2.0,1.0,3.0,3.0,3.0,37.0,1.0,0.0,24.35,0.0,37.0,37.0,37.0,1.0,A2RE8G7FOGBR3W
363,KILLDEAR_2.jpg,AZURE_TIT_5.jpg,ALEXANDRINE_PARAKEET_5.jpg,WHITE_TAILED_TROPIC_2.jpg,CAATINGA_CACHOLOTE_4.jpg,1.0,3.0,2.0,3.0,2.0,38.0,2.0,1.0,12.747,0.0,38.0,38.0,38.0,1.0,A2RE8G7FOGBR3W
364,GOLDEN_CHLOROPHONIA_5.jpg,ROADRUNNER_2.jpg,WHIMBREL_1.jpg,COMMON_HOUSE_MARTIN_4.jpg,VERMILION_FLYCATHER_5.jpg,1.0,2.0,3.0,1.0,1.0,39.0,3.0,0.0,9.869,0.0,39.0,39.0,39.0,1.0,A2RE8G7FOGBR3W
365,RUFOUS_KINGFISHER_1.jpg,BLACK_VENTED_SHEARWATER_2.jpg,MAGPIE_GOOSE_3.jpg,BANDED_STILT_3.jpg,HORNED_SUNGEM_4.jpg,2.0,1.0,3.0,1.0,2.0,40.0,2.0,1.0,8.052,0.0,40.0,40.0,40.0,1.0,A2RE8G7FOGBR3W
366,left.png,left.png,left.png,up.png,right.png,,,,,3.0,41.0,1.0,0.0,6.491,0.0,41.0,41.0,41.0,1.0,A2RE8G7FOGBR3W
367,PEACOCK_3.jpg,IBERIAN_MAGPIE_2.jpg,STRAWBERRY_FINCH_4.jpg,ANIANIAU_2.jpg,CHATTERING_LORY_3.jpg,2.0,1.0,3.0,3.0,3.0,42.0,1.0,0.0,7.648,0.0,42.0,42.0,42.0,1.0,A2RE8G7FOGBR3W
368,INCA_TERN_4.jpg,SMITHS_LONGSPUR_5.jpg,ELLIOTS__PHEASANT_4.jpg,BORNEAN_BRISTLEHEAD_5.jpg,FASCIATED_WREN_4.jpg,1.0,3.0,2.0,2.0,3.0,43.0,2.0,0.0,6.087,0.0,43.0,43.0,43.0,1.0,A2RE8G7FOGBR3W
369,GOLDEN_CHEEKED_WARBLER_2.jpg,WHITE_THROATED_BEE_EATER_1.jpg,AMERICAN_FLAMINGO_3.jpg,SPOONBILL_1.jpg,DARJEELING_WOODPECKER_1.jpg,2.0,1.0,3.0,3.0,3.0,44.0,3.0,1.0,10.976,0.0,44.0,44.0,44.0,1.0,A2RE8G7FOGBR3W
370,NORTHERN_JACANA_2.jpg,VULTURINE_GUINEAFOWL_5.jpg,RED_FACED_CORMORANT_1.jpg,CRAB_PLOVER_3.jpg,GREEN_BROADBILL_1.jpg,3.0,2.0,1.0,2.0,2.0,45.0,1.0,0.0,3.539,0.0,45.0,45.0,45.0,1.0,A2RE8G7FOGBR3W
371,LESSER_ADJUTANT_5.jpg,AMERICAN_GOLDFINCH_1.jpg,GAMBELS_QUAIL_1.jpg,MALAGASY_WHITE_EYE_2.jpg,RED_HEADED_WOODPECKER_1.jpg,2.0,1.0,3.0,1.0,2.0,46.0,2.0,1.0,9.118,0.0,46.0,46.0,46.0,1.0,A2RE8G7FOGBR3W
372,BROWN_THRASHER_3.jpg,OYSTER_CATCHER_4.jpg,RED_HEADED_WOODPECKER_2.jpg,BLACK_BAZA_4.jpg,DOUBLE_EYED_FIG_PARROT_3.jpg,2.0,3.0,1.0,2.0,1.0,47.0,1.0,1.0,5.88,0.0,47.0,47.0,47.0,1.0,A2RE8G7FOGBR3W
373,MALACHITE_KINGFISHER_2.jpg,SKUA_3.jpg,INCA_TERN_2.jpg,GANG_GANG_COCKATOO_4.jpg,GREEN_BROADBILL_5.jpg,2.0,1.0,3.0,1.0,2.0,48.0,2.0,1.0,15.435,0.0,48.0,48.0,48.0,1.0,A2RE8G7FOGBR3W
374,TASMANIAN_HEN_5.jpg,COPPERY_TAILED_COUCAL_1.jpg,AUCKLAND_SHAQ_2.jpg,AFRICAN_EMERALD_CUCKOO_5.jpg,BLACKBURNIAM_WARBLER_3.jpg,3.0,2.0,1.0,3.0,1.0,49.0,3.0,0.0,4.644,0.0,49.0,49.0,49.0,1.0,A2RE8G7FOGBR3W
375,RUBY_THROATED_HUMMINGBIRD_3.jpg,MYNA_5.jpg,NORTHERN_SHOVELER_1.jpg,GOLDEN_EAGLE_2.jpg,WHITE_CHEEKED_TURACO_4.jpg,3.0,2.0,1.0,2.0,2.0,50.0,1.0,0.0,4.545,0.0,50.0,50.0,50.0,1.0,A2RE8G7FOGBR3W
376,left.png,left.png,left.png,up.png,right.png,,,,,3.0,51.0,1.0,0.0,3.461,0.0,51.0,51.0,51.0,1.0,A2RE8G7FOGBR3W
377,INLAND_DOTTEREL_4.jpg,NICOBAR_PIGEON_4.jpg,JANDAYA_PARAKEET_5.jpg,COCK_OF_THE__ROCK_5.jpg,CRESTED_KINGFISHER_1.jpg,1.0,2.0,3.0,2.0,2.0,52.0,3.0,0.0,2.561,0.0,52.0,52.0,52.0,1.0,A2RE8G7FOGBR3W
378,RUBY_THROATED_HUMMINGBIRD_2.jpg,GOLDEN_PARAKEET_2.jpg,APAPANE_4.jpg,GREEN_JAY_2.jpg,DUSKY_ROBIN_5.jpg,2.0,1.0,3.0,1.0,2.0,53.0,3.0,0.0,3.487,0.0,53.0,53.0,53.0,1.0,A2RE8G7FOGBR3W
379,CRESTED_CARACARA_4.jpg,FAIRY_PENGUIN_5.jpg,TOUCHAN_4.jpg,CRAB_PLOVER_5.jpg,BLUE_DACNIS_4.jpg,3.0,1.0,2.0,1.0,2.0,54.0,2.0,1.0,4.056,0.0,54.0,54.0,54.0,1.0,A2RE8G7FOGBR3W
380,TREE_SWALLOW_4.jpg,ROBIN_3.jpg,RED_FODY_3.jpg,CALIFORNIA_GULL_1.jpg,RED_HEADED_DUCK_5.jpg,3.0,2.0,1.0,2.0,2.0,55.0,1.0,0.0,3.788,0.0,55.0,55.0,55.0,1.0,A2RE8G7FOGBR3W
381,ASIAN_DOLLARD_BIRD_2.jpg,ALBATROSS_2.jpg,HAWAIIAN_GOOSE_1.jpg,VIOLET_GREEN_SWALLOW_4.jpg,OSTRICH_1.jpg,2.0,3.0,1.0,1.0,3.0,56.0,1.0,0.0,4.715,0.0,56.0,56.0,56.0,1.0,A2RE8G7FOGBR3W
382,RUBY_THROATED_HUMMINGBIRD_1.jpg,VULTURINE_GUINEAFOWL_4.jpg,FRIGATE_1.jpg,EURASIAN_GOLDEN_ORIOLE_5.jpg,BEARDED_REEDLING_3.jpg,3.0,1.0,2.0,2.0,3.0,57.0,2.0,0.0,2.953,0.0,57.0,57.0,57.0,1.0,A2RE8G7FOGBR3W
383,LARK_BUNTING_2.jpg,KING_VULTURE_3.jpg,CACTUS_WREN_3.jpg,CHARA_DE_COLLAR_4.jpg,EMU_3.jpg,3.0,2.0,1.0,2.0,2.0,58.0,1.0,0.0,3.301,0.0,58.0,58.0,58.0,1.0,A2RE8G7FOGBR3W
384,GILA_WOODPECKER_3.jpg,BLACK_SWAN_3.jpg,BLACK_VULTURE_3.jpg,SNOWY_OWL_4.jpg,EGYPTIAN_GOOSE_3.jpg,3.0,2.0,1.0,1.0,3.0,59.0,3.0,1.0,5.899,0.0,59.0,59.0,59.0,1.0,A2RE8G7FOGBR3W
385,SKUA_4.jpg,PARUS_MAJOR_2.jpg,ROADRUNNER_5.jpg,SNOWY_EGRET_5.jpg,PURPLE_FINCH_4.jpg,3.0,1.0,2.0,2.0,3.0,60.0,3.0,1.0,2.538,0.0,60.0,60.0,60.0,1.0,A2RE8G7FOGBR3W
386,LESSER_ADJUTANT_4.jpg,RAINBOW_LORIKEET_5.jpg,ALTAMIRA_YELLOWTHROAT_5.jpg,CHATTERING_LORY_2.jpg,FAIRY_TERN_3.jpg,1.0,2.0,3.0,2.0,2.0,61.0,2.0,1.0,2.126,0.0,61.0,61.0,61.0,1.0,A2RE8G7FOGBR3W
387,DOUBLE_BRESTED_CORMARANT_5.jpg,EURASIAN_MAGPIE_4.jpg,CHINESE_POND_HERON_2.jpg,PATAGONIAN_SIERRA_FINCH_2.jpg,GILDED_FLICKER_2.jpg,3.0,2.0,1.0,2.0,2.0,62.0,1.0,0.0,2.478,0.0,62.0,62.0,62.0,1.0,A2RE8G7FOGBR3W
388,PARUS_MAJOR_1.jpg,PINK_ROBIN_3.jpg,FAIRY_BLUEBIRD_5.jpg,CALIFORNIA_GULL_2.jpg,COMMON_POORWILL_1.jpg,3.0,2.0,1.0,3.0,1.0,63.0,3.0,0.0,3.639,0.0,63.0,63.0,63.0,1.0,A2RE8G7FOGBR3W
389,ECUADORIAN_HILLSTAR_5.jpg,SCARLET_IBIS_2.jpg,BOBOLINK_5.jpg,CRIMSON_SUNBIRD_5.jpg,AMERICAN_FLAMINGO_1.jpg,2.0,3.0,1.0,1.0,3.0,64.0,3.0,1.0,2.432,0.0,64.0,64.0,64.0,1.0,A2RE8G7FOGBR3W
390,INCA_TERN_4.jpg,SMITHS_LONGSPUR_5.jpg,FASCIATED_WREN_4.jpg,BORNEAN_BRISTLEHEAD_5.jpg,ELLIOTS__PHEASANT_4.jpg,2.0,3.0,1.0,2.0,1.0,0.0,2.0,0.0,5.366,0.0,0.0,0.0,0.0,1.0,A2NQWW9Y3ZVGU0
391,CRESTED_NUTHATCH_2.jpg,CANARY_1.jpg,VERMILION_FLYCATHER_4.jpg,AFRICAN_FIREFINCH_1.jpg,SCARLET_IBIS_3.jpg,3.0,2.0,1.0,3.0,1.0,1.0,2.0,0.0,5.201,0.0,1.0,1.0,1.0,1.0,A2NQWW9Y3ZVGU0
392,BROWN_THRASHER_3.jpg,DOUBLE_EYED_FIG_PARROT_3.jpg,BLACK_BAZA_4.jpg,RED_BEARDED_BEE_EATER_4.jpg,OYSTER_CATCHER_4.jpg,3.0,1.0,2.0,1.0,2.0,2.0,2.0,1.0,3.378,0.0,2.0,2.0,2.0,1.0,A2NQWW9Y3ZVGU0
393,VERMILION_FLYCATHER_3.jpg,CROWNED_PIGEON_1.jpg,RED_BEARDED_BEE_EATER_1.jpg,INDIAN_BUSTARD_1.jpg,LITTLE_AUK_4.jpg,3.0,1.0,2.0,2.0,3.0,3.0,3.0,1.0,5.638,0.0,3.0,3.0,3.0,1.0,A2NQWW9Y3ZVGU0
394,OCELLATED_TURKEY_1.jpg,CHIPPING_SPARROW_1.jpg,LARK_BUNTING_1.jpg,PURPLE_SWAMPHEN_4.jpg,KAKAPO_4.jpg,2.0,3.0,1.0,1.0,3.0,4.0,1.0,0.0,3.021,0.0,4.0,4.0,4.0,1.0,A2NQWW9Y3ZVGU0
395,right.png,right.png,right.png,left.png,up.png,,,,,2.0,5.0,1.0,0.0,4.752,0.0,5.0,5.0,5.0,1.0,A2NQWW9Y3ZVGU0
396,RUBY_THROATED_HUMMINGBIRD_1.jpg,FRIGATE_1.jpg,NORTHERN_CARDINAL_1.jpg,VULTURINE_GUINEAFOWL_4.jpg,EURASIAN_GOLDEN_ORIOLE_5.jpg,3.0,2.0,1.0,3.0,1.0,6.0,3.0,0.0,3.456,0.0,6.0,6.0,6.0,1.0,A2NQWW9Y3ZVGU0
397,GILA_WOODPECKER_3.jpg,SNOWY_OWL_4.jpg,BLACK_SWAN_3.jpg,ALEXANDRINE_PARAKEET_2.jpg,BLACK_VULTURE_3.jpg,1.0,2.0,3.0,2.0,2.0,7.0,3.0,0.0,4.604,0.0,7.0,7.0,7.0,1.0,A2NQWW9Y3ZVGU0
398,MYNA_1.jpg,PARADISE_TANAGER_3.jpg,SANDHILL_CRANE_4.jpg,GREY_PLOVER_4.jpg,INDIGO_BUNTING_2.jpg,1.0,2.0,3.0,3.0,3.0,8.0,2.0,0.0,5.814,0.0,8.0,8.0,8.0,1.0,A2NQWW9Y3ZVGU0
399,NORTHERN_GANNET_2.jpg,STRAWBERRY_FINCH_1.jpg,MASKED_BOOBY_5.jpg,VENEZUELIAN_TROUPIAL_1.jpg,PAINTED_BUNTING_5.jpg,3.0,2.0,1.0,2.0,2.0,9.0,3.0,0.0,3.205,0.0,9.0,9.0,9.0,1.0,A2NQWW9Y3ZVGU0
400,KILLDEAR_2.jpg,AZURE_TIT_5.jpg,ALEXANDRINE_PARAKEET_5.jpg,CAATINGA_CACHOLOTE_4.jpg,WHITE_TAILED_TROPIC_2.jpg,1.0,2.0,3.0,3.0,3.0,10.0,2.0,0.0,2.766,0.0,10.0,10.0,10.0,1.0,A2NQWW9Y3ZVGU0
401,PARUS_MAJOR_1.jpg,CALIFORNIA_GULL_2.jpg,PINK_ROBIN_3.jpg,BLACK_SWAN_4.jpg,COMMON_POORWILL_1.jpg,3.0,2.0,1.0,2.0,2.0,11.0,3.0,0.0,2.815,0.0,11.0,11.0,11.0,1.0,A2NQWW9Y3ZVGU0
402,EUROPEAN_TURTLE_DOVE_3.jpg,PAINTED_BUNTING_3.jpg,CAPE_GLOSSY_STARLING_1.jpg,TEAL_DUCK_2.jpg,MALABAR_HORNBILL_2.jpg,2.0,1.0,3.0,2.0,1.0,12.0,2.0,0.0,4.577,0.0,12.0,12.0,12.0,1.0,A2NQWW9Y3ZVGU0
403,RED_FACED_WARBLER_1.jpg,EMU_5.jpg,SPOONBILL_4.jpg,CAPE_GLOSSY_STARLING_2.jpg,BLACK_VENTED_SHEARWATER_4.jpg,1.0,3.0,2.0,1.0,1.0,13.0,2.0,0.0,3.538,0.0,13.0,13.0,13.0,1.0,A2NQWW9Y3ZVGU0
404,LITTLE_AUK_5.jpg,SANDHILL_CRANE_3.jpg,BEARDED_BELLBIRD_1.jpg,SCARLET_IBIS_1.jpg,ORANGE_BRESTED_BUNTING_3.jpg,3.0,1.0,2.0,1.0,2.0,14.0,1.0,0.0,3.047,0.0,14.0,14.0,14.0,1.0,A2NQWW9Y3ZVGU0
405,IVORY_GULL_1.jpg,WILSONS_BIRD_OF_PARADISE_4.jpg,OCELLATED_TURKEY_2.jpg,EASTERN_GOLDEN_WEAVER_5.jpg,FAIRY_TERN_4.jpg,1.0,2.0,3.0,1.0,1.0,15.0,2.0,0.0,2.606,0.0,15.0,15.0,15.0,1.0,A2NQWW9Y3ZVGU0
406,BALI_STARLING_1.jpg,IBERIAN_MAGPIE_1.jpg,PURPLE_FINCH_2.jpg,CAPE_LONGCLAW_5.jpg,GRANDALA_5.jpg,2.0,1.0,3.0,3.0,3.0,16.0,1.0,0.0,3.574,0.0,16.0,16.0,16.0,1.0,A2NQWW9Y3ZVGU0
407,ASIAN_DOLLARD_BIRD_2.jpg,ALBATROSS_2.jpg,OSTRICH_1.jpg,HAWAIIAN_GOOSE_1.jpg,VIOLET_GREEN_SWALLOW_4.jpg,1.0,2.0,3.0,1.0,1.0,17.0,3.0,0.0,2.176,0.0,17.0,17.0,17.0,1.0,A2NQWW9Y3ZVGU0
408,RUFOUS_KINGFISHER_1.jpg,HORNED_SUNGEM_4.jpg,MAGPIE_GOOSE_3.jpg,BLACK_VENTED_SHEARWATER_2.jpg,GREEN_JAY_4.jpg,2.0,1.0,3.0,3.0,3.0,18.0,3.0,1.0,3.129,0.0,18.0,18.0,18.0,1.0,A2NQWW9Y3ZVGU0
409,BROWN_NOODY_3.jpg,SPANGLED_COTINGA_4.jpg,GUINEA_TURACO_5.jpg,KIWI_2.jpg,COMMON_IORA_3.jpg,3.0,1.0,2.0,2.0,3.0,19.0,3.0,1.0,3.294,0.0,19.0,19.0,19.0,1.0,A2NQWW9Y3ZVGU0
410,GREY_PLOVER_1.jpg,GOULDIAN_FINCH_4.jpg,HYACINTH_MACAW_3.jpg,AMETHYST_WOODSTAR_4.jpg,BORNEAN_LEAFBIRD_2.jpg,1.0,3.0,2.0,2.0,3.0,20.0,2.0,0.0,2.585,0.0,20.0,20.0,20.0,1.0,A2NQWW9Y3ZVGU0
411,RUBY_THROATED_HUMMINGBIRD_3.jpg,NORTHERN_SHOVELER_1.jpg,WALL_CREAPER_3.jpg,MYNA_5.jpg,WHITE_CHEEKED_TURACO_4.jpg,3.0,2.0,1.0,3.0,1.0,21.0,3.0,0.0,6.653,0.0,21.0,21.0,21.0,1.0,A2NQWW9Y3ZVGU0
412,left.png,left.png,right.png,left.png,up.png,,,,,1.0,22.0,2.0,0.0,3.42,0.0,22.0,22.0,22.0,1.0,A2NQWW9Y3ZVGU0
413,AMERICAN_PIPIT_5.jpg,EMU_2.jpg,GREEN_MAGPIE_1.jpg,PEACOCK_2.jpg,HEPATIC_TANAGER_5.jpg,2.0,1.0,3.0,1.0,2.0,23.0,1.0,0.0,4.628,0.0,23.0,23.0,23.0,1.0,A2NQWW9Y3ZVGU0
414,KAGU_5.jpg,EASTERN_MEADOWLARK_1.jpg,BANANAQUIT_2.jpg,ASHY_STORM_PETREL_1.jpg,IMPERIAL_SHAQ_2.jpg,1.0,2.0,3.0,1.0,1.0,24.0,1.0,1.0,4.337,0.0,24.0,24.0,24.0,1.0,A2NQWW9Y3ZVGU0
415,STRIPPED_SWALLOW_1.jpg,MAGPIE_GOOSE_4.jpg,EMPEROR_PENGUIN_5.jpg,ANDEAN_GOOSE_1.jpg,GO_AWAY_BIRD_5.jpg,1.0,2.0,3.0,2.0,2.0,25.0,2.0,1.0,3.175,0.0,25.0,25.0,25.0,1.0,A2NQWW9Y3ZVGU0
416,TASMANIAN_HEN_5.jpg,BLACKBURNIAM_WARBLER_3.jpg,COPPERY_TAILED_COUCAL_1.jpg,AFRICAN_EMERALD_CUCKOO_5.jpg,CREAM_COLORED_WOODPECKER_4.jpg,3.0,2.0,1.0,1.0,3.0,26.0,3.0,1.0,2.569,0.0,26.0,26.0,26.0,1.0,A2NQWW9Y3ZVGU0
417,PINK_ROBIN_4.jpg,COMMON_IORA_4.jpg,SPOONBILL_3.jpg,ALBATROSS_4.jpg,GREEN_MAGPIE_3.jpg,1.0,2.0,3.0,3.0,3.0,27.0,3.0,1.0,3.541,0.0,27.0,27.0,27.0,1.0,A2NQWW9Y3ZVGU0
418,GOLDEN_CHLOROPHONIA_5.jpg,ROADRUNNER_2.jpg,VERMILION_FLYCATHER_5.jpg,WHIMBREL_1.jpg,COMMON_HOUSE_MARTIN_4.jpg,3.0,1.0,2.0,1.0,2.0,28.0,1.0,0.0,2.414,0.0,28.0,28.0,28.0,1.0,A2NQWW9Y3ZVGU0
419,NICOBAR_PIGEON_1.jpg,LITTLE_AUK_1.jpg,GREY_PLOVER_5.jpg,MYNA_4.jpg,EASTERN_BLUEBIRD_3.jpg,2.0,1.0,3.0,2.0,1.0,29.0,3.0,0.0,12.319,0.0,29.0,29.0,29.0,1.0,A2NQWW9Y3ZVGU0
420,SPLENDID_WREN_1.jpg,CUBAN_TODY_4.jpg,PARAKETT__AKULET_3.jpg,DOUBLE_BRESTED_CORMARANT_1.jpg,CRESTED_KINGFISHER_4.jpg,1.0,2.0,3.0,3.0,3.0,30.0,3.0,1.0,3.143,0.0,30.0,30.0,30.0,1.0,A2NQWW9Y3ZVGU0
421,RUBY_THROATED_HUMMINGBIRD_2.jpg,DUSKY_ROBIN_5.jpg,GOLDEN_PARAKEET_2.jpg,APAPANE_4.jpg,EURASIAN_MAGPIE_3.jpg,1.0,2.0,3.0,3.0,3.0,31.0,2.0,0.0,2.21,0.0,31.0,31.0,31.0,1.0,A2NQWW9Y3ZVGU0
422,CHUKAR_PARTRIDGE_5.jpg,BLACK_THROATED_BUSHTIT_1.jpg,RAZORBILL_1.jpg,PUFFIN_3.jpg,OSTRICH_3.jpg,2.0,3.0,1.0,3.0,2.0,32.0,2.0,1.0,2.574,0.0,32.0,32.0,32.0,1.0,A2NQWW9Y3ZVGU0
423,TREE_SWALLOW_4.jpg,ROBIN_3.jpg,RED_HEADED_DUCK_5.jpg,RED_FODY_3.jpg,CALIFORNIA_GULL_1.jpg,1.0,3.0,2.0,2.0,3.0,33.0,2.0,0.0,1.986,0.0,33.0,33.0,33.0,1.0,A2NQWW9Y3ZVGU0
424,ECUADORIAN_HILLSTAR_5.jpg,BOBOLINK_5.jpg,CASSOWARY_2.jpg,SCARLET_IBIS_2.jpg,CRIMSON_SUNBIRD_5.jpg,2.0,1.0,3.0,2.0,1.0,34.0,3.0,0.0,2.79,0.0,34.0,34.0,34.0,1.0,A2NQWW9Y3ZVGU0
425,WHITE_CHEEKED_TURACO_5.jpg,CHINESE_POND_HERON_1.jpg,PYGMY_KINGFISHER_2.jpg,CHARA_DE_COLLAR_2.jpg,SNOWY_EGRET_1.jpg,3.0,1.0,2.0,1.0,2.0,35.0,2.0,1.0,3.092,0.0,35.0,35.0,35.0,1.0,A2NQWW9Y3ZVGU0
426,GYRFALCON_1.jpg,FAIRY_TERN_1.jpg,YELLOW_HEADED_BLACKBIRD_3.jpg,CINNAMON_ATTILA_2.jpg,ASHY_STORM_PETREL_2.jpg,3.0,2.0,1.0,3.0,1.0,36.0,2.0,0.0,3.97,0.0,36.0,36.0,36.0,1.0,A2NQWW9Y3ZVGU0
427,LARK_BUNTING_2.jpg,KING_VULTURE_3.jpg,EMU_3.jpg,CHARA_DE_COLLAR_4.jpg,CACTUS_WREN_3.jpg,1.0,2.0,3.0,2.0,2.0,37.0,3.0,0.0,4.512,0.0,37.0,37.0,37.0,1.0,A2NQWW9Y3ZVGU0
428,CASSOWARY_1.jpg,SCARLET_MACAW_1.jpg,DEMOISELLE_CRANE_1.jpg,ROSY_FACED_LOVEBIRD_4.jpg,EASTERN_ROSELLA_2.jpg,3.0,1.0,2.0,2.0,3.0,38.0,3.0,1.0,2.963,0.0,38.0,38.0,38.0,1.0,A2NQWW9Y3ZVGU0
429,PYGMY_KINGFISHER_5.jpg,GRANDALA_2.jpg,NORTHERN_PARULA_5.jpg,MIKADO__PHEASANT_5.jpg,GREAT_POTOO_3.jpg,3.0,1.0,2.0,1.0,2.0,39.0,1.0,0.0,3.375,0.0,39.0,39.0,39.0,1.0,A2NQWW9Y3ZVGU0
430,MALACHITE_KINGFISHER_2.jpg,GREEN_BROADBILL_5.jpg,JAVA_SPARROW_5.jpg,SKUA_3.jpg,INCA_TERN_2.jpg,3.0,1.0,2.0,3.0,1.0,40.0,3.0,0.0,4.418,0.0,40.0,40.0,40.0,1.0,A2NQWW9Y3ZVGU0
431,ARARIPE_MANAKIN_4.jpg,BORNEAN_LEAFBIRD_3.jpg,GUINEA_TURACO_3.jpg,KIWI_3.jpg,BLACK_VULTURE_1.jpg,3.0,1.0,2.0,3.0,1.0,41.0,1.0,1.0,3.004,0.0,41.0,41.0,41.0,1.0,A2NQWW9Y3ZVGU0
432,right.png,right.png,up.png,left.png,right.png,,,,,2.0,42.0,3.0,0.0,3.093,0.0,42.0,42.0,42.0,1.0,A2NQWW9Y3ZVGU0
433,IVORY_GULL_3.jpg,INDIGO_FLYCATCHER_2.jpg,BUSH_TURKEY_1.jpg,SNOWY_EGRET_4.jpg,FLAME_TANAGER_3.jpg,1.0,3.0,2.0,1.0,1.0,43.0,3.0,0.0,4.73,0.0,43.0,43.0,43.0,1.0,A2NQWW9Y3ZVGU0
434,INDIGO_BUNTING_1.jpg,SNOWY_PLOVER_1.jpg,FRIGATE_4.jpg,SKUA_2.jpg,DARWINS_FLYCATCHER_2.jpg,1.0,2.0,3.0,2.0,2.0,44.0,3.0,0.0,2.367,0.0,44.0,44.0,44.0,1.0,A2NQWW9Y3ZVGU0
435,right.png,right.png,left.png,right.png,up.png,,,,,1.0,45.0,2.0,0.0,2.642,0.0,45.0,45.0,45.0,1.0,A2NQWW9Y3ZVGU0
436,EASTERN_TOWEE_2.jpg,SANDHILL_CRANE_2.jpg,BLUE_HERON_3.jpg,HYACINTH_MACAW_4.jpg,NORTHERN_BEARDLESS_TYRANNULET_5.jpg,1.0,2.0,3.0,1.0,1.0,46.0,3.0,0.0,3.728,0.0,46.0,46.0,46.0,1.0,A2NQWW9Y3ZVGU0
437,SKUA_4.jpg,SNOWY_EGRET_5.jpg,PARUS_MAJOR_2.jpg,BLACK-NECKED_GREBE_3.jpg,ROADRUNNER_5.jpg,2.0,1.0,3.0,1.0,2.0,47.0,1.0,0.0,3.333,0.0,47.0,47.0,47.0,1.0,A2NQWW9Y3ZVGU0
438,HAWAIIAN_GOOSE_4.jpg,WATTLED_LAPWING_3.jpg,BROWN_NOODY_5.jpg,RED_BEARDED_BEE_EATER_3.jpg,HIMALAYAN_MONAL_2.jpg,3.0,1.0,2.0,3.0,1.0,48.0,3.0,0.0,3.892,0.0,48.0,48.0,48.0,1.0,A2NQWW9Y3ZVGU0
439,RED_HEADED_WOODPECKER_5.jpg,CRIMSON_CHAT_3.jpg,COLLARED_ARACARI_1.jpg,DAURIAN_REDSTART_5.jpg,GREAT_GRAY_OWL_5.jpg,3.0,2.0,1.0,2.0,2.0,49.0,2.0,1.0,3.227,0.0,49.0,49.0,49.0,1.0,A2NQWW9Y3ZVGU0
440,CRESTED_CARACARA_4.jpg,FAIRY_PENGUIN_5.jpg,CRAB_PLOVER_5.jpg,BLUE_DACNIS_4.jpg,TOUCHAN_4.jpg,1.0,2.0,3.0,1.0,1.0,50.0,2.0,0.0,3.215,0.0,50.0,50.0,50.0,1.0,A2NQWW9Y3ZVGU0
441,BARRED_PUFFBIRD_3.jpg,VEERY_4.jpg,RED_TAILED_THRUSH_2.jpg,WHITE_CHEEKED_TURACO_2.jpg,NORTHERN_CARDINAL_5.jpg,3.0,1.0,2.0,3.0,1.0,51.0,3.0,0.0,2.98,0.0,51.0,51.0,51.0,1.0,A2NQWW9Y3ZVGU0
442,left.png,left.png,right.png,left.png,up.png,,,,,1.0,52.0,2.0,0.0,2.232,0.0,52.0,52.0,52.0,1.0,A2NQWW9Y3ZVGU0
443,BREWERS_BLACKBIRD_3.jpg,CAPE_LONGCLAW_2.jpg,GOLDEN_CHEEKED_WARBLER_3.jpg,PEACOCK_4.jpg,AFRICAN_OYSTER_CATCHER_2.jpg,2.0,1.0,3.0,3.0,3.0,53.0,1.0,0.0,3.714,0.0,53.0,53.0,53.0,1.0,A2NQWW9Y3ZVGU0
444,LESSER_ADJUTANT_4.jpg,ALTAMIRA_YELLOWTHROAT_5.jpg,RAINBOW_LORIKEET_5.jpg,DOUBLE_EYED_FIG_PARROT_4.jpg,FAIRY_TERN_3.jpg,2.0,1.0,3.0,1.0,2.0,54.0,3.0,0.0,4.785,0.0,54.0,54.0,54.0,1.0,A2NQWW9Y3ZVGU0
445,NORTHERN_JACANA_3.jpg,BANANAQUIT_3.jpg,BEARDED_BELLBIRD_3.jpg,BAR-TAILED_GODWIT_3.jpg,REGENT_BOWERBIRD_5.jpg,1.0,3.0,2.0,1.0,1.0,55.0,3.0,0.0,2.76,0.0,55.0,55.0,55.0,1.0,A2NQWW9Y3ZVGU0
446,ASIAN_CRESTED_IBIS_4.jpg,IVORY_GULL_2.jpg,OYSTER_CATCHER_2.jpg,CASPIAN_TERN_4.jpg,CANARY_2.jpg,2.0,3.0,1.0,3.0,2.0,56.0,2.0,1.0,2.39,0.0,56.0,56.0,56.0,1.0,A2NQWW9Y3ZVGU0
447,SHOEBILL_3.jpg,BALD_EAGLE_5.jpg,MALAGASY_WHITE_EYE_3.jpg,BALD_IBIS_3.jpg,GILDED_FLICKER_5.jpg,1.0,3.0,2.0,3.0,2.0,57.0,3.0,0.0,3.41,0.0,57.0,57.0,57.0,1.0,A2NQWW9Y3ZVGU0
448,FLAME_BOWERBIRD_3.jpg,QUETZAL_3.jpg,GOULDIAN_FINCH_1.jpg,INDIAN_BUSTARD_2.jpg,BROWN_THRASHER_4.jpg,3.0,1.0,2.0,3.0,1.0,58.0,1.0,1.0,3.378,0.0,58.0,58.0,58.0,1.0,A2NQWW9Y3ZVGU0
449,GRAY_KINGBIRD_5.jpg,BALD_EAGLE_2.jpg,COCK_OF_THE__ROCK_4.jpg,AFRICAN_FIREFINCH_3.jpg,PEACOCK_1.jpg,2.0,3.0,1.0,1.0,3.0,59.0,2.0,0.0,3.367,0.0,59.0,59.0,59.0,1.0,A2NQWW9Y3ZVGU0
450,OVENBIRD_5.jpg,FAIRY_PENGUIN_1.jpg,JABIRU_4.jpg,ABBOTTS_BOOBY_2.jpg,PURPLE_FINCH_5.jpg,1.0,2.0,3.0,2.0,2.0,60.0,3.0,0.0,4.442,0.0,60.0,60.0,60.0,1.0,A2NQWW9Y3ZVGU0
451,MCKAYS_BUNTING_3.jpg,IWI_2.jpg,PAINTED_BUNTING_1.jpg,AMERICAN_GOLDFINCH_4.jpg,EMU_4.jpg,2.0,3.0,1.0,2.0,1.0,61.0,2.0,0.0,2.787,0.0,61.0,61.0,61.0,1.0,A2NQWW9Y3ZVGU0
452,MAGPIE_GOOSE_5.jpg,HAMERKOP_1.jpg,LILAC_ROLLER_2.jpg,OYSTER_CATCHER_3.jpg,DOUBLE_EYED_FIG_PARROT_5.jpg,2.0,3.0,1.0,2.0,1.0,62.0,3.0,0.0,3.568,0.0,62.0,62.0,62.0,1.0,A2NQWW9Y3ZVGU0
453,ALPINE_CHOUGH_4.jpg,SNOWY_EGRET_2.jpg,BOBOLINK_3.jpg,AMERICAN_FLAMINGO_2.jpg,EUROPEAN_GOLDFINCH_3.jpg,3.0,1.0,2.0,1.0,2.0,63.0,3.0,0.0,2.639,0.0,63.0,63.0,63.0,1.0,A2NQWW9Y3ZVGU0
454,PEACOCK_3.jpg,STRAWBERRY_FINCH_4.jpg,RED_FODY_5.jpg,ANIANIAU_2.jpg,IBERIAN_MAGPIE_2.jpg,2.0,1.0,3.0,2.0,1.0,64.0,1.0,1.0,3.781,0.0,64.0,64.0,64.0,1.0,A2NQWW9Y3ZVGU0
455,VERMILION_FLYCATHER_3.jpg,RED_BEARDED_BEE_EATER_1.jpg,INDIAN_BUSTARD_1.jpg,PARADISE_TANAGER_4.jpg,CROWNED_PIGEON_1.jpg,1.0,3.0,2.0,3.0,2.0,0.0,2.0,1.0,1.6549,0.0,0.0,0.0,0.0,1.0,AQJXTRKPX3NSB
456,EUROPEAN_TURTLE_DOVE_3.jpg,MALABAR_HORNBILL_2.jpg,BROWN_THRASHER_2.jpg,PAINTED_BUNTING_3.jpg,TEAL_DUCK_2.jpg,3.0,2.0,1.0,3.0,1.0,1.0,1.0,1.0,0.6676,0.0,1.0,1.0,1.0,1.0,AQJXTRKPX3NSB
457,IVORY_GULL_3.jpg,FLAME_TANAGER_3.jpg,CACTUS_WREN_1.jpg,INDIGO_FLYCATCHER_2.jpg,SNOWY_EGRET_4.jpg,2.0,1.0,3.0,2.0,1.0,2.0,3.0,0.0,0.7289,0.0,2.0,2.0,2.0,1.0,AQJXTRKPX3NSB
458,MCKAYS_BUNTING_3.jpg,IWI_2.jpg,EMU_4.jpg,PAINTED_BUNTING_1.jpg,AMERICAN_GOLDFINCH_4.jpg,1.0,2.0,3.0,2.0,2.0,3.0,1.0,0.0,0.6702,0.0,3.0,3.0,3.0,1.0,AQJXTRKPX3NSB
459,BALI_STARLING_1.jpg,PURPLE_FINCH_2.jpg,IBERIAN_MAGPIE_1.jpg,AMERICAN_PIPIT_1.jpg,CAPE_LONGCLAW_5.jpg,3.0,2.0,1.0,2.0,2.0,4.0,3.0,0.0,1.5158,0.0,4.0,4.0,4.0,1.0,AQJXTRKPX3NSB
460,SHOEBILL_3.jpg,MALAGASY_WHITE_EYE_3.jpg,EMERALD_TANAGER_3.jpg,BALD_EAGLE_5.jpg,GILDED_FLICKER_5.jpg,1.0,3.0,2.0,1.0,1.0,5.0,1.0,1.0,0.8849,0.0,5.0,5.0,5.0,1.0,AQJXTRKPX3NSB
461,NORTHERN_JACANA_3.jpg,BAR-TAILED_GODWIT_3.jpg,REGENT_BOWERBIRD_5.jpg,BANANAQUIT_3.jpg,SHORT_BILLED_DOWITCHER_5.jpg,2.0,1.0,3.0,3.0,3.0,6.0,3.0,1.0,118.3202,0.0,6.0,6.0,6.0,1.0,AQJXTRKPX3NSB
462,RUBY_THROATED_HUMMINGBIRD_1.jpg,EURASIAN_GOLDEN_ORIOLE_5.jpg,BROWN_THRASHER_1.jpg,VULTURINE_GUINEAFOWL_4.jpg,FRIGATE_1.jpg,1.0,2.0,3.0,1.0,1.0,7.0,3.0,0.0,0.2497,0.0,7.0,7.0,7.0,1.0,AQJXTRKPX3NSB
463,BROWN_NOODY_3.jpg,SPANGLED_COTINGA_4.jpg,GUINEA_TURACO_5.jpg,KIWI_2.jpg,COMMON_IORA_3.jpg,3.0,1.0,2.0,2.0,3.0,8.0,2.0,0.0,0.129,0.0,8.0,8.0,8.0,1.0,AQJXTRKPX3NSB
464,MYNA_1.jpg,SANDHILL_CRANE_4.jpg,PARADISE_TANAGER_3.jpg,OSTRICH_2.jpg,GREY_PLOVER_4.jpg,3.0,1.0,2.0,1.0,2.0,9.0,3.0,0.0,0.3176,0.0,9.0,9.0,9.0,1.0,AQJXTRKPX3NSB
465,CRESTED_NUTHATCH_2.jpg,SCARLET_IBIS_3.jpg,AFRICAN_FIREFINCH_1.jpg,CANARY_1.jpg,DOUBLE_BRESTED_CORMARANT_4.jpg,2.0,3.0,1.0,1.0,3.0,10.0,2.0,0.0,0.0687,0.0,10.0,10.0,10.0,1.0,AQJXTRKPX3NSB
466,BARRED_PUFFBIRD_3.jpg,WHITE_CHEEKED_TURACO_2.jpg,CUBAN_TODY_3.jpg,NORTHERN_CARDINAL_5.jpg,VEERY_4.jpg,1.0,2.0,3.0,1.0,1.0,11.0,3.0,0.0,0.1302,0.0,11.0,11.0,11.0,1.0,AQJXTRKPX3NSB
467,SCARLET_TANAGER_2.jpg,LITTLE_AUK_3.jpg,CALIFORNIA_QUAIL_5.jpg,BORNEAN_LEAFBIRD_1.jpg,CARMINE_BEE-EATER_1.jpg,2.0,3.0,1.0,2.0,1.0,12.0,1.0,1.0,0.0674,0.0,12.0,12.0,12.0,1.0,AQJXTRKPX3NSB
468,SPLENDID_WREN_1.jpg,PARAKETT__AKULET_3.jpg,BLACK_SWAN_1.jpg,CUBAN_TODY_4.jpg,DOUBLE_BRESTED_CORMARANT_1.jpg,1.0,3.0,2.0,1.0,1.0,13.0,1.0,1.0,0.2572,0.0,13.0,13.0,13.0,1.0,AQJXTRKPX3NSB
469,GOLDEN_CHLOROPHONIA_5.jpg,COMMON_HOUSE_MARTIN_4.jpg,ROADRUNNER_2.jpg,INLAND_DOTTEREL_5.jpg,VERMILION_FLYCATHER_5.jpg,1.0,2.0,3.0,2.0,2.0,14.0,1.0,0.0,0.0706,0.0,14.0,14.0,14.0,1.0,AQJXTRKPX3NSB
470,RUBY_THROATED_HUMMINGBIRD_2.jpg,DUSKY_ROBIN_5.jpg,EURASIAN_MAGPIE_3.jpg,APAPANE_4.jpg,GOLDEN_PARAKEET_2.jpg,3.0,2.0,1.0,3.0,1.0,15.0,1.0,1.0,0.0712,0.0,15.0,15.0,15.0,1.0,AQJXTRKPX3NSB
471,GILA_WOODPECKER_3.jpg,SNOWY_OWL_4.jpg,ALEXANDRINE_PARAKEET_2.jpg,BLACK_SWAN_3.jpg,BLACK_VULTURE_3.jpg,2.0,1.0,3.0,2.0,1.0,16.0,3.0,0.0,0.0668,0.0,16.0,16.0,16.0,1.0,AQJXTRKPX3NSB
472,GOLDEN_CHEEKED_WARBLER_2.jpg,WHITE_THROATED_BEE_EATER_1.jpg,SPOONBILL_1.jpg,AMERICAN_FLAMINGO_3.jpg,DARJEELING_WOODPECKER_1.jpg,1.0,2.0,3.0,3.0,3.0,17.0,2.0,0.0,0.1315,0.0,17.0,17.0,17.0,1.0,AQJXTRKPX3NSB
473,LESSER_ADJUTANT_5.jpg,GAMBELS_QUAIL_1.jpg,CANARY_4.jpg,RED_HEADED_WOODPECKER_1.jpg,AMERICAN_GOLDFINCH_1.jpg,2.0,3.0,1.0,2.0,1.0,18.0,2.0,0.0,0.1333,0.0,18.0,18.0,18.0,1.0,AQJXTRKPX3NSB
474,DOUBLE_BRESTED_CORMARANT_5.jpg,CHINESE_POND_HERON_2.jpg,ANHINGA_5.jpg,EURASIAN_MAGPIE_4.jpg,GILDED_FLICKER_2.jpg,3.0,2.0,1.0,3.0,1.0,19.0,1.0,1.0,0.2027,0.0,19.0,19.0,19.0,1.0,AQJXTRKPX3NSB
475,LITTLE_AUK_5.jpg,BEARDED_BELLBIRD_1.jpg,DOWNY_WOODPECKER_1.jpg,SANDHILL_CRANE_3.jpg,ORANGE_BRESTED_BUNTING_3.jpg,3.0,1.0,2.0,3.0,1.0,20.0,2.0,0.0,0.0704,0.0,20.0,20.0,20.0,1.0,AQJXTRKPX3NSB
476,CHUKAR_PARTRIDGE_5.jpg,OSTRICH_3.jpg,EMU_1.jpg,RAZORBILL_1.jpg,BLACK_THROATED_BUSHTIT_1.jpg,1.0,2.0,3.0,1.0,1.0,21.0,3.0,0.0,0.0714,0.0,21.0,21.0,21.0,1.0,AQJXTRKPX3NSB
477,STRIPPED_SWALLOW_1.jpg,MAGPIE_GOOSE_4.jpg,ANDEAN_GOOSE_1.jpg,GO_AWAY_BIRD_5.jpg,EMPEROR_PENGUIN_5.jpg,2.0,3.0,1.0,2.0,1.0,22.0,3.0,0.0,0.1311,0.0,22.0,22.0,22.0,1.0,AQJXTRKPX3NSB
478,MAGPIE_GOOSE_5.jpg,DOUBLE_EYED_FIG_PARROT_5.jpg,HAMERKOP_1.jpg,OYSTER_CATCHER_3.jpg,MALAGASY_WHITE_EYE_1.jpg,2.0,3.0,1.0,1.0,3.0,23.0,2.0,0.0,0.2695,0.0,23.0,23.0,23.0,1.0,AQJXTRKPX3NSB
479,TASMANIAN_HEN_5.jpg,COPPERY_TAILED_COUCAL_1.jpg,AFRICAN_EMERALD_CUCKOO_5.jpg,AUCKLAND_SHAQ_2.jpg,BLACKBURNIAM_WARBLER_3.jpg,2.0,3.0,1.0,3.0,2.0,24.0,3.0,0.0,0.0681,0.0,24.0,24.0,24.0,1.0,AQJXTRKPX3NSB
480,left.png,left.png,right.png,left.png,up.png,,,,,1.0,25.0,2.0,0.0,0.4306,0.0,25.0,25.0,25.0,1.0,AQJXTRKPX3NSB
481,NORTHERN_GANNET_2.jpg,MASKED_BOOBY_5.jpg,PAINTED_BUNTING_5.jpg,HOODED_MERGANSER_4.jpg,STRAWBERRY_FINCH_1.jpg,1.0,3.0,2.0,3.0,2.0,26.0,1.0,0.0,0.2035,0.0,26.0,26.0,26.0,1.0,AQJXTRKPX3NSB
482,CASPIAN_TERN_1.jpg,BRANDT_CORMARANT_4.jpg,COMMON_POORWILL_4.jpg,EUROPEAN_GOLDFINCH_4.jpg,COMMON_LOON_2.jpg,1.0,2.0,3.0,1.0,1.0,27.0,3.0,0.0,0.0728,0.0,27.0,27.0,27.0,1.0,AQJXTRKPX3NSB
483,AFRICAN_PIED_HORNBILL_5.jpg,KIWI_4.jpg,CAPUCHINBIRD_2.jpg,BORNEAN_PHEASANT_4.jpg,ALEXANDRINE_PARAKEET_1.jpg,3.0,1.0,2.0,1.0,2.0,28.0,2.0,1.0,0.354,0.0,28.0,28.0,28.0,1.0,AQJXTRKPX3NSB
484,PYGMY_KINGFISHER_5.jpg,GRANDALA_2.jpg,MIKADO__PHEASANT_5.jpg,NORTHERN_PARULA_5.jpg,GREAT_POTOO_3.jpg,1.0,3.0,2.0,1.0,1.0,29.0,2.0,0.0,0.0698,0.0,29.0,29.0,29.0,1.0,AQJXTRKPX3NSB
485,GYRFALCON_1.jpg,FAIRY_TERN_1.jpg,YELLOW_HEADED_BLACKBIRD_3.jpg,ASHY_STORM_PETREL_2.jpg,CINNAMON_ATTILA_2.jpg,3.0,1.0,2.0,3.0,1.0,30.0,2.0,0.0,0.0712,0.0,30.0,30.0,30.0,1.0,AQJXTRKPX3NSB
486,RED_HEADED_WOODPECKER_5.jpg,GREAT_GRAY_OWL_5.jpg,KIWI_1.jpg,CRIMSON_CHAT_3.jpg,COLLARED_ARACARI_1.jpg,1.0,2.0,3.0,1.0,1.0,31.0,3.0,0.0,0.0737,0.0,31.0,31.0,31.0,1.0,AQJXTRKPX3NSB
487,RUFOUS_KINGFISHER_1.jpg,BLACK_VENTED_SHEARWATER_2.jpg,MAGPIE_GOOSE_3.jpg,BANDED_STILT_3.jpg,HORNED_SUNGEM_4.jpg,2.0,1.0,3.0,1.0,2.0,32.0,3.0,0.0,0.1333,0.0,32.0,32.0,32.0,1.0,AQJXTRKPX3NSB
488,LESSER_ADJUTANT_4.jpg,RAINBOW_LORIKEET_5.jpg,FAIRY_TERN_3.jpg,CHATTERING_LORY_2.jpg,ALTAMIRA_YELLOWTHROAT_5.jpg,3.0,2.0,1.0,2.0,2.0,33.0,3.0,0.0,0.1352,0.0,33.0,33.0,33.0,1.0,AQJXTRKPX3NSB
489,CERULEAN_WARBLER_1.jpg,ORIENTAL_BAY_OWL_1.jpg,BANANAQUIT_1.jpg,AMERICAN_FLAMINGO_5.jpg,DALMATIAN_PELICAN_5.jpg,3.0,2.0,1.0,1.0,3.0,34.0,2.0,0.0,12.1357,0.0,34.0,34.0,34.0,1.0,AQJXTRKPX3NSB
490,PEACOCK_3.jpg,STRAWBERRY_FINCH_4.jpg,ANIANIAU_2.jpg,IBERIAN_MAGPIE_2.jpg,RED_FODY_5.jpg,1.0,3.0,2.0,2.0,3.0,35.0,3.0,1.0,0.069,0.0,35.0,35.0,35.0,1.0,AQJXTRKPX3NSB
491,LARK_BUNTING_2.jpg,KING_VULTURE_3.jpg,EMU_3.jpg,CHARA_DE_COLLAR_4.jpg,CACTUS_WREN_3.jpg,1.0,2.0,3.0,2.0,2.0,36.0,3.0,0.0,0.0656,0.0,36.0,36.0,36.0,1.0,AQJXTRKPX3NSB
492,FLAME_BOWERBIRD_3.jpg,QUETZAL_3.jpg,INDIAN_BUSTARD_2.jpg,BROWN_THRASHER_4.jpg,GOULDIAN_FINCH_1.jpg,1.0,2.0,3.0,3.0,3.0,37.0,3.0,1.0,0.1121,0.0,37.0,37.0,37.0,1.0,AQJXTRKPX3NSB
493,GRAY_KINGBIRD_5.jpg,BALD_EAGLE_2.jpg,AFRICAN_FIREFINCH_3.jpg,COCK_OF_THE__ROCK_4.jpg,PEACOCK_1.jpg,3.0,2.0,1.0,1.0,3.0,38.0,1.0,0.0,0.0664,0.0,38.0,38.0,38.0,1.0,AQJXTRKPX3NSB
494,INLAND_DOTTEREL_4.jpg,JANDAYA_PARAKEET_5.jpg,NICOBAR_PIGEON_4.jpg,CRESTED_KINGFISHER_1.jpg,CALIFORNIA_CONDOR_4.jpg,2.0,3.0,1.0,1.0,3.0,39.0,2.0,0.0,0.069,0.0,39.0,39.0,39.0,1.0,AQJXTRKPX3NSB
495,right.png,right.png,right.png,up.png,left.png,,,,,3.0,40.0,3.0,1.0,0.091,0.0,40.0,40.0,40.0,1.0,AQJXTRKPX3NSB
496,right.png,right.png,left.png,up.png,right.png,,,,,1.0,41.0,3.0,0.0,0.1443,0.0,41.0,41.0,41.0,1.0,AQJXTRKPX3NSB
497,HAWAIIAN_GOOSE_4.jpg,HIMALAYAN_MONAL_2.jpg,NORTHERN_GANNET_1.jpg,WATTLED_LAPWING_3.jpg,RED_BEARDED_BEE_EATER_3.jpg,2.0,3.0,1.0,2.0,1.0,42.0,2.0,0.0,0.0665,0.0,42.0,42.0,42.0,1.0,AQJXTRKPX3NSB
498,left.png,left.png,left.png,right.png,up.png,,,,,2.0,43.0,1.0,0.0,0.0889,0.0,43.0,43.0,43.0,1.0,AQJXTRKPX3NSB
499,SKUA_4.jpg,PARUS_MAJOR_2.jpg,PURPLE_FINCH_4.jpg,ROADRUNNER_5.jpg,SNOWY_EGRET_5.jpg,2.0,3.0,1.0,2.0,1.0,44.0,3.0,0.0,0.0672,0.0,44.0,44.0,44.0,1.0,AQJXTRKPX3NSB
500,KILLDEAR_2.jpg,AZURE_TIT_5.jpg,WHITE_TAILED_TROPIC_2.jpg,CAATINGA_CACHOLOTE_4.jpg,ALEXANDRINE_PARAKEET_5.jpg,3.0,2.0,1.0,3.0,1.0,45.0,3.0,0.0,0.1929,0.0,45.0,45.0,45.0,1.0,AQJXTRKPX3NSB
501,RED_FACED_WARBLER_1.jpg,CAPE_GLOSSY_STARLING_2.jpg,BLACK_VENTED_SHEARWATER_4.jpg,EMU_5.jpg,CRESTED_OROPENDOLA_4.jpg,2.0,1.0,3.0,3.0,3.0,46.0,3.0,1.0,0.0731,0.0,46.0,46.0,46.0,1.0,AQJXTRKPX3NSB
502,KAGU_5.jpg,IMPERIAL_SHAQ_2.jpg,EASTERN_MEADOWLARK_1.jpg,VICTORIA_CROWNED_PIGEON_5.jpg,ASHY_STORM_PETREL_1.jpg,1.0,3.0,2.0,3.0,2.0,47.0,1.0,0.0,0.3235,0.0,47.0,47.0,47.0,1.0,AQJXTRKPX3NSB
503,BROWN_THRASHER_3.jpg,OYSTER_CATCHER_4.jpg,RED_HEADED_WOODPECKER_2.jpg,BLACK_BAZA_4.jpg,DOUBLE_EYED_FIG_PARROT_3.jpg,2.0,3.0,1.0,2.0,1.0,48.0,2.0,0.0,0.1915,0.0,48.0,48.0,48.0,1.0,AQJXTRKPX3NSB
504,ASIAN_CRESTED_IBIS_4.jpg,OYSTER_CATCHER_2.jpg,AMERICAN_KESTREL_1.jpg,CANARY_2.jpg,IVORY_GULL_2.jpg,2.0,1.0,3.0,2.0,1.0,49.0,3.0,0.0,0.133,0.0,49.0,49.0,49.0,1.0,AQJXTRKPX3NSB
505,INCA_TERN_4.jpg,BORNEAN_BRISTLEHEAD_5.jpg,WHITE_NECKED_RAVEN_4.jpg,SMITHS_LONGSPUR_5.jpg,ELLIOTS__PHEASANT_4.jpg,3.0,2.0,1.0,3.0,1.0,50.0,2.0,0.0,0.4178,0.0,50.0,50.0,50.0,1.0,AQJXTRKPX3NSB
506,ARARIPE_MANAKIN_4.jpg,BLACK_VULTURE_1.jpg,KIWI_3.jpg,UMBRELLA_BIRD_5.jpg,BORNEAN_LEAFBIRD_3.jpg,1.0,2.0,3.0,2.0,2.0,51.0,2.0,1.0,0.1292,0.0,51.0,51.0,51.0,1.0,AQJXTRKPX3NSB
507,EASTERN_TOWEE_2.jpg,NORTHERN_BEARDLESS_TYRANNULET_5.jpg,SANDHILL_CRANE_2.jpg,HYACINTH_MACAW_4.jpg,GOLDEN_CHEEKED_WARBLER_1.jpg,1.0,2.0,3.0,3.0,3.0,52.0,1.0,0.0,0.0764,0.0,52.0,52.0,52.0,1.0,AQJXTRKPX3NSB
508,ASIAN_DOLLARD_BIRD_2.jpg,ALBATROSS_2.jpg,VIOLET_GREEN_SWALLOW_4.jpg,HAWAIIAN_GOOSE_1.jpg,OSTRICH_1.jpg,3.0,2.0,1.0,1.0,3.0,53.0,2.0,0.0,0.0876,0.0,53.0,53.0,53.0,1.0,AQJXTRKPX3NSB
509,AMERICAN_PIPIT_5.jpg,HEPATIC_TANAGER_5.jpg,AMERICAN_GOLDFINCH_5.jpg,GREEN_MAGPIE_1.jpg,EMU_2.jpg,3.0,2.0,1.0,3.0,1.0,54.0,1.0,1.0,0.0655,0.0,54.0,54.0,54.0,1.0,AQJXTRKPX3NSB
510,WHITE_CHEEKED_TURACO_5.jpg,PYGMY_KINGFISHER_2.jpg,SNOWY_EGRET_1.jpg,CHINESE_POND_HERON_1.jpg,MALAGASY_WHITE_EYE_5.jpg,2.0,1.0,3.0,3.0,3.0,55.0,2.0,0.0,0.1425,0.0,55.0,55.0,55.0,1.0,AQJXTRKPX3NSB
511,MALACHITE_KINGFISHER_2.jpg,GREEN_BROADBILL_5.jpg,JAVA_SPARROW_5.jpg,INCA_TERN_2.jpg,SKUA_3.jpg,3.0,2.0,1.0,3.0,1.0,56.0,3.0,0.0,0.0811,0.0,56.0,56.0,56.0,1.0,AQJXTRKPX3NSB
512,OVENBIRD_5.jpg,PURPLE_FINCH_5.jpg,FAIRY_PENGUIN_1.jpg,GILDED_FLICKER_1.jpg,JABIRU_4.jpg,2.0,3.0,1.0,3.0,2.0,57.0,3.0,0.0,0.2008,0.0,57.0,57.0,57.0,1.0,AQJXTRKPX3NSB
513,RUBY_THROATED_HUMMINGBIRD_3.jpg,WHITE_CHEEKED_TURACO_4.jpg,MYNA_5.jpg,MALABAR_HORNBILL_5.jpg,NORTHERN_SHOVELER_1.jpg,2.0,1.0,3.0,1.0,2.0,58.0,2.0,1.0,0.1768,0.0,58.0,58.0,58.0,1.0,AQJXTRKPX3NSB
514,TREE_SWALLOW_4.jpg,RED_HEADED_DUCK_5.jpg,DALMATIAN_PELICAN_3.jpg,RED_FODY_3.jpg,ROBIN_3.jpg,1.0,3.0,2.0,1.0,1.0,59.0,2.0,0.0,0.0691,0.0,59.0,59.0,59.0,1.0,AQJXTRKPX3NSB
515,right.png,right.png,left.png,right.png,up.png,,,,,1.0,60.0,3.0,0.0,0.2301,0.0,60.0,60.0,60.0,1.0,AQJXTRKPX3NSB
516,CASSOWARY_1.jpg,SCARLET_MACAW_1.jpg,DEMOISELLE_CRANE_1.jpg,EASTERN_ROSELLA_2.jpg,ROSY_FACED_LOVEBIRD_4.jpg,3.0,2.0,1.0,2.0,2.0,61.0,3.0,0.0,0.2894,0.0,61.0,61.0,61.0,1.0,AQJXTRKPX3NSB
517,NORTHERN_JACANA_2.jpg,GREEN_BROADBILL_1.jpg,EMERALD_TANAGER_2.jpg,RED_FACED_CORMORANT_1.jpg,VULTURINE_GUINEAFOWL_5.jpg,1.0,3.0,2.0,1.0,1.0,62.0,2.0,0.0,0.0666,0.0,62.0,62.0,62.0,1.0,AQJXTRKPX3NSB
518,BREWERS_BLACKBIRD_3.jpg,GOLDEN_CHEEKED_WARBLER_3.jpg,CAPE_LONGCLAW_2.jpg,AMERICAN_AVOCET_5.jpg,PEACOCK_4.jpg,3.0,2.0,1.0,2.0,2.0,63.0,3.0,0.0,0.1333,0.0,63.0,63.0,63.0,1.0,AQJXTRKPX3NSB
519,NICOBAR_PIGEON_1.jpg,LITTLE_AUK_1.jpg,EASTERN_BLUEBIRD_3.jpg,GREY_PLOVER_5.jpg,MYNA_4.jpg,3.0,2.0,1.0,2.0,2.0,64.0,2.0,1.0,1.0033,0.0,64.0,64.0,64.0,1.0,AQJXTRKPX3NSB
520,SPLENDID_WREN_1.jpg,CUBAN_TODY_4.jpg,CRESTED_KINGFISHER_4.jpg,PARAKETT__AKULET_3.jpg,DOUBLE_BRESTED_CORMARANT_1.jpg,3.0,1.0,2.0,3.0,1.0,0.0,2.0,0.0,8.5727,0.0,0.0,0.0,0.0,1.0,AG9LMLEPXP2YC
521,PEACOCK_3.jpg,IBERIAN_MAGPIE_2.jpg,ANIANIAU_2.jpg,CHATTERING_LORY_3.jpg,STRAWBERRY_FINCH_4.jpg,1.0,3.0,2.0,3.0,2.0,1.0,2.0,1.0,1.1374,0.0,1.0,1.0,1.0,1.0,AG9LMLEPXP2YC
522,HAWAIIAN_GOOSE_4.jpg,WATTLED_LAPWING_3.jpg,RED_BEARDED_BEE_EATER_3.jpg,BROWN_NOODY_5.jpg,HIMALAYAN_MONAL_2.jpg,1.0,3.0,2.0,3.0,2.0,2.0,2.0,1.0,1.9256,0.0,2.0,2.0,2.0,1.0,AG9LMLEPXP2YC
523,GOLDEN_CHLOROPHONIA_5.jpg,ROADRUNNER_2.jpg,WHIMBREL_1.jpg,VERMILION_FLYCATHER_5.jpg,COMMON_HOUSE_MARTIN_4.jpg,1.0,3.0,2.0,1.0,1.0,3.0,1.0,1.0,4.813,0.0,3.0,3.0,3.0,1.0,AG9LMLEPXP2YC
524,BROWN_NOODY_3.jpg,GUINEA_TURACO_5.jpg,SPANGLED_COTINGA_4.jpg,KIWI_2.jpg,UMBRELLA_BIRD_4.jpg,2.0,1.0,3.0,3.0,3.0,4.0,3.0,1.0,3.5561,0.0,4.0,4.0,4.0,1.0,AG9LMLEPXP2YC
525,MAGPIE_GOOSE_5.jpg,OYSTER_CATCHER_3.jpg,WOOD_DUCK_5.jpg,DOUBLE_EYED_FIG_PARROT_5.jpg,HAMERKOP_1.jpg,3.0,1.0,2.0,3.0,1.0,5.0,1.0,1.0,1.1788,0.0,5.0,5.0,5.0,1.0,AG9LMLEPXP2YC
526,RUBY_THROATED_HUMMINGBIRD_2.jpg,GOLDEN_PARAKEET_2.jpg,GREEN_JAY_2.jpg,APAPANE_4.jpg,DUSKY_ROBIN_5.jpg,1.0,2.0,3.0,1.0,1.0,6.0,2.0,0.0,2.1701,0.0,6.0,6.0,6.0,1.0,AG9LMLEPXP2YC
527,NORTHERN_JACANA_3.jpg,BAR-TAILED_GODWIT_3.jpg,SHORT_BILLED_DOWITCHER_5.jpg,BANANAQUIT_3.jpg,REGENT_BOWERBIRD_5.jpg,3.0,1.0,2.0,3.0,1.0,7.0,1.0,1.0,1.0665,0.0,7.0,7.0,7.0,1.0,AG9LMLEPXP2YC
528,CHUKAR_PARTRIDGE_5.jpg,OSTRICH_3.jpg,RAZORBILL_1.jpg,BLACK_THROATED_BUSHTIT_1.jpg,EMU_1.jpg,2.0,3.0,1.0,1.0,3.0,8.0,3.0,1.0,2.2729,0.0,8.0,8.0,8.0,1.0,AG9LMLEPXP2YC
529,SKUA_4.jpg,ROADRUNNER_5.jpg,SNOWY_EGRET_5.jpg,AMERICAN_WIGEON_2.jpg,PARUS_MAJOR_2.jpg,1.0,3.0,2.0,3.0,2.0,9.0,2.0,1.0,4.0627,0.0,9.0,9.0,9.0,1.0,AG9LMLEPXP2YC
530,ASIAN_CRESTED_IBIS_4.jpg,OYSTER_CATCHER_2.jpg,CANARY_2.jpg,AMERICAN_KESTREL_1.jpg,IVORY_GULL_2.jpg,1.0,2.0,3.0,2.0,2.0,10.0,2.0,1.0,1.8628,0.0,10.0,10.0,10.0,1.0,AG9LMLEPXP2YC
531,right.png,right.png,left.png,up.png,right.png,,,,,1.0,11.0,3.0,0.0,1.5514,0.0,11.0,11.0,11.0,1.0,AG9LMLEPXP2YC
532,KILLDEAR_2.jpg,ALEXANDRINE_PARAKEET_5.jpg,CAATINGA_CACHOLOTE_4.jpg,AZURE_TIT_5.jpg,GOLDEN_CHLOROPHONIA_2.jpg,2.0,3.0,1.0,1.0,3.0,12.0,3.0,1.0,3.5038,0.0,12.0,12.0,12.0,1.0,AG9LMLEPXP2YC
533,GRAY_KINGBIRD_5.jpg,BALD_EAGLE_2.jpg,PEACOCK_1.jpg,COCK_OF_THE__ROCK_4.jpg,AFRICAN_FIREFINCH_3.jpg,1.0,2.0,3.0,1.0,1.0,13.0,3.0,0.0,5.6734,0.0,13.0,13.0,13.0,1.0,AG9LMLEPXP2YC
534,RUBY_THROATED_HUMMINGBIRD_3.jpg,NORTHERN_SHOVELER_1.jpg,WALL_CREAPER_3.jpg,WHITE_CHEEKED_TURACO_4.jpg,MYNA_5.jpg,3.0,1.0,2.0,3.0,1.0,14.0,3.0,0.0,1.6191,0.0,14.0,14.0,14.0,1.0,AG9LMLEPXP2YC
535,EUROPEAN_TURTLE_DOVE_3.jpg,PAINTED_BUNTING_3.jpg,TEAL_DUCK_2.jpg,MALABAR_HORNBILL_2.jpg,CAPE_GLOSSY_STARLING_1.jpg,1.0,3.0,2.0,2.0,3.0,15.0,1.0,0.0,0.8713,0.0,15.0,15.0,15.0,1.0,AG9LMLEPXP2YC
536,KAGU_5.jpg,IMPERIAL_SHAQ_2.jpg,EASTERN_MEADOWLARK_1.jpg,VICTORIA_CROWNED_PIGEON_5.jpg,ASHY_STORM_PETREL_1.jpg,1.0,3.0,2.0,3.0,2.0,16.0,2.0,1.0,10.3962,0.0,16.0,16.0,16.0,1.0,AG9LMLEPXP2YC
537,right.png,right.png,left.png,up.png,right.png,,,,,1.0,17.0,1.0,1.0,1.6019,0.0,17.0,17.0,17.0,1.0,AG9LMLEPXP2YC
538,left.png,left.png,right.png,up.png,left.png,,,,,1.0,18.0,3.0,0.0,2.055,0.0,18.0,18.0,18.0,1.0,AG9LMLEPXP2YC
539,FLAME_BOWERBIRD_3.jpg,QUETZAL_3.jpg,INDIAN_BUSTARD_2.jpg,BROWN_THRASHER_4.jpg,GOULDIAN_FINCH_1.jpg,1.0,2.0,3.0,3.0,3.0,19.0,3.0,1.0,1.5291,0.0,19.0,19.0,19.0,1.0,AG9LMLEPXP2YC
540,GOLDEN_CHEEKED_WARBLER_2.jpg,SPOONBILL_1.jpg,AMERICAN_FLAMINGO_3.jpg,RED_HEADED_DUCK_3.jpg,WHITE_THROATED_BEE_EATER_1.jpg,2.0,1.0,3.0,1.0,2.0,20.0,2.0,1.0,2.5887,0.0,20.0,20.0,20.0,1.0,AG9LMLEPXP2YC
541,STRIPPED_SWALLOW_1.jpg,MAGPIE_GOOSE_4.jpg,GO_AWAY_BIRD_5.jpg,ANDEAN_GOOSE_1.jpg,EMPEROR_PENGUIN_5.jpg,3.0,2.0,1.0,2.0,2.0,21.0,2.0,1.0,4.8094,0.0,21.0,21.0,21.0,1.0,AG9LMLEPXP2YC
542,CRESTED_CARACARA_4.jpg,TOUCHAN_4.jpg,BLUE_DACNIS_4.jpg,CREAM_COLORED_WOODPECKER_1.jpg,FAIRY_PENGUIN_5.jpg,2.0,3.0,1.0,3.0,2.0,22.0,2.0,1.0,4.4703,0.0,22.0,22.0,22.0,1.0,AG9LMLEPXP2YC
543,MCKAYS_BUNTING_3.jpg,EMU_4.jpg,IWI_2.jpg,AMERICAN_GOLDFINCH_4.jpg,DEMOISELLE_CRANE_3.jpg,2.0,3.0,1.0,1.0,3.0,23.0,3.0,1.0,1.1518,0.0,23.0,23.0,23.0,1.0,AG9LMLEPXP2YC
544,LITTLE_AUK_5.jpg,ORANGE_BRESTED_BUNTING_3.jpg,LILAC_ROLLER_5.jpg,BEARDED_BELLBIRD_1.jpg,SANDHILL_CRANE_3.jpg,2.0,3.0,1.0,2.0,1.0,24.0,1.0,1.0,1.2426,0.0,24.0,24.0,24.0,1.0,AG9LMLEPXP2YC
545,TREE_SWALLOW_4.jpg,ROBIN_3.jpg,RED_HEADED_DUCK_5.jpg,CALIFORNIA_GULL_1.jpg,RED_FODY_3.jpg,1.0,2.0,3.0,2.0,2.0,25.0,3.0,0.0,2.0742,0.0,25.0,25.0,25.0,1.0,AG9LMLEPXP2YC
546,ECUADORIAN_HILLSTAR_5.jpg,BOBOLINK_5.jpg,CRIMSON_SUNBIRD_5.jpg,CASSOWARY_2.jpg,SCARLET_IBIS_2.jpg,3.0,2.0,1.0,2.0,2.0,26.0,2.0,1.0,2.7647,0.0,26.0,26.0,26.0,1.0,AG9LMLEPXP2YC
547,ARARIPE_MANAKIN_4.jpg,BLACK_VULTURE_1.jpg,UMBRELLA_BIRD_5.jpg,BORNEAN_LEAFBIRD_3.jpg,KIWI_3.jpg,2.0,3.0,1.0,2.0,1.0,27.0,1.0,1.0,1.8753,0.0,27.0,27.0,27.0,1.0,AG9LMLEPXP2YC
548,right.png,right.png,right.png,left.png,up.png,,,,,2.0,28.0,1.0,0.0,1.1969,0.0,28.0,28.0,28.0,1.0,AG9LMLEPXP2YC
549,RED_FACED_WARBLER_1.jpg,BLACK_VENTED_SHEARWATER_4.jpg,EMU_5.jpg,COMMON_LOON_4.jpg,CAPE_GLOSSY_STARLING_2.jpg,1.0,2.0,3.0,2.0,2.0,29.0,2.0,1.0,5.3739,0.0,29.0,29.0,29.0,1.0,AG9LMLEPXP2YC
550,NORTHERN_JACANA_2.jpg,VULTURINE_GUINEAFOWL_5.jpg,GREEN_BROADBILL_1.jpg,RED_FACED_CORMORANT_1.jpg,CRAB_PLOVER_3.jpg,1.0,3.0,2.0,2.0,3.0,30.0,2.0,0.0,4.1752,0.0,30.0,30.0,30.0,1.0,AG9LMLEPXP2YC
551,IVORY_GULL_1.jpg,FAIRY_TERN_4.jpg,EASTERN_GOLDEN_WEAVER_5.jpg,BANDED_STILT_4.jpg,WILSONS_BIRD_OF_PARADISE_4.jpg,2.0,3.0,1.0,3.0,2.0,31.0,2.0,1.0,1.8449,0.0,31.0,31.0,31.0,1.0,AG9LMLEPXP2YC
552,VERMILION_FLYCATHER_3.jpg,CROWNED_PIGEON_1.jpg,LITTLE_AUK_4.jpg,INDIAN_BUSTARD_1.jpg,RED_BEARDED_BEE_EATER_1.jpg,2.0,1.0,3.0,2.0,1.0,32.0,1.0,1.0,1.7905,0.0,32.0,32.0,32.0,1.0,AG9LMLEPXP2YC
553,CRESTED_NUTHATCH_2.jpg,AFRICAN_FIREFINCH_1.jpg,CANARY_1.jpg,GOLDEN_CHLOROPHONIA_1.jpg,SCARLET_IBIS_3.jpg,3.0,2.0,1.0,2.0,2.0,33.0,3.0,0.0,0.9389,0.0,33.0,33.0,33.0,1.0,AG9LMLEPXP2YC
554,BARRED_PUFFBIRD_3.jpg,VEERY_4.jpg,WHITE_CHEEKED_TURACO_2.jpg,NORTHERN_CARDINAL_5.jpg,RED_TAILED_THRUSH_2.jpg,1.0,2.0,3.0,3.0,3.0,34.0,2.0,0.0,0.5965,0.0,34.0,34.0,34.0,1.0,AG9LMLEPXP2YC
