,key_resp_3.keys,key_resp_3.corr,key_resp_3.rt,demo_loop.thisRepN,demo_loop.thisTrialN,demo_loop.thisN,demo_loop.thisIndex,demo_loop.ran,target_image,target_match,option1,option2,option3,option1_layer,option2_layer,option3_layer,match_layer,correct_answer,trial_num,subject
0,1.0,1.0,7.9734,0.0,0.0,0.0,0.0,1.0,INCA_TERN_4.jpg,BORNEAN_BRISTLEHEAD_5.jpg,WHITE_NECKED_RAVEN_4.jpg,SMITHS_LONGSPUR_5.jpg,ELLIOTS__PHEASANT_4.jpg,3.0,2.0,1.0,3.0,1.0,0.0,A3QPVH0DRW0ZQV
1,1.0,1.0,3.3902,0.0,1.0,1.0,1.0,1.0,GILA_WOODPECKER_3.jpg,SNOWY_OWL_4.jpg,ALEXANDRINE_PARAKEET_2.jpg,BLACK_SWAN_3.jpg,BLACK_VULTURE_3.jpg,2.0,1.0,3.0,2.0,1.0,1.0,A3QPVH0DRW0ZQV
2,3.0,1.0,2.8329,0.0,2.0,2.0,2.0,1.0,STRIPPED_SWALLOW_1.jpg,GO_AWAY_BIRD_5.jpg,MAGPIE_GOOSE_4.jpg,EMPEROR_PENGUIN_5.jpg,WHITE_THROATED_BEE_EATER_5.jpg,2.0,1.0,3.0,3.0,3.0,2.0,A3QPVH0DRW0ZQV
3,2.0,1.0,2.096,0.0,3.0,3.0,3.0,1.0,ASIAN_CRESTED_IBIS_4.jpg,CANARY_2.jpg,OYSTER_CATCHER_2.jpg,GREAT_JACAMAR_4.jpg,IVORY_GULL_2.jpg,2.0,1.0,3.0,1.0,2.0,3.0,A3QPVH0DRW0ZQV
4,3.0,1.0,1.554,0.0,4.0,4.0,4.0,1.0,PYGMY_KINGFISHER_5.jpg,GREAT_POTOO_3.jpg,GRANDALA_2.jpg,NORTHERN_PARULA_5.jpg,OYSTER_CATCHER_5.jpg,1.0,3.0,2.0,2.0,3.0,4.0,A3QPVH0DRW0ZQV
5,2.0,1.0,3.6461,0.0,5.0,5.0,5.0,1.0,left.png,left.png,up.png,right.png,left.png,,,,,2.0,5.0,A3QPVH0DRW0ZQV
6,2.0,1.0,3.2595,0.0,6.0,6.0,6.0,1.0,LITTLE_AUK_5.jpg,SANDHILL_CRANE_3.jpg,BEARDED_BELLBIRD_1.jpg,SCARLET_IBIS_1.jpg,ORANGE_BRESTED_BUNTING_3.jpg,3.0,1.0,2.0,1.0,2.0,6.0,A3QPVH0DRW0ZQV
7,2.0,1.0,0.6199,0.0,7.0,7.0,7.0,1.0,MYNA_1.jpg,PARADISE_TANAGER_3.jpg,SANDHILL_CRANE_4.jpg,INDIGO_BUNTING_2.jpg,GREY_PLOVER_4.jpg,1.0,3.0,2.0,3.0,2.0,7.0,A3QPVH0DRW0ZQV
8,1.0,1.0,0.954,0.0,8.0,8.0,8.0,1.0,EASTERN_TOWEE_2.jpg,SANDHILL_CRANE_2.jpg,BLUE_HERON_3.jpg,NORTHERN_BEARDLESS_TYRANNULET_5.jpg,HYACINTH_MACAW_4.jpg,1.0,3.0,2.0,1.0,1.0,8.0,A3QPVH0DRW0ZQV
9,2.0,1.0,0.8886,0.0,9.0,9.0,9.0,1.0,RED_FACED_WARBLER_1.jpg,BLACK_VENTED_SHEARWATER_4.jpg,CAPE_GLOSSY_STARLING_2.jpg,COMMON_LOON_4.jpg,EMU_5.jpg,3.0,2.0,1.0,2.0,2.0,9.0,A3QPVH0DRW0ZQV
10,2.0,1.0,11.815,0.0,0.0,0.0,0.0,1.0,CHUKAR_PARTRIDGE_5.jpg,OSTRICH_3.jpg,BLACK_THROATED_BUSHTIT_1.jpg,EMU_1.jpg,RAZORBILL_1.jpg,3.0,1.0,2.0,1.0,2.0,0.0,AWWBF2RVU8HNM
11,3.0,0.0,11.464,0.0,1.0,1.0,1.0,1.0,OCELLATED_TURKEY_1.jpg,PURPLE_SWAMPHEN_4.jpg,GLOSSY_IBIS_2.jpg,CHIPPING_SPARROW_1.jpg,LARK_BUNTING_1.jpg,3.0,1.0,2.0,3.0,1.0,1.0,AWWBF2RVU8HNM
12,1.0,0.0,8.356,0.0,2.0,2.0,2.0,1.0,BALI_STARLING_1.jpg,IBERIAN_MAGPIE_1.jpg,PURPLE_FINCH_2.jpg,GRANDALA_5.jpg,CAPE_LONGCLAW_5.jpg,2.0,3.0,1.0,3.0,2.0,2.0,AWWBF2RVU8HNM
13,3.0,1.0,5.601,0.0,3.0,3.0,3.0,1.0,left.png,left.png,left.png,up.png,right.png,,,,,3.0,3.0,AWWBF2RVU8HNM
14,2.0,1.0,3.849,0.0,4.0,4.0,4.0,1.0,NICOBAR_PIGEON_1.jpg,EASTERN_BLUEBIRD_3.jpg,MYNA_4.jpg,ROSY_FACED_LOVEBIRD_2.jpg,LITTLE_AUK_1.jpg,1.0,3.0,2.0,3.0,2.0,4.0,AWWBF2RVU8HNM
15,3.0,1.0,4.798,0.0,5.0,5.0,5.0,1.0,WHITE_CHEEKED_TURACO_5.jpg,SNOWY_EGRET_1.jpg,CHINESE_POND_HERON_1.jpg,PYGMY_KINGFISHER_2.jpg,ORIENTAL_BAY_OWL_5.jpg,1.0,3.0,2.0,2.0,3.0,5.0,AWWBF2RVU8HNM
16,1.0,1.0,3.932,0.0,6.0,6.0,6.0,1.0,SCARLET_TANAGER_2.jpg,CARMINE_BEE-EATER_1.jpg,BIRD_OF_PARADISE_3.jpg,LITTLE_AUK_3.jpg,BORNEAN_LEAFBIRD_1.jpg,1.0,2.0,3.0,1.0,1.0,6.0,AWWBF2RVU8HNM
17,3.0,1.0,3.604,0.0,7.0,7.0,7.0,1.0,PARUS_MAJOR_1.jpg,CALIFORNIA_GULL_2.jpg,COMMON_POORWILL_1.jpg,PINK_ROBIN_3.jpg,BLACK_SWAN_4.jpg,1.0,3.0,2.0,2.0,3.0,7.0,AWWBF2RVU8HNM
18,2.0,1.0,4.347,0.0,8.0,8.0,8.0,1.0,EUROPEAN_TURTLE_DOVE_3.jpg,PAINTED_BUNTING_3.jpg,MALABAR_HORNBILL_2.jpg,CAPE_GLOSSY_STARLING_1.jpg,TEAL_DUCK_2.jpg,3.0,2.0,1.0,2.0,2.0,8.0,AWWBF2RVU8HNM
19,2.0,1.0,1.683,0.0,9.0,9.0,9.0,1.0,RUBY_THROATED_HUMMINGBIRD_3.jpg,WHITE_CHEEKED_TURACO_4.jpg,MYNA_5.jpg,MALABAR_HORNBILL_5.jpg,NORTHERN_SHOVELER_1.jpg,2.0,1.0,3.0,1.0,2.0,9.0,AWWBF2RVU8HNM
20,2.0,1.0,20.2998,0.0,0.0,0.0,0.0,1.0,LITTLE_AUK_5.jpg,ORANGE_BRESTED_BUNTING_3.jpg,SANDHILL_CRANE_3.jpg,LILAC_ROLLER_5.jpg,BEARDED_BELLBIRD_1.jpg,1.0,2.0,3.0,2.0,2.0,0.0,A2OL5U1YWPFBDI
21,1.0,0.0,6.547,0.0,1.0,1.0,1.0,1.0,MYNA_1.jpg,PARADISE_TANAGER_3.jpg,GREY_PLOVER_4.jpg,SANDHILL_CRANE_4.jpg,INDIGO_BUNTING_2.jpg,2.0,1.0,3.0,3.0,3.0,1.0,A2OL5U1YWPFBDI
22,2.0,1.0,8.303,0.0,2.0,2.0,2.0,1.0,MCKAYS_BUNTING_3.jpg,IWI_2.jpg,AMERICAN_GOLDFINCH_4.jpg,PAINTED_BUNTING_1.jpg,EMU_4.jpg,3.0,2.0,1.0,2.0,2.0,2.0,A2OL5U1YWPFBDI
23,3.0,1.0,5.1986,0.0,3.0,3.0,3.0,1.0,OCELLATED_TURKEY_1.jpg,PURPLE_SWAMPHEN_4.jpg,LARK_BUNTING_1.jpg,CHIPPING_SPARROW_1.jpg,GLOSSY_IBIS_2.jpg,2.0,1.0,3.0,3.0,3.0,3.0,A2OL5U1YWPFBDI
24,3.0,0.0,6.4546,0.0,4.0,4.0,4.0,1.0,right.png,right.png,left.png,up.png,right.png,,,,,1.0,4.0,A2OL5U1YWPFBDI
25,1.0,1.0,10.5112,0.0,5.0,5.0,5.0,1.0,SCARLET_TANAGER_2.jpg,CARMINE_BEE-EATER_1.jpg,BIRD_OF_PARADISE_3.jpg,LITTLE_AUK_3.jpg,BORNEAN_LEAFBIRD_1.jpg,1.0,2.0,3.0,1.0,1.0,5.0,A2OL5U1YWPFBDI
26,3.0,1.0,9.9203,0.0,6.0,6.0,6.0,1.0,KAGU_5.jpg,EASTERN_MEADOWLARK_1.jpg,ASHY_STORM_PETREL_1.jpg,IMPERIAL_SHAQ_2.jpg,BANANAQUIT_2.jpg,2.0,3.0,1.0,1.0,3.0,6.0,A2OL5U1YWPFBDI
27,3.0,1.0,8.2734,0.0,7.0,7.0,7.0,1.0,INLAND_DOTTEREL_4.jpg,JANDAYA_PARAKEET_5.jpg,NICOBAR_PIGEON_4.jpg,CRESTED_KINGFISHER_1.jpg,CALIFORNIA_CONDOR_4.jpg,2.0,3.0,1.0,1.0,3.0,7.0,A2OL5U1YWPFBDI
28,1.0,1.0,4.2803,0.0,8.0,8.0,8.0,1.0,ECUADORIAN_HILLSTAR_5.jpg,BOBOLINK_5.jpg,CASSOWARY_2.jpg,CRIMSON_SUNBIRD_5.jpg,SCARLET_IBIS_2.jpg,2.0,3.0,1.0,2.0,1.0,8.0,A2OL5U1YWPFBDI
29,3.0,1.0,3.8564,0.0,9.0,9.0,9.0,1.0,PYGMY_KINGFISHER_5.jpg,NORTHERN_PARULA_5.jpg,GRANDALA_2.jpg,GREAT_POTOO_3.jpg,BLUE_THROATED_TOUCANET_3.jpg,1.0,2.0,3.0,3.0,3.0,9.0,A2OL5U1YWPFBDI
30,3.0,1.0,5.8554,0.0,0.0,0.0,0.0,1.0,RUBY_THROATED_HUMMINGBIRD_2.jpg,APAPANE_4.jpg,DUSKY_ROBIN_5.jpg,GOLDEN_PARAKEET_2.jpg,SCARLET_MACAW_3.jpg,3.0,1.0,2.0,2.0,3.0,0.0,A19FEU28J4WZ1Z
31,1.0,1.0,3.5514,0.0,1.0,1.0,1.0,1.0,GREY_PLOVER_1.jpg,GOULDIAN_FINCH_4.jpg,BORNEAN_LEAFBIRD_2.jpg,AMETHYST_WOODSTAR_4.jpg,HYACINTH_MACAW_3.jpg,2.0,3.0,1.0,2.0,1.0,1.0,A19FEU28J4WZ1Z
32,3.0,1.0,3.2039,0.0,2.0,2.0,2.0,1.0,left.png,left.png,up.png,left.png,right.png,,,,,3.0,2.0,A19FEU28J4WZ1Z
33,3.0,1.0,3.9697,0.0,3.0,3.0,3.0,1.0,INDIGO_BUNTING_1.jpg,DARWINS_FLYCATCHER_2.jpg,FRIGATE_4.jpg,SNOWY_PLOVER_1.jpg,BALTIMORE_ORIOLE_4.jpg,1.0,2.0,3.0,3.0,3.0,3.0,A19FEU28J4WZ1Z
34,1.0,1.0,5.7836,0.0,4.0,4.0,4.0,1.0,ASIAN_DOLLARD_BIRD_2.jpg,ALBATROSS_2.jpg,OSTRICH_1.jpg,HAWAIIAN_GOOSE_1.jpg,VIOLET_GREEN_SWALLOW_4.jpg,1.0,2.0,3.0,1.0,1.0,4.0,A19FEU28J4WZ1Z
35,2.0,1.0,3.4459,0.0,5.0,5.0,5.0,1.0,ASIAN_CRESTED_IBIS_4.jpg,IVORY_GULL_2.jpg,CANARY_2.jpg,CASPIAN_TERN_4.jpg,OYSTER_CATCHER_2.jpg,1.0,3.0,2.0,3.0,2.0,5.0,A19FEU28J4WZ1Z
36,2.0,1.0,8.4153,0.0,6.0,6.0,6.0,1.0,MCKAYS_BUNTING_3.jpg,IWI_2.jpg,AMERICAN_GOLDFINCH_4.jpg,PAINTED_BUNTING_1.jpg,EMU_4.jpg,3.0,2.0,1.0,2.0,2.0,6.0,A19FEU28J4WZ1Z
37,3.0,1.0,6.0212,0.0,7.0,7.0,7.0,1.0,IVORY_GULL_3.jpg,INDIGO_FLYCATCHER_2.jpg,FLAME_TANAGER_3.jpg,SNOWY_EGRET_4.jpg,BUSH_TURKEY_1.jpg,2.0,3.0,1.0,1.0,3.0,7.0,A19FEU28J4WZ1Z
38,3.0,1.0,2.3317,0.0,8.0,8.0,8.0,1.0,AFRICAN_PIED_HORNBILL_5.jpg,KIWI_4.jpg,CAPUCHINBIRD_2.jpg,ALEXANDRINE_PARAKEET_1.jpg,BORNEAN_PHEASANT_4.jpg,3.0,2.0,1.0,1.0,3.0,8.0,A19FEU28J4WZ1Z
39,2.0,1.0,1.7678,0.0,9.0,9.0,9.0,1.0,NORTHERN_GANNET_2.jpg,MASKED_BOOBY_5.jpg,STRAWBERRY_FINCH_1.jpg,HOODED_MERGANSER_4.jpg,PAINTED_BUNTING_5.jpg,2.0,3.0,1.0,3.0,2.0,9.0,A19FEU28J4WZ1Z
40,3.0,1.0,37.6406,0.0,0.0,0.0,0.0,1.0,SPLENDID_WREN_1.jpg,PARAKETT__AKULET_3.jpg,DOUBLE_BRESTED_CORMARANT_1.jpg,CUBAN_TODY_4.jpg,BLACK_SWAN_1.jpg,2.0,3.0,1.0,1.0,3.0,0.0,ADNZW2B8WEZ0Z
41,2.0,1.0,9.9434,0.0,1.0,1.0,1.0,1.0,DOUBLE_BRESTED_CORMARANT_5.jpg,GILDED_FLICKER_2.jpg,EURASIAN_MAGPIE_4.jpg,SNOWY_OWL_3.jpg,CHINESE_POND_HERON_2.jpg,2.0,1.0,3.0,1.0,2.0,1.0,ADNZW2B8WEZ0Z
42,3.0,1.0,13.6896,0.0,2.0,2.0,2.0,1.0,ARARIPE_MANAKIN_4.jpg,BORNEAN_LEAFBIRD_3.jpg,KIWI_3.jpg,BLACK_VULTURE_1.jpg,GUINEA_TURACO_3.jpg,1.0,2.0,3.0,3.0,3.0,2.0,ADNZW2B8WEZ0Z
43,1.0,1.0,13.6814,0.0,3.0,3.0,3.0,1.0,NICOBAR_PIGEON_1.jpg,LITTLE_AUK_1.jpg,GREY_PLOVER_5.jpg,EASTERN_BLUEBIRD_3.jpg,MYNA_4.jpg,2.0,3.0,1.0,2.0,1.0,3.0,ADNZW2B8WEZ0Z
44,3.0,1.0,16.1222,0.0,4.0,4.0,4.0,1.0,left.png,left.png,left.png,up.png,right.png,,,,,3.0,4.0,ADNZW2B8WEZ0Z
45,3.0,1.0,13.1218,0.0,5.0,5.0,5.0,1.0,INCA_TERN_4.jpg,BORNEAN_BRISTLEHEAD_5.jpg,SMITHS_LONGSPUR_5.jpg,ELLIOTS__PHEASANT_4.jpg,WHITE_NECKED_RAVEN_4.jpg,2.0,1.0,3.0,3.0,3.0,5.0,ADNZW2B8WEZ0Z
46,3.0,1.0,3.6425,0.0,6.0,6.0,6.0,1.0,ASIAN_DOLLARD_BIRD_2.jpg,VIOLET_GREEN_SWALLOW_4.jpg,ALBATROSS_2.jpg,HAWAIIAN_GOOSE_1.jpg,VERMILION_FLYCATHER_1.jpg,1.0,2.0,3.0,3.0,3.0,6.0,ADNZW2B8WEZ0Z
47,3.0,1.0,5.3029,0.0,7.0,7.0,7.0,1.0,RUBY_THROATED_HUMMINGBIRD_2.jpg,APAPANE_4.jpg,DUSKY_ROBIN_5.jpg,GOLDEN_PARAKEET_2.jpg,SCARLET_MACAW_3.jpg,3.0,1.0,2.0,2.0,3.0,7.0,ADNZW2B8WEZ0Z
48,1.0,1.0,4.1112,0.0,8.0,8.0,8.0,1.0,GREY_PLOVER_1.jpg,HYACINTH_MACAW_3.jpg,TURKEY_VULTURE_1.jpg,AMETHYST_WOODSTAR_4.jpg,GOULDIAN_FINCH_4.jpg,1.0,3.0,2.0,1.0,1.0,8.0,ADNZW2B8WEZ0Z
49,3.0,1.0,6.9708,0.0,9.0,9.0,9.0,1.0,KAGU_5.jpg,ASHY_STORM_PETREL_1.jpg,EASTERN_MEADOWLARK_1.jpg,IMPERIAL_SHAQ_2.jpg,MANDRIN_DUCK_4.jpg,1.0,3.0,2.0,2.0,3.0,9.0,ADNZW2B8WEZ0Z
50,1.0,0.0,8.687,0.0,0.0,0.0,0.0,1.0,LITTLE_AUK_5.jpg,BEARDED_BELLBIRD_1.jpg,SANDHILL_CRANE_3.jpg,ORANGE_BRESTED_BUNTING_3.jpg,DOWNY_WOODPECKER_1.jpg,1.0,2.0,3.0,3.0,3.0,0.0,A2RE8G7FOGBR3W
51,2.0,1.0,4.157,0.0,1.0,1.0,1.0,1.0,PYGMY_KINGFISHER_5.jpg,GREAT_POTOO_3.jpg,GRANDALA_2.jpg,OYSTER_CATCHER_5.jpg,NORTHERN_PARULA_5.jpg,1.0,2.0,3.0,2.0,2.0,1.0,A2RE8G7FOGBR3W
52,2.0,0.0,15.877,0.0,2.0,2.0,2.0,1.0,BARRED_PUFFBIRD_3.jpg,VEERY_4.jpg,RED_TAILED_THRUSH_2.jpg,NORTHERN_CARDINAL_5.jpg,WHITE_CHEEKED_TURACO_2.jpg,3.0,2.0,1.0,3.0,1.0,2.0,A2RE8G7FOGBR3W
53,2.0,0.0,11.834,0.0,3.0,3.0,3.0,1.0,STRIPPED_SWALLOW_1.jpg,EMPEROR_PENGUIN_5.jpg,BRANDT_CORMARANT_3.jpg,MAGPIE_GOOSE_4.jpg,GO_AWAY_BIRD_5.jpg,1.0,2.0,3.0,1.0,1.0,3.0,A2RE8G7FOGBR3W
54,1.0,0.0,6.194,0.0,4.0,4.0,4.0,1.0,VERMILION_FLYCATHER_3.jpg,CROWNED_PIGEON_1.jpg,INDIAN_BUSTARD_1.jpg,RED_BEARDED_BEE_EATER_1.jpg,LITTLE_AUK_4.jpg,1.0,3.0,2.0,2.0,3.0,4.0,A2RE8G7FOGBR3W
55,2.0,0.0,4.119,0.0,5.0,5.0,5.0,1.0,IVORY_GULL_1.jpg,WILSONS_BIRD_OF_PARADISE_4.jpg,OCELLATED_TURKEY_2.jpg,FAIRY_TERN_4.jpg,EASTERN_GOLDEN_WEAVER_5.jpg,1.0,3.0,2.0,1.0,1.0,5.0,A2RE8G7FOGBR3W
56,1.0,0.0,4.501,0.0,6.0,6.0,6.0,1.0,right.png,right.png,right.png,up.png,left.png,,,,,3.0,6.0,A2RE8G7FOGBR3W
57,2.0,0.0,16.915,0.0,7.0,7.0,7.0,1.0,NORTHERN_GANNET_2.jpg,STRAWBERRY_FINCH_1.jpg,PAINTED_BUNTING_5.jpg,MASKED_BOOBY_5.jpg,VENEZUELIAN_TROUPIAL_1.jpg,1.0,3.0,2.0,2.0,3.0,7.0,A2RE8G7FOGBR3W
58,3.0,1.0,29.379,0.0,8.0,8.0,8.0,1.0,WHITE_CHEEKED_TURACO_5.jpg,PYGMY_KINGFISHER_2.jpg,SNOWY_EGRET_1.jpg,CHINESE_POND_HERON_1.jpg,MALAGASY_WHITE_EYE_5.jpg,2.0,1.0,3.0,3.0,3.0,8.0,A2RE8G7FOGBR3W
59,2.0,0.0,3.019,0.0,9.0,9.0,9.0,1.0,PINK_ROBIN_4.jpg,SPOONBILL_3.jpg,ALBATROSS_4.jpg,COMMON_IORA_4.jpg,BEARDED_BARBET_2.jpg,2.0,3.0,1.0,1.0,3.0,9.0,A2RE8G7FOGBR3W
60,1.0,1.0,4.522,0.0,0.0,0.0,0.0,1.0,INLAND_DOTTEREL_4.jpg,JANDAYA_PARAKEET_5.jpg,CALIFORNIA_CONDOR_4.jpg,CRESTED_KINGFISHER_1.jpg,NICOBAR_PIGEON_4.jpg,1.0,3.0,2.0,1.0,1.0,0.0,A2NQWW9Y3ZVGU0
61,2.0,1.0,1.664,0.0,1.0,1.0,1.0,1.0,NORTHERN_JACANA_2.jpg,VULTURINE_GUINEAFOWL_5.jpg,GREEN_BROADBILL_1.jpg,CRAB_PLOVER_3.jpg,RED_FACED_CORMORANT_1.jpg,1.0,2.0,3.0,2.0,2.0,1.0,A2NQWW9Y3ZVGU0
62,3.0,1.0,2.242,0.0,2.0,2.0,2.0,1.0,LESSER_ADJUTANT_5.jpg,RED_HEADED_WOODPECKER_1.jpg,AMERICAN_GOLDFINCH_1.jpg,GAMBELS_QUAIL_1.jpg,CASPIAN_TERN_2.jpg,1.0,2.0,3.0,3.0,3.0,2.0,A2NQWW9Y3ZVGU0
63,3.0,1.0,3.014,0.0,3.0,3.0,3.0,1.0,GOLDEN_CHEEKED_WARBLER_2.jpg,SPOONBILL_1.jpg,AMERICAN_FLAMINGO_3.jpg,WHITE_THROATED_BEE_EATER_1.jpg,RED_HEADED_DUCK_3.jpg,2.0,3.0,1.0,1.0,3.0,3.0,A2NQWW9Y3ZVGU0
64,1.0,1.0,4.212,0.0,4.0,4.0,4.0,1.0,SCARLET_TANAGER_2.jpg,BORNEAN_LEAFBIRD_1.jpg,BLONDE_CRESTED_WOODPECKER_3.jpg,CARMINE_BEE-EATER_1.jpg,LITTLE_AUK_3.jpg,3.0,1.0,2.0,3.0,1.0,4.0,A2NQWW9Y3ZVGU0
65,2.0,1.0,2.861,0.0,5.0,5.0,5.0,1.0,CASPIAN_TERN_1.jpg,BRANDT_CORMARANT_4.jpg,COMMON_LOON_2.jpg,COMMON_POORWILL_4.jpg,EUROPEAN_GOLDFINCH_4.jpg,3.0,1.0,2.0,1.0,2.0,5.0,A2NQWW9Y3ZVGU0
66,1.0,1.0,3.955,0.0,6.0,6.0,6.0,1.0,right.png,right.png,left.png,up.png,right.png,,,,,1.0,6.0,A2NQWW9Y3ZVGU0
67,2.0,1.0,1.846,0.0,7.0,7.0,7.0,1.0,AFRICAN_PIED_HORNBILL_5.jpg,ALEXANDRINE_PARAKEET_1.jpg,CAPUCHINBIRD_2.jpg,INDIAN_PITTA_2.jpg,KIWI_4.jpg,3.0,2.0,1.0,2.0,2.0,7.0,A2NQWW9Y3ZVGU0
68,1.0,1.0,1.615,0.0,8.0,8.0,8.0,1.0,CERULEAN_WARBLER_1.jpg,AMERICAN_FLAMINGO_5.jpg,COCK_OF_THE__ROCK_2.jpg,BANANAQUIT_1.jpg,ORIENTAL_BAY_OWL_1.jpg,2.0,3.0,1.0,2.0,1.0,8.0,A2NQWW9Y3ZVGU0
69,2.0,1.0,1.451,0.0,9.0,9.0,9.0,1.0,DOUBLE_BRESTED_CORMARANT_5.jpg,CHINESE_POND_HERON_2.jpg,EURASIAN_MAGPIE_4.jpg,ANHINGA_5.jpg,GILDED_FLICKER_2.jpg,2.0,3.0,1.0,3.0,2.0,9.0,A2NQWW9Y3ZVGU0
70,3.0,0.0,22.849,0.0,0.0,0.0,0.0,1.0,ECUADORIAN_HILLSTAR_5.jpg,CRIMSON_SUNBIRD_5.jpg,SCARLET_IBIS_2.jpg,GREEN_BROADBILL_4.jpg,BOBOLINK_5.jpg,1.0,3.0,2.0,3.0,2.0,0.0,AQJXTRKPX3NSB
71,1.0,0.0,5.423,0.0,1.0,1.0,1.0,1.0,PINK_ROBIN_4.jpg,ALBATROSS_4.jpg,SPOONBILL_3.jpg,COMMON_IORA_4.jpg,JACK_SNIPE_5.jpg,1.0,3.0,2.0,2.0,3.0,1.0,AQJXTRKPX3NSB
72,2.0,1.0,9.3537,0.0,2.0,2.0,2.0,1.0,CRESTED_CARACARA_4.jpg,TOUCHAN_4.jpg,FAIRY_PENGUIN_5.jpg,CREAM_COLORED_WOODPECKER_1.jpg,BLUE_DACNIS_4.jpg,1.0,3.0,2.0,3.0,2.0,2.0,AQJXTRKPX3NSB
73,1.0,0.0,2.6467,0.0,3.0,3.0,3.0,1.0,ALPINE_CHOUGH_4.jpg,EUROPEAN_GOLDFINCH_3.jpg,BOBOLINK_3.jpg,HOUSE_FINCH_2.jpg,SNOWY_EGRET_2.jpg,3.0,2.0,1.0,2.0,2.0,3.0,AQJXTRKPX3NSB
74,2.0,1.0,2.6464,0.0,4.0,4.0,4.0,1.0,PARUS_MAJOR_1.jpg,COMMON_POORWILL_1.jpg,CALIFORNIA_GULL_2.jpg,OSTRICH_4.jpg,PINK_ROBIN_3.jpg,2.0,1.0,3.0,1.0,2.0,4.0,AQJXTRKPX3NSB
75,3.0,1.0,0.8867,0.0,5.0,5.0,5.0,1.0,IVORY_GULL_1.jpg,FAIRY_TERN_4.jpg,EASTERN_GOLDEN_WEAVER_5.jpg,WILSONS_BIRD_OF_PARADISE_4.jpg,BANDED_STILT_4.jpg,2.0,1.0,3.0,3.0,3.0,5.0,AQJXTRKPX3NSB
76,1.0,0.0,1.7166,0.0,6.0,6.0,6.0,1.0,OCELLATED_TURKEY_1.jpg,CHIPPING_SPARROW_1.jpg,PURPLE_SWAMPHEN_4.jpg,KAKAPO_4.jpg,LARK_BUNTING_1.jpg,3.0,1.0,2.0,1.0,2.0,6.0,AQJXTRKPX3NSB
77,2.0,0.0,0.8613,0.0,7.0,7.0,7.0,1.0,left.png,left.png,right.png,up.png,left.png,,,,,1.0,7.0,AQJXTRKPX3NSB
78,1.0,1.0,0.8053,0.0,8.0,8.0,8.0,1.0,GREY_PLOVER_1.jpg,HYACINTH_MACAW_3.jpg,TURKEY_VULTURE_1.jpg,AMETHYST_WOODSTAR_4.jpg,GOULDIAN_FINCH_4.jpg,1.0,3.0,2.0,1.0,1.0,8.0,AQJXTRKPX3NSB
79,2.0,0.0,0.5895,0.0,9.0,9.0,9.0,1.0,INDIGO_BUNTING_1.jpg,SNOWY_PLOVER_1.jpg,SKUA_2.jpg,FRIGATE_4.jpg,DARWINS_FLYCATCHER_2.jpg,2.0,1.0,3.0,2.0,1.0,9.0,AQJXTRKPX3NSB
80,1.0,0.0,3.0455,0.0,0.0,0.0,0.0,1.0,SCARLET_TANAGER_2.jpg,BORNEAN_LEAFBIRD_1.jpg,CARMINE_BEE-EATER_1.jpg,BLONDE_CRESTED_WOODPECKER_3.jpg,LITTLE_AUK_3.jpg,1.0,3.0,2.0,3.0,2.0,0.0,AG9LMLEPXP2YC
81,1.0,0.0,5.5117,0.0,1.0,1.0,1.0,1.0,RED_HEADED_WOODPECKER_5.jpg,GREAT_GRAY_OWL_5.jpg,CRIMSON_CHAT_3.jpg,COLLARED_ARACARI_1.jpg,KIWI_1.jpg,2.0,3.0,1.0,1.0,3.0,1.0,AG9LMLEPXP2YC
82,1.0,1.0,1.0482,0.0,2.0,2.0,2.0,1.0,PYGMY_KINGFISHER_5.jpg,GRANDALA_2.jpg,MIKADO__PHEASANT_5.jpg,NORTHERN_PARULA_5.jpg,GREAT_POTOO_3.jpg,1.0,3.0,2.0,1.0,1.0,2.0,AG9LMLEPXP2YC
83,2.0,1.0,1.7536,0.0,3.0,3.0,3.0,1.0,IVORY_GULL_3.jpg,SNOWY_EGRET_4.jpg,INDIGO_FLYCATCHER_2.jpg,FAN_TAILED_WIDOW_1.jpg,FLAME_TANAGER_3.jpg,1.0,3.0,2.0,3.0,2.0,3.0,AG9LMLEPXP2YC
84,2.0,0.0,1.629,0.0,4.0,4.0,4.0,1.0,GREY_PLOVER_1.jpg,GOULDIAN_FINCH_4.jpg,BORNEAN_LEAFBIRD_2.jpg,AMETHYST_WOODSTAR_4.jpg,HYACINTH_MACAW_3.jpg,2.0,3.0,1.0,2.0,1.0,4.0,AG9LMLEPXP2YC
85,2.0,0.0,2.8974,0.0,5.0,5.0,5.0,1.0,right.png,right.png,up.png,right.png,left.png,,,,,3.0,5.0,AG9LMLEPXP2YC
86,2.0,0.0,7.609,0.0,6.0,6.0,6.0,1.0,NORTHERN_GANNET_2.jpg,PAINTED_BUNTING_5.jpg,EASTERN_TOWEE_1.jpg,STRAWBERRY_FINCH_1.jpg,MASKED_BOOBY_5.jpg,1.0,2.0,3.0,1.0,1.0,6.0,AG9LMLEPXP2YC
87,2.0,0.0,4.8718,0.0,7.0,7.0,7.0,1.0,OCELLATED_TURKEY_1.jpg,LARK_BUNTING_1.jpg,PURPLE_SWAMPHEN_4.jpg,CHIPPING_SPARROW_1.jpg,AMERICAN_KESTREL_2.jpg,3.0,1.0,2.0,2.0,3.0,7.0,AG9LMLEPXP2YC
88,2.0,1.0,1.108,0.0,8.0,8.0,8.0,1.0,CASPIAN_TERN_1.jpg,EUROPEAN_GOLDFINCH_4.jpg,COMMON_LOON_2.jpg,AMERICAN_GOLDFINCH_3.jpg,BRANDT_CORMARANT_4.jpg,3.0,2.0,1.0,2.0,2.0,8.0,AG9LMLEPXP2YC
89,3.0,1.0,2.9507,0.0,9.0,9.0,9.0,1.0,ASIAN_DOLLARD_BIRD_2.jpg,VIOLET_GREEN_SWALLOW_4.jpg,ALBATROSS_2.jpg,HAWAIIAN_GOOSE_1.jpg,VERMILION_FLYCATHER_1.jpg,1.0,2.0,3.0,3.0,3.0,9.0,AG9LMLEPXP2YC
90,2.0,1.0,10.3005,0.0,0.0,0.0,0.0,1.0,PEACOCK_3.jpg,STRAWBERRY_FINCH_4.jpg,ANIANIAU_2.jpg,RED_FODY_5.jpg,IBERIAN_MAGPIE_2.jpg,1.0,2.0,3.0,2.0,2.0,0.0,AN7Z42U38BCQT
91,1.0,1.0,5.9962,0.0,1.0,1.0,1.0,1.0,NORTHERN_GANNET_2.jpg,MASKED_BOOBY_5.jpg,HOODED_MERGANSER_4.jpg,STRAWBERRY_FINCH_1.jpg,PAINTED_BUNTING_5.jpg,3.0,2.0,1.0,3.0,1.0,1.0,AN7Z42U38BCQT
92,2.0,1.0,6.6532,0.0,2.0,2.0,2.0,1.0,GYRFALCON_1.jpg,ASHY_STORM_PETREL_2.jpg,FAIRY_TERN_1.jpg,GREY_PLOVER_3.jpg,CINNAMON_ATTILA_2.jpg,3.0,1.0,2.0,1.0,2.0,2.0,AN7Z42U38BCQT
93,2.0,0.0,3.8052,0.0,3.0,3.0,3.0,1.0,RUFOUS_KINGFISHER_1.jpg,BLACK_VENTED_SHEARWATER_2.jpg,BANDED_STILT_3.jpg,MAGPIE_GOOSE_3.jpg,HORNED_SUNGEM_4.jpg,1.0,2.0,3.0,1.0,1.0,3.0,AN7Z42U38BCQT
94,3.0,1.0,3.9715,0.0,4.0,4.0,4.0,1.0,left.png,left.png,up.png,left.png,right.png,,,,,3.0,4.0,AN7Z42U38BCQT
95,2.0,1.0,4.0768,0.0,5.0,5.0,5.0,1.0,CRESTED_CARACARA_4.jpg,FAIRY_PENGUIN_5.jpg,BLUE_DACNIS_4.jpg,CRAB_PLOVER_5.jpg,TOUCHAN_4.jpg,2.0,1.0,3.0,1.0,2.0,5.0,AN7Z42U38BCQT
96,2.0,1.0,3.6408,0.0,6.0,6.0,6.0,1.0,MCKAYS_BUNTING_3.jpg,IWI_2.jpg,AMERICAN_GOLDFINCH_4.jpg,PAINTED_BUNTING_1.jpg,EMU_4.jpg,3.0,2.0,1.0,2.0,2.0,6.0,AN7Z42U38BCQT
97,2.0,1.0,1.4501,0.0,7.0,7.0,7.0,1.0,GOLDEN_CHLOROPHONIA_5.jpg,VERMILION_FLYCATHER_5.jpg,COMMON_HOUSE_MARTIN_4.jpg,DARWINS_FLYCATCHER_3.jpg,ROADRUNNER_2.jpg,2.0,3.0,1.0,3.0,2.0,7.0,AN7Z42U38BCQT
98,2.0,1.0,1.4332,0.0,8.0,8.0,8.0,1.0,RED_HEADED_WOODPECKER_5.jpg,COLLARED_ARACARI_1.jpg,GREAT_GRAY_OWL_5.jpg,BLACKBURNIAM_WARBLER_4.jpg,CRIMSON_CHAT_3.jpg,1.0,3.0,2.0,3.0,2.0,8.0,AN7Z42U38BCQT
99,3.0,1.0,2.1322,0.0,9.0,9.0,9.0,1.0,EASTERN_TOWEE_2.jpg,HYACINTH_MACAW_4.jpg,NORTHERN_BEARDLESS_TYRANNULET_5.jpg,SANDHILL_CRANE_2.jpg,ANDEAN_GOOSE_3.jpg,3.0,1.0,2.0,2.0,3.0,9.0,AN7Z42U38BCQT
100,2.0,0.0,3.541,0.0,0.0,0.0,0.0,1.0,ECUADORIAN_HILLSTAR_5.jpg,SCARLET_IBIS_2.jpg,CRIMSON_SUNBIRD_5.jpg,BOBOLINK_5.jpg,AMERICAN_FLAMINGO_1.jpg,3.0,2.0,1.0,1.0,3.0,0.0,A2KDZLWD8RAHDM
101,2.0,0.0,3.519,0.0,1.0,1.0,1.0,1.0,ALPINE_CHOUGH_4.jpg,BOBOLINK_3.jpg,UMBRELLA_BIRD_1.jpg,SNOWY_EGRET_2.jpg,EUROPEAN_GOLDFINCH_3.jpg,3.0,1.0,2.0,3.0,1.0,1.0,A2KDZLWD8RAHDM
102,1.0,0.0,1.924,0.0,2.0,2.0,2.0,1.0,KILLDEAR_2.jpg,CAATINGA_CACHOLOTE_4.jpg,AZURE_TIT_5.jpg,ALEXANDRINE_PARAKEET_5.jpg,CHATTERING_LORY_1.jpg,3.0,1.0,2.0,2.0,3.0,2.0,A2KDZLWD8RAHDM
103,2.0,1.0,1.714,0.0,3.0,3.0,3.0,1.0,HAWAIIAN_GOOSE_4.jpg,WATTLED_LAPWING_3.jpg,RED_BEARDED_BEE_EATER_3.jpg,BROWN_NOODY_5.jpg,HIMALAYAN_MONAL_2.jpg,1.0,3.0,2.0,3.0,2.0,3.0,A2KDZLWD8RAHDM
104,2.0,0.0,1.573,0.0,4.0,4.0,4.0,1.0,LARK_BUNTING_2.jpg,KING_VULTURE_3.jpg,CHARA_DE_COLLAR_4.jpg,CACTUS_WREN_3.jpg,EMU_3.jpg,2.0,3.0,1.0,2.0,1.0,4.0,A2KDZLWD8RAHDM
105,3.0,1.0,1.824,0.0,5.0,5.0,5.0,1.0,right.png,right.png,up.png,right.png,left.png,,,,,3.0,5.0,A2KDZLWD8RAHDM
106,1.0,1.0,2.252,0.0,6.0,6.0,6.0,1.0,BROWN_THRASHER_3.jpg,DOUBLE_EYED_FIG_PARROT_3.jpg,RED_BEARDED_BEE_EATER_4.jpg,BLACK_BAZA_4.jpg,OYSTER_CATCHER_4.jpg,1.0,3.0,2.0,1.0,1.0,6.0,A2KDZLWD8RAHDM
107,1.0,1.0,1.896,0.0,7.0,7.0,7.0,1.0,PYGMY_KINGFISHER_5.jpg,GRANDALA_2.jpg,MIKADO__PHEASANT_5.jpg,GREAT_POTOO_3.jpg,NORTHERN_PARULA_5.jpg,1.0,2.0,3.0,1.0,1.0,7.0,A2KDZLWD8RAHDM
108,1.0,1.0,1.728,0.0,8.0,8.0,8.0,1.0,BARRED_PUFFBIRD_3.jpg,VEERY_4.jpg,RED_TAILED_THRUSH_2.jpg,NORTHERN_CARDINAL_5.jpg,WHITE_CHEEKED_TURACO_2.jpg,3.0,2.0,1.0,3.0,1.0,8.0,A2KDZLWD8RAHDM
109,1.0,1.0,1.743,0.0,9.0,9.0,9.0,1.0,ARARIPE_MANAKIN_4.jpg,BLACK_VULTURE_1.jpg,UMBRELLA_BIRD_5.jpg,BORNEAN_LEAFBIRD_3.jpg,KIWI_3.jpg,2.0,3.0,1.0,2.0,1.0,9.0,A2KDZLWD8RAHDM
110,2.0,0.0,3.7377,0.0,0.0,0.0,0.0,1.0,TREE_SWALLOW_4.jpg,RED_FODY_3.jpg,RED_HEADED_DUCK_5.jpg,ROBIN_3.jpg,BORNEAN_LEAFBIRD_4.jpg,1.0,2.0,3.0,3.0,3.0,0.0,A10JXOU89D5RXR
111,2.0,1.0,6.311,0.0,1.0,1.0,1.0,1.0,GILA_WOODPECKER_3.jpg,SNOWY_OWL_4.jpg,BLACK_SWAN_3.jpg,ALEXANDRINE_PARAKEET_2.jpg,BLACK_VULTURE_3.jpg,1.0,2.0,3.0,2.0,2.0,1.0,A10JXOU89D5RXR
112,2.0,0.0,3.5691,0.0,2.0,2.0,2.0,1.0,INDIGO_BUNTING_1.jpg,FRIGATE_4.jpg,DARWINS_FLYCATCHER_2.jpg,SNOWY_PLOVER_1.jpg,POMARINE_JAEGER_5.jpg,3.0,2.0,1.0,1.0,3.0,2.0,A10JXOU89D5RXR
113,3.0,0.0,3.4678,0.0,3.0,3.0,3.0,1.0,GRAY_KINGBIRD_5.jpg,COCK_OF_THE__ROCK_4.jpg,BALD_EAGLE_2.jpg,BLACK_SWAN_5.jpg,AFRICAN_FIREFINCH_3.jpg,1.0,2.0,3.0,2.0,2.0,3.0,A10JXOU89D5RXR
114,1.0,1.0,2.3818,0.0,4.0,4.0,4.0,1.0,left.png,left.png,right.png,left.png,up.png,,,,,1.0,4.0,A10JXOU89D5RXR
115,3.0,1.0,2.4061,0.0,5.0,5.0,5.0,1.0,LARK_BUNTING_2.jpg,KING_VULTURE_3.jpg,EMU_3.jpg,CACTUS_WREN_3.jpg,CHARA_DE_COLLAR_4.jpg,1.0,3.0,2.0,2.0,3.0,5.0,A10JXOU89D5RXR
116,1.0,1.0,2.9777,0.0,6.0,6.0,6.0,1.0,RUFOUS_KINGFISHER_1.jpg,BLACK_VENTED_SHEARWATER_2.jpg,BANDED_STILT_3.jpg,HORNED_SUNGEM_4.jpg,MAGPIE_GOOSE_3.jpg,1.0,3.0,2.0,1.0,1.0,6.0,A10JXOU89D5RXR
117,2.0,1.0,3.1229,0.0,7.0,7.0,7.0,1.0,VERMILION_FLYCATHER_3.jpg,RED_BEARDED_BEE_EATER_1.jpg,CROWNED_PIGEON_1.jpg,PARADISE_TANAGER_4.jpg,INDIAN_BUSTARD_1.jpg,2.0,3.0,1.0,3.0,2.0,7.0,A10JXOU89D5RXR
118,1.0,1.0,2.4181,0.0,8.0,8.0,8.0,1.0,OVENBIRD_5.jpg,PURPLE_FINCH_5.jpg,GILDED_FLICKER_1.jpg,FAIRY_PENGUIN_1.jpg,JABIRU_4.jpg,3.0,2.0,1.0,3.0,1.0,8.0,A10JXOU89D5RXR
119,3.0,1.0,4.3567,0.0,9.0,9.0,9.0,1.0,SPLENDID_WREN_1.jpg,PARAKETT__AKULET_3.jpg,DOUBLE_BRESTED_CORMARANT_1.jpg,CUBAN_TODY_4.jpg,BLACK_SWAN_1.jpg,2.0,3.0,1.0,1.0,3.0,9.0,A10JXOU89D5RXR
120,3.0,1.0,7.5533,0.0,0.0,0.0,0.0,1.0,PINK_ROBIN_4.jpg,COMMON_IORA_4.jpg,SPOONBILL_3.jpg,ALBATROSS_4.jpg,GREEN_MAGPIE_3.jpg,1.0,2.0,3.0,3.0,3.0,0.0,A1G50D7L1GGZRU
121,2.0,1.0,7.2302,0.0,1.0,1.0,1.0,1.0,IVORY_GULL_3.jpg,SNOWY_EGRET_4.jpg,INDIGO_FLYCATCHER_2.jpg,FAN_TAILED_WIDOW_1.jpg,FLAME_TANAGER_3.jpg,1.0,3.0,2.0,3.0,2.0,1.0,A1G50D7L1GGZRU
122,1.0,1.0,6.5761,0.0,2.0,2.0,2.0,1.0,left.png,left.png,right.png,left.png,up.png,,,,,1.0,2.0,A1G50D7L1GGZRU
123,1.0,0.0,8.7732,0.0,3.0,3.0,3.0,1.0,RUBY_THROATED_HUMMINGBIRD_3.jpg,MYNA_5.jpg,NORTHERN_SHOVELER_1.jpg,GOLDEN_EAGLE_2.jpg,WHITE_CHEEKED_TURACO_4.jpg,3.0,2.0,1.0,2.0,2.0,3.0,A1G50D7L1GGZRU
124,1.0,0.0,5.1619,0.0,4.0,4.0,4.0,1.0,LESSER_ADJUTANT_4.jpg,ALTAMIRA_YELLOWTHROAT_5.jpg,FAIRY_TERN_3.jpg,RAINBOW_LORIKEET_5.jpg,DOUBLE_EYED_FIG_PARROT_4.jpg,3.0,2.0,1.0,1.0,3.0,4.0,A1G50D7L1GGZRU
125,1.0,0.0,3.3754,0.0,5.0,5.0,5.0,1.0,BARRED_PUFFBIRD_3.jpg,NORTHERN_CARDINAL_5.jpg,VEERY_4.jpg,CAPPED_HERON_5.jpg,WHITE_CHEEKED_TURACO_2.jpg,3.0,2.0,1.0,2.0,2.0,5.0,A1G50D7L1GGZRU
126,1.0,0.0,5.384,0.0,6.0,6.0,6.0,1.0,NORTHERN_GANNET_2.jpg,PAINTED_BUNTING_5.jpg,MASKED_BOOBY_5.jpg,EASTERN_TOWEE_1.jpg,STRAWBERRY_FINCH_1.jpg,3.0,1.0,2.0,1.0,2.0,6.0,A1G50D7L1GGZRU
127,2.0,1.0,2.5645,0.0,7.0,7.0,7.0,1.0,OCELLATED_TURKEY_1.jpg,LARK_BUNTING_1.jpg,CHIPPING_SPARROW_1.jpg,AMERICAN_KESTREL_2.jpg,PURPLE_SWAMPHEN_4.jpg,1.0,2.0,3.0,2.0,2.0,7.0,A1G50D7L1GGZRU
128,2.0,0.0,3.0456,0.0,8.0,8.0,8.0,1.0,FLAME_BOWERBIRD_3.jpg,INDIAN_BUSTARD_2.jpg,SPOON_BILED_SANDPIPER_5.jpg,BROWN_THRASHER_4.jpg,QUETZAL_3.jpg,1.0,2.0,3.0,1.0,1.0,8.0,A1G50D7L1GGZRU
129,3.0,0.0,5.745,0.0,9.0,9.0,9.0,1.0,GYRFALCON_1.jpg,FAIRY_TERN_1.jpg,YELLOW_HEADED_BLACKBIRD_3.jpg,ASHY_STORM_PETREL_2.jpg,CINNAMON_ATTILA_2.jpg,3.0,1.0,2.0,3.0,1.0,9.0,A1G50D7L1GGZRU
130,2.0,1.0,9.3596,0.0,0.0,0.0,0.0,1.0,AMERICAN_PIPIT_5.jpg,GREEN_MAGPIE_1.jpg,HEPATIC_TANAGER_5.jpg,LOGGERHEAD_SHRIKE_4.jpg,EMU_2.jpg,3.0,2.0,1.0,2.0,2.0,0.0,A11W7YCD50IGHD
131,1.0,1.0,1.937599999,0.0,1.0,1.0,1.0,1.0,SPLENDID_WREN_1.jpg,DOUBLE_BRESTED_CORMARANT_1.jpg,BLACK_SWAN_2.jpg,CUBAN_TODY_4.jpg,PARAKETT__AKULET_3.jpg,2.0,3.0,1.0,2.0,1.0,1.0,A11W7YCD50IGHD
132,3.0,1.0,2.2061,0.0,2.0,2.0,2.0,1.0,KILLDEAR_2.jpg,CAATINGA_CACHOLOTE_4.jpg,AZURE_TIT_5.jpg,ALEXANDRINE_PARAKEET_5.jpg,CHATTERING_LORY_1.jpg,3.0,1.0,2.0,2.0,3.0,2.0,A11W7YCD50IGHD
133,3.0,1.0,1.703,0.0,3.0,3.0,3.0,1.0,LESSER_ADJUTANT_4.jpg,FAIRY_TERN_3.jpg,ALTAMIRA_YELLOWTHROAT_5.jpg,RAINBOW_LORIKEET_5.jpg,CRAB_PLOVER_4.jpg,1.0,2.0,3.0,3.0,3.0,3.0,A11W7YCD50IGHD
134,3.0,1.0,3.0943,0.0,4.0,4.0,4.0,1.0,GOLDEN_CHEEKED_WARBLER_2.jpg,SPOONBILL_1.jpg,AMERICAN_FLAMINGO_3.jpg,WHITE_THROATED_BEE_EATER_1.jpg,RED_HEADED_DUCK_3.jpg,2.0,3.0,1.0,1.0,3.0,4.0,A11W7YCD50IGHD
135,1.0,1.0,4.506099999,0.0,5.0,5.0,5.0,1.0,CRESTED_NUTHATCH_2.jpg,CANARY_1.jpg,VERMILION_FLYCATHER_4.jpg,AFRICAN_FIREFINCH_1.jpg,SCARLET_IBIS_3.jpg,3.0,2.0,1.0,3.0,1.0,5.0,A11W7YCD50IGHD
136,1.0,1.0,10.2748,0.0,6.0,6.0,6.0,1.0,GRAY_KINGBIRD_5.jpg,BALD_EAGLE_2.jpg,PEACOCK_1.jpg,AFRICAN_FIREFINCH_3.jpg,COCK_OF_THE__ROCK_4.jpg,1.0,3.0,2.0,1.0,1.0,6.0,A11W7YCD50IGHD
137,1.0,1.0,1.3085,0.0,7.0,7.0,7.0,1.0,HAWAIIAN_GOOSE_4.jpg,WATTLED_LAPWING_3.jpg,BROWN_NOODY_5.jpg,HIMALAYAN_MONAL_2.jpg,RED_BEARDED_BEE_EATER_3.jpg,3.0,2.0,1.0,3.0,1.0,7.0,A11W7YCD50IGHD
138,3.0,1.0,2.123900001,0.0,8.0,8.0,8.0,1.0,SKUA_4.jpg,SNOWY_EGRET_5.jpg,ROADRUNNER_5.jpg,PARUS_MAJOR_2.jpg,BLACK-NECKED_GREBE_3.jpg,3.0,2.0,1.0,1.0,3.0,8.0,A11W7YCD50IGHD
139,3.0,1.0,2.3035,0.0,9.0,9.0,9.0,1.0,left.png,left.png,left.png,up.png,right.png,,,,,3.0,9.0,A11W7YCD50IGHD
140,1.0,1.0,3.7405,0.0,0.0,0.0,0.0,1.0,RUFOUS_KINGFISHER_1.jpg,BLACK_VENTED_SHEARWATER_2.jpg,BANDED_STILT_3.jpg,HORNED_SUNGEM_4.jpg,MAGPIE_GOOSE_3.jpg,1.0,3.0,2.0,1.0,1.0,0.0,A18TJQ1OFMV8H2
141,1.0,1.0,2.1897,0.0,1.0,1.0,1.0,1.0,LESSER_ADJUTANT_5.jpg,RED_HEADED_WOODPECKER_1.jpg,CASPIAN_TERN_2.jpg,GAMBELS_QUAIL_1.jpg,AMERICAN_GOLDFINCH_1.jpg,3.0,2.0,1.0,3.0,1.0,1.0,A18TJQ1OFMV8H2
142,2.0,1.0,1.6256,0.0,2.0,2.0,2.0,1.0,PARUS_MAJOR_1.jpg,COMMON_POORWILL_1.jpg,CALIFORNIA_GULL_2.jpg,OSTRICH_4.jpg,PINK_ROBIN_3.jpg,2.0,1.0,3.0,1.0,2.0,2.0,A18TJQ1OFMV8H2
143,2.0,1.0,1.2313,0.0,3.0,3.0,3.0,1.0,GYRFALCON_1.jpg,FAIRY_TERN_1.jpg,CINNAMON_ATTILA_2.jpg,YELLOW_HEADED_BLACKBIRD_3.jpg,ASHY_STORM_PETREL_2.jpg,2.0,3.0,1.0,3.0,2.0,3.0,A18TJQ1OFMV8H2
144,3.0,1.0,0.9975,0.0,4.0,4.0,4.0,1.0,RUBY_THROATED_HUMMINGBIRD_2.jpg,APAPANE_4.jpg,GOLDEN_PARAKEET_2.jpg,DUSKY_ROBIN_5.jpg,SCARLET_MACAW_3.jpg,1.0,3.0,2.0,2.0,3.0,4.0,A18TJQ1OFMV8H2
145,3.0,1.0,2.2182,0.0,5.0,5.0,5.0,1.0,right.png,right.png,right.png,up.png,left.png,,,,,3.0,5.0,A18TJQ1OFMV8H2
146,3.0,1.0,1.7215,0.0,6.0,6.0,6.0,1.0,NORTHERN_JACANA_3.jpg,BANANAQUIT_3.jpg,BAR-TAILED_GODWIT_3.jpg,REGENT_BOWERBIRD_5.jpg,BEARDED_BELLBIRD_3.jpg,3.0,2.0,1.0,1.0,3.0,6.0,A18TJQ1OFMV8H2
147,1.0,1.0,1.7238,0.0,7.0,7.0,7.0,1.0,OVENBIRD_5.jpg,FAIRY_PENGUIN_1.jpg,ABBOTTS_BOOBY_2.jpg,PURPLE_FINCH_5.jpg,JABIRU_4.jpg,2.0,3.0,1.0,2.0,1.0,7.0,A18TJQ1OFMV8H2
148,1.0,1.0,1.2291,0.0,8.0,8.0,8.0,1.0,EUROPEAN_TURTLE_DOVE_3.jpg,PAINTED_BUNTING_3.jpg,CAPE_GLOSSY_STARLING_1.jpg,TEAL_DUCK_2.jpg,MALABAR_HORNBILL_2.jpg,2.0,1.0,3.0,2.0,1.0,8.0,A18TJQ1OFMV8H2
149,2.0,1.0,1.3988,0.0,9.0,9.0,9.0,1.0,TREE_SWALLOW_4.jpg,RED_FODY_3.jpg,ROBIN_3.jpg,BORNEAN_LEAFBIRD_4.jpg,RED_HEADED_DUCK_5.jpg,2.0,3.0,1.0,3.0,2.0,9.0,A18TJQ1OFMV8H2
150,3.0,1.0,4.1998,0.0,0.0,0.0,0.0,1.0,NORTHERN_JACANA_2.jpg,VULTURINE_GUINEAFOWL_5.jpg,RED_FACED_CORMORANT_1.jpg,GREEN_BROADBILL_1.jpg,CRAB_PLOVER_3.jpg,3.0,1.0,2.0,2.0,3.0,0.0,A5JUTCI1XLTTD
151,3.0,0.0,1.3555,0.0,1.0,1.0,1.0,1.0,HAWAIIAN_GOOSE_4.jpg,HIMALAYAN_MONAL_2.jpg,NORTHERN_GANNET_1.jpg,RED_BEARDED_BEE_EATER_3.jpg,WATTLED_LAPWING_3.jpg,2.0,1.0,3.0,2.0,1.0,1.0,A5JUTCI1XLTTD
152,2.0,1.0,1.1544,0.0,2.0,2.0,2.0,1.0,ASIAN_CRESTED_IBIS_4.jpg,IVORY_GULL_2.jpg,CANARY_2.jpg,CASPIAN_TERN_4.jpg,OYSTER_CATCHER_2.jpg,1.0,3.0,2.0,3.0,2.0,2.0,A5JUTCI1XLTTD
153,2.0,0.0,5.2001,0.0,3.0,3.0,3.0,1.0,CASSOWARY_1.jpg,ROSY_FACED_LOVEBIRD_4.jpg,CEDAR_WAXWING_4.jpg,SCARLET_MACAW_1.jpg,DEMOISELLE_CRANE_1.jpg,1.0,2.0,3.0,1.0,1.0,3.0,A5JUTCI1XLTTD
154,1.0,0.0,2.6682,0.0,4.0,4.0,4.0,1.0,FLAME_BOWERBIRD_3.jpg,INDIAN_BUSTARD_2.jpg,QUETZAL_3.jpg,SPOON_BILED_SANDPIPER_5.jpg,BROWN_THRASHER_4.jpg,3.0,1.0,2.0,1.0,2.0,4.0,A5JUTCI1XLTTD
155,1.0,0.0,2.4009,0.0,5.0,5.0,5.0,1.0,PYGMY_KINGFISHER_5.jpg,GRANDALA_2.jpg,NORTHERN_PARULA_5.jpg,MIKADO__PHEASANT_5.jpg,GREAT_POTOO_3.jpg,3.0,1.0,2.0,1.0,2.0,5.0,A5JUTCI1XLTTD
156,1.0,0.0,1.8753,0.0,6.0,6.0,6.0,1.0,GOLDEN_CHEEKED_WARBLER_2.jpg,WHITE_THROATED_BEE_EATER_1.jpg,SPOONBILL_1.jpg,AMERICAN_FLAMINGO_3.jpg,DARJEELING_WOODPECKER_1.jpg,1.0,2.0,3.0,3.0,3.0,6.0,A5JUTCI1XLTTD
157,2.0,0.0,1.1702,0.0,7.0,7.0,7.0,1.0,VERMILION_FLYCATHER_3.jpg,CROWNED_PIGEON_1.jpg,LITTLE_AUK_4.jpg,RED_BEARDED_BEE_EATER_1.jpg,INDIAN_BUSTARD_1.jpg,2.0,3.0,1.0,2.0,1.0,7.0,A5JUTCI1XLTTD
158,3.0,0.0,1.0059,0.0,8.0,8.0,8.0,1.0,MYNA_1.jpg,PARADISE_TANAGER_3.jpg,SANDHILL_CRANE_4.jpg,INDIGO_BUNTING_2.jpg,GREY_PLOVER_4.jpg,1.0,3.0,2.0,3.0,2.0,8.0,A5JUTCI1XLTTD
159,3.0,1.0,2.3451,0.0,9.0,9.0,9.0,1.0,right.png,right.png,right.png,up.png,left.png,,,,,3.0,9.0,A5JUTCI1XLTTD
160,1.0,0.0,111.467,0.0,0.0,0.0,0.0,1.0,NORTHERN_JACANA_2.jpg,RED_FACED_CORMORANT_1.jpg,GREEN_BROADBILL_1.jpg,SCARLET_IBIS_4.jpg,VULTURINE_GUINEAFOWL_5.jpg,1.0,3.0,2.0,3.0,2.0,0.0,A3T14CFDA1ONP3
161,3.0,0.0,3.35,0.0,1.0,1.0,1.0,1.0,BROWN_NOODY_3.jpg,GUINEA_TURACO_5.jpg,UMBRELLA_BIRD_4.jpg,SPANGLED_COTINGA_4.jpg,KIWI_2.jpg,3.0,2.0,1.0,3.0,1.0,1.0,A3T14CFDA1ONP3
162,3.0,0.0,1.327,0.0,2.0,2.0,2.0,1.0,MYNA_1.jpg,SANDHILL_CRANE_4.jpg,OSTRICH_2.jpg,PARADISE_TANAGER_3.jpg,GREY_PLOVER_4.jpg,1.0,3.0,2.0,1.0,1.0,2.0,A3T14CFDA1ONP3
163,3.0,0.0,10.965,0.0,3.0,3.0,3.0,1.0,KAGU_5.jpg,ASHY_STORM_PETREL_1.jpg,EASTERN_MEADOWLARK_1.jpg,MANDRIN_DUCK_4.jpg,IMPERIAL_SHAQ_2.jpg,1.0,2.0,3.0,2.0,2.0,3.0,A3T14CFDA1ONP3
164,2.0,1.0,15.349,0.0,4.0,4.0,4.0,1.0,left.png,left.png,left.png,right.png,up.png,,,,,2.0,4.0,A3T14CFDA1ONP3
165,3.0,0.0,0.691,0.0,5.0,5.0,5.0,1.0,SKUA_4.jpg,PARUS_MAJOR_2.jpg,ROADRUNNER_5.jpg,PURPLE_FINCH_4.jpg,SNOWY_EGRET_5.jpg,3.0,2.0,1.0,2.0,2.0,5.0,A3T14CFDA1ONP3
166,1.0,0.0,10.774,0.0,6.0,6.0,6.0,1.0,MALACHITE_KINGFISHER_2.jpg,INCA_TERN_2.jpg,SKUA_3.jpg,GREEN_BROADBILL_5.jpg,COCKATOO_2.jpg,1.0,3.0,2.0,2.0,3.0,6.0,A3T14CFDA1ONP3
167,3.0,0.0,10.902,0.0,7.0,7.0,7.0,1.0,SPLENDID_WREN_1.jpg,CUBAN_TODY_4.jpg,CRESTED_KINGFISHER_4.jpg,DOUBLE_BRESTED_CORMARANT_1.jpg,PARAKETT__AKULET_3.jpg,3.0,2.0,1.0,3.0,1.0,7.0,A3T14CFDA1ONP3
168,2.0,0.0,8.23,0.0,8.0,8.0,8.0,1.0,LARK_BUNTING_2.jpg,EMU_3.jpg,KING_VULTURE_3.jpg,CACTUS_WREN_3.jpg,KING_VULTURE_5.jpg,2.0,3.0,1.0,1.0,3.0,8.0,A3T14CFDA1ONP3
169,2.0,0.0,9.03,0.0,9.0,9.0,9.0,1.0,BALI_STARLING_1.jpg,CAPE_LONGCLAW_5.jpg,IBERIAN_MAGPIE_1.jpg,PURPLE_FINCH_2.jpg,OSTRICH_5.jpg,3.0,2.0,1.0,1.0,3.0,9.0,A3T14CFDA1ONP3
170,3.0,1.0,25.187,0.0,0.0,0.0,0.0,1.0,CRESTED_CARACARA_4.jpg,FAIRY_PENGUIN_5.jpg,TOUCHAN_4.jpg,BLUE_DACNIS_4.jpg,CRAB_PLOVER_5.jpg,3.0,2.0,1.0,1.0,3.0,0.0,A1ZZ57VEX5B2OR
171,2.0,1.0,5.798,0.0,1.0,1.0,1.0,1.0,INDIGO_BUNTING_1.jpg,DARWINS_FLYCATCHER_2.jpg,FRIGATE_4.jpg,BALTIMORE_ORIOLE_4.jpg,SNOWY_PLOVER_1.jpg,1.0,3.0,2.0,3.0,2.0,1.0,A1ZZ57VEX5B2OR
172,1.0,1.0,13.283,0.0,2.0,2.0,2.0,1.0,CERULEAN_WARBLER_1.jpg,BANANAQUIT_1.jpg,CRESTED_OROPENDOLA_5.jpg,AMERICAN_FLAMINGO_5.jpg,ORIENTAL_BAY_OWL_1.jpg,3.0,2.0,1.0,3.0,1.0,2.0,A1ZZ57VEX5B2OR
173,2.0,1.0,9.33,0.0,3.0,3.0,3.0,1.0,INCA_TERN_4.jpg,SMITHS_LONGSPUR_5.jpg,ELLIOTS__PHEASANT_4.jpg,FASCIATED_WREN_4.jpg,BORNEAN_BRISTLEHEAD_5.jpg,1.0,2.0,3.0,2.0,2.0,3.0,A1ZZ57VEX5B2OR
174,2.0,1.0,11.011,0.0,4.0,4.0,4.0,1.0,RED_HEADED_WOODPECKER_5.jpg,CRIMSON_CHAT_3.jpg,GREAT_GRAY_OWL_5.jpg,DAURIAN_REDSTART_5.jpg,COLLARED_ARACARI_1.jpg,1.0,2.0,3.0,2.0,2.0,4.0,A1ZZ57VEX5B2OR
175,1.0,0.0,6.168,0.0,5.0,5.0,5.0,1.0,left.png,left.png,left.png,up.png,right.png,,,,,3.0,5.0,A1ZZ57VEX5B2OR
176,1.0,1.0,4.678,0.0,6.0,6.0,6.0,1.0,SPLENDID_WREN_1.jpg,CUBAN_TODY_4.jpg,CRESTED_KINGFISHER_4.jpg,DOUBLE_BRESTED_CORMARANT_1.jpg,PARAKETT__AKULET_3.jpg,3.0,2.0,1.0,3.0,1.0,6.0,A1ZZ57VEX5B2OR
177,1.0,0.0,4.638,0.0,7.0,7.0,7.0,1.0,GYRFALCON_1.jpg,ASHY_STORM_PETREL_2.jpg,FAIRY_TERN_1.jpg,GREY_PLOVER_3.jpg,CINNAMON_ATTILA_2.jpg,3.0,1.0,2.0,1.0,2.0,7.0,A1ZZ57VEX5B2OR
178,3.0,0.0,11.563,0.0,8.0,8.0,8.0,1.0,SCARLET_TANAGER_2.jpg,CARMINE_BEE-EATER_1.jpg,LITTLE_AUK_3.jpg,BIRD_OF_PARADISE_3.jpg,BORNEAN_LEAFBIRD_1.jpg,2.0,1.0,3.0,1.0,2.0,8.0,A1ZZ57VEX5B2OR
179,1.0,0.0,11.28,0.0,9.0,9.0,9.0,1.0,ARARIPE_MANAKIN_4.jpg,BLACK_VULTURE_1.jpg,BORNEAN_LEAFBIRD_3.jpg,KIWI_3.jpg,UMBRELLA_BIRD_5.jpg,3.0,1.0,2.0,2.0,3.0,9.0,A1ZZ57VEX5B2OR
180,3.0,0.0,14.261,0.0,0.0,0.0,0.0,1.0,MALACHITE_KINGFISHER_2.jpg,GREEN_BROADBILL_5.jpg,JAVA_SPARROW_5.jpg,INCA_TERN_2.jpg,SKUA_3.jpg,3.0,2.0,1.0,3.0,1.0,0.0,A3QJ0LIK6SS3PG
181,2.0,1.0,9.622,0.0,1.0,1.0,1.0,1.0,ASIAN_CRESTED_IBIS_4.jpg,CANARY_2.jpg,IVORY_GULL_2.jpg,GREAT_JACAMAR_4.jpg,OYSTER_CATCHER_2.jpg,3.0,1.0,2.0,1.0,2.0,1.0,A3QJ0LIK6SS3PG
182,1.0,0.0,6.503,0.0,2.0,2.0,2.0,1.0,ALPINE_CHOUGH_4.jpg,BOBOLINK_3.jpg,EUROPEAN_GOLDFINCH_3.jpg,SNOWY_EGRET_2.jpg,UMBRELLA_BIRD_1.jpg,2.0,1.0,3.0,3.0,3.0,2.0,A3QJ0LIK6SS3PG
183,3.0,0.0,11.194,0.0,3.0,3.0,3.0,1.0,LARK_BUNTING_2.jpg,KING_VULTURE_3.jpg,CHARA_DE_COLLAR_4.jpg,EMU_3.jpg,CACTUS_WREN_3.jpg,2.0,1.0,3.0,2.0,1.0,3.0,A3QJ0LIK6SS3PG
184,1.0,1.0,24.326,0.0,4.0,4.0,4.0,1.0,RUFOUS_KINGFISHER_1.jpg,HORNED_SUNGEM_4.jpg,GREEN_JAY_4.jpg,BLACK_VENTED_SHEARWATER_2.jpg,MAGPIE_GOOSE_3.jpg,3.0,1.0,2.0,3.0,1.0,4.0,A3QJ0LIK6SS3PG
185,1.0,1.0,3.215,0.0,5.0,5.0,5.0,1.0,RUBY_THROATED_HUMMINGBIRD_1.jpg,EURASIAN_GOLDEN_ORIOLE_5.jpg,BROWN_THRASHER_1.jpg,VULTURINE_GUINEAFOWL_4.jpg,FRIGATE_1.jpg,1.0,2.0,3.0,1.0,1.0,5.0,A3QJ0LIK6SS3PG
186,3.0,0.0,39.638,0.0,6.0,6.0,6.0,1.0,RUBY_THROATED_HUMMINGBIRD_2.jpg,APAPANE_4.jpg,GOLDEN_PARAKEET_2.jpg,SCARLET_MACAW_3.jpg,DUSKY_ROBIN_5.jpg,1.0,2.0,3.0,2.0,2.0,6.0,A3QJ0LIK6SS3PG
187,1.0,0.0,16.774,0.0,7.0,7.0,7.0,1.0,right.png,right.png,right.png,left.png,up.png,,,,,2.0,7.0,A3QJ0LIK6SS3PG
188,2.0,1.0,26.178,0.0,8.0,8.0,8.0,1.0,WHITE_CHEEKED_TURACO_5.jpg,CHINESE_POND_HERON_1.jpg,PYGMY_KINGFISHER_2.jpg,CHARA_DE_COLLAR_2.jpg,SNOWY_EGRET_1.jpg,3.0,1.0,2.0,1.0,2.0,8.0,A3QJ0LIK6SS3PG
189,3.0,0.0,5.606,0.0,9.0,9.0,9.0,1.0,PYGMY_KINGFISHER_5.jpg,GREAT_POTOO_3.jpg,NORTHERN_PARULA_5.jpg,OYSTER_CATCHER_5.jpg,GRANDALA_2.jpg,3.0,2.0,1.0,2.0,2.0,9.0,A3QJ0LIK6SS3PG
190,2.0,1.0,9.0262,0.0,0.0,0.0,0.0,1.0,LARK_BUNTING_2.jpg,KING_VULTURE_3.jpg,EMU_3.jpg,CHARA_DE_COLLAR_4.jpg,CACTUS_WREN_3.jpg,1.0,2.0,3.0,2.0,2.0,0.0,A47T7R7B44WFH
191,3.0,0.0,10.6287,0.0,1.0,1.0,1.0,1.0,ARARIPE_MANAKIN_4.jpg,BLACK_VULTURE_1.jpg,KIWI_3.jpg,UMBRELLA_BIRD_5.jpg,BORNEAN_LEAFBIRD_3.jpg,1.0,2.0,3.0,2.0,2.0,1.0,A47T7R7B44WFH
192,2.0,0.0,5.2614,0.0,2.0,2.0,2.0,1.0,BALI_STARLING_1.jpg,CAPE_LONGCLAW_5.jpg,OSTRICH_5.jpg,PURPLE_FINCH_2.jpg,IBERIAN_MAGPIE_1.jpg,1.0,2.0,3.0,1.0,1.0,2.0,A47T7R7B44WFH
193,2.0,1.0,8.5885,0.0,3.0,3.0,3.0,1.0,SHOEBILL_3.jpg,BALD_EAGLE_5.jpg,MALAGASY_WHITE_EYE_3.jpg,BALD_IBIS_3.jpg,GILDED_FLICKER_5.jpg,1.0,3.0,2.0,3.0,2.0,3.0,A47T7R7B44WFH
194,1.0,0.0,6.0358,0.0,4.0,4.0,4.0,1.0,BARRED_PUFFBIRD_3.jpg,VEERY_4.jpg,WHITE_CHEEKED_TURACO_2.jpg,NORTHERN_CARDINAL_5.jpg,RED_TAILED_THRUSH_2.jpg,1.0,2.0,3.0,3.0,3.0,4.0,A47T7R7B44WFH
195,3.0,1.0,4.5304,0.0,5.0,5.0,5.0,1.0,BROWN_THRASHER_3.jpg,BLACK_BAZA_4.jpg,DOUBLE_EYED_FIG_PARROT_3.jpg,OYSTER_CATCHER_4.jpg,CRESTED_KINGFISHER_3.jpg,1.0,2.0,3.0,3.0,3.0,5.0,A47T7R7B44WFH
196,3.0,0.0,5.2006,0.0,6.0,6.0,6.0,1.0,left.png,left.png,up.png,right.png,left.png,,,,,2.0,6.0,A47T7R7B44WFH
197,1.0,0.0,5.3991,0.0,7.0,7.0,7.0,1.0,GREY_PLOVER_1.jpg,HYACINTH_MACAW_3.jpg,GOULDIAN_FINCH_4.jpg,AMETHYST_WOODSTAR_4.jpg,TURKEY_VULTURE_1.jpg,2.0,3.0,1.0,1.0,3.0,7.0,A47T7R7B44WFH
198,3.0,0.0,5.502299999,0.0,8.0,8.0,8.0,1.0,OVENBIRD_5.jpg,FAIRY_PENGUIN_1.jpg,JABIRU_4.jpg,ABBOTTS_BOOBY_2.jpg,PURPLE_FINCH_5.jpg,1.0,2.0,3.0,2.0,2.0,8.0,A47T7R7B44WFH
199,3.0,0.0,10.7738,0.0,9.0,9.0,9.0,1.0,KAGU_5.jpg,EASTERN_MEADOWLARK_1.jpg,IMPERIAL_SHAQ_2.jpg,BANANAQUIT_2.jpg,ASHY_STORM_PETREL_1.jpg,3.0,1.0,2.0,1.0,2.0,9.0,A47T7R7B44WFH
200,2.0,1.0,3.1452,0.0,0.0,0.0,0.0,1.0,NORTHERN_JACANA_2.jpg,RED_FACED_CORMORANT_1.jpg,VULTURINE_GUINEAFOWL_5.jpg,SCARLET_IBIS_4.jpg,GREEN_BROADBILL_1.jpg,2.0,3.0,1.0,3.0,2.0,0.0,AJT7C07A187KA
201,1.0,1.0,1.1319,0.0,1.0,1.0,1.0,1.0,AMERICAN_PIPIT_5.jpg,HEPATIC_TANAGER_5.jpg,AMERICAN_GOLDFINCH_5.jpg,GREEN_MAGPIE_1.jpg,EMU_2.jpg,3.0,2.0,1.0,3.0,1.0,1.0,AJT7C07A187KA
202,1.0,1.0,1.2266,0.0,2.0,2.0,2.0,1.0,SHOEBILL_3.jpg,BALD_EAGLE_5.jpg,BALD_IBIS_3.jpg,MALAGASY_WHITE_EYE_3.jpg,GILDED_FLICKER_5.jpg,3.0,1.0,2.0,3.0,1.0,2.0,AJT7C07A187KA
203,1.0,1.0,1.3858,0.0,3.0,3.0,3.0,1.0,NORTHERN_JACANA_3.jpg,BANANAQUIT_3.jpg,BEARDED_BELLBIRD_3.jpg,REGENT_BOWERBIRD_5.jpg,BAR-TAILED_GODWIT_3.jpg,1.0,2.0,3.0,1.0,1.0,3.0,AJT7C07A187KA
204,3.0,1.0,2.6636,0.0,4.0,4.0,4.0,1.0,left.png,left.png,up.png,left.png,right.png,,,,,3.0,4.0,AJT7C07A187KA
205,2.0,1.0,1.5616,0.0,5.0,5.0,5.0,1.0,BARRED_PUFFBIRD_3.jpg,WHITE_CHEEKED_TURACO_2.jpg,VEERY_4.jpg,CUBAN_TODY_3.jpg,NORTHERN_CARDINAL_5.jpg,3.0,1.0,2.0,1.0,2.0,5.0,AJT7C07A187KA
206,2.0,1.0,1.2843,0.0,6.0,6.0,6.0,1.0,GRAY_KINGBIRD_5.jpg,COCK_OF_THE__ROCK_4.jpg,AFRICAN_FIREFINCH_3.jpg,BLACK_SWAN_5.jpg,BALD_EAGLE_2.jpg,3.0,2.0,1.0,2.0,2.0,6.0,AJT7C07A187KA
207,2.0,1.0,1.0531,0.0,7.0,7.0,7.0,1.0,PINK_ROBIN_4.jpg,ALBATROSS_4.jpg,COMMON_IORA_4.jpg,JACK_SNIPE_5.jpg,SPOONBILL_3.jpg,3.0,2.0,1.0,2.0,2.0,7.0,AJT7C07A187KA
208,2.0,1.0,1.1388,0.0,8.0,8.0,8.0,1.0,CASSOWARY_1.jpg,SCARLET_MACAW_1.jpg,ROSY_FACED_LOVEBIRD_4.jpg,EASTERN_ROSELLA_2.jpg,DEMOISELLE_CRANE_1.jpg,1.0,2.0,3.0,2.0,2.0,8.0,AJT7C07A187KA
209,3.0,1.0,1.1215,0.0,9.0,9.0,9.0,1.0,ASIAN_DOLLARD_BIRD_2.jpg,ALBATROSS_2.jpg,VIOLET_GREEN_SWALLOW_4.jpg,HAWAIIAN_GOOSE_1.jpg,OSTRICH_1.jpg,3.0,2.0,1.0,1.0,3.0,9.0,AJT7C07A187KA
210,2.0,1.0,4.5531,0.0,0.0,0.0,0.0,1.0,CRESTED_NUTHATCH_2.jpg,CANARY_1.jpg,AFRICAN_FIREFINCH_1.jpg,VERMILION_FLYCATHER_4.jpg,SCARLET_IBIS_3.jpg,2.0,3.0,1.0,3.0,2.0,0.0,A8B41DKV45LO7
211,1.0,1.0,0.8246,0.0,1.0,1.0,1.0,1.0,EUROPEAN_TURTLE_DOVE_3.jpg,PAINTED_BUNTING_3.jpg,CAPE_GLOSSY_STARLING_1.jpg,MALABAR_HORNBILL_2.jpg,TEAL_DUCK_2.jpg,2.0,3.0,1.0,2.0,1.0,1.0,A8B41DKV45LO7
212,3.0,0.0,1.3717,0.0,2.0,2.0,2.0,1.0,ASIAN_CRESTED_IBIS_4.jpg,OYSTER_CATCHER_2.jpg,AMERICAN_KESTREL_1.jpg,IVORY_GULL_2.jpg,CANARY_2.jpg,2.0,3.0,1.0,2.0,1.0,2.0,A8B41DKV45LO7
213,2.0,0.0,0.6831,0.0,3.0,3.0,3.0,1.0,left.png,left.png,left.png,up.png,right.png,,,,,3.0,3.0,A8B41DKV45LO7
214,1.0,0.0,0.7935,0.0,4.0,4.0,4.0,1.0,DOUBLE_BRESTED_CORMARANT_5.jpg,GILDED_FLICKER_2.jpg,CHINESE_POND_HERON_2.jpg,EURASIAN_MAGPIE_4.jpg,SNOWY_OWL_3.jpg,3.0,2.0,1.0,1.0,3.0,4.0,A8B41DKV45LO7
215,2.0,0.0,0.7997,0.0,5.0,5.0,5.0,1.0,TREE_SWALLOW_4.jpg,ROBIN_3.jpg,CALIFORNIA_GULL_1.jpg,RED_HEADED_DUCK_5.jpg,RED_FODY_3.jpg,2.0,1.0,3.0,2.0,1.0,5.0,A8B41DKV45LO7
216,2.0,0.0,0.8474,0.0,6.0,6.0,6.0,1.0,OVENBIRD_5.jpg,PURPLE_FINCH_5.jpg,FAIRY_PENGUIN_1.jpg,JABIRU_4.jpg,GILDED_FLICKER_1.jpg,2.0,1.0,3.0,3.0,3.0,6.0,A8B41DKV45LO7
217,1.0,0.0,0.8629,0.0,7.0,7.0,7.0,1.0,GOLDEN_CHLOROPHONIA_5.jpg,ROADRUNNER_2.jpg,VERMILION_FLYCATHER_5.jpg,WHIMBREL_1.jpg,COMMON_HOUSE_MARTIN_4.jpg,3.0,1.0,2.0,1.0,2.0,7.0,A8B41DKV45LO7
218,3.0,0.0,0.8396,0.0,8.0,8.0,8.0,1.0,RED_FACED_WARBLER_1.jpg,EMU_5.jpg,SPOONBILL_4.jpg,CAPE_GLOSSY_STARLING_2.jpg,BLACK_VENTED_SHEARWATER_4.jpg,1.0,3.0,2.0,1.0,1.0,8.0,A8B41DKV45LO7
219,2.0,1.0,0.7673,0.0,9.0,9.0,9.0,1.0,INLAND_DOTTEREL_4.jpg,CRESTED_KINGFISHER_1.jpg,NICOBAR_PIGEON_4.jpg,ANNAS_HUMMINGBIRD_2.jpg,JANDAYA_PARAKEET_5.jpg,2.0,3.0,1.0,3.0,2.0,9.0,A8B41DKV45LO7
220,1.0,1.0,6.386,0.0,0.0,0.0,0.0,1.0,MYNA_1.jpg,SANDHILL_CRANE_4.jpg,OSTRICH_2.jpg,PARADISE_TANAGER_3.jpg,GREY_PLOVER_4.jpg,1.0,3.0,2.0,1.0,1.0,0.0,A2WDF40FA670T9
221,1.0,1.0,6.619,0.0,1.0,1.0,1.0,1.0,MALACHITE_KINGFISHER_2.jpg,INCA_TERN_2.jpg,COCKATOO_2.jpg,GREEN_BROADBILL_5.jpg,SKUA_3.jpg,2.0,3.0,1.0,2.0,1.0,1.0,A2WDF40FA670T9
222,1.0,1.0,6.357,0.0,2.0,2.0,2.0,1.0,GRAY_KINGBIRD_5.jpg,AFRICAN_FIREFINCH_3.jpg,EVENING_GROSBEAK_4.jpg,BALD_EAGLE_2.jpg,COCK_OF_THE__ROCK_4.jpg,3.0,1.0,2.0,3.0,1.0,2.0,A2WDF40FA670T9
223,2.0,1.0,5.348,0.0,3.0,3.0,3.0,1.0,GILA_WOODPECKER_3.jpg,SNOWY_OWL_4.jpg,BLACK_SWAN_3.jpg,ALEXANDRINE_PARAKEET_2.jpg,BLACK_VULTURE_3.jpg,1.0,2.0,3.0,2.0,2.0,3.0,A2WDF40FA670T9
224,1.0,1.0,3.096,0.0,4.0,4.0,4.0,1.0,CERULEAN_WARBLER_1.jpg,BANANAQUIT_1.jpg,CRESTED_OROPENDOLA_5.jpg,AMERICAN_FLAMINGO_5.jpg,ORIENTAL_BAY_OWL_1.jpg,3.0,2.0,1.0,3.0,1.0,4.0,A2WDF40FA670T9
225,1.0,1.0,2.622,0.0,5.0,5.0,5.0,1.0,left.png,left.png,right.png,up.png,left.png,,,,,1.0,5.0,A2WDF40FA670T9
226,2.0,1.0,5.015,0.0,6.0,6.0,6.0,1.0,LESSER_ADJUTANT_4.jpg,RAINBOW_LORIKEET_5.jpg,FAIRY_TERN_3.jpg,CHATTERING_LORY_2.jpg,ALTAMIRA_YELLOWTHROAT_5.jpg,3.0,2.0,1.0,2.0,2.0,6.0,A2WDF40FA670T9
227,2.0,1.0,2.186,0.0,7.0,7.0,7.0,1.0,SKUA_4.jpg,SNOWY_EGRET_5.jpg,PARUS_MAJOR_2.jpg,BLACK-NECKED_GREBE_3.jpg,ROADRUNNER_5.jpg,2.0,1.0,3.0,1.0,2.0,7.0,A2WDF40FA670T9
228,3.0,1.0,3.918,0.0,8.0,8.0,8.0,1.0,BARRED_PUFFBIRD_3.jpg,VEERY_4.jpg,WHITE_CHEEKED_TURACO_2.jpg,NORTHERN_CARDINAL_5.jpg,RED_TAILED_THRUSH_2.jpg,1.0,2.0,3.0,3.0,3.0,8.0,A2WDF40FA670T9
229,3.0,1.0,4.668,0.0,9.0,9.0,9.0,1.0,LARK_BUNTING_2.jpg,EMU_3.jpg,KING_VULTURE_3.jpg,CACTUS_WREN_3.jpg,KING_VULTURE_5.jpg,2.0,3.0,1.0,1.0,3.0,9.0,A2WDF40FA670T9
230,1.0,1.0,5.1461,0.0,0.0,0.0,0.0,1.0,MYNA_1.jpg,PARADISE_TANAGER_3.jpg,INDIGO_BUNTING_2.jpg,GREY_PLOVER_4.jpg,SANDHILL_CRANE_4.jpg,3.0,2.0,1.0,3.0,1.0,0.0,A28RL79ONUXTET
231,2.0,0.0,5.2176,0.0,1.0,1.0,1.0,1.0,RUBY_THROATED_HUMMINGBIRD_2.jpg,GOLDEN_PARAKEET_2.jpg,GREEN_JAY_2.jpg,APAPANE_4.jpg,DUSKY_ROBIN_5.jpg,1.0,2.0,3.0,1.0,1.0,1.0,A28RL79ONUXTET
232,3.0,1.0,6.5287,0.0,2.0,2.0,2.0,1.0,ALPINE_CHOUGH_4.jpg,SNOWY_EGRET_2.jpg,EUROPEAN_GOLDFINCH_3.jpg,BOBOLINK_3.jpg,AMERICAN_FLAMINGO_2.jpg,2.0,3.0,1.0,1.0,3.0,2.0,A28RL79ONUXTET
233,3.0,0.0,4.0199,0.0,3.0,3.0,3.0,1.0,RUFOUS_KINGFISHER_1.jpg,MAGPIE_GOOSE_3.jpg,COCKATOO_5.jpg,BLACK_VENTED_SHEARWATER_2.jpg,HORNED_SUNGEM_4.jpg,2.0,1.0,3.0,2.0,1.0,3.0,A28RL79ONUXTET
234,2.0,0.0,3.1041,0.0,4.0,4.0,4.0,1.0,PYGMY_KINGFISHER_5.jpg,GREAT_POTOO_3.jpg,GRANDALA_2.jpg,NORTHERN_PARULA_5.jpg,OYSTER_CATCHER_5.jpg,1.0,3.0,2.0,2.0,3.0,4.0,A28RL79ONUXTET
235,3.0,1.0,5.4739,0.0,5.0,5.0,5.0,1.0,CHUKAR_PARTRIDGE_5.jpg,BLACK_THROATED_BUSHTIT_1.jpg,RAZORBILL_1.jpg,OSTRICH_3.jpg,PUFFIN_3.jpg,2.0,1.0,3.0,3.0,3.0,5.0,A28RL79ONUXTET
236,2.0,1.0,2.7477,0.0,6.0,6.0,6.0,1.0,left.png,left.png,up.png,right.png,left.png,,,,,2.0,6.0,A28RL79ONUXTET
237,3.0,1.0,2.5989,0.0,7.0,7.0,7.0,1.0,RUBY_THROATED_HUMMINGBIRD_1.jpg,FRIGATE_1.jpg,VULTURINE_GUINEAFOWL_4.jpg,EURASIAN_GOLDEN_ORIOLE_5.jpg,NORTHERN_CARDINAL_1.jpg,2.0,1.0,3.0,3.0,3.0,7.0,A28RL79ONUXTET
238,2.0,0.0,1.9472,0.0,8.0,8.0,8.0,1.0,PARUS_MAJOR_1.jpg,COMMON_POORWILL_1.jpg,CALIFORNIA_GULL_2.jpg,PINK_ROBIN_3.jpg,OSTRICH_4.jpg,2.0,3.0,1.0,1.0,3.0,8.0,A28RL79ONUXTET
239,2.0,1.0,2.1464,0.0,9.0,9.0,9.0,1.0,RED_HEADED_WOODPECKER_5.jpg,CRIMSON_CHAT_3.jpg,COLLARED_ARACARI_1.jpg,DAURIAN_REDSTART_5.jpg,GREAT_GRAY_OWL_5.jpg,3.0,2.0,1.0,2.0,2.0,9.0,A28RL79ONUXTET
240,1.0,1.0,10.992,0.0,0.0,0.0,0.0,1.0,SKUA_4.jpg,PARUS_MAJOR_2.jpg,PURPLE_FINCH_4.jpg,ROADRUNNER_5.jpg,SNOWY_EGRET_5.jpg,2.0,3.0,1.0,2.0,1.0,0.0,A2CTQGFM7ZWNYY
241,1.0,1.0,12.215,0.0,1.0,1.0,1.0,1.0,GOLDEN_CHEEKED_WARBLER_2.jpg,WHITE_THROATED_BEE_EATER_1.jpg,DARJEELING_WOODPECKER_1.jpg,SPOONBILL_1.jpg,AMERICAN_FLAMINGO_3.jpg,3.0,1.0,2.0,3.0,1.0,1.0,A2CTQGFM7ZWNYY
242,3.0,1.0,11.602,0.0,2.0,2.0,2.0,1.0,HAWAIIAN_GOOSE_4.jpg,WATTLED_LAPWING_3.jpg,HIMALAYAN_MONAL_2.jpg,RED_BEARDED_BEE_EATER_3.jpg,BROWN_NOODY_5.jpg,2.0,1.0,3.0,3.0,3.0,2.0,A2CTQGFM7ZWNYY
243,1.0,1.0,7.244,0.0,3.0,3.0,3.0,1.0,NORTHERN_JACANA_2.jpg,GREEN_BROADBILL_1.jpg,EMERALD_TANAGER_2.jpg,RED_FACED_CORMORANT_1.jpg,VULTURINE_GUINEAFOWL_5.jpg,1.0,3.0,2.0,1.0,1.0,3.0,A2CTQGFM7ZWNYY
244,1.0,1.0,2.846,0.0,4.0,4.0,4.0,1.0,BARRED_PUFFBIRD_3.jpg,NORTHERN_CARDINAL_5.jpg,CAPPED_HERON_5.jpg,WHITE_CHEEKED_TURACO_2.jpg,VEERY_4.jpg,2.0,1.0,3.0,2.0,1.0,4.0,A2CTQGFM7ZWNYY
245,2.0,1.0,8.336,0.0,5.0,5.0,5.0,1.0,GRAY_KINGBIRD_5.jpg,AFRICAN_FIREFINCH_3.jpg,BALD_EAGLE_2.jpg,EVENING_GROSBEAK_4.jpg,COCK_OF_THE__ROCK_4.jpg,1.0,3.0,2.0,3.0,2.0,5.0,A2CTQGFM7ZWNYY
246,3.0,1.0,6.908,0.0,6.0,6.0,6.0,1.0,GYRFALCON_1.jpg,ASHY_STORM_PETREL_2.jpg,FAIRY_TERN_1.jpg,CINNAMON_ATTILA_2.jpg,GREY_PLOVER_3.jpg,3.0,2.0,1.0,1.0,3.0,6.0,A2CTQGFM7ZWNYY
247,3.0,1.0,14.438,0.0,7.0,7.0,7.0,1.0,left.png,left.png,left.png,up.png,right.png,,,,,3.0,7.0,A2CTQGFM7ZWNYY
248,1.0,1.0,10.746,0.0,8.0,8.0,8.0,1.0,RUFOUS_KINGFISHER_1.jpg,BLACK_VENTED_SHEARWATER_2.jpg,BANDED_STILT_3.jpg,MAGPIE_GOOSE_3.jpg,HORNED_SUNGEM_4.jpg,1.0,2.0,3.0,1.0,1.0,8.0,A2CTQGFM7ZWNYY
249,1.0,1.0,2.241,0.0,9.0,9.0,9.0,1.0,MAGPIE_GOOSE_5.jpg,HAMERKOP_1.jpg,LILAC_ROLLER_2.jpg,OYSTER_CATCHER_3.jpg,DOUBLE_EYED_FIG_PARROT_5.jpg,2.0,3.0,1.0,2.0,1.0,9.0,A2CTQGFM7ZWNYY
250,3.0,0.0,38.4485,0.0,0.0,0.0,0.0,1.0,INCA_TERN_4.jpg,ELLIOTS__PHEASANT_4.jpg,SMITHS_LONGSPUR_5.jpg,SNOWY_OWL_5.jpg,BORNEAN_BRISTLEHEAD_5.jpg,2.0,1.0,3.0,1.0,2.0,0.0,A1I7H6RDJS4EKN
251,3.0,1.0,32.378,0.0,1.0,1.0,1.0,1.0,EUROPEAN_TURTLE_DOVE_3.jpg,TEAL_DUCK_2.jpg,PAINTED_BUNTING_3.jpg,MALABAR_HORNBILL_2.jpg,SNOWY_EGRET_3.jpg,2.0,3.0,1.0,1.0,3.0,1.0,A1I7H6RDJS4EKN
252,1.0,1.0,43.1991,0.0,2.0,2.0,2.0,1.0,AFRICAN_PIED_HORNBILL_5.jpg,ALEXANDRINE_PARAKEET_1.jpg,INDIAN_PITTA_2.jpg,KIWI_4.jpg,CAPUCHINBIRD_2.jpg,2.0,1.0,3.0,2.0,1.0,2.0,A1I7H6RDJS4EKN
253,3.0,1.0,82.4599,0.0,3.0,3.0,3.0,1.0,PYGMY_KINGFISHER_5.jpg,GRANDALA_2.jpg,GREAT_POTOO_3.jpg,NORTHERN_PARULA_5.jpg,MIKADO__PHEASANT_5.jpg,2.0,3.0,1.0,1.0,3.0,3.0,A1I7H6RDJS4EKN
254,3.0,0.0,30.0852,0.0,4.0,4.0,4.0,1.0,GRAY_KINGBIRD_5.jpg,AFRICAN_FIREFINCH_3.jpg,EVENING_GROSBEAK_4.jpg,BALD_EAGLE_2.jpg,COCK_OF_THE__ROCK_4.jpg,3.0,1.0,2.0,3.0,1.0,4.0,A1I7H6RDJS4EKN
255,2.0,1.0,10.5327,0.0,5.0,5.0,5.0,1.0,right.png,right.png,right.png,left.png,up.png,,,,,2.0,5.0,A1I7H6RDJS4EKN
256,3.0,1.0,56.8658,0.0,6.0,6.0,6.0,1.0,WHITE_CHEEKED_TURACO_5.jpg,PYGMY_KINGFISHER_2.jpg,SNOWY_EGRET_1.jpg,CHINESE_POND_HERON_1.jpg,MALAGASY_WHITE_EYE_5.jpg,2.0,1.0,3.0,3.0,3.0,6.0,A1I7H6RDJS4EKN
257,1.0,1.0,14.2068,0.0,7.0,7.0,7.0,1.0,RUBY_THROATED_HUMMINGBIRD_2.jpg,APAPANE_4.jpg,SCARLET_MACAW_3.jpg,DUSKY_ROBIN_5.jpg,GOLDEN_PARAKEET_2.jpg,2.0,3.0,1.0,2.0,1.0,7.0,A1I7H6RDJS4EKN
258,3.0,1.0,16.4758,0.0,8.0,8.0,8.0,1.0,NORTHERN_JACANA_3.jpg,BAR-TAILED_GODWIT_3.jpg,REGENT_BOWERBIRD_5.jpg,BANANAQUIT_3.jpg,SHORT_BILLED_DOWITCHER_5.jpg,2.0,1.0,3.0,3.0,3.0,8.0,A1I7H6RDJS4EKN
259,2.0,1.0,32.0976,0.0,9.0,9.0,9.0,1.0,TASMANIAN_HEN_5.jpg,AFRICAN_EMERALD_CUCKOO_5.jpg,BLACKBURNIAM_WARBLER_3.jpg,BORNEAN_PHEASANT_2.jpg,COPPERY_TAILED_COUCAL_1.jpg,1.0,2.0,3.0,2.0,2.0,9.0,A1I7H6RDJS4EKN
260,1.0,1.0,33.533,0.0,0.0,0.0,0.0,1.0,VERMILION_FLYCATHER_3.jpg,INDIAN_BUSTARD_1.jpg,SATYR_TRAGOPAN_1.jpg,RED_BEARDED_BEE_EATER_1.jpg,CROWNED_PIGEON_1.jpg,1.0,3.0,2.0,1.0,1.0,0.0,ALTJ8ONS93XVL
261,2.0,1.0,1.492,0.0,1.0,1.0,1.0,1.0,FLAME_BOWERBIRD_3.jpg,QUETZAL_3.jpg,INDIAN_BUSTARD_2.jpg,GOULDIAN_FINCH_1.jpg,BROWN_THRASHER_4.jpg,1.0,3.0,2.0,3.0,2.0,1.0,ALTJ8ONS93XVL
262,3.0,0.0,2.107,0.0,2.0,2.0,2.0,1.0,RUBY_THROATED_HUMMINGBIRD_3.jpg,WHITE_CHEEKED_TURACO_4.jpg,NORTHERN_SHOVELER_1.jpg,MALABAR_HORNBILL_5.jpg,MYNA_5.jpg,3.0,1.0,2.0,1.0,2.0,2.0,ALTJ8ONS93XVL
263,2.0,0.0,1.979,0.0,3.0,3.0,3.0,1.0,HAWAIIAN_GOOSE_4.jpg,RED_BEARDED_BEE_EATER_3.jpg,HIMALAYAN_MONAL_2.jpg,WATTLED_LAPWING_3.jpg,DOUBLE_EYED_FIG_PARROT_1.jpg,2.0,3.0,1.0,1.0,3.0,3.0,ALTJ8ONS93XVL
264,1.0,0.0,1.834,0.0,4.0,4.0,4.0,1.0,ASIAN_DOLLARD_BIRD_2.jpg,HAWAIIAN_GOOSE_1.jpg,VIOLET_GREEN_SWALLOW_4.jpg,MCKAYS_BUNTING_1.jpg,ALBATROSS_2.jpg,3.0,2.0,1.0,2.0,2.0,4.0,ALTJ8ONS93XVL
265,2.0,1.0,2.183,0.0,5.0,5.0,5.0,1.0,OVENBIRD_5.jpg,FAIRY_PENGUIN_1.jpg,JABIRU_4.jpg,ABBOTTS_BOOBY_2.jpg,PURPLE_FINCH_5.jpg,1.0,2.0,3.0,2.0,2.0,5.0,ALTJ8ONS93XVL
266,2.0,0.0,1.781,0.0,6.0,6.0,6.0,1.0,INCA_TERN_4.jpg,BORNEAN_BRISTLEHEAD_5.jpg,WHITE_NECKED_RAVEN_4.jpg,SMITHS_LONGSPUR_5.jpg,ELLIOTS__PHEASANT_4.jpg,3.0,2.0,1.0,3.0,1.0,6.0,ALTJ8ONS93XVL
267,1.0,0.0,1.448,0.0,7.0,7.0,7.0,1.0,ASIAN_CRESTED_IBIS_4.jpg,OYSTER_CATCHER_2.jpg,CANARY_2.jpg,IVORY_GULL_2.jpg,AMERICAN_KESTREL_1.jpg,1.0,3.0,2.0,2.0,3.0,7.0,ALTJ8ONS93XVL
268,1.0,1.0,2.871,0.0,8.0,8.0,8.0,1.0,right.png,right.png,left.png,right.png,up.png,,,,,1.0,8.0,ALTJ8ONS93XVL
269,2.0,1.0,3.255,0.0,9.0,9.0,9.0,1.0,BROWN_NOODY_3.jpg,GUINEA_TURACO_5.jpg,KIWI_2.jpg,UMBRELLA_BIRD_4.jpg,SPANGLED_COTINGA_4.jpg,1.0,3.0,2.0,3.0,2.0,9.0,ALTJ8ONS93XVL
270,2.0,1.0,2.6356,0.0,0.0,0.0,0.0,1.0,EASTERN_TOWEE_2.jpg,HYACINTH_MACAW_4.jpg,NORTHERN_BEARDLESS_TYRANNULET_5.jpg,ANDEAN_GOOSE_3.jpg,SANDHILL_CRANE_2.jpg,3.0,2.0,1.0,2.0,2.0,0.0,A25B548FUCQD04
271,3.0,1.0,1.4608,0.0,1.0,1.0,1.0,1.0,ALPINE_CHOUGH_4.jpg,SNOWY_EGRET_2.jpg,BOBOLINK_3.jpg,EUROPEAN_GOLDFINCH_3.jpg,AMERICAN_FLAMINGO_2.jpg,3.0,2.0,1.0,1.0,3.0,1.0,A25B548FUCQD04
272,2.0,1.0,0.9985,0.0,2.0,2.0,2.0,1.0,RUBY_THROATED_HUMMINGBIRD_3.jpg,WHITE_CHEEKED_TURACO_4.jpg,NORTHERN_SHOVELER_1.jpg,MALABAR_HORNBILL_5.jpg,MYNA_5.jpg,3.0,1.0,2.0,1.0,2.0,2.0,A25B548FUCQD04
273,1.0,1.0,1.6007,0.0,3.0,3.0,3.0,1.0,BREWERS_BLACKBIRD_3.jpg,GOLDEN_CHEEKED_WARBLER_3.jpg,AMERICAN_AVOCET_5.jpg,CAPE_LONGCLAW_2.jpg,PEACOCK_4.jpg,2.0,3.0,1.0,2.0,1.0,3.0,A25B548FUCQD04
274,1.0,1.0,47.7679,0.0,4.0,4.0,4.0,1.0,right.png,right.png,left.png,right.png,up.png,,,,,1.0,4.0,A25B548FUCQD04
275,1.0,1.0,1.3025,0.0,5.0,5.0,5.0,1.0,INCA_TERN_4.jpg,BORNEAN_BRISTLEHEAD_5.jpg,WHITE_NECKED_RAVEN_4.jpg,ELLIOTS__PHEASANT_4.jpg,SMITHS_LONGSPUR_5.jpg,3.0,1.0,2.0,3.0,1.0,5.0,A25B548FUCQD04
276,3.0,1.0,0.8002,0.0,6.0,6.0,6.0,1.0,ARARIPE_MANAKIN_4.jpg,BLACK_VULTURE_1.jpg,BORNEAN_LEAFBIRD_3.jpg,KIWI_3.jpg,UMBRELLA_BIRD_5.jpg,3.0,1.0,2.0,2.0,3.0,6.0,A25B548FUCQD04
277,3.0,1.0,0.7153,0.0,7.0,7.0,7.0,1.0,PYGMY_KINGFISHER_5.jpg,NORTHERN_PARULA_5.jpg,GRANDALA_2.jpg,GREAT_POTOO_3.jpg,BLUE_THROATED_TOUCANET_3.jpg,1.0,2.0,3.0,3.0,3.0,7.0,A25B548FUCQD04
278,2.0,1.0,0.5189,0.0,8.0,8.0,8.0,1.0,RUFOUS_KINGFISHER_1.jpg,BLACK_VENTED_SHEARWATER_2.jpg,MAGPIE_GOOSE_3.jpg,BANDED_STILT_3.jpg,HORNED_SUNGEM_4.jpg,2.0,1.0,3.0,1.0,2.0,8.0,A25B548FUCQD04
279,2.0,1.0,0.5201,0.0,9.0,9.0,9.0,1.0,RUBY_THROATED_HUMMINGBIRD_2.jpg,DUSKY_ROBIN_5.jpg,GOLDEN_PARAKEET_2.jpg,EURASIAN_MAGPIE_3.jpg,APAPANE_4.jpg,1.0,3.0,2.0,3.0,2.0,9.0,A25B548FUCQD04
280,1.0,0.0,13.5755,0.0,0.0,0.0,0.0,1.0,ASIAN_CRESTED_IBIS_4.jpg,OYSTER_CATCHER_2.jpg,IVORY_GULL_2.jpg,CANARY_2.jpg,AMERICAN_KESTREL_1.jpg,3.0,1.0,2.0,2.0,3.0,0.0,A1XK98QJU92M4E
281,3.0,1.0,10.193,0.0,1.0,1.0,1.0,1.0,STRIPPED_SWALLOW_1.jpg,GO_AWAY_BIRD_5.jpg,EMPEROR_PENGUIN_5.jpg,MAGPIE_GOOSE_4.jpg,WHITE_THROATED_BEE_EATER_5.jpg,1.0,2.0,3.0,3.0,3.0,1.0,A1XK98QJU92M4E
282,2.0,0.0,12.9164,0.0,2.0,2.0,2.0,1.0,left.png,left.png,right.png,up.png,left.png,,,,,1.0,2.0,A1XK98QJU92M4E
283,1.0,1.0,9.4871,0.0,3.0,3.0,3.0,1.0,DOUBLE_BRESTED_CORMARANT_5.jpg,CHINESE_POND_HERON_2.jpg,ANHINGA_5.jpg,GILDED_FLICKER_2.jpg,EURASIAN_MAGPIE_4.jpg,3.0,1.0,2.0,3.0,1.0,3.0,A1XK98QJU92M4E
284,3.0,1.0,14.6389,0.0,4.0,4.0,4.0,1.0,INDIGO_BUNTING_1.jpg,FRIGATE_4.jpg,SNOWY_PLOVER_1.jpg,DARWINS_FLYCATCHER_2.jpg,POMARINE_JAEGER_5.jpg,2.0,3.0,1.0,1.0,3.0,4.0,A1XK98QJU92M4E
285,3.0,0.0,14.5415,0.0,5.0,5.0,5.0,1.0,GRAY_KINGBIRD_5.jpg,BALD_EAGLE_2.jpg,PEACOCK_1.jpg,COCK_OF_THE__ROCK_4.jpg,AFRICAN_FIREFINCH_3.jpg,1.0,2.0,3.0,1.0,1.0,5.0,A1XK98QJU92M4E
286,2.0,0.0,7.2546,0.0,6.0,6.0,6.0,1.0,GYRFALCON_1.jpg,CINNAMON_ATTILA_2.jpg,ASHY_STORM_PETREL_2.jpg,FAIRY_TERN_1.jpg,CAPE_ROCK_THRUSH_2.jpg,1.0,3.0,2.0,2.0,3.0,6.0,A1XK98QJU92M4E
287,3.0,0.0,14.0154,0.0,7.0,7.0,7.0,1.0,PYGMY_KINGFISHER_5.jpg,NORTHERN_PARULA_5.jpg,BLUE_THROATED_TOUCANET_3.jpg,GREAT_POTOO_3.jpg,GRANDALA_2.jpg,3.0,2.0,1.0,3.0,1.0,7.0,A1XK98QJU92M4E
288,1.0,1.0,13.583,0.0,8.0,8.0,8.0,1.0,ARARIPE_MANAKIN_4.jpg,BLACK_VULTURE_1.jpg,UMBRELLA_BIRD_5.jpg,BORNEAN_LEAFBIRD_3.jpg,KIWI_3.jpg,2.0,3.0,1.0,2.0,1.0,8.0,A1XK98QJU92M4E
289,2.0,0.0,6.8833,0.0,9.0,9.0,9.0,1.0,TASMANIAN_HEN_5.jpg,BLACKBURNIAM_WARBLER_3.jpg,CREAM_COLORED_WOODPECKER_4.jpg,COPPERY_TAILED_COUCAL_1.jpg,AFRICAN_EMERALD_CUCKOO_5.jpg,1.0,3.0,2.0,1.0,1.0,9.0,A1XK98QJU92M4E
290,2.0,1.0,5.6003,0.0,0.0,0.0,0.0,1.0,CERULEAN_WARBLER_1.jpg,BANANAQUIT_1.jpg,AMERICAN_FLAMINGO_5.jpg,CRESTED_OROPENDOLA_5.jpg,ORIENTAL_BAY_OWL_1.jpg,2.0,3.0,1.0,3.0,2.0,0.0,A34U4186EW0B9X
291,2.0,1.0,2.1818,0.0,1.0,1.0,1.0,1.0,GOLDEN_CHLOROPHONIA_5.jpg,ROADRUNNER_2.jpg,COMMON_HOUSE_MARTIN_4.jpg,WHIMBREL_1.jpg,VERMILION_FLYCATHER_5.jpg,2.0,1.0,3.0,1.0,2.0,1.0,A34U4186EW0B9X
292,1.0,0.0,3.3164,0.0,2.0,2.0,2.0,1.0,SCARLET_TANAGER_2.jpg,LITTLE_AUK_3.jpg,CARMINE_BEE-EATER_1.jpg,CALIFORNIA_QUAIL_5.jpg,BORNEAN_LEAFBIRD_1.jpg,1.0,2.0,3.0,2.0,2.0,2.0,A34U4186EW0B9X
293,1.0,1.0,3.2163,0.0,3.0,3.0,3.0,1.0,LARK_BUNTING_2.jpg,CACTUS_WREN_3.jpg,GRANDALA_4.jpg,EMU_3.jpg,KING_VULTURE_3.jpg,3.0,1.0,2.0,3.0,1.0,3.0,A34U4186EW0B9X
294,2.0,1.0,1.3604,0.0,4.0,4.0,4.0,1.0,LESSER_ADJUTANT_5.jpg,AMERICAN_GOLDFINCH_1.jpg,GAMBELS_QUAIL_1.jpg,MALAGASY_WHITE_EYE_2.jpg,RED_HEADED_WOODPECKER_1.jpg,2.0,1.0,3.0,1.0,2.0,4.0,A34U4186EW0B9X
295,1.0,1.0,2.181,0.0,5.0,5.0,5.0,1.0,left.png,left.png,right.png,left.png,up.png,,,,,1.0,5.0,A34U4186EW0B9X
296,1.0,1.0,3.5127,0.0,6.0,6.0,6.0,1.0,MALACHITE_KINGFISHER_2.jpg,INCA_TERN_2.jpg,COCKATOO_2.jpg,SKUA_3.jpg,GREEN_BROADBILL_5.jpg,2.0,1.0,3.0,2.0,1.0,6.0,A34U4186EW0B9X
297,2.0,1.0,0.7747,0.0,7.0,7.0,7.0,1.0,RED_FACED_WARBLER_1.jpg,EMU_5.jpg,BLACK_VENTED_SHEARWATER_4.jpg,SPOONBILL_4.jpg,CAPE_GLOSSY_STARLING_2.jpg,2.0,1.0,3.0,1.0,2.0,7.0,A34U4186EW0B9X
298,2.0,1.0,4.4829,0.0,8.0,8.0,8.0,1.0,RUBY_THROATED_HUMMINGBIRD_2.jpg,APAPANE_4.jpg,GOLDEN_PARAKEET_2.jpg,SCARLET_MACAW_3.jpg,DUSKY_ROBIN_5.jpg,1.0,2.0,3.0,2.0,2.0,8.0,A34U4186EW0B9X
299,2.0,0.0,2.4775,0.0,9.0,9.0,9.0,1.0,MAGPIE_GOOSE_5.jpg,OYSTER_CATCHER_3.jpg,WOOD_DUCK_5.jpg,HAMERKOP_1.jpg,DOUBLE_EYED_FIG_PARROT_5.jpg,3.0,2.0,1.0,3.0,1.0,9.0,A34U4186EW0B9X
300,1.0,1.0,5.9042,0.0,0.0,0.0,0.0,1.0,WHITE_CHEEKED_TURACO_5.jpg,PYGMY_KINGFISHER_2.jpg,MALAGASY_WHITE_EYE_5.jpg,SNOWY_EGRET_1.jpg,CHINESE_POND_HERON_1.jpg,3.0,2.0,1.0,3.0,1.0,0.0,A002160837SWJFPIAI7L7
301,1.0,0.0,7.4027,0.0,1.0,1.0,1.0,1.0,GILA_WOODPECKER_3.jpg,SNOWY_OWL_4.jpg,BLACK_VULTURE_3.jpg,BLACK_SWAN_3.jpg,ALEXANDRINE_PARAKEET_2.jpg,3.0,1.0,2.0,2.0,3.0,1.0,A002160837SWJFPIAI7L7
302,3.0,1.0,6.1154,0.0,2.0,2.0,2.0,1.0,CRESTED_CARACARA_4.jpg,BLUE_DACNIS_4.jpg,FAIRY_PENGUIN_5.jpg,TOUCHAN_4.jpg,PARADISE_TANAGER_1.jpg,1.0,3.0,2.0,2.0,3.0,2.0,A002160837SWJFPIAI7L7
303,1.0,0.0,8.9455,0.0,3.0,3.0,3.0,1.0,TASMANIAN_HEN_5.jpg,BLACKBURNIAM_WARBLER_3.jpg,COPPERY_TAILED_COUCAL_1.jpg,AFRICAN_EMERALD_CUCKOO_5.jpg,CREAM_COLORED_WOODPECKER_4.jpg,3.0,2.0,1.0,1.0,3.0,3.0,A002160837SWJFPIAI7L7
304,2.0,0.0,6.1985,0.0,4.0,4.0,4.0,1.0,GREY_PLOVER_1.jpg,HYACINTH_MACAW_3.jpg,TURKEY_VULTURE_1.jpg,AMETHYST_WOODSTAR_4.jpg,GOULDIAN_FINCH_4.jpg,1.0,3.0,2.0,1.0,1.0,4.0,A002160837SWJFPIAI7L7
305,3.0,0.0,13.7991,0.0,5.0,5.0,5.0,1.0,RED_HEADED_WOODPECKER_5.jpg,COLLARED_ARACARI_1.jpg,GREAT_GRAY_OWL_5.jpg,BLACKBURNIAM_WARBLER_4.jpg,CRIMSON_CHAT_3.jpg,1.0,3.0,2.0,3.0,2.0,5.0,A002160837SWJFPIAI7L7
306,2.0,0.0,2.6874,0.0,6.0,6.0,6.0,1.0,right.png,right.png,left.png,right.png,up.png,,,,,1.0,6.0,A002160837SWJFPIAI7L7
307,2.0,1.0,3.2851,0.0,7.0,7.0,7.0,1.0,GOLDEN_CHEEKED_WARBLER_2.jpg,WHITE_THROATED_BEE_EATER_1.jpg,SPOONBILL_1.jpg,DARJEELING_WOODPECKER_1.jpg,AMERICAN_FLAMINGO_3.jpg,1.0,3.0,2.0,3.0,2.0,7.0,A002160837SWJFPIAI7L7
308,3.0,0.0,3.0294,0.0,8.0,8.0,8.0,1.0,LARK_BUNTING_2.jpg,EMU_3.jpg,KING_VULTURE_5.jpg,KING_VULTURE_3.jpg,CACTUS_WREN_3.jpg,1.0,2.0,3.0,1.0,1.0,8.0,A002160837SWJFPIAI7L7
309,3.0,1.0,3.3889,0.0,9.0,9.0,9.0,1.0,AMERICAN_PIPIT_5.jpg,GREEN_MAGPIE_1.jpg,HEPATIC_TANAGER_5.jpg,EMU_2.jpg,LOGGERHEAD_SHRIKE_4.jpg,3.0,1.0,2.0,2.0,3.0,9.0,A002160837SWJFPIAI7L7
310,2.0,1.0,6.0064,0.0,0.0,0.0,0.0,1.0,PINK_ROBIN_4.jpg,ALBATROSS_4.jpg,COMMON_IORA_4.jpg,JACK_SNIPE_5.jpg,SPOONBILL_3.jpg,3.0,2.0,1.0,2.0,2.0,0.0,ADQR7OB5E0YQW
311,1.0,1.0,5.7389,0.0,1.0,1.0,1.0,1.0,STRIPPED_SWALLOW_1.jpg,GO_AWAY_BIRD_5.jpg,WHITE_THROATED_BEE_EATER_5.jpg,MAGPIE_GOOSE_4.jpg,EMPEROR_PENGUIN_5.jpg,3.0,2.0,1.0,3.0,1.0,1.0,ADQR7OB5E0YQW
312,2.0,1.0,7.0264,0.0,2.0,2.0,2.0,1.0,PYGMY_KINGFISHER_5.jpg,NORTHERN_PARULA_5.jpg,GREAT_POTOO_3.jpg,BLUE_THROATED_TOUCANET_3.jpg,GRANDALA_2.jpg,2.0,3.0,1.0,3.0,2.0,2.0,ADQR7OB5E0YQW
313,1.0,0.0,8.5295,0.0,3.0,3.0,3.0,1.0,RED_HEADED_WOODPECKER_5.jpg,GREAT_GRAY_OWL_5.jpg,CRIMSON_CHAT_3.jpg,KIWI_1.jpg,COLLARED_ARACARI_1.jpg,2.0,1.0,3.0,1.0,2.0,3.0,ADQR7OB5E0YQW
314,2.0,0.0,23.3494,0.0,4.0,4.0,4.0,1.0,CHUKAR_PARTRIDGE_5.jpg,OSTRICH_3.jpg,RAZORBILL_1.jpg,BLACK_THROATED_BUSHTIT_1.jpg,EMU_1.jpg,2.0,3.0,1.0,1.0,3.0,4.0,ADQR7OB5E0YQW
315,2.0,1.0,9.5431,0.0,5.0,5.0,5.0,1.0,GILA_WOODPECKER_3.jpg,BLACK_VULTURE_3.jpg,BLACK_SWAN_3.jpg,AZURE_TANAGER_1.jpg,SNOWY_OWL_4.jpg,1.0,3.0,2.0,3.0,2.0,5.0,ADQR7OB5E0YQW
316,2.0,0.0,28.9093,0.0,6.0,6.0,6.0,1.0,OVENBIRD_5.jpg,FAIRY_PENGUIN_1.jpg,ABBOTTS_BOOBY_2.jpg,PURPLE_FINCH_5.jpg,JABIRU_4.jpg,2.0,3.0,1.0,2.0,1.0,6.0,ADQR7OB5E0YQW
317,1.0,1.0,47.714,0.0,7.0,7.0,7.0,1.0,INLAND_DOTTEREL_4.jpg,NICOBAR_PIGEON_4.jpg,COCK_OF_THE__ROCK_5.jpg,JANDAYA_PARAKEET_5.jpg,CRESTED_KINGFISHER_1.jpg,2.0,1.0,3.0,2.0,1.0,7.0,ADQR7OB5E0YQW
318,3.0,1.0,8.1843,0.0,8.0,8.0,8.0,1.0,left.png,left.png,left.png,up.png,right.png,,,,,3.0,8.0,ADQR7OB5E0YQW
319,1.0,1.0,5.1038,0.0,9.0,9.0,9.0,1.0,NORTHERN_JACANA_3.jpg,BANANAQUIT_3.jpg,BEARDED_BELLBIRD_3.jpg,REGENT_BOWERBIRD_5.jpg,BAR-TAILED_GODWIT_3.jpg,1.0,2.0,3.0,1.0,1.0,9.0,ADQR7OB5E0YQW
320,3.0,1.0,5.6976,0.0,0.0,0.0,0.0,1.0,ASIAN_DOLLARD_BIRD_2.jpg,VIOLET_GREEN_SWALLOW_4.jpg,ALBATROSS_2.jpg,HAWAIIAN_GOOSE_1.jpg,VERMILION_FLYCATHER_1.jpg,1.0,2.0,3.0,3.0,3.0,0.0,A304UJAE051J89
321,1.0,0.0,2.9669,0.0,1.0,1.0,1.0,1.0,STRIPPED_SWALLOW_1.jpg,EMPEROR_PENGUIN_5.jpg,GO_AWAY_BIRD_5.jpg,BRANDT_CORMARANT_3.jpg,MAGPIE_GOOSE_4.jpg,3.0,1.0,2.0,1.0,2.0,1.0,A304UJAE051J89
322,2.0,1.0,7.0904,0.0,2.0,2.0,2.0,1.0,SPLENDID_WREN_1.jpg,CUBAN_TODY_4.jpg,PARAKETT__AKULET_3.jpg,CRESTED_KINGFISHER_4.jpg,DOUBLE_BRESTED_CORMARANT_1.jpg,1.0,3.0,2.0,3.0,2.0,2.0,A304UJAE051J89
323,3.0,0.0,1.4199,0.0,3.0,3.0,3.0,1.0,ASIAN_CRESTED_IBIS_4.jpg,OYSTER_CATCHER_2.jpg,AMERICAN_KESTREL_1.jpg,CANARY_2.jpg,IVORY_GULL_2.jpg,2.0,1.0,3.0,2.0,1.0,3.0,A304UJAE051J89
324,2.0,0.0,1.9943,0.0,4.0,4.0,4.0,1.0,ALPINE_CHOUGH_4.jpg,EUROPEAN_GOLDFINCH_3.jpg,HOUSE_FINCH_2.jpg,BOBOLINK_3.jpg,SNOWY_EGRET_2.jpg,2.0,3.0,1.0,2.0,1.0,4.0,A304UJAE051J89
325,1.0,0.0,4.0429,0.0,5.0,5.0,5.0,1.0,right.png,right.png,right.png,up.png,left.png,,,,,3.0,5.0,A304UJAE051J89
326,1.0,0.0,2.1896,0.0,6.0,6.0,6.0,1.0,NORTHERN_JACANA_3.jpg,BANANAQUIT_3.jpg,REGENT_BOWERBIRD_5.jpg,BEARDED_BELLBIRD_3.jpg,BAR-TAILED_GODWIT_3.jpg,2.0,1.0,3.0,1.0,2.0,6.0,A304UJAE051J89
327,2.0,1.0,1.8573,0.0,7.0,7.0,7.0,1.0,GREY_PLOVER_1.jpg,GOULDIAN_FINCH_4.jpg,HYACINTH_MACAW_3.jpg,BORNEAN_LEAFBIRD_2.jpg,AMETHYST_WOODSTAR_4.jpg,1.0,2.0,3.0,2.0,2.0,7.0,A304UJAE051J89
328,3.0,1.0,2.1207,0.0,8.0,8.0,8.0,1.0,PEACOCK_3.jpg,IBERIAN_MAGPIE_2.jpg,ANIANIAU_2.jpg,STRAWBERRY_FINCH_4.jpg,CHATTERING_LORY_3.jpg,1.0,2.0,3.0,3.0,3.0,8.0,A304UJAE051J89
329,1.0,0.0,1.328,0.0,9.0,9.0,9.0,1.0,CRESTED_CARACARA_4.jpg,FAIRY_PENGUIN_5.jpg,TOUCHAN_4.jpg,BLUE_DACNIS_4.jpg,CRAB_PLOVER_5.jpg,3.0,2.0,1.0,1.0,3.0,9.0,A304UJAE051J89
330,3.0,1.0,3.517,0.0,0.0,0.0,0.0,1.0,BARRED_PUFFBIRD_3.jpg,NORTHERN_CARDINAL_5.jpg,VEERY_4.jpg,WHITE_CHEEKED_TURACO_2.jpg,CAPPED_HERON_5.jpg,3.0,1.0,2.0,2.0,3.0,0.0,A2MV1R6YYOIO30
331,1.0,1.0,1.3991,0.0,1.0,1.0,1.0,1.0,IVORY_GULL_3.jpg,SNOWY_EGRET_4.jpg,FAN_TAILED_WIDOW_1.jpg,INDIGO_FLYCATCHER_2.jpg,FLAME_TANAGER_3.jpg,3.0,1.0,2.0,3.0,1.0,1.0,A2MV1R6YYOIO30
332,1.0,1.0,3.1866,0.0,2.0,2.0,2.0,1.0,CASPIAN_TERN_1.jpg,EUROPEAN_GOLDFINCH_4.jpg,AMERICAN_GOLDFINCH_3.jpg,BRANDT_CORMARANT_4.jpg,COMMON_LOON_2.jpg,2.0,1.0,3.0,2.0,1.0,2.0,A2MV1R6YYOIO30
333,3.0,1.0,3.5431,0.0,3.0,3.0,3.0,1.0,NORTHERN_JACANA_2.jpg,GREEN_BROADBILL_1.jpg,VULTURINE_GUINEAFOWL_5.jpg,RED_FACED_CORMORANT_1.jpg,EMERALD_TANAGER_2.jpg,2.0,3.0,1.0,1.0,3.0,3.0,A2MV1R6YYOIO30
334,2.0,1.0,1.3698,0.0,4.0,4.0,4.0,1.0,RED_FACED_WARBLER_1.jpg,EMU_5.jpg,CAPE_GLOSSY_STARLING_2.jpg,SPOONBILL_4.jpg,BLACK_VENTED_SHEARWATER_4.jpg,3.0,1.0,2.0,1.0,2.0,4.0,A2MV1R6YYOIO30
335,2.0,1.0,2.9928,0.0,5.0,5.0,5.0,1.0,right.png,right.png,up.png,left.png,right.png,,,,,2.0,5.0,A2MV1R6YYOIO30
336,2.0,1.0,1.6429,0.0,6.0,6.0,6.0,1.0,TASMANIAN_HEN_5.jpg,BLACKBURNIAM_WARBLER_3.jpg,AFRICAN_EMERALD_CUCKOO_5.jpg,CREAM_COLORED_WOODPECKER_4.jpg,COPPERY_TAILED_COUCAL_1.jpg,2.0,1.0,3.0,1.0,2.0,6.0,A2MV1R6YYOIO30
337,1.0,1.0,9.1153,0.0,7.0,7.0,7.0,1.0,FLAME_BOWERBIRD_3.jpg,BROWN_THRASHER_4.jpg,BLACK_THROATED_WARBLER_4.jpg,INDIAN_BUSTARD_2.jpg,QUETZAL_3.jpg,2.0,1.0,3.0,2.0,1.0,7.0,A2MV1R6YYOIO30
338,2.0,1.0,4.3465,0.0,8.0,8.0,8.0,1.0,AFRICAN_PIED_HORNBILL_5.jpg,CAPUCHINBIRD_2.jpg,ALEXANDRINE_PARAKEET_1.jpg,ECUADORIAN_HILLSTAR_3.jpg,KIWI_4.jpg,2.0,3.0,1.0,3.0,2.0,8.0,A2MV1R6YYOIO30
339,3.0,1.0,3.1473,0.0,9.0,9.0,9.0,1.0,PINK_ROBIN_4.jpg,COMMON_IORA_4.jpg,SPOONBILL_3.jpg,ALBATROSS_4.jpg,GREEN_MAGPIE_3.jpg,1.0,2.0,3.0,3.0,3.0,9.0,A2MV1R6YYOIO30
340,1.0,0.0,10.1034,0.0,0.0,0.0,0.0,1.0,EASTERN_TOWEE_2.jpg,SANDHILL_CRANE_2.jpg,NORTHERN_BEARDLESS_TYRANNULET_5.jpg,HYACINTH_MACAW_4.jpg,BLUE_HERON_3.jpg,3.0,2.0,1.0,1.0,3.0,0.0,A1D26DHX9CDRGI
341,2.0,1.0,4.9079,0.0,1.0,1.0,1.0,1.0,BROWN_THRASHER_3.jpg,OYSTER_CATCHER_4.jpg,BLACK_BAZA_4.jpg,RED_HEADED_WOODPECKER_2.jpg,DOUBLE_EYED_FIG_PARROT_3.jpg,3.0,2.0,1.0,2.0,2.0,1.0,A1D26DHX9CDRGI
342,2.0,1.0,1.8202,0.0,2.0,2.0,2.0,1.0,CHUKAR_PARTRIDGE_5.jpg,OSTRICH_3.jpg,RAZORBILL_1.jpg,EMU_1.jpg,BLACK_THROATED_BUSHTIT_1.jpg,2.0,1.0,3.0,1.0,2.0,2.0,A1D26DHX9CDRGI
343,3.0,1.0,1.7048,0.0,3.0,3.0,3.0,1.0,ALPINE_CHOUGH_4.jpg,SNOWY_EGRET_2.jpg,EUROPEAN_GOLDFINCH_3.jpg,BOBOLINK_3.jpg,AMERICAN_FLAMINGO_2.jpg,2.0,3.0,1.0,1.0,3.0,3.0,A1D26DHX9CDRGI
344,1.0,1.0,3.1294,0.0,4.0,4.0,4.0,1.0,GYRFALCON_1.jpg,CINNAMON_ATTILA_2.jpg,CAPE_ROCK_THRUSH_2.jpg,FAIRY_TERN_1.jpg,ASHY_STORM_PETREL_2.jpg,2.0,3.0,1.0,2.0,1.0,4.0,A1D26DHX9CDRGI
345,3.0,1.0,1.712,0.0,5.0,5.0,5.0,1.0,HAWAIIAN_GOOSE_4.jpg,WATTLED_LAPWING_3.jpg,RED_BEARDED_BEE_EATER_3.jpg,HIMALAYAN_MONAL_2.jpg,BROWN_NOODY_5.jpg,1.0,2.0,3.0,3.0,3.0,5.0,A1D26DHX9CDRGI
346,1.0,1.0,5.6011,0.0,6.0,6.0,6.0,1.0,right.png,right.png,left.png,right.png,up.png,,,,,1.0,6.0,A1D26DHX9CDRGI
347,2.0,1.0,1.8678,0.0,7.0,7.0,7.0,1.0,SKUA_4.jpg,ROADRUNNER_5.jpg,PARUS_MAJOR_2.jpg,AMERICAN_WIGEON_2.jpg,SNOWY_EGRET_5.jpg,2.0,3.0,1.0,3.0,2.0,7.0,A1D26DHX9CDRGI
348,3.0,1.0,1.2743,0.0,8.0,8.0,8.0,1.0,OCELLATED_TURKEY_1.jpg,PURPLE_SWAMPHEN_4.jpg,CHIPPING_SPARROW_1.jpg,LARK_BUNTING_1.jpg,GLOSSY_IBIS_2.jpg,1.0,2.0,3.0,3.0,3.0,8.0,A1D26DHX9CDRGI
349,2.0,1.0,0.9261,0.0,9.0,9.0,9.0,1.0,TASMANIAN_HEN_5.jpg,AFRICAN_EMERALD_CUCKOO_5.jpg,COPPERY_TAILED_COUCAL_1.jpg,BORNEAN_PHEASANT_2.jpg,BLACKBURNIAM_WARBLER_3.jpg,3.0,2.0,1.0,2.0,2.0,9.0,A1D26DHX9CDRGI
350,1.0,1.0,15.771,0.0,0.0,0.0,0.0,1.0,GYRFALCON_1.jpg,FAIRY_TERN_1.jpg,YELLOW_HEADED_BLACKBIRD_3.jpg,ASHY_STORM_PETREL_2.jpg,CINNAMON_ATTILA_2.jpg,3.0,1.0,2.0,3.0,1.0,0.0,AZNIEFUIVB2H0
351,2.0,1.0,9.817,0.0,1.0,1.0,1.0,1.0,GILA_WOODPECKER_3.jpg,BLACK_VULTURE_3.jpg,BLACK_SWAN_3.jpg,AZURE_TANAGER_1.jpg,SNOWY_OWL_4.jpg,1.0,3.0,2.0,3.0,2.0,1.0,AZNIEFUIVB2H0
352,2.0,1.0,10.943,0.0,2.0,2.0,2.0,1.0,ARARIPE_MANAKIN_4.jpg,BORNEAN_LEAFBIRD_3.jpg,BLACK_VULTURE_1.jpg,GUINEA_TURACO_3.jpg,KIWI_3.jpg,2.0,3.0,1.0,3.0,2.0,2.0,AZNIEFUIVB2H0
353,1.0,1.0,3.627,0.0,3.0,3.0,3.0,1.0,right.png,right.png,left.png,up.png,right.png,,,,,1.0,3.0,AZNIEFUIVB2H0
354,3.0,1.0,7.663,0.0,4.0,4.0,4.0,1.0,IVORY_GULL_1.jpg,WILSONS_BIRD_OF_PARADISE_4.jpg,FAIRY_TERN_4.jpg,EASTERN_GOLDEN_WEAVER_5.jpg,OCELLATED_TURKEY_2.jpg,3.0,2.0,1.0,1.0,3.0,4.0,AZNIEFUIVB2H0
355,1.0,1.0,14.175,0.0,5.0,5.0,5.0,1.0,NORTHERN_GANNET_2.jpg,STRAWBERRY_FINCH_1.jpg,VENEZUELIAN_TROUPIAL_1.jpg,MASKED_BOOBY_5.jpg,PAINTED_BUNTING_5.jpg,2.0,3.0,1.0,2.0,1.0,5.0,AZNIEFUIVB2H0
356,3.0,1.0,9.226,0.0,6.0,6.0,6.0,1.0,SHOEBILL_3.jpg,GILDED_FLICKER_5.jpg,MALAGASY_WHITE_EYE_3.jpg,BALD_EAGLE_5.jpg,IWI_1.jpg,1.0,3.0,2.0,2.0,3.0,6.0,AZNIEFUIVB2H0
357,3.0,1.0,11.585,0.0,7.0,7.0,7.0,1.0,ASIAN_CRESTED_IBIS_4.jpg,OYSTER_CATCHER_2.jpg,CANARY_2.jpg,IVORY_GULL_2.jpg,AMERICAN_KESTREL_1.jpg,1.0,3.0,2.0,2.0,3.0,7.0,AZNIEFUIVB2H0
358,1.0,1.0,14.857,0.0,8.0,8.0,8.0,1.0,BALI_STARLING_1.jpg,CAPE_LONGCLAW_5.jpg,OSTRICH_5.jpg,PURPLE_FINCH_2.jpg,IBERIAN_MAGPIE_1.jpg,1.0,2.0,3.0,1.0,1.0,8.0,AZNIEFUIVB2H0
359,3.0,1.0,6.176,0.0,9.0,9.0,9.0,1.0,PYGMY_KINGFISHER_5.jpg,GRANDALA_2.jpg,GREAT_POTOO_3.jpg,NORTHERN_PARULA_5.jpg,MIKADO__PHEASANT_5.jpg,2.0,3.0,1.0,1.0,3.0,9.0,AZNIEFUIVB2H0
360,3.0,0.0,13.3257,0.0,0.0,0.0,0.0,1.0,ASIAN_DOLLARD_BIRD_2.jpg,ALBATROSS_2.jpg,OSTRICH_1.jpg,VIOLET_GREEN_SWALLOW_4.jpg,HAWAIIAN_GOOSE_1.jpg,1.0,3.0,2.0,1.0,1.0,0.0,A1JJYY622DGE5L
361,2.0,0.0,7.4641,0.0,1.0,1.0,1.0,1.0,GYRFALCON_1.jpg,FAIRY_TERN_1.jpg,YELLOW_HEADED_BLACKBIRD_3.jpg,ASHY_STORM_PETREL_2.jpg,CINNAMON_ATTILA_2.jpg,3.0,1.0,2.0,3.0,1.0,1.0,A1JJYY622DGE5L
362,1.0,1.0,3.3169,0.0,2.0,2.0,2.0,1.0,RED_HEADED_WOODPECKER_5.jpg,CRIMSON_CHAT_3.jpg,DAURIAN_REDSTART_5.jpg,COLLARED_ARACARI_1.jpg,GREAT_GRAY_OWL_5.jpg,2.0,3.0,1.0,2.0,1.0,2.0,A1JJYY622DGE5L
363,1.0,1.0,7.5381,0.0,3.0,3.0,3.0,1.0,BARRED_PUFFBIRD_3.jpg,WHITE_CHEEKED_TURACO_2.jpg,CUBAN_TODY_3.jpg,VEERY_4.jpg,NORTHERN_CARDINAL_5.jpg,1.0,3.0,2.0,1.0,1.0,3.0,A1JJYY622DGE5L
364,3.0,1.0,3.1179,0.0,4.0,4.0,4.0,1.0,CASPIAN_TERN_1.jpg,EUROPEAN_GOLDFINCH_4.jpg,BRANDT_CORMARANT_4.jpg,COMMON_LOON_2.jpg,AMERICAN_GOLDFINCH_3.jpg,1.0,3.0,2.0,2.0,3.0,4.0,A1JJYY622DGE5L
365,3.0,1.0,5.1741,0.0,5.0,5.0,5.0,1.0,SHOEBILL_3.jpg,GILDED_FLICKER_5.jpg,BALD_EAGLE_5.jpg,MALAGASY_WHITE_EYE_3.jpg,IWI_1.jpg,3.0,1.0,2.0,2.0,3.0,5.0,A1JJYY622DGE5L
366,3.0,1.0,4.1735,0.0,6.0,6.0,6.0,1.0,GOLDEN_CHEEKED_WARBLER_2.jpg,WHITE_THROATED_BEE_EATER_1.jpg,AMERICAN_FLAMINGO_3.jpg,SPOONBILL_1.jpg,DARJEELING_WOODPECKER_1.jpg,2.0,1.0,3.0,3.0,3.0,6.0,A1JJYY622DGE5L
367,3.0,1.0,2.2364,0.0,7.0,7.0,7.0,1.0,GOLDEN_CHLOROPHONIA_5.jpg,VERMILION_FLYCATHER_5.jpg,ROADRUNNER_2.jpg,COMMON_HOUSE_MARTIN_4.jpg,DARWINS_FLYCATCHER_3.jpg,1.0,2.0,3.0,3.0,3.0,7.0,A1JJYY622DGE5L
368,2.0,1.0,13.7327,0.0,8.0,8.0,8.0,1.0,MALACHITE_KINGFISHER_2.jpg,SKUA_3.jpg,INCA_TERN_2.jpg,GANG_GANG_COCKATOO_4.jpg,GREEN_BROADBILL_5.jpg,2.0,1.0,3.0,1.0,2.0,8.0,A1JJYY622DGE5L
369,1.0,1.0,2.3398,0.0,9.0,9.0,9.0,1.0,right.png,right.png,left.png,up.png,right.png,,,,,1.0,9.0,A1JJYY622DGE5L
370,1.0,1.0,11.0412,0.0,0.0,0.0,0.0,1.0,SPLENDID_WREN_1.jpg,DOUBLE_BRESTED_CORMARANT_1.jpg,BLACK_SWAN_2.jpg,CUBAN_TODY_4.jpg,PARAKETT__AKULET_3.jpg,2.0,3.0,1.0,2.0,1.0,0.0,A2GOYSTIL3LOV1
371,2.0,1.0,2.4516,0.0,1.0,1.0,1.0,1.0,right.png,right.png,right.png,left.png,up.png,,,,,2.0,1.0,A2GOYSTIL3LOV1
372,2.0,1.0,14.859,0.0,2.0,2.0,2.0,1.0,BREWERS_BLACKBIRD_3.jpg,GOLDEN_CHEEKED_WARBLER_3.jpg,PEACOCK_4.jpg,AMERICAN_AVOCET_5.jpg,CAPE_LONGCLAW_2.jpg,1.0,2.0,3.0,2.0,2.0,2.0,A2GOYSTIL3LOV1
373,2.0,1.0,7.3391,0.0,3.0,3.0,3.0,1.0,LESSER_ADJUTANT_4.jpg,ALTAMIRA_YELLOWTHROAT_5.jpg,RAINBOW_LORIKEET_5.jpg,DOUBLE_EYED_FIG_PARROT_4.jpg,FAIRY_TERN_3.jpg,2.0,1.0,3.0,1.0,2.0,3.0,A2GOYSTIL3LOV1
374,1.0,1.0,6.938,0.0,4.0,4.0,4.0,1.0,OVENBIRD_5.jpg,FAIRY_PENGUIN_1.jpg,ABBOTTS_BOOBY_2.jpg,PURPLE_FINCH_5.jpg,JABIRU_4.jpg,2.0,3.0,1.0,2.0,1.0,4.0,A2GOYSTIL3LOV1
375,2.0,1.0,2.9093,0.0,5.0,5.0,5.0,1.0,IVORY_GULL_1.jpg,FAIRY_TERN_4.jpg,WILSONS_BIRD_OF_PARADISE_4.jpg,BANDED_STILT_4.jpg,EASTERN_GOLDEN_WEAVER_5.jpg,1.0,3.0,2.0,3.0,2.0,5.0,A2GOYSTIL3LOV1
376,1.0,1.0,6.5478,0.0,6.0,6.0,6.0,1.0,IVORY_GULL_3.jpg,INDIGO_FLYCATCHER_2.jpg,BUSH_TURKEY_1.jpg,SNOWY_EGRET_4.jpg,FLAME_TANAGER_3.jpg,1.0,3.0,2.0,1.0,1.0,6.0,A2GOYSTIL3LOV1
377,3.0,1.0,6.9738,0.0,7.0,7.0,7.0,1.0,INDIGO_BUNTING_1.jpg,DARWINS_FLYCATCHER_2.jpg,FRIGATE_4.jpg,SNOWY_PLOVER_1.jpg,BALTIMORE_ORIOLE_4.jpg,1.0,2.0,3.0,3.0,3.0,7.0,A2GOYSTIL3LOV1
378,3.0,1.0,4.2533,0.0,8.0,8.0,8.0,1.0,EUROPEAN_TURTLE_DOVE_3.jpg,MALABAR_HORNBILL_2.jpg,TEAL_DUCK_2.jpg,PAINTED_BUNTING_3.jpg,BROWN_THRASHER_2.jpg,1.0,2.0,3.0,3.0,3.0,8.0,A2GOYSTIL3LOV1
379,1.0,1.0,8.8666,0.0,9.0,9.0,9.0,1.0,SKUA_4.jpg,SNOWY_EGRET_5.jpg,BLACK-NECKED_GREBE_3.jpg,PARUS_MAJOR_2.jpg,ROADRUNNER_5.jpg,1.0,2.0,3.0,1.0,1.0,9.0,A2GOYSTIL3LOV1
380,3.0,1.0,4.5695,0.0,0.0,0.0,0.0,1.0,VERMILION_FLYCATHER_3.jpg,INDIAN_BUSTARD_1.jpg,CROWNED_PIGEON_1.jpg,RED_BEARDED_BEE_EATER_1.jpg,SATYR_TRAGOPAN_1.jpg,2.0,3.0,1.0,1.0,3.0,0.0,A1ODA3Q5H6HTDQ
381,2.0,1.0,2.6903,0.0,1.0,1.0,1.0,1.0,TASMANIAN_HEN_5.jpg,AFRICAN_EMERALD_CUCKOO_5.jpg,COPPERY_TAILED_COUCAL_1.jpg,BORNEAN_PHEASANT_2.jpg,BLACKBURNIAM_WARBLER_3.jpg,3.0,2.0,1.0,2.0,2.0,1.0,A1ODA3Q5H6HTDQ
382,2.0,1.0,4.2531,0.0,2.0,2.0,2.0,1.0,RUBY_THROATED_HUMMINGBIRD_1.jpg,VULTURINE_GUINEAFOWL_4.jpg,FRIGATE_1.jpg,BEARDED_REEDLING_3.jpg,EURASIAN_GOLDEN_ORIOLE_5.jpg,3.0,2.0,1.0,2.0,2.0,2.0,A1ODA3Q5H6HTDQ
383,3.0,1.0,1.9318,0.0,3.0,3.0,3.0,1.0,PINK_ROBIN_4.jpg,ALBATROSS_4.jpg,SPOONBILL_3.jpg,COMMON_IORA_4.jpg,JACK_SNIPE_5.jpg,1.0,3.0,2.0,2.0,3.0,3.0,A1ODA3Q5H6HTDQ
384,2.0,1.0,2.4908,0.0,4.0,4.0,4.0,1.0,MALACHITE_KINGFISHER_2.jpg,GREEN_BROADBILL_5.jpg,INCA_TERN_2.jpg,JAVA_SPARROW_5.jpg,SKUA_3.jpg,2.0,3.0,1.0,3.0,2.0,4.0,A1ODA3Q5H6HTDQ
385,3.0,1.0,2.8222,0.0,5.0,5.0,5.0,1.0,PYGMY_KINGFISHER_5.jpg,GRANDALA_2.jpg,NORTHERN_PARULA_5.jpg,GREAT_POTOO_3.jpg,MIKADO__PHEASANT_5.jpg,3.0,2.0,1.0,1.0,3.0,5.0,A1ODA3Q5H6HTDQ
386,2.0,1.0,2.9555,0.0,6.0,6.0,6.0,1.0,BALI_STARLING_1.jpg,IBERIAN_MAGPIE_1.jpg,CAPE_LONGCLAW_5.jpg,GRANDALA_5.jpg,PURPLE_FINCH_2.jpg,1.0,3.0,2.0,3.0,2.0,6.0,A1ODA3Q5H6HTDQ
387,1.0,1.0,3.992,0.0,7.0,7.0,7.0,1.0,AMERICAN_PIPIT_5.jpg,EMU_2.jpg,PEACOCK_2.jpg,HEPATIC_TANAGER_5.jpg,GREEN_MAGPIE_1.jpg,1.0,3.0,2.0,1.0,1.0,7.0,A1ODA3Q5H6HTDQ
388,2.0,1.0,1.7588,0.0,8.0,8.0,8.0,1.0,right.png,right.png,up.png,left.png,right.png,,,,,2.0,8.0,A1ODA3Q5H6HTDQ
389,3.0,1.0,1.1314,0.0,9.0,9.0,9.0,1.0,PARUS_MAJOR_1.jpg,PINK_ROBIN_3.jpg,CALIFORNIA_GULL_2.jpg,COMMON_POORWILL_1.jpg,FAIRY_BLUEBIRD_5.jpg,2.0,1.0,3.0,3.0,3.0,9.0,A1ODA3Q5H6HTDQ
390,1.0,1.0,20.0847,0.0,0.0,0.0,0.0,1.0,SCARLET_TANAGER_2.jpg,LITTLE_AUK_3.jpg,CALIFORNIA_QUAIL_5.jpg,BORNEAN_LEAFBIRD_1.jpg,CARMINE_BEE-EATER_1.jpg,2.0,3.0,1.0,2.0,1.0,0.0,A12T6G6Z9SE5FY
391,3.0,1.0,10.104,0.0,1.0,1.0,1.0,1.0,NORTHERN_JACANA_2.jpg,RED_FACED_CORMORANT_1.jpg,GREEN_BROADBILL_1.jpg,VULTURINE_GUINEAFOWL_5.jpg,SCARLET_IBIS_4.jpg,1.0,2.0,3.0,3.0,3.0,1.0,A12T6G6Z9SE5FY
392,3.0,1.0,7.3469,0.0,2.0,2.0,2.0,1.0,GOLDEN_CHLOROPHONIA_5.jpg,ROADRUNNER_2.jpg,VERMILION_FLYCATHER_5.jpg,COMMON_HOUSE_MARTIN_4.jpg,WHIMBREL_1.jpg,3.0,2.0,1.0,1.0,3.0,2.0,A12T6G6Z9SE5FY
393,2.0,1.0,6.3049,0.0,3.0,3.0,3.0,1.0,KILLDEAR_2.jpg,AZURE_TIT_5.jpg,CAATINGA_CACHOLOTE_4.jpg,WHITE_TAILED_TROPIC_2.jpg,ALEXANDRINE_PARAKEET_5.jpg,2.0,3.0,1.0,3.0,2.0,3.0,A12T6G6Z9SE5FY
394,1.0,1.0,11.8536,0.0,4.0,4.0,4.0,1.0,left.png,left.png,right.png,up.png,left.png,,,,,1.0,4.0,A12T6G6Z9SE5FY
395,3.0,1.0,5.715,0.0,5.0,5.0,5.0,1.0,CRESTED_NUTHATCH_2.jpg,CANARY_1.jpg,AFRICAN_FIREFINCH_1.jpg,SCARLET_IBIS_3.jpg,VERMILION_FLYCATHER_4.jpg,2.0,1.0,3.0,3.0,3.0,5.0,A12T6G6Z9SE5FY
396,3.0,1.0,6.1411,0.0,6.0,6.0,6.0,1.0,EASTERN_TOWEE_2.jpg,HYACINTH_MACAW_4.jpg,SANDHILL_CRANE_2.jpg,NORTHERN_BEARDLESS_TYRANNULET_5.jpg,ANDEAN_GOOSE_3.jpg,1.0,3.0,2.0,2.0,3.0,6.0,A12T6G6Z9SE5FY
397,1.0,1.0,4.584799999,0.0,7.0,7.0,7.0,1.0,BALI_STARLING_1.jpg,CAPE_LONGCLAW_5.jpg,OSTRICH_5.jpg,PURPLE_FINCH_2.jpg,IBERIAN_MAGPIE_1.jpg,1.0,2.0,3.0,1.0,1.0,7.0,A12T6G6Z9SE5FY
398,3.0,1.0,3.1884,0.0,8.0,8.0,8.0,1.0,LARK_BUNTING_2.jpg,KING_VULTURE_3.jpg,EMU_3.jpg,CACTUS_WREN_3.jpg,CHARA_DE_COLLAR_4.jpg,1.0,3.0,2.0,2.0,3.0,8.0,A12T6G6Z9SE5FY
399,2.0,1.0,3.221299999,0.0,9.0,9.0,9.0,1.0,OVENBIRD_5.jpg,JABIRU_4.jpg,PURPLE_FINCH_5.jpg,TURQUOISE_MOTMOT_3.jpg,FAIRY_PENGUIN_1.jpg,3.0,1.0,2.0,1.0,2.0,9.0,A12T6G6Z9SE5FY
