button.numClicks,button.timesOn,button.timesOff,workID,Age,Gender,Hours slept (last night),date,expName,psychopyVersion,OS,frameRate,space_key_responce.keys,test_test_response.keys,test_test_response.corr,test_test_response.rt,trials_2.thisRepN,trials_2.thisTrialN,trials_2.thisN,trials_2.thisIndex,trials_2.ran,image1,image2,layer,correct,key_resp_end_2.keys,key_resp_end_2.rt
1,[4.626300000071531],[4.626400000095366],A1SNC8UL8YFRH5,31,Male,6,2022-12-29_16h03.00.832,memory_pilot_most_recent,2022.2.4,Win32,60.09615385,,,,,,,,,,,,,,,
,,,A1SNC8UL8YFRH5,31,Male,6,2022-12-29_16h03.00.832,memory_pilot_most_recent,2022.2.4,Win32,60.09615385,,,,,,,,,,,,,,,
,,,A1SNC8UL8YFRH5,31,Male,6,2022-12-29_16h03.00.832,memory_pilot_most_recent,2022.2.4,Win32,60.09615385,,,,,,,,,,,,,,,
,,,A1SNC8UL8YFRH5,31,Male,6,2022-12-29_16h03.00.832,memory_pilot_most_recent,2022.2.4,Win32,60.09615385,,,,,,,,,,,,,,,
,,,A1SNC8UL8YFRH5,31,Male,6,2022-12-29_16h03.00.832,memory_pilot_most_recent,2022.2.4,Win32,60.09615385,,,,,,,,,,,,,,,
,,,A1SNC8UL8YFRH5,31,Male,6,2022-12-29_16h03.00.832,memory_pilot_most_recent,2022.2.4,Win32,60.09615385,,,,,,,,,,,,,,,
,,,A1SNC8UL8YFRH5,31,Male,6,2022-12-29_16h03.00.832,memory_pilot_most_recent,2022.2.4,Win32,60.09615385,,left,1,1.2108,0,0,0,0,1,ASIAN_CRESTED_IBIS_4.jpg,IVORY_GULL_2.jpg,3,left,,
,,,A1SNC8UL8YFRH5,31,Male,6,2022-12-29_16h03.00.832,memory_pilot_most_recent,2022.2.4,Win32,60.09615385,,left,1,1.9283,0,1,1,1,1,RUBY_THROATED_HUMMINGBIRD_3.jpg,MALAGASY_WHITE_EYE_2.jpg,1,left,,
,,,A1SNC8UL8YFRH5,31,Male,6,2022-12-29_16h03.00.832,memory_pilot_most_recent,2022.2.4,Win32,60.09615385,,left,1,1.6259,0,2,2,2,1,MYNA_1.jpg,OSTRICH_3.jpg,1,left,,
,,,A1SNC8UL8YFRH5,31,Male,6,2022-12-29_16h03.00.832,memory_pilot_most_recent,2022.2.4,Win32,60.09615385,,left,1,1.9838,0,3,3,3,1,INLAND_DOTTEREL_4.jpg,CRESTED_KINGFISHER_1.jpg,3,left,,
,,,A1SNC8UL8YFRH5,31,Male,6,2022-12-29_16h03.00.832,memory_pilot_most_recent,2022.2.4,Win32,60.09615385,,right,1,1.6893,0,4,4,4,1,SPOONBILL_3.jpg,PINK_ROBIN_4.jpg,1,right,,
,,,A1SNC8UL8YFRH5,31,Male,6,2022-12-29_16h03.00.832,memory_pilot_most_recent,2022.2.4,Win32,60.09615385,,right,1,1.7751,0,5,5,5,1,KIWI_4.jpg,AFRICAN_PIED_HORNBILL_5.jpg,1,right,,
,,,A1SNC8UL8YFRH5,31,Male,6,2022-12-29_16h03.00.832,memory_pilot_most_recent,2022.2.4,Win32,60.09615385,,right,1,1.6279,0,6,6,6,1,ORANGE_BRESTED_BUNTING_3.jpg,LITTLE_AUK_5.jpg,2,right,,
,,,A1SNC8UL8YFRH5,31,Male,6,2022-12-29_16h03.00.832,memory_pilot_most_recent,2022.2.4,Win32,60.09615385,,right,1,2.4334,0,7,7,7,1,CACTUS_WREN_3.jpg,LARK_BUNTING_2.jpg,3,right,,
,,,A1SNC8UL8YFRH5,31,Male,6,2022-12-29_16h03.00.832,memory_pilot_most_recent,2022.2.4,Win32,60.09615385,,right,1,2.0693,0,8,8,8,1,VULTURINE_GUINEAFOWL_4.jpg,RUBY_THROATED_HUMMINGBIRD_1.jpg,2,right,,
,,,A1SNC8UL8YFRH5,31,Male,6,2022-12-29_16h03.00.832,memory_pilot_most_recent,2022.2.4,Win32,60.09615385,,left,1,1.1116,0,9,9,9,1,KAGU_5.jpg,RED_BEARDED_BEE_EATER_3.jpg,1,left,,
,,,A1SNC8UL8YFRH5,31,Male,6,2022-12-29_16h03.00.832,memory_pilot_most_recent,2022.2.4,Win32,60.09615385,,left,1,1.2295,0,10,10,10,1,PEACOCK_3.jpg,STRAWBERRY_FINCH_4.jpg,2,left,,
,,,A1SNC8UL8YFRH5,31,Male,6,2022-12-29_16h03.00.832,memory_pilot_most_recent,2022.2.4,Win32,60.09615385,,right,1,0.9889,0,11,11,11,1,GREAT_POTOO_3.jpg,WHITE_CHEEKED_TURACO_5.jpg,2,right,,
,,,A1SNC8UL8YFRH5,31,Male,6,2022-12-29_16h03.00.832,memory_pilot_most_recent,2022.2.4,Win32,60.09615385,,left,0,2.078,0,12,12,12,1,GOLDEN_CHEEKED_WARBLER_3.jpg,BREWERS_BLACKBIRD_3.jpg,2,right,,
,,,A1SNC8UL8YFRH5,31,Male,6,2022-12-29_16h03.00.832,memory_pilot_most_recent,2022.2.4,Win32,60.09615385,,left,1,1.4264,0,13,13,13,1,CRESTED_CARACARA_4.jpg,TOUCHAN_4.jpg,3,left,,
,,,A1SNC8UL8YFRH5,31,Male,6,2022-12-29_16h03.00.832,memory_pilot_most_recent,2022.2.4,Win32,60.09615385,,right,1,3.1292,0,14,14,14,1,TEAL_DUCK_2.jpg,EUROPEAN_TURTLE_DOVE_3.jpg,1,right,,
,,,A1SNC8UL8YFRH5,31,Male,6,2022-12-29_16h03.00.832,memory_pilot_most_recent,2022.2.4,Win32,60.09615385,,right,1,1.9094,0,15,15,15,1,NORTHERN_BEARDLESS_TYRANNULET_5.jpg,EASTERN_TOWEE_2.jpg,3,right,,
,,,A1SNC8UL8YFRH5,31,Male,6,2022-12-29_16h03.00.832,memory_pilot_most_recent,2022.2.4,Win32,60.09615385,,left,1,1.7109,0,16,16,16,1,CASSOWARY_1.jpg,ROSY_FACED_LOVEBIRD_4.jpg,1,left,,
,,,A1SNC8UL8YFRH5,31,Male,6,2022-12-29_16h03.00.832,memory_pilot_most_recent,2022.2.4,Win32,60.09615385,,right,1,4.3342,0,17,17,17,1,EURASIAN_MAGPIE_4.jpg,DOUBLE_BRESTED_CORMARANT_5.jpg,2,right,,
,,,A1SNC8UL8YFRH5,31,Male,6,2022-12-29_16h03.00.832,memory_pilot_most_recent,2022.2.4,Win32,60.09615385,,right,1,4.1231,0,18,18,18,1,NORTHERN_GANNET_1.jpg,INDIGO_BUNTING_1.jpg,2,right,,
,,,A1SNC8UL8YFRH5,31,Male,6,2022-12-29_16h03.00.832,memory_pilot_most_recent,2022.2.4,Win32,60.09615385,,right,1,2.7123,0,19,19,19,1,BORNEAN_LEAFBIRD_3.jpg,ARARIPE_MANAKIN_4.jpg,3,right,,
,,,A1SNC8UL8YFRH5,31,Male,6,2022-12-29_16h03.00.832,memory_pilot_most_recent,2022.2.4,Win32,60.09615385,,right,1,2.2743,0,20,20,20,1,COMMON_LOON_2.jpg,CASPIAN_TERN_1.jpg,3,right,,
,,,A1SNC8UL8YFRH5,31,Male,6,2022-12-29_16h03.00.832,memory_pilot_most_recent,2022.2.4,Win32,60.09615385,,right,1,2.555,0,21,21,21,1,OYSTER_CATCHER_3.jpg,MAGPIE_GOOSE_5.jpg,3,right,,
,,,A1SNC8UL8YFRH5,31,Male,6,2022-12-29_16h03.00.832,memory_pilot_most_recent,2022.2.4,Win32,60.09615385,,right,1,2.2026,0,22,22,22,1,DOUBLE_EYED_FIG_PARROT_4.jpg,PYGMY_KINGFISHER_5.jpg,3,right,,
,,,A1SNC8UL8YFRH5,31,Male,6,2022-12-29_16h03.00.832,memory_pilot_most_recent,2022.2.4,Win32,60.09615385,,left,1,1.6318,0,23,23,23,1,GOLDEN_CHEEKED_WARBLER_2.jpg,SPOONBILL_1.jpg,1,left,,
,,,A1SNC8UL8YFRH5,31,Male,6,2022-12-29_16h03.00.832,memory_pilot_most_recent,2022.2.4,Win32,60.09615385,,left,1,1.8014,0,24,24,24,1,VERMILION_FLYCATHER_3.jpg,CALIFORNIA_GULL_1.jpg,2,left,,
,,,A1SNC8UL8YFRH5,31,Male,6,2022-12-29_16h03.00.832,memory_pilot_most_recent,2022.2.4,Win32,60.09615385,,right,1,1.7411,0,25,25,25,1,GREEN_MAGPIE_1.jpg,AMERICAN_PIPIT_5.jpg,2,right,,
,,,A1SNC8UL8YFRH5,31,Male,6,2022-12-29_16h03.00.832,memory_pilot_most_recent,2022.2.4,Win32,60.09615385,,right,1,2.2962,0,26,26,26,1,BORNEAN_BRISTLEHEAD_5.jpg,INCA_TERN_4.jpg,3,right,,
,,,A1SNC8UL8YFRH5,31,Male,6,2022-12-29_16h03.00.832,memory_pilot_most_recent,2022.2.4,Win32,60.09615385,,left,1,4.9166,0,27,27,27,1,ALPINE_CHOUGH_4.jpg,SNOWY_EGRET_2.jpg,1,left,,
,,,A1SNC8UL8YFRH5,31,Male,6,2022-12-29_16h03.00.832,memory_pilot_most_recent,2022.2.4,Win32,60.09615385,,left,1,2.2895,0,28,28,28,1,CERULEAN_WARBLER_1.jpg,AMERICAN_FLAMINGO_2.jpg,1,left,,
,,,A1SNC8UL8YFRH5,31,Male,6,2022-12-29_16h03.00.832,memory_pilot_most_recent,2022.2.4,Win32,60.09615385,,left,1,2.8998,0,29,29,29,1,ASIAN_DOLLARD_BIRD_2.jpg,ALBATROSS_2.jpg,1,left,,
,,,A1SNC8UL8YFRH5,31,Male,6,2022-12-29_16h03.00.832,memory_pilot_most_recent,2022.2.4,Win32,60.09615385,,right,1,2.0977,0,30,30,30,1,INDIGO_FLYCATCHER_2.jpg,IVORY_GULL_3.jpg,1,right,,
,,,A1SNC8UL8YFRH5,31,Male,6,2022-12-29_16h03.00.832,memory_pilot_most_recent,2022.2.4,Win32,60.09615385,,right,1,3.7995,0,31,31,31,1,MYNA_4.jpg,OVENBIRD_5.jpg,1,right,,
,,,A1SNC8UL8YFRH5,31,Male,6,2022-12-29_16h03.00.832,memory_pilot_most_recent,2022.2.4,Win32,60.09615385,,left,1,1.4956,0,32,32,32,1,ECUADORIAN_HILLSTAR_5.jpg,SCARLET_IBIS_2.jpg,1,left,,
,,,A1SNC8UL8YFRH5,31,Male,6,2022-12-29_16h03.00.832,memory_pilot_most_recent,2022.2.4,Win32,60.09615385,,left,0,7.8266,0,33,33,33,1,PINK_ROBIN_3.jpg,PARUS_MAJOR_1.jpg,3,right,,
,,,A1SNC8UL8YFRH5,31,Male,6,2022-12-29_16h03.00.832,memory_pilot_most_recent,2022.2.4,Win32,60.09615385,,right,1,6.1892,0,34,34,34,1,AMERICAN_PIPIT_1.jpg,OCELLATED_TURKEY_1.jpg,2,right,,
,,,A1SNC8UL8YFRH5,31,Male,6,2022-12-29_16h03.00.832,memory_pilot_most_recent,2022.2.4,Win32,60.09615385,,right,1,1.6718,0,35,35,35,1,RAZORBILL_1.jpg,CHUKAR_PARTRIDGE_5.jpg,2,right,,
,,,A1SNC8UL8YFRH5,31,Male,6,2022-12-29_16h03.00.832,memory_pilot_most_recent,2022.2.4,Win32,60.09615385,,left,1,3.0304,0,36,36,36,1,NORTHERN_JACANA_3.jpg,SCARLET_IBIS_4.jpg,3,left,,
,,,A1SNC8UL8YFRH5,31,Male,6,2022-12-29_16h03.00.832,memory_pilot_most_recent,2022.2.4,Win32,60.09615385,,right,1,16.0225,0,37,37,37,1,AFRICAN_FIREFINCH_3.jpg,GRAY_KINGBIRD_5.jpg,3,right,,
,,,A1SNC8UL8YFRH5,31,Male,6,2022-12-29_16h03.00.832,memory_pilot_most_recent,2022.2.4,Win32,60.09615385,,left,1,3.4051,0,38,38,38,1,KILLDEAR_2.jpg,CAATINGA_CACHOLOTE_4.jpg,2,left,,
,,,A1SNC8UL8YFRH5,31,Male,6,2022-12-29_16h03.00.832,memory_pilot_most_recent,2022.2.4,Win32,60.09615385,,right,1,4.1657,0,39,39,39,1,INDIAN_BUSTARD_2.jpg,FLAME_BOWERBIRD_3.jpg,1,right,,
,,,A1SNC8UL8YFRH5,31,Male,6,2022-12-29_16h03.00.832,memory_pilot_most_recent,2022.2.4,Win32,60.09615385,,right,1,1.5335,0,40,40,40,1,GO_AWAY_BIRD_5.jpg,STRIPPED_SWALLOW_1.jpg,3,right,,
,,,A1SNC8UL8YFRH5,31,Male,6,2022-12-29_16h03.00.832,memory_pilot_most_recent,2022.2.4,Win32,60.09615385,,right,1,3.7499,0,41,41,41,1,APAPANE_4.jpg,RUBY_THROATED_HUMMINGBIRD_2.jpg,2,right,,
,,,A1SNC8UL8YFRH5,31,Male,6,2022-12-29_16h03.00.832,memory_pilot_most_recent,2022.2.4,Win32,60.09615385,,left,1,2.115,0,42,42,42,1,TASMANIAN_HEN_5.jpg,AFRICAN_EMERALD_CUCKOO_5.jpg,2,left,,
,,,A1SNC8UL8YFRH5,31,Male,6,2022-12-29_16h03.00.832,memory_pilot_most_recent,2022.2.4,Win32,60.09615385,,left,1,4.0209,0,43,43,43,1,GREY_PLOVER_1.jpg,ECUADORIAN_HILLSTAR_3.jpg,3,left,,
,,,A1SNC8UL8YFRH5,31,Male,6,2022-12-29_16h03.00.832,memory_pilot_most_recent,2022.2.4,Win32,60.09615385,,left,1,8.578,0,44,44,44,1,LESSER_ADJUTANT_4.jpg,FAIRY_TERN_3.jpg,3,left,,
,,,A1SNC8UL8YFRH5,31,Male,6,2022-12-29_16h03.00.832,memory_pilot_most_recent,2022.2.4,Win32,60.09615385,,right,1,2.4065,0,45,45,45,1,SCARLET_IBIS_3.jpg,CRESTED_NUTHATCH_2.jpg,1,right,,
,,,A1SNC8UL8YFRH5,31,Male,6,2022-12-29_16h03.00.832,memory_pilot_most_recent,2022.2.4,Win32,60.09615385,,right,1,2.8637,0,46,46,46,1,EASTERN_MEADOWLARK_1.jpg,SHOEBILL_3.jpg,1,right,,
,,,A1SNC8UL8YFRH5,31,Male,6,2022-12-29_16h03.00.832,memory_pilot_most_recent,2022.2.4,Win32,60.09615385,,left,1,2.8608,0,47,47,47,1,BALI_STARLING_1.jpg,IBERIAN_MAGPIE_1.jpg,3,left,,
,,,A1SNC8UL8YFRH5,31,Male,6,2022-12-29_16h03.00.832,memory_pilot_most_recent,2022.2.4,Win32,60.09615385,,left,1,6.2133,0,48,48,48,1,GOLDEN_CHLOROPHONIA_5.jpg,COMMON_HOUSE_MARTIN_4.jpg,2,left,,
,,,A1SNC8UL8YFRH5,31,Male,6,2022-12-29_16h03.00.832,memory_pilot_most_recent,2022.2.4,Win32,60.09615385,,right,1,2.5315,0,49,49,49,1,GUINEA_TURACO_5.jpg,BROWN_NOODY_3.jpg,3,right,,
,,,A1SNC8UL8YFRH5,31,Male,6,2022-12-29_16h03.00.832,memory_pilot_most_recent,2022.2.4,Win32,60.09615385,,left,1,5.0605,0,50,50,50,1,SCARLET_TANAGER_2.jpg,NORTHERN_GANNET_2.jpg,2,left,,
,,,A1SNC8UL8YFRH5,31,Male,6,2022-12-29_16h03.00.832,memory_pilot_most_recent,2022.2.4,Win32,60.09615385,,left,1,2.2045,0,51,51,51,1,SPLENDID_WREN_1.jpg,CUBAN_TODY_4.jpg,3,left,,
,,,A1SNC8UL8YFRH5,31,Male,6,2022-12-29_16h03.00.832,memory_pilot_most_recent,2022.2.4,Win32,60.09615385,,right,0,5.85,0,52,52,52,1,BROWN_THRASHER_3.jpg,DOUBLE_EYED_FIG_PARROT_3.jpg,1,left,,
,,,A1SNC8UL8YFRH5,31,Male,6,2022-12-29_16h03.00.832,memory_pilot_most_recent,2022.2.4,Win32,60.09615385,,right,1,1.8966,0,53,53,53,1,MAGPIE_GOOSE_3.jpg,RUFOUS_KINGFISHER_1.jpg,2,right,,
,,,A1SNC8UL8YFRH5,31,Male,6,2022-12-29_16h03.00.832,memory_pilot_most_recent,2022.2.4,Win32,60.09615385,,right,1,1.9396,0,54,54,54,1,CINNAMON_ATTILA_2.jpg,GYRFALCON_1.jpg,2,right,,
,,,A1SNC8UL8YFRH5,31,Male,6,2022-12-29_16h03.00.832,memory_pilot_most_recent,2022.2.4,Win32,60.09615385,,right,1,3.382,0,55,55,55,1,RED_HEADED_WOODPECKER_1.jpg,LESSER_ADJUTANT_5.jpg,3,right,,
,,,A1SNC8UL8YFRH5,31,Male,6,2022-12-29_16h03.00.832,memory_pilot_most_recent,2022.2.4,Win32,60.09615385,,left,1,3.8678,0,56,56,56,1,RED_HEADED_WOODPECKER_5.jpg,CRIMSON_CHAT_3.jpg,2,left,,
,,,A1SNC8UL8YFRH5,31,Male,6,2022-12-29_16h03.00.832,memory_pilot_most_recent,2022.2.4,Win32,60.09615385,,left,1,1.8172,0,57,57,57,1,IVORY_GULL_1.jpg,WILSONS_BIRD_OF_PARADISE_4.jpg,1,left,,
,,,A1SNC8UL8YFRH5,31,Male,6,2022-12-29_16h03.00.832,memory_pilot_most_recent,2022.2.4,Win32,60.09615385,,right,1,4.3933,0,58,58,58,1,HIMALAYAN_MONAL_2.jpg,HAWAIIAN_GOOSE_4.jpg,2,right,,
,,,A1SNC8UL8YFRH5,31,Male,6,2022-12-29_16h03.00.832,memory_pilot_most_recent,2022.2.4,Win32,60.09615385,,left,1,1.4308,0,59,59,59,1,MALACHITE_KINGFISHER_2.jpg,AMERICAN_FLAMINGO_1.jpg,1,left,,
,,,A1SNC8UL8YFRH5,31,Male,6,2022-12-29_16h03.00.832,memory_pilot_most_recent,2022.2.4,Win32,60.09615385,,,,,,,,,,,,,,space,13.0388
