button.numClicks,button.timesOn,button.timesOff,workID,Age,Gender,Hours slept (last night),date,expName,psychopyVersion,OS,frameRate,space_key_responce.keys,test_test_response.keys,test_test_response.corr,test_test_response.rt,trials_2.thisRepN,trials_2.thisTrialN,trials_2.thisN,trials_2.thisIndex,trials_2.ran,image1,image2,layer,correct,key_resp_end_2.keys,key_resp_end_2.rt
1,[10.339400000095367],[10.339499999999997],A1PHDT66U6IK4Q,69,male,7,2022-12-29_13h04.15.604,memory_pilot_most_recent,2022.2.4,Win32,60.07088364,,,,,,,,,,,,,,,
,,,A1PHDT66U6IK4Q,69,male,7,2022-12-29_13h04.15.604,memory_pilot_most_recent,2022.2.4,Win32,60.07088364,,,,,,,,,,,,,,,
,,,A1PHDT66U6IK4Q,69,male,7,2022-12-29_13h04.15.604,memory_pilot_most_recent,2022.2.4,Win32,60.07088364,,,,,,,,,,,,,,,
,,,A1PHDT66U6IK4Q,69,male,7,2022-12-29_13h04.15.604,memory_pilot_most_recent,2022.2.4,Win32,60.07088364,,,,,,,,,,,,,,,
,,,A1PHDT66U6IK4Q,69,male,7,2022-12-29_13h04.15.604,memory_pilot_most_recent,2022.2.4,Win32,60.07088364,,,,,,,,,,,,,,,
,,,A1PHDT66U6IK4Q,69,male,7,2022-12-29_13h04.15.604,memory_pilot_most_recent,2022.2.4,Win32,60.07088364,,,,,,,,,,,,,,,
,,,A1PHDT66U6IK4Q,69,male,7,2022-12-29_13h04.15.604,memory_pilot_most_recent,2022.2.4,Win32,60.07088364,,right,1,3.4824,0,0,0,0,1,ALTAMIRA_YELLOWTHROAT_5.jpg,LESSER_ADJUTANT_4.jpg,1,right,,
,,,A1PHDT66U6IK4Q,69,male,7,2022-12-29_13h04.15.604,memory_pilot_most_recent,2022.2.4,Win32,60.07088364,,left,0,1.8509,0,1,1,1,1,AFRICAN_FIREFINCH_1.jpg,CRESTED_NUTHATCH_2.jpg,2,right,,
,,,A1PHDT66U6IK4Q,69,male,7,2022-12-29_13h04.15.604,memory_pilot_most_recent,2022.2.4,Win32,60.07088364,,right,1,1.3942,0,2,2,2,1,WILSONS_BIRD_OF_PARADISE_4.jpg,IVORY_GULL_1.jpg,1,right,,
,,,A1PHDT66U6IK4Q,69,male,7,2022-12-29_13h04.15.604,memory_pilot_most_recent,2022.2.4,Win32,60.07088364,,right,1,2.3538,0,3,3,3,1,EMU_2.jpg,AMERICAN_PIPIT_5.jpg,1,right,,
,,,A1PHDT66U6IK4Q,69,male,7,2022-12-29_13h04.15.604,memory_pilot_most_recent,2022.2.4,Win32,60.07088364,,right,1,2.4304,0,4,4,4,1,RED_HEADED_WOODPECKER_1.jpg,LESSER_ADJUTANT_5.jpg,3,right,,
,,,A1PHDT66U6IK4Q,69,male,7,2022-12-29_13h04.15.604,memory_pilot_most_recent,2022.2.4,Win32,60.07088364,,right,1,3.7724,0,5,5,5,1,GREY_PLOVER_4.jpg,MYNA_1.jpg,2,right,,
,,,A1PHDT66U6IK4Q,69,male,7,2022-12-29_13h04.15.604,memory_pilot_most_recent,2022.2.4,Win32,60.07088364,,right,1,1.9901,0,6,6,6,1,CHATTERING_LORY_2.jpg,PEACOCK_3.jpg,3,right,,
,,,A1PHDT66U6IK4Q,69,male,7,2022-12-29_13h04.15.604,memory_pilot_most_recent,2022.2.4,Win32,60.07088364,,left,1,4.6782,0,7,7,7,1,NORTHERN_JACANA_3.jpg,SCARLET_IBIS_4.jpg,3,left,,
,,,A1PHDT66U6IK4Q,69,male,7,2022-12-29_13h04.15.604,memory_pilot_most_recent,2022.2.4,Win32,60.07088364,,right,0,1.584,0,8,8,8,1,GOLDEN_CHLOROPHONIA_5.jpg,VERMILION_FLYCATHER_5.jpg,3,left,,
,,,A1PHDT66U6IK4Q,69,male,7,2022-12-29_13h04.15.604,memory_pilot_most_recent,2022.2.4,Win32,60.07088364,,left,1,1.6134,0,9,9,9,1,OVENBIRD_5.jpg,MYNA_4.jpg,1,left,,
,,,A1PHDT66U6IK4Q,69,male,7,2022-12-29_13h04.15.604,memory_pilot_most_recent,2022.2.4,Win32,60.07088364,,left,1,2.4778,0,10,10,10,1,KILLDEAR_2.jpg,AZURE_TIT_5.jpg,3,left,,
,,,A1PHDT66U6IK4Q,69,male,7,2022-12-29_13h04.15.604,memory_pilot_most_recent,2022.2.4,Win32,60.07088364,,left,1,1.8946,0,11,11,11,1,RUBY_THROATED_HUMMINGBIRD_1.jpg,FRIGATE_1.jpg,3,left,,
,,,A1PHDT66U6IK4Q,69,male,7,2022-12-29_13h04.15.604,memory_pilot_most_recent,2022.2.4,Win32,60.07088364,,right,1,3.0055,0,12,12,12,1,FAIRY_TERN_1.jpg,GYRFALCON_1.jpg,3,right,,
,,,A1PHDT66U6IK4Q,69,male,7,2022-12-29_13h04.15.604,memory_pilot_most_recent,2022.2.4,Win32,60.07088364,,left,1,4.1728,0,13,13,13,1,INDIGO_BUNTING_1.jpg,DARWINS_FLYCATCHER_2.jpg,3,left,,
,,,A1PHDT66U6IK4Q,69,male,7,2022-12-29_13h04.15.604,memory_pilot_most_recent,2022.2.4,Win32,60.07088364,,left,1,3.188,0,14,14,14,1,MAGPIE_GOOSE_5.jpg,OYSTER_CATCHER_3.jpg,3,left,,
,,,A1PHDT66U6IK4Q,69,male,7,2022-12-29_13h04.15.604,memory_pilot_most_recent,2022.2.4,Win32,60.07088364,,left,1,5.3757,0,15,15,15,1,LARK_BUNTING_2.jpg,KING_VULTURE_3.jpg,2,left,,
,,,A1PHDT66U6IK4Q,69,male,7,2022-12-29_13h04.15.604,memory_pilot_most_recent,2022.2.4,Win32,60.07088364,,right,1,3.3477,0,16,16,16,1,CASSOWARY_2.jpg,INLAND_DOTTEREL_4.jpg,1,right,,
,,,A1PHDT66U6IK4Q,69,male,7,2022-12-29_13h04.15.604,memory_pilot_most_recent,2022.2.4,Win32,60.07088364,,left,1,2.7239,0,17,17,17,1,BROWN_THRASHER_3.jpg,OYSTER_CATCHER_4.jpg,2,left,,
,,,A1PHDT66U6IK4Q,69,male,7,2022-12-29_13h04.15.604,memory_pilot_most_recent,2022.2.4,Win32,60.07088364,,right,1,2.6853,0,18,18,18,1,SPANGLED_COTINGA_4.jpg,BROWN_NOODY_3.jpg,2,right,,
,,,A1PHDT66U6IK4Q,69,male,7,2022-12-29_13h04.15.604,memory_pilot_most_recent,2022.2.4,Win32,60.07088364,,left,1,2.6675,0,19,19,19,1,OCELLATED_TURKEY_1.jpg,AMERICAN_PIPIT_1.jpg,2,left,,
,,,A1PHDT66U6IK4Q,69,male,7,2022-12-29_13h04.15.604,memory_pilot_most_recent,2022.2.4,Win32,60.07088364,,right,1,2.3335,0,20,20,20,1,INDIAN_BUSTARD_2.jpg,FLAME_BOWERBIRD_3.jpg,1,right,,
,,,A1PHDT66U6IK4Q,69,male,7,2022-12-29_13h04.15.604,memory_pilot_most_recent,2022.2.4,Win32,60.07088364,,left,1,6.6939,0,21,21,21,1,PYGMY_KINGFISHER_5.jpg,GRANDALA_2.jpg,1,left,,
,,,A1PHDT66U6IK4Q,69,male,7,2022-12-29_13h04.15.604,memory_pilot_most_recent,2022.2.4,Win32,60.07088364,,left,1,3.1595,0,22,22,22,1,VERMILION_FLYCATHER_3.jpg,CALIFORNIA_GULL_1.jpg,2,left,,
,,,A1PHDT66U6IK4Q,69,male,7,2022-12-29_13h04.15.604,memory_pilot_most_recent,2022.2.4,Win32,60.07088364,,right,1,2.4953,0,23,23,23,1,HYACINTH_MACAW_3.jpg,GREY_PLOVER_1.jpg,1,right,,
,,,A1PHDT66U6IK4Q,69,male,7,2022-12-29_13h04.15.604,memory_pilot_most_recent,2022.2.4,Win32,60.07088364,,left,1,2.9045,0,24,24,24,1,PINK_ROBIN_4.jpg,SPOONBILL_3.jpg,1,left,,
,,,A1PHDT66U6IK4Q,69,male,7,2022-12-29_13h04.15.604,memory_pilot_most_recent,2022.2.4,Win32,60.07088364,,left,1,3.2951,0,25,25,25,1,DOUBLE_BRESTED_CORMARANT_5.jpg,GILDED_FLICKER_2.jpg,1,left,,
,,,A1PHDT66U6IK4Q,69,male,7,2022-12-29_13h04.15.604,memory_pilot_most_recent,2022.2.4,Win32,60.07088364,,right,1,3.346,0,26,26,26,1,VIOLET_GREEN_SWALLOW_4.jpg,ASIAN_DOLLARD_BIRD_2.jpg,3,right,,
,,,A1PHDT66U6IK4Q,69,male,7,2022-12-29_13h04.15.604,memory_pilot_most_recent,2022.2.4,Win32,60.07088364,,left,1,3.6739,0,27,27,27,1,ARARIPE_MANAKIN_4.jpg,BLACK_VULTURE_1.jpg,2,left,,
,,,A1PHDT66U6IK4Q,69,male,7,2022-12-29_13h04.15.604,memory_pilot_most_recent,2022.2.4,Win32,60.07088364,,right,1,1.8672,0,28,28,28,1,BALD_EAGLE_2.jpg,GRAY_KINGBIRD_5.jpg,1,right,,
,,,A1PHDT66U6IK4Q,69,male,7,2022-12-29_13h04.15.604,memory_pilot_most_recent,2022.2.4,Win32,60.07088364,,left,1,1.5456,0,29,29,29,1,RUBY_THROATED_HUMMINGBIRD_3.jpg,NORTHERN_SHOVELER_1.jpg,3,left,,
,,,A1PHDT66U6IK4Q,69,male,7,2022-12-29_13h04.15.604,memory_pilot_most_recent,2022.2.4,Win32,60.07088364,,right,1,2.9891,0,30,30,30,1,NORTHERN_BEARDLESS_TYRANNULET_5.jpg,EASTERN_TOWEE_2.jpg,3,right,,
,,,A1PHDT66U6IK4Q,69,male,7,2022-12-29_13h04.15.604,memory_pilot_most_recent,2022.2.4,Win32,60.07088364,,right,1,1.9074,0,31,31,31,1,DOUBLE_BRESTED_CORMARANT_1.jpg,SPLENDID_WREN_1.jpg,2,right,,
,,,A1PHDT66U6IK4Q,69,male,7,2022-12-29_13h04.15.604,memory_pilot_most_recent,2022.2.4,Win32,60.07088364,,left,1,1.6125,0,32,32,32,1,IVORY_GULL_3.jpg,SNOWY_EGRET_4.jpg,3,left,,
,,,A1PHDT66U6IK4Q,69,male,7,2022-12-29_13h04.15.604,memory_pilot_most_recent,2022.2.4,Win32,60.07088364,,left,1,2.2456,0,33,33,33,1,RED_HEADED_WOODPECKER_5.jpg,ASHY_STORM_PETREL_2.jpg,1,left,,
,,,A1PHDT66U6IK4Q,69,male,7,2022-12-29_13h04.15.604,memory_pilot_most_recent,2022.2.4,Win32,60.07088364,,left,1,4.0404,0,34,34,34,1,MALACHITE_KINGFISHER_2.jpg,INCA_TERN_2.jpg,2,left,,
,,,A1PHDT66U6IK4Q,69,male,7,2022-12-29_13h04.15.604,memory_pilot_most_recent,2022.2.4,Win32,60.07088364,,left,1,3.5714,0,35,35,35,1,ECUADORIAN_HILLSTAR_5.jpg,BOBOLINK_5.jpg,2,left,,
,,,A1PHDT66U6IK4Q,69,male,7,2022-12-29_13h04.15.604,memory_pilot_most_recent,2022.2.4,Win32,60.07088364,,left,0,6.3971,0,36,36,36,1,ALEXANDRINE_PARAKEET_1.jpg,AFRICAN_PIED_HORNBILL_5.jpg,2,right,,
,,,A1PHDT66U6IK4Q,69,male,7,2022-12-29_13h04.15.604,memory_pilot_most_recent,2022.2.4,Win32,60.07088364,,right,1,2.7638,0,37,37,37,1,APAPANE_4.jpg,RUBY_THROATED_HUMMINGBIRD_2.jpg,2,right,,
,,,A1PHDT66U6IK4Q,69,male,7,2022-12-29_13h04.15.604,memory_pilot_most_recent,2022.2.4,Win32,60.07088364,,right,1,3.3546,0,38,38,38,1,AFRICAN_EMERALD_CUCKOO_5.jpg,TASMANIAN_HEN_5.jpg,2,right,,
,,,A1PHDT66U6IK4Q,69,male,7,2022-12-29_13h04.15.604,memory_pilot_most_recent,2022.2.4,Win32,60.07088364,,left,1,1.8994,0,39,39,39,1,SCARLET_TANAGER_2.jpg,BEARDED_BARBET_2.jpg,1,left,,
,,,A1PHDT66U6IK4Q,69,male,7,2022-12-29_13h04.15.604,memory_pilot_most_recent,2022.2.4,Win32,60.07088364,,left,1,2.5231,0,40,40,40,1,CERULEAN_WARBLER_1.jpg,AMERICAN_FLAMINGO_5.jpg,2,left,,
,,,A1PHDT66U6IK4Q,69,male,7,2022-12-29_13h04.15.604,memory_pilot_most_recent,2022.2.4,Win32,60.07088364,,left,1,5.2691,0,41,41,41,1,LITTLE_AUK_5.jpg,ORANGE_BRESTED_BUNTING_3.jpg,2,left,,
,,,A1PHDT66U6IK4Q,69,male,7,2022-12-29_13h04.15.604,memory_pilot_most_recent,2022.2.4,Win32,60.07088364,,right,1,2.1566,0,42,42,42,1,CUBAN_TODY_3.jpg,HAWAIIAN_GOOSE_4.jpg,1,right,,
,,,A1PHDT66U6IK4Q,69,male,7,2022-12-29_13h04.15.604,memory_pilot_most_recent,2022.2.4,Win32,60.07088364,,left,1,2.4727,0,43,43,43,1,ALPINE_CHOUGH_4.jpg,EUROPEAN_GOLDFINCH_3.jpg,2,left,,
,,,A1PHDT66U6IK4Q,69,male,7,2022-12-29_13h04.15.604,memory_pilot_most_recent,2022.2.4,Win32,60.07088364,,left,1,4.4803,0,44,44,44,1,CRESTED_CARACARA_4.jpg,TOUCHAN_4.jpg,3,left,,
,,,A1PHDT66U6IK4Q,69,male,7,2022-12-29_13h04.15.604,memory_pilot_most_recent,2022.2.4,Win32,60.07088364,,right,1,8.5804,0,45,45,45,1,DEMOISELLE_CRANE_1.jpg,KAGU_5.jpg,3,right,,
,,,A1PHDT66U6IK4Q,69,male,7,2022-12-29_13h04.15.604,memory_pilot_most_recent,2022.2.4,Win32,60.07088364,,left,1,3.6215,0,46,46,46,1,GOLDEN_CHEEKED_WARBLER_2.jpg,WHITE_THROATED_BEE_EATER_1.jpg,3,left,,
,,,A1PHDT66U6IK4Q,69,male,7,2022-12-29_13h04.15.604,memory_pilot_most_recent,2022.2.4,Win32,60.07088364,,left,1,3.5754,0,47,47,47,1,PARUS_MAJOR_1.jpg,CALIFORNIA_GULL_2.jpg,2,left,,
,,,A1PHDT66U6IK4Q,69,male,7,2022-12-29_13h04.15.604,memory_pilot_most_recent,2022.2.4,Win32,60.07088364,,right,1,1.8561,0,48,48,48,1,CAPE_LONGCLAW_5.jpg,BALI_STARLING_1.jpg,1,right,,
,,,A1PHDT66U6IK4Q,69,male,7,2022-12-29_13h04.15.604,memory_pilot_most_recent,2022.2.4,Win32,60.07088364,,left,1,3.8166,0,49,49,49,1,INCA_TERN_4.jpg,SMITHS_LONGSPUR_5.jpg,2,left,,
,,,A1PHDT66U6IK4Q,69,male,7,2022-12-29_13h04.15.604,memory_pilot_most_recent,2022.2.4,Win32,60.07088364,,left,1,2.7065,0,50,50,50,1,BREWERS_BLACKBIRD_3.jpg,GUINEA_TURACO_3.jpg,1,left,,
,,,A1PHDT66U6IK4Q,69,male,7,2022-12-29_13h04.15.604,memory_pilot_most_recent,2022.2.4,Win32,60.07088364,,right,1,3.488,0,51,51,51,1,AFRICAN_OYSTER_CATCHER_2.jpg,CASSOWARY_1.jpg,3,right,,
,,,A1PHDT66U6IK4Q,69,male,7,2022-12-29_13h04.15.604,memory_pilot_most_recent,2022.2.4,Win32,60.07088364,,right,0,5.6392,0,52,52,52,1,CHUKAR_PARTRIDGE_5.jpg,OSTRICH_5.jpg,1,left,,
,,,A1PHDT66U6IK4Q,69,male,7,2022-12-29_13h04.15.604,memory_pilot_most_recent,2022.2.4,Win32,60.07088364,,left,1,6.1388,0,53,53,53,1,SHOEBILL_3.jpg,BALD_EAGLE_5.jpg,3,left,,
,,,A1PHDT66U6IK4Q,69,male,7,2022-12-29_13h04.15.604,memory_pilot_most_recent,2022.2.4,Win32,60.07088364,,left,0,7.0109,0,54,54,54,1,EUROPEAN_GOLDFINCH_4.jpg,CASPIAN_TERN_1.jpg,2,right,,
,,,A1PHDT66U6IK4Q,69,male,7,2022-12-29_13h04.15.604,memory_pilot_most_recent,2022.2.4,Win32,60.07088364,,right,0,5.0326,0,55,55,55,1,EUROPEAN_TURTLE_DOVE_3.jpg,MALABAR_HORNBILL_2.jpg,3,left,,
,,,A1PHDT66U6IK4Q,69,male,7,2022-12-29_13h04.15.604,memory_pilot_most_recent,2022.2.4,Win32,60.07088364,,right,1,4.7805,0,56,56,56,1,GO_AWAY_BIRD_5.jpg,STRIPPED_SWALLOW_1.jpg,3,right,,
,,,A1PHDT66U6IK4Q,69,male,7,2022-12-29_13h04.15.604,memory_pilot_most_recent,2022.2.4,Win32,60.07088364,,right,0,1.1804,0,57,57,57,1,RUFOUS_KINGFISHER_1.jpg,SNOWY_OWL_5.jpg,1,left,,
,,,A1PHDT66U6IK4Q,69,male,7,2022-12-29_13h04.15.604,memory_pilot_most_recent,2022.2.4,Win32,60.07088364,,left,0,2.4026,0,58,58,58,1,NORTHERN_MOCKINGBIRD_4.jpg,WHITE_CHEEKED_TURACO_5.jpg,1,right,,
,,,A1PHDT66U6IK4Q,69,male,7,2022-12-29_13h04.15.604,memory_pilot_most_recent,2022.2.4,Win32,60.07088364,,right,1,8.6493,0,59,59,59,1,CANARY_2.jpg,ASIAN_CRESTED_IBIS_4.jpg,1,right,,
,,,A1PHDT66U6IK4Q,69,male,7,2022-12-29_13h04.15.604,memory_pilot_most_recent,2022.2.4,Win32,60.07088364,,,,,,,,,,,,,,space,22.4698
