,layer,correct,test_test_response.keys,test_test_response.corr,test_test_response.rt,trials_2.thisRepN,trials_2.thisTrialN,trials_2.thisN,trials_2.thisIndex,trials_2.ran,image1,image2,subject
0,1.0,left,left,1.0,1.8992,0.0,0.0,0.0,0.0,1.0,2238496457-319749.jpg,2238570142-333223.jpg,A87D3K9YVKTQ7
1,2.0,right,right,1.0,1.4516,0.0,1.0,1.0,1.0,1.0,2430664847-345753.jpg,2592380138-56727.jpg,A87D3K9YVKTQ7
2,3.0,right,left,0.0,1.7773,0.0,2.0,2.0,2.0,1.0,2592380136-279476.jpg,2883272438-68133.jpg,A87D3K9YVKTQ7
3,2.0,right,right,1.0,1.5279,0.0,3.0,3.0,3.0,1.0,2986455341-296758.jpg,2862691449-137104.jpg,A87D3K9YVKTQ7
4,1.0,right,right,1.0,1.1473,0.0,4.0,4.0,4.0,1.0,2238570526-257884.jpg,2274829821-263682.jpg,A87D3K9YVKTQ7
5,1.0,right,left,0.0,1.7311,0.0,5.0,5.0,5.0,1.0,2864908323-64106.jpg,2512876023-52283.jpg,A87D3K9YVKTQ7
6,2.0,left,left,1.0,1.3681,0.0,6.0,6.0,6.0,1.0,2238499155-170911.jpg,2452380832-348593.jpg,A87D3K9YVKTQ7
7,3.0,right,right,1.0,1.3013,0.0,7.0,7.0,7.0,1.0,2238554179-106663.jpg,2460547467-349421.jpg,A87D3K9YVKTQ7
8,3.0,right,left,0.0,2.0857,0.0,8.0,8.0,8.0,1.0,2901936309-143207.jpg,2898635427-367120.jpg,A87D3K9YVKTQ7
9,3.0,left,left,1.0,1.8308,0.0,9.0,9.0,9.0,1.0,2901939379-143479.jpg,2864909422-362141.jpg,A87D3K9YVKTQ7
10,1.0,left,right,0.0,1.6636,0.0,10.0,10.0,10.0,1.0,2898617468-68274.jpg,2512875899-126682.jpg,A87D3K9YVKTQ7
11,1.0,right,left,0.0,2.1374,0.0,11.0,11.0,11.0,1.0,2452380171-273112.jpg,2452380166-273109.jpg,A87D3K9YVKTQ7
12,2.0,left,left,1.0,1.1525,0.0,12.0,12.0,12.0,1.0,2964213381-294060.jpg,2238520921-248323.jpg,A87D3K9YVKTQ7
13,3.0,right,right,1.0,1.9503,0.0,13.0,13.0,13.0,1.0,2238470979-92618.jpg,2238516618-25604.jpg,A87D3K9YVKTQ7
14,1.0,right,right,1.0,1.4666,0.0,14.0,14.0,14.0,1.0,2989724308-73928.jpg,2883254439-140941.jpg,A87D3K9YVKTQ7
15,2.0,left,left,1.0,1.4945,0.0,15.0,15.0,15.0,1.0,2994405328-74628.jpg,2825702353-60662.jpg,A87D3K9YVKTQ7
16,3.0,right,right,1.0,2.5808,0.0,16.0,16.0,16.0,1.0,2986399339-146857.jpg,2238471391-240918.jpg,A87D3K9YVKTQ7
17,3.0,right,right,1.0,2.2509,0.0,17.0,17.0,17.0,1.0,2238490590-169598.jpg,2964224310-219527.jpg,A87D3K9YVKTQ7
18,3.0,right,right,1.0,1.2961,0.0,18.0,18.0,18.0,1.0,2452381442-348755.jpg,2238584018-38513.jpg,A87D3K9YVKTQ7
19,1.0,right,left,0.0,1.5375,0.0,19.0,19.0,19.0,1.0,2868488422-363715.jpg,2901941426-292805.jpg,A87D3K9YVKTQ7
20,2.0,right,right,1.0,2.1464,0.0,20.0,20.0,20.0,1.0,2238478760-167789.jpg,2625337302-355866.jpg,A87D3K9YVKTQ7
21,2.0,right,right,1.0,1.6354,0.0,21.0,21.0,21.0,1.0,2446760226-272006.jpg,2579432576-279079.jpg,A87D3K9YVKTQ7
22,2.0,left,left,1.0,1.6974,0.0,22.0,22.0,22.0,1.0,2898633480-217190.jpg,2986450334-147216.jpg,A87D3K9YVKTQ7
23,3.0,left,right,0.0,1.9003,0.0,23.0,23.0,23.0,1.0,2238584869-113153.jpg,2986455373-73646.jpg,A87D3K9YVKTQ7
24,3.0,right,right,1.0,2.3964,0.0,24.0,24.0,24.0,1.0,2238562336-256366.jpg,2883255450-215309.jpg,A87D3K9YVKTQ7
25,1.0,right,right,1.0,1.6003,0.0,25.0,25.0,25.0,1.0,2446760483-49429.jpg,2331570830-189984.jpg,A87D3K9YVKTQ7
26,1.0,right,right,1.0,1.5614,0.0,26.0,26.0,26.0,1.0,2460547477-349426.jpg,2238129579-80916.jpg,A87D3K9YVKTQ7
27,2.0,left,left,1.0,2.1023,0.0,27.0,27.0,27.0,1.0,2238575092-334269.jpg,2860304305-210777.jpg,A87D3K9YVKTQ7
28,2.0,left,left,1.0,1.6643,0.0,28.0,28.0,28.0,1.0,2864909447-362146.jpg,2238555799-106905.jpg,A87D3K9YVKTQ7
29,2.0,right,right,1.0,1.9968,0.0,29.0,29.0,29.0,1.0,2512875796-274856.jpg,2964216465-219242.jpg,A87D3K9YVKTQ7
30,2.0,left,left,1.0,3.2788,0.0,30.0,30.0,30.0,1.0,2964213381-294061.jpg,2981234334-145491.jpg,A87D3K9YVKTQ7
31,2.0,right,right,1.0,2.6279,0.0,31.0,31.0,31.0,1.0,2446759580-197801.jpg,2986408352-371293.jpg,A87D3K9YVKTQ7
32,2.0,right,right,1.0,2.5913,0.0,32.0,32.0,32.0,1.0,2575121890-204630.jpg,2883254439-140940.jpg,A87D3K9YVKTQ7
33,1.0,left,right,0.0,2.2458,0.0,33.0,33.0,33.0,1.0,2898624426-291546.jpg,2986402377-371266.jpg,A87D3K9YVKTQ7
34,1.0,right,left,0.0,4.3859,0.0,34.0,34.0,34.0,1.0,2238216693-10721.jpg,2868475410-213219.jpg,A87D3K9YVKTQ7
35,3.0,right,right,1.0,4.8388,0.0,35.0,35.0,35.0,1.0,2446760226-272005.jpg,2575964140-205050.jpg,A87D3K9YVKTQ7
36,1.0,left,left,1.0,4.1733,0.0,36.0,36.0,36.0,1.0,2868485396-288511.jpg,2868470456-287597.jpg,A87D3K9YVKTQ7
37,3.0,right,right,1.0,4.4934,0.0,37.0,37.0,37.0,1.0,2575964014-130589.jpg,2883255450-215311.jpg,A87D3K9YVKTQ7
38,1.0,left,left,1.0,5.511,0.0,38.0,38.0,38.0,1.0,2446760940-198145.jpg,2449443300-198739.jpg,A87D3K9YVKTQ7
39,2.0,left,left,1.0,5.3634,0.0,39.0,39.0,39.0,1.0,2446759803-49249.jpg,2238468265-166556.jpg,A87D3K9YVKTQ7
40,1.0,right,right,1.0,3.3339,0.0,40.0,40.0,40.0,1.0,2856919327-359676.jpg,2238126735-154721.jpg,A87D3K9YVKTQ7
41,1.0,right,right,1.0,4.6709,0.0,41.0,41.0,41.0,1.0,2579432708-56394.jpg,2901938432-367627.jpg,A87D3K9YVKTQ7
42,1.0,right,right,1.0,2.8044,0.0,42.0,42.0,42.0,1.0,2825712309-134957.jpg,2238521193-26286.jpg,A87D3K9YVKTQ7
43,2.0,right,right,1.0,4.1227,0.0,43.0,43.0,43.0,1.0,2449442365-198476.jpg,2898626385-216899.jpg,A87D3K9YVKTQ7
44,3.0,right,right,1.0,2.9878,0.0,44.0,44.0,44.0,1.0,2864911339-138231.jpg,2449442529-124446.jpg,A87D3K9YVKTQ7
45,1.0,left,right,0.0,7.0758,0.0,45.0,45.0,45.0,1.0,2238429999-90218.jpg,2986448334-147157.jpg,A87D3K9YVKTQ7
46,2.0,left,left,1.0,2.5933,0.0,46.0,46.0,46.0,1.0,2898632385-217137.jpg,2238480803-19739.jpg,A87D3K9YVKTQ7
47,1.0,left,right,0.0,3.8094,0.0,47.0,47.0,47.0,1.0,2901934573-69337.jpg,2986401333-73218.jpg,A87D3K9YVKTQ7
48,1.0,left,left,1.0,1.724,0.0,48.0,48.0,48.0,1.0,2964209380-218956.jpg,2868488456-288710.jpg,A87D3K9YVKTQ7
49,2.0,left,left,1.0,3.4863,0.0,49.0,49.0,49.0,1.0,2238480434-93829.jpg,2592380255-205551.jpg,A87D3K9YVKTQ7
50,3.0,right,right,1.0,1.6576,0.0,50.0,50.0,50.0,1.0,2994403305-222559.jpg,2864906345-212360.jpg,A87D3K9YVKTQ7
51,3.0,left,right,0.0,4.5483,0.0,51.0,51.0,51.0,1.0,2446760524-123999.jpg,2238539138-29878.jpg,A87D3K9YVKTQ7
52,3.0,left,left,1.0,1.3731,0.0,52.0,52.0,52.0,1.0,2238561223-33794.jpg,2883271323-68049.jpg,A87D3K9YVKTQ7
53,1.0,left,left,1.0,6.1825,0.0,53.0,53.0,53.0,1.0,2446758985-197609.jpg,2898633421-291973.jpg,A87D3K9YVKTQ7
54,3.0,left,left,1.0,5.7628,0.0,54.0,54.0,54.0,1.0,2964218374-144968.jpg,2238525773-27014.jpg,A87D3K9YVKTQ7
55,3.0,left,left,1.0,4.8879,0.0,55.0,55.0,55.0,1.0,2986400320-221190.jpg,2238538133-29662.jpg,A87D3K9YVKTQ7
56,2.0,left,right,0.0,3.9207,0.0,56.0,56.0,56.0,1.0,2981231446-294731.jpg,2238568685-183597.jpg,A87D3K9YVKTQ7
57,3.0,left,left,1.0,3.7257,0.0,57.0,57.0,57.0,1.0,2898632385-217138.jpg,2460547992-349586.jpg,A87D3K9YVKTQ7
58,3.0,left,left,1.0,2.5906,0.0,58.0,58.0,58.0,1.0,2238375302-311538.jpg,2460547508-51571.jpg,A87D3K9YVKTQ7
59,2.0,right,right,1.0,2.7769,0.0,59.0,59.0,59.0,1.0,2449443271-272729.jpg,2238550049-105691.jpg,A87D3K9YVKTQ7
60,3.0,left,left,1.0,1.6369,0.0,0.0,0.0,0.0,1.0,2868475410-213219.jpg,2238436851-238821.jpg,A3HFB277V5OXY0
61,1.0,left,right,0.0,1.1268,0.0,1.0,1.0,1.0,1.0,2512876023-52283.jpg,2864908323-64106.jpg,A3HFB277V5OXY0
62,2.0,right,left,0.0,1.2465,0.0,2.0,2.0,2.0,1.0,2446760226-272006.jpg,2579432576-279079.jpg,A3HFB277V5OXY0
63,3.0,left,left,1.0,1.5398,0.0,3.0,3.0,3.0,1.0,2625337302-355866.jpg,2598726160-205998.jpg,A3HFB277V5OXY0
64,1.0,left,right,0.0,1.7987,0.0,4.0,4.0,4.0,1.0,2901941426-292805.jpg,2868488422-363715.jpg,A3HFB277V5OXY0
65,3.0,right,right,1.0,1.2539,0.0,5.0,5.0,5.0,1.0,2238161924-82646.jpg,2238129579-80916.jpg,A3HFB277V5OXY0
66,1.0,left,left,1.0,1.2985,0.0,6.0,6.0,6.0,1.0,2898624426-291546.jpg,2986402377-371266.jpg,A3HFB277V5OXY0
67,3.0,right,left,0.0,1.5361,0.0,7.0,7.0,7.0,1.0,2964222378-71332.jpg,2238429999-90218.jpg,A3HFB277V5OXY0
68,2.0,right,right,1.0,0.2439,0.0,8.0,8.0,8.0,1.0,2901936369-143233.jpg,2883272438-68133.jpg,A3HFB277V5OXY0
69,2.0,right,right,1.0,1.6697,0.0,9.0,9.0,9.0,1.0,2964213441-294073.jpg,2964224310-219527.jpg,A3HFB277V5OXY0
70,2.0,left,left,1.0,1.3163,0.0,10.0,10.0,10.0,1.0,2446760524-123999.jpg,2238552469-106359.jpg,A3HFB277V5OXY0
71,3.0,right,right,1.0,1.4287,0.0,11.0,11.0,11.0,1.0,2238537701-251772.jpg,2592380138-56727.jpg,A3HFB277V5OXY0
72,2.0,right,left,0.0,1.2996,0.0,12.0,12.0,12.0,1.0,2238521157-323782.jpg,2964218374-144968.jpg,A3HFB277V5OXY0
73,3.0,right,right,1.0,1.1449,0.0,13.0,13.0,13.0,1.0,2864904453-63932.jpg,2898632385-217137.jpg,A3HFB277V5OXY0
74,1.0,left,right,0.0,1.1004,0.0,14.0,14.0,14.0,1.0,2981231446-294731.jpg,2986450330-221526.jpg,A3HFB277V5OXY0
75,2.0,left,right,0.0,1.4222,0.0,15.0,15.0,15.0,1.0,2986400320-221190.jpg,2238470979-92615.jpg,A3HFB277V5OXY0
76,2.0,right,left,0.0,1.0586,0.0,16.0,16.0,16.0,1.0,2446758985-197610.jpg,2274829821-263682.jpg,A3HFB277V5OXY0
77,3.0,right,right,1.0,1.0571,0.0,17.0,17.0,17.0,1.0,2446760917-347439.jpg,2964216465-219242.jpg,A3HFB277V5OXY0
78,3.0,left,right,0.0,0.9109,0.0,18.0,18.0,18.0,1.0,2446758985-197609.jpg,2984618344-146295.jpg,A3HFB277V5OXY0
79,2.0,left,right,0.0,0.8859,0.0,19.0,19.0,19.0,1.0,2238584869-113153.jpg,2981241419-145844.jpg,A3HFB277V5OXY0
80,1.0,right,left,0.0,0.8119,0.0,20.0,20.0,20.0,1.0,2238481575-168208.jpg,2883255450-215311.jpg,A3HFB277V5OXY0
81,1.0,left,right,0.0,0.7318,0.0,21.0,21.0,21.0,1.0,2883254439-140941.jpg,2989724308-73928.jpg,A3HFB277V5OXY0
82,2.0,left,left,1.0,0.7307,0.0,22.0,22.0,22.0,1.0,2883255450-215309.jpg,2868476439-138927.jpg,A3HFB277V5OXY0
83,1.0,left,right,0.0,0.7664,0.0,23.0,23.0,23.0,1.0,2986408352-371293.jpg,2868488422-363713.jpg,A3HFB277V5OXY0
84,3.0,left,left,1.0,0.6935,0.0,24.0,24.0,24.0,1.0,2238499155-170911.jpg,2238373603-13733.jpg,A3HFB277V5OXY0
85,2.0,left,right,0.0,0.7476,0.0,25.0,25.0,25.0,1.0,2446760940-198145.jpg,2592380188-56743.jpg,A3HFB277V5OXY0
86,2.0,right,left,0.0,0.8277,0.0,26.0,26.0,26.0,1.0,2449443292-348022.jpg,2901939379-143479.jpg,A3HFB277V5OXY0
87,3.0,left,right,0.0,0.8202,0.0,27.0,27.0,27.0,1.0,2898617468-68274.jpg,2862684406-285700.jpg,A3HFB277V5OXY0
88,2.0,right,left,0.0,0.743,0.0,28.0,28.0,28.0,1.0,2592380049-131077.jpg,2238375302-311538.jpg,A3HFB277V5OXY0
89,1.0,right,right,1.0,0.8736,0.0,29.0,29.0,29.0,1.0,2452380166-273110.jpg,2883254439-140940.jpg,A3HFB277V5OXY0
90,3.0,right,left,0.0,0.6912,0.0,30.0,30.0,30.0,1.0,2446760226-272005.jpg,2575964140-205050.jpg,A3HFB277V5OXY0
91,3.0,left,left,1.0,7.5341,0.0,31.0,31.0,31.0,1.0,2238126735-154721.jpg,2901951430-218724.jpg,A3HFB277V5OXY0
92,2.0,right,right,1.0,14.5996,0.0,32.0,32.0,32.0,1.0,2986455341-296758.jpg,2862691449-137104.jpg,A3HFB277V5OXY0
93,1.0,left,left,1.0,0.9302,0.0,33.0,33.0,33.0,1.0,2452380166-273109.jpg,2452380171-273112.jpg,A3HFB277V5OXY0
94,3.0,left,right,0.0,0.8004,0.0,34.0,34.0,34.0,1.0,2238575092-334269.jpg,2964218374-144967.jpg,A3HFB277V5OXY0
95,1.0,right,left,0.0,0.7047,0.0,35.0,35.0,35.0,1.0,2238436632-314069.jpg,2898635427-367120.jpg,A3HFB277V5OXY0
96,1.0,right,right,1.0,0.7828,0.0,36.0,36.0,36.0,1.0,2446760483-49429.jpg,2331570830-189984.jpg,A3HFB277V5OXY0
97,1.0,left,left,1.0,0.7822,0.0,37.0,37.0,37.0,1.0,2864909447-362146.jpg,2874316384-140749.jpg,A3HFB277V5OXY0
98,1.0,left,right,0.0,1.6205,0.0,38.0,38.0,38.0,1.0,2898626385-216899.jpg,2989715328-73658.jpg,A3HFB277V5OXY0
99,1.0,left,left,1.0,0.9578,0.0,39.0,39.0,39.0,1.0,2460547467-349421.jpg,2901934573-69336.jpg,A3HFB277V5OXY0
100,2.0,right,left,0.0,25.997,0.0,40.0,40.0,40.0,1.0,2898633321-291943.jpg,2238584018-38513.jpg,A3HFB277V5OXY0
101,1.0,left,right,0.0,27.6653,0.0,41.0,41.0,41.0,1.0,2964213381-294060.jpg,2898631359-142720.jpg,A3HFB277V5OXY0
102,3.0,left,right,0.0,9.9651,0.0,42.0,42.0,42.0,1.0,2864906345-212360.jpg,2994403305-222559.jpg,A3HFB277V5OXY0
103,3.0,right,right,1.0,22.471,0.0,43.0,43.0,43.0,1.0,2898617396-291219.jpg,2964209380-218956.jpg,A3HFB277V5OXY0
104,1.0,right,left,0.0,15.0101,0.0,44.0,44.0,44.0,1.0,2238570142-333223.jpg,2238496457-319749.jpg,A3HFB277V5OXY0
105,3.0,right,right,1.0,1.2553,0.0,45.0,45.0,45.0,1.0,2864911339-138231.jpg,2449442529-124446.jpg,A3HFB277V5OXY0
106,2.0,left,right,0.0,1.3412,0.0,46.0,46.0,46.0,1.0,2898632385-217138.jpg,2273188118-40829.jpg,A3HFB277V5OXY0
107,3.0,left,left,1.0,0.9489,0.0,47.0,47.0,47.0,1.0,2898633480-217190.jpg,2237858043-1434.jpg,A3HFB277V5OXY0
108,1.0,right,right,1.0,1.0052,0.0,48.0,48.0,48.0,1.0,2238573549-110485.jpg,2238516618-25604.jpg,A3HFB277V5OXY0
109,2.0,right,right,1.0,20.0823,0.0,49.0,49.0,49.0,1.0,2825702353-60662.jpg,2994405328-74628.jpg,A3HFB277V5OXY0
110,3.0,left,right,0.0,1.4176,0.0,50.0,50.0,50.0,1.0,2868485396-288511.jpg,2238380314-88261.jpg,A3HFB277V5OXY0
111,3.0,right,right,1.0,0.8429,0.0,51.0,51.0,51.0,1.0,2446760306-272024.jpg,2238521193-26286.jpg,A3HFB277V5OXY0
112,1.0,left,right,0.0,0.961,0.0,52.0,52.0,52.0,1.0,2238550049-105691.jpg,2238482972-317759.jpg,A3HFB277V5OXY0
113,2.0,right,right,1.0,9.2771,0.0,53.0,53.0,53.0,1.0,2592380177-354626.jpg,2238561223-33794.jpg,A3HFB277V5OXY0
114,2.0,left,right,0.0,0.9923,0.0,54.0,54.0,54.0,1.0,2238471391-240918.jpg,2901943388-69995.jpg,A3HFB277V5OXY0
115,1.0,left,left,1.0,0.0203,0.0,55.0,55.0,55.0,1.0,2446759803-49249.jpg,2592380177-354629.jpg,A3HFB277V5OXY0
116,2.0,left,right,0.0,0.6984,0.0,56.0,56.0,56.0,1.0,2901938432-367627.jpg,2856919327-359675.jpg,A3HFB277V5OXY0
117,1.0,right,right,1.0,0.5281,0.0,57.0,57.0,57.0,1.0,2804906319-133082.jpg,2238480434-93829.jpg,A3HFB277V5OXY0
118,3.0,right,left,0.0,0.0132,0.0,58.0,58.0,58.0,1.0,2901936407-367476.jpg,2901934573-69337.jpg,A3HFB277V5OXY0
119,2.0,left,right,0.0,0.1953,0.0,59.0,59.0,59.0,1.0,2964213381-294061.jpg,2981234334-145491.jpg,A3HFB277V5OXY0
120,3.0,right,right,1.0,2.9255,0.0,0.0,0.0,0.0,1.0,2452381442-348755.jpg,2238584018-38513.jpg,A177M9OIBDUWFW
121,2.0,right,right,1.0,2.1144,0.0,1.0,1.0,1.0,1.0,2901951459-144433.jpg,2238429999-90218.jpg,A177M9OIBDUWFW
122,1.0,right,right,1.0,1.2504,0.0,2.0,2.0,2.0,1.0,2901934573-69336.jpg,2460547467-349421.jpg,A177M9OIBDUWFW
123,1.0,left,left,1.0,1.999799999,0.0,3.0,3.0,3.0,1.0,2898617468-68274.jpg,2512875899-126682.jpg,A177M9OIBDUWFW
124,1.0,left,right,0.0,2.017099998,0.0,4.0,4.0,4.0,1.0,2898624426-291546.jpg,2986402377-371266.jpg,A177M9OIBDUWFW
125,3.0,right,left,0.0,1.8901,0.0,5.0,5.0,5.0,1.0,2856916345-210056.jpg,2986408352-371293.jpg,A177M9OIBDUWFW
126,1.0,left,right,0.0,2.148200001,0.0,6.0,6.0,6.0,1.0,2964224310-219527.jpg,2238380178-14011.jpg,A177M9OIBDUWFW
127,2.0,right,left,0.0,1.495200001,0.0,7.0,7.0,7.0,1.0,2986450334-147216.jpg,2898633480-217190.jpg,A177M9OIBDUWFW
128,2.0,right,right,1.0,1.217799999,0.0,8.0,8.0,8.0,1.0,2238468265-166556.jpg,2446759803-49249.jpg,A177M9OIBDUWFW
129,2.0,left,left,1.0,1.485299999,0.0,9.0,9.0,9.0,1.0,2868485396-288511.jpg,2868472420-213024.jpg,A177M9OIBDUWFW
130,2.0,right,right,1.0,1.595799999,0.0,10.0,10.0,10.0,1.0,2874301437-363905.jpg,2238521193-26286.jpg,A177M9OIBDUWFW
131,2.0,left,right,0.0,1.692400002,0.0,11.0,11.0,11.0,1.0,2883255450-215311.jpg,2868485399-139476.jpg,A177M9OIBDUWFW
132,1.0,right,right,1.0,2.028900002,0.0,12.0,12.0,12.0,1.0,2986397365-221133.jpg,2864906345-212360.jpg,A177M9OIBDUWFW
133,1.0,right,right,1.0,1.902700001,0.0,13.0,13.0,13.0,1.0,2986450330-221526.jpg,2981231446-294731.jpg,A177M9OIBDUWFW
134,3.0,left,left,1.0,2.0496,0.0,14.0,14.0,14.0,1.0,2592380138-56727.jpg,2238537701-251772.jpg,A177M9OIBDUWFW
135,1.0,left,left,1.0,1.2616,0.0,15.0,15.0,15.0,1.0,2331570830-189984.jpg,2446760483-49429.jpg,A177M9OIBDUWFW
136,3.0,right,left,0.0,3.2836,0.0,16.0,16.0,16.0,1.0,2446760917-347439.jpg,2964216465-219242.jpg,A177M9OIBDUWFW
137,1.0,right,right,1.0,1.1875,0.0,17.0,17.0,17.0,1.0,2238436632-314069.jpg,2898635427-367120.jpg,A177M9OIBDUWFW
138,2.0,left,left,1.0,1.4735,0.0,18.0,18.0,18.0,1.0,2238129579-80916.jpg,2898618444-142233.jpg,A177M9OIBDUWFW
139,2.0,left,left,1.0,1.918200001,0.0,19.0,19.0,19.0,1.0,2238496457-319749.jpg,2592380234-131135.jpg,A177M9OIBDUWFW
140,2.0,left,left,1.0,1.479200001,0.0,20.0,20.0,20.0,1.0,2238499155-170911.jpg,2452380832-348593.jpg,A177M9OIBDUWFW
141,2.0,right,right,1.0,1.4311,0.0,21.0,21.0,21.0,1.0,2238345946-235007.jpg,2901934573-69337.jpg,A177M9OIBDUWFW
142,2.0,left,left,1.0,1.224700001,0.0,22.0,22.0,22.0,1.0,2986400320-221190.jpg,2238470979-92615.jpg,A177M9OIBDUWFW
143,1.0,right,right,1.0,1.9139,0.0,23.0,23.0,23.0,1.0,2238360884-87525.jpg,2898632385-217137.jpg,A177M9OIBDUWFW
144,2.0,left,left,1.0,1.5841,0.0,24.0,24.0,24.0,1.0,2238575092-334269.jpg,2860304305-210777.jpg,A177M9OIBDUWFW
145,3.0,left,left,1.0,1.659,0.0,25.0,25.0,25.0,1.0,2238561223-33794.jpg,2883271323-68049.jpg,A177M9OIBDUWFW
146,3.0,right,right,1.0,1.217,0.0,26.0,26.0,26.0,1.0,2989724308-73930.jpg,2964213381-294060.jpg,A177M9OIBDUWFW
147,1.0,right,left,0.0,1.8361,0.0,27.0,27.0,27.0,1.0,2868488422-363715.jpg,2901941426-292805.jpg,A177M9OIBDUWFW
148,3.0,right,right,1.0,2.6411,0.0,28.0,28.0,28.0,1.0,2417207511-266975.jpg,2883254439-140941.jpg,A177M9OIBDUWFW
149,1.0,right,right,1.0,1.4431,0.0,29.0,29.0,29.0,1.0,2238481610-168214.jpg,2449442529-124446.jpg,A177M9OIBDUWFW
150,1.0,right,left,0.0,1.936199999,0.0,30.0,30.0,30.0,1.0,2804906319-133082.jpg,2238480434-93829.jpg,A177M9OIBDUWFW
151,2.0,left,left,1.0,1.1669,0.0,31.0,31.0,31.0,1.0,2964213381-294061.jpg,2981234334-145491.jpg,A177M9OIBDUWFW
152,2.0,right,left,0.0,2.569799999,0.0,32.0,32.0,32.0,1.0,2898636443-69154.jpg,2512876023-52283.jpg,A177M9OIBDUWFW
153,3.0,right,right,1.0,2.4126,0.0,33.0,33.0,33.0,1.0,2812983311-281946.jpg,2883254439-140940.jpg,A177M9OIBDUWFW
154,1.0,right,left,0.0,1.5015,0.0,34.0,34.0,34.0,1.0,2237949408-4018.jpg,2883272438-68133.jpg,A177M9OIBDUWFW
155,3.0,right,right,1.0,2.391299999,0.0,35.0,35.0,35.0,1.0,2984618344-146295.jpg,2446758985-197609.jpg,A177M9OIBDUWFW
156,2.0,right,right,1.0,1.476199999,0.0,36.0,36.0,36.0,1.0,2238547522-328488.jpg,2575964140-205050.jpg,A177M9OIBDUWFW
157,1.0,left,left,1.0,2.247900002,0.0,37.0,37.0,37.0,1.0,2238584869-113153.jpg,2864901420-212147.jpg,A177M9OIBDUWFW
158,2.0,left,left,1.0,2.491699999,0.0,38.0,38.0,38.0,1.0,2864909447-362146.jpg,2238555799-106905.jpg,A177M9OIBDUWFW
159,1.0,left,left,1.0,1.123800001,0.0,39.0,39.0,39.0,1.0,2901939379-143479.jpg,2986450334-147215.jpg,A177M9OIBDUWFW
160,3.0,right,right,1.0,1.638700001,0.0,40.0,40.0,40.0,1.0,2986399339-146857.jpg,2238471391-240918.jpg,A177M9OIBDUWFW
161,3.0,left,left,1.0,1.0944,0.0,41.0,41.0,41.0,1.0,2446760940-198145.jpg,2446760692-347392.jpg,A177M9OIBDUWFW
162,3.0,left,right,0.0,1.5945,0.0,42.0,42.0,42.0,1.0,2238550049-105691.jpg,2964219468-71238.jpg,A177M9OIBDUWFW
163,3.0,right,left,0.0,1.716900002,0.0,43.0,43.0,43.0,1.0,2862687442-360837.jpg,2274829821-263682.jpg,A177M9OIBDUWFW
164,1.0,left,left,1.0,2.485,0.0,44.0,44.0,44.0,1.0,2238375302-311538.jpg,2592380255-205552.jpg,A177M9OIBDUWFW
165,1.0,left,left,1.0,1.589700001,0.0,45.0,45.0,45.0,1.0,2898632385-217138.jpg,2575120738-55529.jpg,A177M9OIBDUWFW
166,3.0,right,right,1.0,1.497299999,0.0,46.0,46.0,46.0,1.0,2883273443-68192.jpg,2994405328-74628.jpg,A177M9OIBDUWFW
167,3.0,right,right,1.0,1.1214,0.0,47.0,47.0,47.0,1.0,2238380901-236499.jpg,2452380166-273109.jpg,A177M9OIBDUWFW
168,1.0,left,left,1.0,2.788400002,0.0,48.0,48.0,48.0,1.0,2964209380-218956.jpg,2868488456-288710.jpg,A177M9OIBDUWFW
169,1.0,right,right,1.0,1.3436,0.0,49.0,49.0,49.0,1.0,2989715328-73658.jpg,2898626385-216899.jpg,A177M9OIBDUWFW
170,1.0,right,right,1.0,1.3386,0.0,50.0,50.0,50.0,1.0,2238540598-30035.jpg,2862691449-137104.jpg,A177M9OIBDUWFW
171,3.0,right,right,1.0,2.341700001,0.0,51.0,51.0,51.0,1.0,2238562336-256366.jpg,2883255450-215309.jpg,A177M9OIBDUWFW
172,2.0,right,right,1.0,1.359199999,0.0,52.0,52.0,52.0,1.0,2238521157-323782.jpg,2964218374-144968.jpg,A177M9OIBDUWFW
173,2.0,left,left,1.0,1.7619,0.0,53.0,53.0,53.0,1.0,2238516618-25604.jpg,2862686459-136888.jpg,A177M9OIBDUWFW
174,3.0,right,right,1.0,3.5446,0.0,54.0,54.0,54.0,1.0,2424122568-45517.jpg,2901938432-367627.jpg,A177M9OIBDUWFW
175,3.0,left,right,0.0,2.4439,0.0,55.0,55.0,55.0,1.0,2238126735-154721.jpg,2901951430-218724.jpg,A177M9OIBDUWFW
176,2.0,left,left,1.0,1.6351,0.0,56.0,56.0,56.0,1.0,2446760524-123999.jpg,2238552469-106359.jpg,A177M9OIBDUWFW
177,2.0,right,right,1.0,3.8305,0.0,57.0,57.0,57.0,1.0,2446760226-272006.jpg,2579432576-279079.jpg,A177M9OIBDUWFW
178,3.0,right,left,0.0,2.309,0.0,58.0,58.0,58.0,1.0,2238436851-238821.jpg,2868475410-213219.jpg,A177M9OIBDUWFW
179,3.0,left,left,1.0,2.0815,0.0,59.0,59.0,59.0,1.0,2625337302-355866.jpg,2598726160-205998.jpg,A177M9OIBDUWFW
180,3.0,right,right,1.0,3.54,0.0,0.0,0.0,0.0,1.0,2874303453-66056.jpg,2864909447-362146.jpg,AHZP05WVFXXCG
181,1.0,right,right,1.0,1.6222,0.0,1.0,1.0,1.0,1.0,2238436632-314069.jpg,2898635427-367120.jpg,AHZP05WVFXXCG
182,1.0,left,left,1.0,1.7961,0.0,2.0,2.0,2.0,1.0,2274829821-263682.jpg,2238570526-257884.jpg,AHZP05WVFXXCG
183,2.0,left,left,1.0,3.1545,0.0,3.0,3.0,3.0,1.0,2238129579-80916.jpg,2898618444-142233.jpg,AHZP05WVFXXCG
184,3.0,left,left,1.0,1.1543,0.0,4.0,4.0,4.0,1.0,2901934573-69337.jpg,2901936407-367476.jpg,AHZP05WVFXXCG
185,3.0,left,left,1.0,1.1137,0.0,5.0,5.0,5.0,1.0,2238375302-311538.jpg,2460547508-51571.jpg,AHZP05WVFXXCG
186,1.0,left,left,1.0,2.0892,0.0,6.0,6.0,6.0,1.0,2883254439-140940.jpg,2452380166-273110.jpg,AHZP05WVFXXCG
187,1.0,left,left,1.0,1.4058,0.0,7.0,7.0,7.0,1.0,2625337302-355866.jpg,2425492472-343825.jpg,AHZP05WVFXXCG
188,3.0,left,left,1.0,1.4049,0.0,8.0,8.0,8.0,1.0,2901939379-143479.jpg,2864909422-362141.jpg,AHZP05WVFXXCG
189,3.0,left,left,1.0,1.4022,0.0,9.0,9.0,9.0,1.0,2238575092-334269.jpg,2964218374-144967.jpg,AHZP05WVFXXCG
190,2.0,right,right,1.0,2.0453,0.0,10.0,10.0,10.0,1.0,2238480803-19739.jpg,2898632385-217137.jpg,AHZP05WVFXXCG
191,2.0,left,left,1.0,1.737,0.0,11.0,11.0,11.0,1.0,2238471391-240918.jpg,2901943388-69995.jpg,AHZP05WVFXXCG
192,2.0,left,left,1.0,1.8785,0.0,12.0,12.0,12.0,1.0,2868475410-213219.jpg,2575964140-205051.jpg,AHZP05WVFXXCG
193,2.0,right,right,1.0,1.5832,0.0,13.0,13.0,13.0,1.0,2238470079-92499.jpg,2460547467-349421.jpg,AHZP05WVFXXCG
194,2.0,right,right,1.0,2.5733,0.0,14.0,14.0,14.0,1.0,2238585512-336576.jpg,2898617468-68274.jpg,AHZP05WVFXXCG
195,1.0,left,left,1.0,1.5521,0.0,15.0,15.0,15.0,1.0,2883255450-215311.jpg,2238481575-168208.jpg,AHZP05WVFXXCG
196,3.0,right,left,0.0,1.4122,0.0,16.0,16.0,16.0,1.0,2417207511-266975.jpg,2883254439-140941.jpg,AHZP05WVFXXCG
197,2.0,left,left,1.0,2.1138,0.0,17.0,17.0,17.0,1.0,2901938432-367627.jpg,2856919327-359675.jpg,AHZP05WVFXXCG
198,2.0,left,left,1.0,1.63,0.0,18.0,18.0,18.0,1.0,2238521193-26286.jpg,2874301437-363905.jpg,AHZP05WVFXXCG
199,2.0,left,right,0.0,2.3945,0.0,19.0,19.0,19.0,1.0,2446760940-198145.jpg,2592380188-56743.jpg,AHZP05WVFXXCG
200,2.0,left,left,1.0,2.0833,0.0,20.0,20.0,20.0,1.0,2868485396-288511.jpg,2868472420-213024.jpg,AHZP05WVFXXCG
201,3.0,left,left,1.0,2.2295,0.0,21.0,21.0,21.0,1.0,2446760524-123999.jpg,2238539138-29878.jpg,AHZP05WVFXXCG
202,1.0,left,right,0.0,1.8574,0.0,22.0,22.0,22.0,1.0,2964224310-219527.jpg,2238380178-14011.jpg,AHZP05WVFXXCG
203,1.0,left,right,0.0,1.5219,0.0,23.0,23.0,23.0,1.0,2883255450-215309.jpg,2238429999-90216.jpg,AHZP05WVFXXCG
204,2.0,right,left,0.0,1.4277,0.0,24.0,24.0,24.0,1.0,2592379781-279345.jpg,2452380166-273109.jpg,AHZP05WVFXXCG
205,3.0,right,right,1.0,1.6338,0.0,25.0,25.0,25.0,1.0,2237858043-1434.jpg,2898633480-217190.jpg,AHZP05WVFXXCG
206,3.0,left,left,1.0,1.4793,0.0,26.0,26.0,26.0,1.0,2238584018-38513.jpg,2452381442-348755.jpg,AHZP05WVFXXCG
207,3.0,left,right,0.0,2.0492,0.0,27.0,27.0,27.0,1.0,2449442529-124446.jpg,2864911339-138231.jpg,AHZP05WVFXXCG
208,1.0,right,left,0.0,1.4112,0.0,28.0,28.0,28.0,1.0,2868488422-363713.jpg,2986408352-371293.jpg,AHZP05WVFXXCG
209,3.0,right,right,1.0,1.6302,0.0,29.0,29.0,29.0,1.0,2238470979-92618.jpg,2238516618-25604.jpg,AHZP05WVFXXCG
210,3.0,right,right,1.0,2.3599,0.0,30.0,30.0,30.0,1.0,2964222378-71332.jpg,2238429999-90218.jpg,AHZP05WVFXXCG
211,3.0,right,right,1.0,2.6282,0.0,31.0,31.0,31.0,1.0,2592380136-279476.jpg,2883272438-68133.jpg,AHZP05WVFXXCG
212,2.0,right,right,1.0,1.3664,0.0,32.0,32.0,32.0,1.0,2986455341-296758.jpg,2862691449-137104.jpg,AHZP05WVFXXCG
213,1.0,right,right,1.0,1.2481,0.0,33.0,33.0,33.0,1.0,2898633421-291973.jpg,2446758985-197609.jpg,AHZP05WVFXXCG
214,2.0,left,left,1.0,1.4777,0.0,34.0,34.0,34.0,1.0,2898624426-291546.jpg,2549106844-127878.jpg,AHZP05WVFXXCG
215,3.0,right,right,1.0,1.3323,0.0,35.0,35.0,35.0,1.0,2901945303-70125.jpg,2901941426-292805.jpg,AHZP05WVFXXCG
216,1.0,right,right,1.0,1.6759,0.0,36.0,36.0,36.0,1.0,2238482920-168428.jpg,2575964140-205050.jpg,AHZP05WVFXXCG
217,1.0,left,left,1.0,1.4303,0.0,37.0,37.0,37.0,1.0,2331570830-189984.jpg,2446760483-49429.jpg,AHZP05WVFXXCG
218,1.0,right,right,1.0,1.5026,0.0,38.0,38.0,38.0,1.0,2592380177-354629.jpg,2446759803-49249.jpg,AHZP05WVFXXCG
219,2.0,right,right,1.0,1.0567,0.0,39.0,39.0,39.0,1.0,2273188118-40829.jpg,2898632385-217138.jpg,AHZP05WVFXXCG
220,3.0,left,left,1.0,1.5045,0.0,40.0,40.0,40.0,1.0,2592380138-56727.jpg,2238537701-251772.jpg,AHZP05WVFXXCG
221,1.0,right,right,1.0,0.948,0.0,41.0,41.0,41.0,1.0,2986450330-221526.jpg,2981231446-294731.jpg,AHZP05WVFXXCG
222,3.0,right,left,0.0,1.9624,0.0,42.0,42.0,42.0,1.0,2986455373-73646.jpg,2238584869-113153.jpg,AHZP05WVFXXCG
223,1.0,left,right,0.0,1.6021,0.0,43.0,43.0,43.0,1.0,2898626385-216899.jpg,2989715328-73658.jpg,AHZP05WVFXXCG
224,2.0,left,right,0.0,1.4046,0.0,44.0,44.0,44.0,1.0,2579432576-279079.jpg,2446760226-272006.jpg,AHZP05WVFXXCG
225,1.0,right,right,1.0,1.654,0.0,45.0,45.0,45.0,1.0,2238482972-317759.jpg,2238550049-105691.jpg,AHZP05WVFXXCG
226,2.0,left,left,1.0,2.1807,0.0,46.0,46.0,46.0,1.0,2964213381-294061.jpg,2981234334-145491.jpg,AHZP05WVFXXCG
227,2.0,right,right,1.0,1.3309,0.0,47.0,47.0,47.0,1.0,2512875796-274856.jpg,2964216465-219242.jpg,AHZP05WVFXXCG
228,1.0,left,right,0.0,2.2839,0.0,48.0,48.0,48.0,1.0,2238126735-154721.jpg,2856919327-359676.jpg,AHZP05WVFXXCG
229,2.0,right,right,1.0,1.0792,0.0,49.0,49.0,49.0,1.0,2238520921-248323.jpg,2964213381-294060.jpg,AHZP05WVFXXCG
230,1.0,left,left,1.0,1.7448,0.0,50.0,50.0,50.0,1.0,2964209380-218956.jpg,2868488456-288710.jpg,AHZP05WVFXXCG
231,3.0,right,right,1.0,2.0044,0.0,51.0,51.0,51.0,1.0,2238538133-29662.jpg,2986400320-221190.jpg,AHZP05WVFXXCG
232,1.0,left,left,1.0,1.2156,0.0,52.0,52.0,52.0,1.0,2864906345-212360.jpg,2986397365-221133.jpg,AHZP05WVFXXCG
233,1.0,left,right,0.0,2.0817,0.0,53.0,53.0,53.0,1.0,2238561223-33794.jpg,2238506233-23904.jpg,AHZP05WVFXXCG
234,2.0,right,right,1.0,1.5486,0.0,54.0,54.0,54.0,1.0,2592380255-205551.jpg,2238480434-93829.jpg,AHZP05WVFXXCG
235,3.0,left,left,1.0,1.9171,0.0,55.0,55.0,55.0,1.0,2238496457-319749.jpg,2460547467-349422.jpg,AHZP05WVFXXCG
236,1.0,right,right,1.0,1.8969,0.0,56.0,56.0,56.0,1.0,2417206274-118542.jpg,2994405328-74628.jpg,AHZP05WVFXXCG
237,3.0,left,left,1.0,1.9444,0.0,57.0,57.0,57.0,1.0,2964218374-144968.jpg,2238525773-27014.jpg,AHZP05WVFXXCG
238,2.0,left,left,1.0,1.2004,0.0,58.0,58.0,58.0,1.0,2238499155-170911.jpg,2452380832-348593.jpg,AHZP05WVFXXCG
239,3.0,left,left,1.0,1.5854,0.0,59.0,59.0,59.0,1.0,2512876023-52283.jpg,2238576267-334532.jpg,AHZP05WVFXXCG
240,1.0,left,left,1.0,2.329700001,0.0,0.0,0.0,0.0,1.0,2238516618-25604.jpg,2238573549-110485.jpg,A389RPZ5TJZQ7D
241,1.0,left,left,1.0,1.755,0.0,1.0,1.0,1.0,1.0,2898632385-217137.jpg,2238360884-87525.jpg,A389RPZ5TJZQ7D
242,3.0,right,right,1.0,4.7761,0.0,2.0,2.0,2.0,1.0,2417207511-266975.jpg,2883254439-140941.jpg,A389RPZ5TJZQ7D
243,3.0,left,left,1.0,2.570299999,0.0,3.0,3.0,3.0,1.0,2446758985-197609.jpg,2984618344-146295.jpg,A389RPZ5TJZQ7D
244,1.0,left,left,1.0,1.494200001,0.0,4.0,4.0,4.0,1.0,2625337302-355866.jpg,2425492472-343825.jpg,A389RPZ5TJZQ7D
245,1.0,left,right,0.0,3.7625,0.0,5.0,5.0,5.0,1.0,2446760940-198145.jpg,2449443300-198739.jpg,A389RPZ5TJZQ7D
246,1.0,left,left,1.0,2.295099998,0.0,6.0,6.0,6.0,1.0,2964218374-144968.jpg,2238411877-313125.jpg,A389RPZ5TJZQ7D
247,3.0,left,left,1.0,2.908200001,0.0,7.0,7.0,7.0,1.0,2238499155-170911.jpg,2238373603-13733.jpg,A389RPZ5TJZQ7D
248,2.0,left,left,1.0,2.3691,0.0,8.0,8.0,8.0,1.0,2238550049-105691.jpg,2449443271-272729.jpg,A389RPZ5TJZQ7D
249,3.0,left,left,1.0,1.7349,0.0,9.0,9.0,9.0,1.0,2898632385-217138.jpg,2460547992-349586.jpg,A389RPZ5TJZQ7D
250,3.0,right,right,1.0,3.007799999,0.0,10.0,10.0,10.0,1.0,2862687442-360837.jpg,2274829821-263682.jpg,A389RPZ5TJZQ7D
251,1.0,right,right,1.0,2.5416,0.0,11.0,11.0,11.0,1.0,2868470400-212889.jpg,2238471391-240918.jpg,A389RPZ5TJZQ7D
252,1.0,left,left,1.0,1.812699999,0.0,12.0,12.0,12.0,1.0,2868485396-288511.jpg,2868470456-287597.jpg,A389RPZ5TJZQ7D
253,2.0,right,right,1.0,1.717799999,0.0,13.0,13.0,13.0,1.0,2874301437-363905.jpg,2238521193-26286.jpg,A389RPZ5TJZQ7D
254,2.0,left,right,0.0,5.245800001,0.0,14.0,14.0,14.0,1.0,2238584018-38513.jpg,2898633321-291943.jpg,A389RPZ5TJZQ7D
255,1.0,left,left,1.0,1.426799999,0.0,15.0,15.0,15.0,1.0,2901938432-367627.jpg,2579432708-56394.jpg,A389RPZ5TJZQ7D
256,1.0,left,left,1.0,1.577799999,0.0,16.0,16.0,16.0,1.0,2331570830-189984.jpg,2446760483-49429.jpg,A389RPZ5TJZQ7D
257,3.0,left,left,1.0,2.7131,0.0,17.0,17.0,17.0,1.0,2964224310-219527.jpg,2238490590-169598.jpg,A389RPZ5TJZQ7D
258,3.0,right,right,1.0,2.326299999,0.0,18.0,18.0,18.0,1.0,2864909422-362141.jpg,2901939379-143479.jpg,A389RPZ5TJZQ7D
259,2.0,left,left,1.0,1.865299999,0.0,19.0,19.0,19.0,1.0,2512876023-52283.jpg,2898636443-69154.jpg,A389RPZ5TJZQ7D
260,3.0,right,right,1.0,1.5259,0.0,20.0,20.0,20.0,1.0,2238554179-106663.jpg,2460547467-349421.jpg,A389RPZ5TJZQ7D
261,2.0,left,right,0.0,2.957800001,0.0,21.0,21.0,21.0,1.0,2238126735-154721.jpg,2575122854-130480.jpg,A389RPZ5TJZQ7D
262,3.0,right,right,1.0,2.6724,0.0,22.0,22.0,22.0,1.0,2446760917-347439.jpg,2964216465-219242.jpg,A389RPZ5TJZQ7D
263,3.0,right,right,1.0,2.183,0.0,23.0,23.0,23.0,1.0,2901936309-143207.jpg,2898635427-367120.jpg,A389RPZ5TJZQ7D
264,2.0,right,right,1.0,5.249700001,0.0,24.0,24.0,24.0,1.0,2238547522-328488.jpg,2575964140-205050.jpg,A389RPZ5TJZQ7D
265,2.0,right,right,1.0,2.886299999,0.0,25.0,25.0,25.0,1.0,2868485399-139476.jpg,2883255450-215311.jpg,A389RPZ5TJZQ7D
266,1.0,right,left,0.0,1.5705,0.0,26.0,26.0,26.0,1.0,2868488422-363715.jpg,2901941426-292805.jpg,A389RPZ5TJZQ7D
267,2.0,right,right,1.0,1.569,0.0,27.0,27.0,27.0,1.0,2430664847-345753.jpg,2592380138-56727.jpg,A389RPZ5TJZQ7D
268,2.0,right,left,0.0,2.9925,0.0,28.0,28.0,28.0,1.0,2860304305-210777.jpg,2238575092-334269.jpg,A389RPZ5TJZQ7D
269,1.0,left,left,1.0,2.5031,0.0,29.0,29.0,29.0,1.0,2868475410-213219.jpg,2238216693-10721.jpg,A389RPZ5TJZQ7D
270,3.0,left,left,1.0,7.777699999,0.0,30.0,30.0,30.0,1.0,2994405328-74628.jpg,2883273443-68192.jpg,A389RPZ5TJZQ7D
271,1.0,right,right,1.0,2.440599998,0.0,31.0,31.0,31.0,1.0,2592380255-205552.jpg,2238375302-311538.jpg,A389RPZ5TJZQ7D
272,1.0,right,right,1.0,6.5461,0.0,32.0,32.0,32.0,1.0,2238540598-30035.jpg,2862691449-137104.jpg,A389RPZ5TJZQ7D
273,3.0,left,left,1.0,2.466599998,0.0,33.0,33.0,33.0,1.0,2981231446-294731.jpg,2417207297-342139.jpg,A389RPZ5TJZQ7D
274,1.0,left,right,0.0,3.897800001,0.0,34.0,34.0,34.0,1.0,2452380166-273109.jpg,2452380171-273112.jpg,A389RPZ5TJZQ7D
275,3.0,right,right,1.0,3.823799999,0.0,35.0,35.0,35.0,1.0,2901936407-367476.jpg,2901934573-69337.jpg,A389RPZ5TJZQ7D
276,1.0,right,right,1.0,1.862200001,0.0,36.0,36.0,36.0,1.0,2868488456-288710.jpg,2964209380-218956.jpg,A389RPZ5TJZQ7D
277,3.0,right,right,1.0,2.3381,0.0,37.0,37.0,37.0,1.0,2874303453-66056.jpg,2864909447-362146.jpg,A389RPZ5TJZQ7D
278,2.0,right,right,1.0,5.410400002,0.0,38.0,38.0,38.0,1.0,2449442365-198476.jpg,2898626385-216899.jpg,A389RPZ5TJZQ7D
279,3.0,right,right,1.0,2.2626,0.0,39.0,39.0,39.0,1.0,2812983311-281946.jpg,2883254439-140940.jpg,A389RPZ5TJZQ7D
280,2.0,right,left,0.0,3.1369,0.0,40.0,40.0,40.0,1.0,2901951459-144433.jpg,2238429999-90218.jpg,A389RPZ5TJZQ7D
281,1.0,right,left,0.0,2.1876,0.0,41.0,41.0,41.0,1.0,2592380177-354629.jpg,2446759803-49249.jpg,A389RPZ5TJZQ7D
282,3.0,left,left,1.0,2.4569,0.0,42.0,42.0,42.0,1.0,2898624426-291546.jpg,2864902304-137862.jpg,A389RPZ5TJZQ7D
283,3.0,left,left,1.0,3.3864,0.0,43.0,43.0,43.0,1.0,2449442529-124446.jpg,2864911339-138231.jpg,A389RPZ5TJZQ7D
284,3.0,left,left,1.0,2.2331,0.0,44.0,44.0,44.0,1.0,2238496457-319749.jpg,2460547467-349422.jpg,A389RPZ5TJZQ7D
285,2.0,left,left,1.0,1.261199999,0.0,45.0,45.0,45.0,1.0,2964213381-294060.jpg,2238520921-248323.jpg,A389RPZ5TJZQ7D
286,2.0,right,right,1.0,6.7105,0.0,46.0,46.0,46.0,1.0,2238585512-336576.jpg,2898617468-68274.jpg,A389RPZ5TJZQ7D
287,2.0,right,right,1.0,1.956,0.0,47.0,47.0,47.0,1.0,2446760226-272006.jpg,2579432576-279079.jpg,A389RPZ5TJZQ7D
288,2.0,left,left,1.0,2.7569,0.0,48.0,48.0,48.0,1.0,2898633480-217190.jpg,2986450334-147216.jpg,A389RPZ5TJZQ7D
289,2.0,right,right,1.0,1.2911,0.0,49.0,49.0,49.0,1.0,2981234334-145491.jpg,2964213381-294061.jpg,A389RPZ5TJZQ7D
290,2.0,right,right,1.0,1.927799999,0.0,50.0,50.0,50.0,1.0,2981241419-145844.jpg,2238584869-113153.jpg,A389RPZ5TJZQ7D
291,3.0,left,right,0.0,1.7559,0.0,51.0,51.0,51.0,1.0,2238480434-93829.jpg,2238479903-19596.jpg,A389RPZ5TJZQ7D
292,1.0,left,left,1.0,1.7275,0.0,52.0,52.0,52.0,1.0,2238129579-80916.jpg,2460547477-349426.jpg,A389RPZ5TJZQ7D
293,1.0,right,right,1.0,2.898099998,0.0,53.0,53.0,53.0,1.0,2238506233-23904.jpg,2238561223-33794.jpg,A389RPZ5TJZQ7D
294,2.0,right,right,1.0,2.598700001,0.0,54.0,54.0,54.0,1.0,2901936369-143233.jpg,2883272438-68133.jpg,A389RPZ5TJZQ7D
295,3.0,right,right,1.0,2.781099998,0.0,55.0,55.0,55.0,1.0,2238538133-29662.jpg,2986400320-221190.jpg,A389RPZ5TJZQ7D
296,1.0,right,right,1.0,1.311900002,0.0,56.0,56.0,56.0,1.0,2986397365-221133.jpg,2864906345-212360.jpg,A389RPZ5TJZQ7D
297,2.0,right,left,0.0,2.227,0.0,57.0,57.0,57.0,1.0,2446759580-197801.jpg,2986408352-371293.jpg,A389RPZ5TJZQ7D
298,1.0,left,left,1.0,2.7189,0.0,58.0,58.0,58.0,1.0,2446760524-123999.jpg,2446760621-272102.jpg,A389RPZ5TJZQ7D
299,2.0,left,right,0.0,1.9845,0.0,59.0,59.0,59.0,1.0,2883255450-215309.jpg,2868476439-138927.jpg,A389RPZ5TJZQ7D
300,3.0,right,right,1.0,11.1915,0.0,0.0,0.0,0.0,1.0,2898618440-216545.jpg,2898626385-216899.jpg,AIXO7JFFSBR5O
301,3.0,right,right,1.0,1.8719,0.0,1.0,1.0,1.0,1.0,2238554179-106663.jpg,2460547467-349421.jpg,AIXO7JFFSBR5O
302,2.0,right,left,0.0,5.0254,0.0,2.0,2.0,2.0,1.0,2512875796-274856.jpg,2964216465-219242.jpg,AIXO7JFFSBR5O
303,3.0,right,right,1.0,1.7673,0.0,3.0,3.0,3.0,1.0,2598726160-205998.jpg,2625337302-355866.jpg,AIXO7JFFSBR5O
304,1.0,right,right,1.0,2.2446,0.0,4.0,4.0,4.0,1.0,2238429999-90216.jpg,2883255450-215309.jpg,AIXO7JFFSBR5O
305,3.0,left,left,1.0,1.7086,0.0,5.0,5.0,5.0,1.0,2994405328-74628.jpg,2883273443-68192.jpg,AIXO7JFFSBR5O
306,3.0,right,right,1.0,2.4906,0.0,6.0,6.0,6.0,1.0,2460547992-349586.jpg,2898632385-217138.jpg,AIXO7JFFSBR5O
307,1.0,left,left,1.0,1.6049,0.0,7.0,7.0,7.0,1.0,2964213381-294060.jpg,2898631359-142720.jpg,AIXO7JFFSBR5O
308,1.0,left,left,1.0,1.7205,0.0,8.0,8.0,8.0,1.0,2446760940-198145.jpg,2449443300-198739.jpg,AIXO7JFFSBR5O
309,1.0,left,left,1.0,1.4793,0.0,9.0,9.0,9.0,1.0,2446758985-197609.jpg,2898633421-291973.jpg,AIXO7JFFSBR5O
310,3.0,left,left,1.0,2.0581,0.0,10.0,10.0,10.0,1.0,2579432576-279079.jpg,2458348144-125787.jpg,AIXO7JFFSBR5O
311,3.0,right,right,1.0,2.6977,0.0,11.0,11.0,11.0,1.0,2237858043-1434.jpg,2898633480-217190.jpg,AIXO7JFFSBR5O
312,1.0,right,left,0.0,2.5217,0.0,12.0,12.0,12.0,1.0,2864908323-64106.jpg,2512876023-52283.jpg,AIXO7JFFSBR5O
313,3.0,left,left,1.0,1.7315,0.0,13.0,13.0,13.0,1.0,2238480434-93829.jpg,2238479903-19596.jpg,AIXO7JFFSBR5O
314,1.0,right,left,0.0,4.0747,0.0,14.0,14.0,14.0,1.0,2864901420-212147.jpg,2238584869-113153.jpg,AIXO7JFFSBR5O
315,2.0,left,right,0.0,3.2197,0.0,15.0,15.0,15.0,1.0,2238496457-319749.jpg,2592380234-131135.jpg,AIXO7JFFSBR5O
316,2.0,left,left,1.0,2.2782,0.0,16.0,16.0,16.0,1.0,2238550049-105691.jpg,2449443271-272729.jpg,AIXO7JFFSBR5O
317,3.0,left,left,1.0,3.628,0.0,17.0,17.0,17.0,1.0,2238561223-33794.jpg,2883271323-68049.jpg,AIXO7JFFSBR5O
318,2.0,left,left,1.0,1.8324,0.0,18.0,18.0,18.0,1.0,2898632385-217137.jpg,2238480803-19739.jpg,AIXO7JFFSBR5O
319,2.0,right,right,1.0,1.4786,0.0,19.0,19.0,19.0,1.0,2868472420-213024.jpg,2868485396-288511.jpg,AIXO7JFFSBR5O
320,1.0,right,right,1.0,2.6417,0.0,20.0,20.0,20.0,1.0,2986450334-147215.jpg,2901939379-143479.jpg,AIXO7JFFSBR5O
321,3.0,left,left,1.0,1.7317,0.0,21.0,21.0,21.0,1.0,2238471391-240918.jpg,2986399339-146857.jpg,AIXO7JFFSBR5O
322,1.0,left,left,1.0,1.7979,0.0,22.0,22.0,22.0,1.0,2452380166-273109.jpg,2452380171-273112.jpg,AIXO7JFFSBR5O
323,3.0,left,left,1.0,1.2814,0.0,23.0,23.0,23.0,1.0,2964224310-219527.jpg,2238490590-169598.jpg,AIXO7JFFSBR5O
324,2.0,right,right,1.0,1.4004,0.0,24.0,24.0,24.0,1.0,2898631429-142736.jpg,2964209380-218956.jpg,AIXO7JFFSBR5O
325,3.0,right,right,1.0,1.8584,0.0,25.0,25.0,25.0,1.0,2901936309-143207.jpg,2898635427-367120.jpg,AIXO7JFFSBR5O
326,2.0,left,left,1.0,1.6713,0.0,26.0,26.0,26.0,1.0,2238429999-90218.jpg,2901951459-144433.jpg,AIXO7JFFSBR5O
327,1.0,right,right,1.0,1.8225,0.0,27.0,27.0,27.0,1.0,2237949408-4018.jpg,2883272438-68133.jpg,AIXO7JFFSBR5O
328,2.0,left,left,1.0,1.9623,0.0,28.0,28.0,28.0,1.0,2901934573-69337.jpg,2238345946-235007.jpg,AIXO7JFFSBR5O
329,2.0,right,right,1.0,1.7318,0.0,29.0,29.0,29.0,1.0,2874301437-363905.jpg,2238521193-26286.jpg,AIXO7JFFSBR5O
330,1.0,right,left,0.0,1.976,0.0,30.0,30.0,30.0,1.0,2238573549-110485.jpg,2238516618-25604.jpg,AIXO7JFFSBR5O
331,1.0,left,left,1.0,1.61,0.0,31.0,31.0,31.0,1.0,2238584018-38513.jpg,2449443163-50093.jpg,AIXO7JFFSBR5O
332,1.0,right,right,1.0,1.8091,0.0,32.0,32.0,32.0,1.0,2868488422-363715.jpg,2901941426-292805.jpg,AIXO7JFFSBR5O
333,2.0,left,left,1.0,1.7204,0.0,33.0,33.0,33.0,1.0,2883255450-215311.jpg,2868485399-139476.jpg,AIXO7JFFSBR5O
334,3.0,left,left,1.0,1.8623,0.0,34.0,34.0,34.0,1.0,2964218374-144968.jpg,2238525773-27014.jpg,AIXO7JFFSBR5O
335,3.0,left,left,1.0,2.4662,0.0,35.0,35.0,35.0,1.0,2238375302-311538.jpg,2460547508-51571.jpg,AIXO7JFFSBR5O
336,2.0,left,right,0.0,2.6766,0.0,36.0,36.0,36.0,1.0,2981231446-294731.jpg,2238568685-183597.jpg,AIXO7JFFSBR5O
337,3.0,left,left,1.0,1.3144,0.0,37.0,37.0,37.0,1.0,2964213381-294061.jpg,2989721347-371917.jpg,AIXO7JFFSBR5O
338,3.0,right,right,1.0,1.7265,0.0,38.0,38.0,38.0,1.0,2901951430-218724.jpg,2238126735-154721.jpg,AIXO7JFFSBR5O
339,2.0,left,left,1.0,1.5089,0.0,39.0,39.0,39.0,1.0,2238575092-334269.jpg,2860304305-210777.jpg,AIXO7JFFSBR5O
340,1.0,right,right,1.0,1.9665,0.0,40.0,40.0,40.0,1.0,2989727350-222011.jpg,2986400320-221190.jpg,AIXO7JFFSBR5O
341,1.0,left,left,1.0,1.7273,0.0,41.0,41.0,41.0,1.0,2862691449-137104.jpg,2238540598-30035.jpg,AIXO7JFFSBR5O
342,1.0,left,left,1.0,1.7355,0.0,42.0,42.0,42.0,1.0,2449442529-124446.jpg,2238481610-168214.jpg,AIXO7JFFSBR5O
343,2.0,right,right,1.0,2.233,0.0,43.0,43.0,43.0,1.0,2238552469-106359.jpg,2446760524-123999.jpg,AIXO7JFFSBR5O
344,3.0,right,right,1.0,2.1014,0.0,44.0,44.0,44.0,1.0,2424122568-45517.jpg,2901938432-367627.jpg,AIXO7JFFSBR5O
345,1.0,right,right,1.0,1.8237,0.0,45.0,45.0,45.0,1.0,2592380177-354629.jpg,2446759803-49249.jpg,AIXO7JFFSBR5O
346,2.0,left,left,1.0,1.7961,0.0,46.0,46.0,46.0,1.0,2238129579-80916.jpg,2898618444-142233.jpg,AIXO7JFFSBR5O
347,1.0,left,left,1.0,1.6759,0.0,47.0,47.0,47.0,1.0,2898624426-291546.jpg,2986402377-371266.jpg,AIXO7JFFSBR5O
348,1.0,right,left,0.0,2.2197,0.0,48.0,48.0,48.0,1.0,2868488422-363713.jpg,2986408352-371293.jpg,AIXO7JFFSBR5O
349,2.0,right,right,1.0,2.4487,0.0,49.0,49.0,49.0,1.0,2237965109-79314.jpg,2883254439-140941.jpg,AIXO7JFFSBR5O
350,3.0,left,left,1.0,1.8733,0.0,50.0,50.0,50.0,1.0,2898617468-68274.jpg,2862684406-285700.jpg,AIXO7JFFSBR5O
351,2.0,right,left,0.0,2.0948,0.0,51.0,51.0,51.0,1.0,2446758985-197610.jpg,2274829821-263682.jpg,AIXO7JFFSBR5O
352,1.0,right,right,1.0,1.7691,0.0,52.0,52.0,52.0,1.0,2986419351-296471.jpg,2592380138-56727.jpg,AIXO7JFFSBR5O
353,2.0,right,right,1.0,2.3832,0.0,53.0,53.0,53.0,1.0,2452380832-348593.jpg,2238499155-170911.jpg,AIXO7JFFSBR5O
354,1.0,left,right,0.0,3.2352,0.0,54.0,54.0,54.0,1.0,2883254439-140940.jpg,2452380166-273110.jpg,AIXO7JFFSBR5O
355,2.0,right,right,1.0,2.9358,0.0,55.0,55.0,55.0,1.0,2238087237-303447.jpg,2864906345-212360.jpg,AIXO7JFFSBR5O
356,2.0,left,left,1.0,1.9578,0.0,56.0,56.0,56.0,1.0,2868475410-213219.jpg,2575964140-205051.jpg,AIXO7JFFSBR5O
357,2.0,right,right,1.0,2.0509,0.0,57.0,57.0,57.0,1.0,2238547522-328488.jpg,2575964140-205050.jpg,AIXO7JFFSBR5O
358,3.0,right,left,0.0,1.7086,0.0,58.0,58.0,58.0,1.0,2458348012-349114.jpg,2331570830-189984.jpg,AIXO7JFFSBR5O
359,3.0,right,right,1.0,2.07,0.0,59.0,59.0,59.0,1.0,2874303453-66056.jpg,2864909447-362146.jpg,AIXO7JFFSBR5O
360,1.0,left,left,1.0,9.0063,0.0,0.0,0.0,0.0,1.0,2238575092-334269.jpg,2592380285-205564.jpg,A2TTYORXHJ7I23
361,3.0,left,left,1.0,10.3753,0.0,1.0,1.0,1.0,1.0,2274829821-263682.jpg,2862687442-360837.jpg,A2TTYORXHJ7I23
362,2.0,left,left,1.0,14.4086,0.0,2.0,2.0,2.0,1.0,2238561223-33794.jpg,2592380177-354626.jpg,A2TTYORXHJ7I23
363,1.0,left,left,1.0,8.0465,0.0,3.0,3.0,3.0,1.0,2964213381-294061.jpg,2238433340-164524.jpg,A2TTYORXHJ7I23
364,2.0,left,left,1.0,13.4671,0.0,4.0,4.0,4.0,1.0,2981231446-294731.jpg,2238568685-183597.jpg,A2TTYORXHJ7I23
365,2.0,right,right,1.0,9.3413,0.0,5.0,5.0,5.0,1.0,2449443292-348022.jpg,2901939379-143479.jpg,A2TTYORXHJ7I23
366,2.0,left,left,1.0,21.2149,0.0,6.0,6.0,6.0,1.0,2964209380-218956.jpg,2898631429-142736.jpg,A2TTYORXHJ7I23
367,1.0,left,left,1.0,11.3841,0.0,7.0,7.0,7.0,1.0,2449442529-124446.jpg,2238481610-168214.jpg,A2TTYORXHJ7I23
368,3.0,left,left,1.0,8.9526,0.0,8.0,8.0,8.0,1.0,2964216465-219242.jpg,2446760917-347439.jpg,A2TTYORXHJ7I23
369,3.0,right,right,1.0,5.9273,0.0,9.0,9.0,9.0,1.0,2238380314-88261.jpg,2868485396-288511.jpg,A2TTYORXHJ7I23
370,1.0,right,right,1.0,8.0751,0.0,10.0,10.0,10.0,1.0,2452380171-273112.jpg,2452380166-273109.jpg,A2TTYORXHJ7I23
371,1.0,right,right,1.0,14.7498,0.0,11.0,11.0,11.0,1.0,2898631359-142720.jpg,2964213381-294060.jpg,A2TTYORXHJ7I23
372,1.0,right,right,1.0,16.9383,0.0,12.0,12.0,12.0,1.0,2579432708-56394.jpg,2901938432-367627.jpg,A2TTYORXHJ7I23
373,3.0,right,right,1.0,6.1426,0.0,13.0,13.0,13.0,1.0,2598726160-205998.jpg,2625337302-355866.jpg,A2TTYORXHJ7I23
374,3.0,left,left,1.0,5.6711,0.0,14.0,14.0,14.0,1.0,2898633480-217190.jpg,2237858043-1434.jpg,A2TTYORXHJ7I23
375,2.0,right,right,1.0,17.0002,0.0,15.0,15.0,15.0,1.0,2238547522-328488.jpg,2575964140-205050.jpg,A2TTYORXHJ7I23
376,3.0,left,left,1.0,9.607,0.0,16.0,16.0,16.0,1.0,2898624426-291546.jpg,2864902304-137862.jpg,A2TTYORXHJ7I23
377,2.0,right,right,1.0,14.016,0.0,17.0,17.0,17.0,1.0,2238510189-98616.jpg,2901941426-292805.jpg,A2TTYORXHJ7I23
378,1.0,right,right,1.0,14.0772,0.0,18.0,18.0,18.0,1.0,2986448334-147157.jpg,2238429999-90218.jpg,A2TTYORXHJ7I23
379,3.0,right,right,1.0,10.8314,0.0,19.0,19.0,19.0,1.0,2238525773-27014.jpg,2964218374-144968.jpg,A2TTYORXHJ7I23
380,1.0,left,left,1.0,10.1242,0.0,20.0,20.0,20.0,1.0,2238129579-80916.jpg,2460547477-349426.jpg,A2TTYORXHJ7I23
381,1.0,left,left,1.0,8.7342,0.0,21.0,21.0,21.0,1.0,2238550049-105691.jpg,2238482972-317759.jpg,A2TTYORXHJ7I23
382,3.0,left,left,1.0,34.3417,0.0,22.0,22.0,22.0,1.0,2238480434-93829.jpg,2238479903-19596.jpg,A2TTYORXHJ7I23
383,1.0,left,left,1.0,4.327,0.0,23.0,23.0,23.0,1.0,2238584869-113153.jpg,2864901420-212147.jpg,A2TTYORXHJ7I23
384,2.0,left,left,1.0,8.8791,0.0,24.0,24.0,24.0,1.0,2883255450-215311.jpg,2868485399-139476.jpg,A2TTYORXHJ7I23
385,2.0,right,right,1.0,4.738,0.0,25.0,25.0,25.0,1.0,2898636443-69154.jpg,2512876023-52283.jpg,A2TTYORXHJ7I23
386,3.0,right,right,1.0,5.752,0.0,26.0,26.0,26.0,1.0,2417207511-266975.jpg,2883254439-140941.jpg,A2TTYORXHJ7I23
387,3.0,left,left,1.0,22.0759,0.0,27.0,27.0,27.0,1.0,2238126735-154721.jpg,2901951430-218724.jpg,A2TTYORXHJ7I23
388,2.0,right,right,1.0,11.7752,0.0,28.0,28.0,28.0,1.0,2430664847-345753.jpg,2592380138-56727.jpg,A2TTYORXHJ7I23
389,2.0,left,left,1.0,6.464,0.0,29.0,29.0,29.0,1.0,2460547467-349421.jpg,2238470079-92499.jpg,A2TTYORXHJ7I23
390,2.0,right,right,1.0,13.4794,0.0,30.0,30.0,30.0,1.0,2449442529-124445.jpg,2331570830-189984.jpg,A2TTYORXHJ7I23
391,2.0,left,left,1.0,8.6351,0.0,31.0,31.0,31.0,1.0,2579432576-279079.jpg,2446760226-272006.jpg,A2TTYORXHJ7I23
392,1.0,right,right,1.0,8.7648,0.0,32.0,32.0,32.0,1.0,2592380255-205552.jpg,2238375302-311538.jpg,A2TTYORXHJ7I23
393,3.0,left,left,1.0,10.1502,0.0,33.0,33.0,33.0,1.0,2898617468-68274.jpg,2862684406-285700.jpg,A2TTYORXHJ7I23
394,3.0,left,left,1.0,20.3677,0.0,34.0,34.0,34.0,1.0,2901934573-69337.jpg,2901936407-367476.jpg,A2TTYORXHJ7I23
395,1.0,left,left,1.0,6.0628,0.0,35.0,35.0,35.0,1.0,2238516618-25604.jpg,2238573549-110485.jpg,A2TTYORXHJ7I23
396,1.0,left,left,1.0,10.4595,0.0,36.0,36.0,36.0,1.0,2446758985-197609.jpg,2898633421-291973.jpg,A2TTYORXHJ7I23
397,2.0,left,left,1.0,15.0855,0.0,37.0,37.0,37.0,1.0,2986408352-371293.jpg,2446759580-197801.jpg,A2TTYORXHJ7I23
398,3.0,left,left,1.0,18.8126,0.0,38.0,38.0,38.0,1.0,2883254439-140940.jpg,2812983311-281946.jpg,A2TTYORXHJ7I23
399,2.0,right,right,1.0,20.4742,0.0,39.0,39.0,39.0,1.0,2449442365-198476.jpg,2898626385-216899.jpg,A2TTYORXHJ7I23
400,3.0,left,left,1.0,4.6519,0.0,40.0,40.0,40.0,1.0,2898632385-217137.jpg,2864904453-63932.jpg,A2TTYORXHJ7I23
401,1.0,right,right,1.0,2.9053,0.0,41.0,41.0,41.0,1.0,2417206274-118542.jpg,2994405328-74628.jpg,A2TTYORXHJ7I23
402,3.0,left,left,1.0,12.1715,0.0,42.0,42.0,42.0,1.0,2868475410-213219.jpg,2238436851-238821.jpg,A2TTYORXHJ7I23
403,2.0,left,left,1.0,3.5604,0.0,43.0,43.0,43.0,1.0,2864909447-362146.jpg,2238555799-106905.jpg,A2TTYORXHJ7I23
404,2.0,left,left,1.0,6.9517,0.0,44.0,44.0,44.0,1.0,2864906345-212360.jpg,2238087237-303447.jpg,A2TTYORXHJ7I23
405,1.0,left,left,1.0,5.2219,0.0,45.0,45.0,45.0,1.0,2238499155-170911.jpg,2446760621-272103.jpg,A2TTYORXHJ7I23
406,1.0,right,right,1.0,11.0408,0.0,46.0,46.0,46.0,1.0,2825712309-134957.jpg,2238521193-26286.jpg,A2TTYORXHJ7I23
407,3.0,left,left,1.0,4.6876,0.0,47.0,47.0,47.0,1.0,2446759803-49249.jpg,2238498786-244797.jpg,A2TTYORXHJ7I23
408,3.0,left,left,1.0,31.5162,0.0,48.0,48.0,48.0,1.0,2446760940-198145.jpg,2446760692-347392.jpg,A2TTYORXHJ7I23
409,1.0,left,left,1.0,5.4238,0.0,49.0,49.0,49.0,1.0,2862691449-137104.jpg,2238540598-30035.jpg,A2TTYORXHJ7I23
410,1.0,right,right,1.0,30.6762,0.0,50.0,50.0,50.0,1.0,2238570142-333223.jpg,2238496457-319749.jpg,A2TTYORXHJ7I23
411,3.0,left,left,1.0,15.9798,0.0,51.0,51.0,51.0,1.0,2883255450-215309.jpg,2238562336-256366.jpg,A2TTYORXHJ7I23
412,2.0,right,right,1.0,5.9078,0.0,52.0,52.0,52.0,1.0,2237941457-301342.jpg,2898635427-367120.jpg,A2TTYORXHJ7I23
413,3.0,left,left,1.0,9.3954,0.0,53.0,53.0,53.0,1.0,2883272438-68133.jpg,2592380136-279476.jpg,A2TTYORXHJ7I23
414,1.0,left,left,1.0,11.7914,0.0,54.0,54.0,54.0,1.0,2898632385-217138.jpg,2575120738-55529.jpg,A2TTYORXHJ7I23
415,2.0,right,left,0.0,30.4416,0.0,55.0,55.0,55.0,1.0,2964213441-294073.jpg,2964224310-219527.jpg,A2TTYORXHJ7I23
416,3.0,left,left,1.0,11.7449,0.0,56.0,56.0,56.0,1.0,2446760524-123999.jpg,2238539138-29878.jpg,A2TTYORXHJ7I23
417,2.0,left,left,1.0,3.5449,0.0,57.0,57.0,57.0,1.0,2986400320-221190.jpg,2238470979-92615.jpg,A2TTYORXHJ7I23
418,2.0,right,right,1.0,2.4404,0.0,58.0,58.0,58.0,1.0,2898633321-291943.jpg,2238584018-38513.jpg,A2TTYORXHJ7I23
419,1.0,right,right,1.0,9.7869,0.0,59.0,59.0,59.0,1.0,2868470400-212889.jpg,2238471391-240918.jpg,A2TTYORXHJ7I23
420,3.0,left,left,1.0,2.5633,0.0,0.0,0.0,0.0,1.0,2512876023-52283.jpg,2238576267-334532.jpg,A3SFP9VSFJY2YW
421,2.0,left,left,1.0,1.2896,0.0,1.0,1.0,1.0,1.0,2986408352-371293.jpg,2446759580-197801.jpg,A3SFP9VSFJY2YW
422,2.0,left,left,1.0,1.1707,0.0,2.0,2.0,2.0,1.0,2592380138-56727.jpg,2430664847-345753.jpg,A3SFP9VSFJY2YW
423,1.0,right,left,0.0,1.563,0.0,3.0,3.0,3.0,1.0,2446760483-49429.jpg,2331570830-189984.jpg,A3SFP9VSFJY2YW
424,2.0,left,right,0.0,1.5056,0.0,4.0,4.0,4.0,1.0,2579432576-279079.jpg,2446760226-272006.jpg,A3SFP9VSFJY2YW
425,2.0,right,right,1.0,1.4313,0.0,5.0,5.0,5.0,1.0,2862686459-136888.jpg,2238516618-25604.jpg,A3SFP9VSFJY2YW
426,1.0,right,right,1.0,1.9893,0.0,6.0,6.0,6.0,1.0,2825712309-134957.jpg,2238521193-26286.jpg,A3SFP9VSFJY2YW
427,2.0,left,left,1.0,2.8224,0.0,7.0,7.0,7.0,1.0,2898624426-291546.jpg,2549106844-127878.jpg,A3SFP9VSFJY2YW
428,1.0,right,right,1.0,1.4718,0.0,8.0,8.0,8.0,1.0,2874316384-140749.jpg,2864909447-362146.jpg,A3SFP9VSFJY2YW
429,3.0,left,left,1.0,1.3592,0.0,9.0,9.0,9.0,1.0,2238375302-311538.jpg,2460547508-51571.jpg,A3SFP9VSFJY2YW
430,2.0,right,right,1.0,1.7836,0.0,10.0,10.0,10.0,1.0,2449442365-198476.jpg,2898626385-216899.jpg,A3SFP9VSFJY2YW
431,3.0,right,left,0.0,2.2347,0.0,11.0,11.0,11.0,1.0,2452381442-348755.jpg,2238584018-38513.jpg,A3SFP9VSFJY2YW
432,1.0,left,left,1.0,1.1991,0.0,12.0,12.0,12.0,1.0,2964216465-219242.jpg,2592380049-131079.jpg,A3SFP9VSFJY2YW
433,1.0,left,left,1.0,2.8296,0.0,13.0,13.0,13.0,1.0,2964224310-219527.jpg,2238380178-14011.jpg,A3SFP9VSFJY2YW
434,2.0,right,right,1.0,3.0971,0.0,14.0,14.0,14.0,1.0,2238521157-323782.jpg,2964218374-144968.jpg,A3SFP9VSFJY2YW
435,2.0,right,right,1.0,1.5674,0.0,15.0,15.0,15.0,1.0,2449443271-272729.jpg,2238550049-105691.jpg,A3SFP9VSFJY2YW
436,1.0,right,left,0.0,2.2814,0.0,16.0,16.0,16.0,1.0,2238481610-168214.jpg,2449442529-124446.jpg,A3SFP9VSFJY2YW
437,3.0,right,left,0.0,2.5769,0.0,17.0,17.0,17.0,1.0,2417207297-342139.jpg,2981231446-294731.jpg,A3SFP9VSFJY2YW
438,1.0,left,right,0.0,2.6597,0.0,18.0,18.0,18.0,1.0,2864906345-212360.jpg,2986397365-221133.jpg,A3SFP9VSFJY2YW
439,2.0,right,left,0.0,4.2792,0.0,19.0,19.0,19.0,1.0,2238470979-92615.jpg,2986400320-221190.jpg,A3SFP9VSFJY2YW
440,2.0,right,right,1.0,2.0714,0.0,20.0,20.0,20.0,1.0,2238470079-92499.jpg,2460547467-349421.jpg,A3SFP9VSFJY2YW
441,3.0,left,right,0.0,1.4385,0.0,21.0,21.0,21.0,1.0,2238496457-319749.jpg,2460547467-349422.jpg,A3SFP9VSFJY2YW
442,1.0,left,left,1.0,1.9437,0.0,22.0,22.0,22.0,1.0,2446760524-123999.jpg,2446760621-272102.jpg,A3SFP9VSFJY2YW
443,1.0,left,right,0.0,3.5549,0.0,23.0,23.0,23.0,1.0,2625337302-355866.jpg,2425492472-343825.jpg,A3SFP9VSFJY2YW
444,3.0,right,left,0.0,3.0844,0.0,24.0,24.0,24.0,1.0,2238479903-19596.jpg,2238480434-93829.jpg,A3SFP9VSFJY2YW
445,1.0,left,left,1.0,2.2052,0.0,25.0,25.0,25.0,1.0,2238575092-334269.jpg,2592380285-205564.jpg,A3SFP9VSFJY2YW
446,1.0,right,right,1.0,3.2766,0.0,26.0,26.0,26.0,1.0,2898633421-291973.jpg,2446758985-197609.jpg,A3SFP9VSFJY2YW
447,1.0,right,right,1.0,1.9429,0.0,27.0,27.0,27.0,1.0,2868470456-287597.jpg,2868485396-288511.jpg,A3SFP9VSFJY2YW
448,1.0,left,left,1.0,1.5825,0.0,28.0,28.0,28.0,1.0,2238126735-154721.jpg,2856919327-359676.jpg,A3SFP9VSFJY2YW
449,1.0,right,right,1.0,1.3696,0.0,29.0,29.0,29.0,1.0,2238570526-257884.jpg,2274829821-263682.jpg,A3SFP9VSFJY2YW
450,3.0,right,right,1.0,4.2632,0.0,30.0,30.0,30.0,1.0,2883273443-68192.jpg,2994405328-74628.jpg,A3SFP9VSFJY2YW
451,3.0,left,left,1.0,2.3199,0.0,31.0,31.0,31.0,1.0,2898632385-217138.jpg,2460547992-349586.jpg,A3SFP9VSFJY2YW
452,2.0,right,right,1.0,4.0454,0.0,32.0,32.0,32.0,1.0,2592379781-279345.jpg,2452380166-273109.jpg,A3SFP9VSFJY2YW
453,1.0,left,left,1.0,1.3498,0.0,33.0,33.0,33.0,1.0,2898633480-217190.jpg,2446760147-347245.jpg,A3SFP9VSFJY2YW
454,1.0,right,right,1.0,2.6465,0.0,34.0,34.0,34.0,1.0,2238482920-168428.jpg,2575964140-205050.jpg,A3SFP9VSFJY2YW
455,3.0,right,left,0.0,2.5382,0.0,35.0,35.0,35.0,1.0,2989721347-371917.jpg,2964213381-294061.jpg,A3SFP9VSFJY2YW
456,3.0,left,right,0.0,4.9275,0.0,36.0,36.0,36.0,1.0,2883255450-215309.jpg,2238562336-256366.jpg,A3SFP9VSFJY2YW
457,3.0,left,left,1.0,1.6583,0.0,37.0,37.0,37.0,1.0,2901939379-143479.jpg,2864909422-362141.jpg,A3SFP9VSFJY2YW
458,2.0,left,left,1.0,1.6888,0.0,38.0,38.0,38.0,1.0,2238584869-113153.jpg,2981241419-145844.jpg,A3SFP9VSFJY2YW
459,3.0,right,left,0.0,2.2174,0.0,39.0,39.0,39.0,1.0,2446760692-347392.jpg,2446760940-198145.jpg,A3SFP9VSFJY2YW
460,2.0,right,right,1.0,1.7064,0.0,40.0,40.0,40.0,1.0,2238468265-166556.jpg,2446759803-49249.jpg,A3SFP9VSFJY2YW
461,1.0,left,right,0.0,1.672,0.0,41.0,41.0,41.0,1.0,2238561223-33794.jpg,2238506233-23904.jpg,A3SFP9VSFJY2YW
462,2.0,left,left,1.0,2.4584,0.0,42.0,42.0,42.0,1.0,2898617468-68274.jpg,2238585512-336576.jpg,A3SFP9VSFJY2YW
463,2.0,right,right,1.0,2.0837,0.0,43.0,43.0,43.0,1.0,2898618444-142233.jpg,2238129579-80916.jpg,A3SFP9VSFJY2YW
464,1.0,left,left,1.0,1.814,0.0,44.0,44.0,44.0,1.0,2898632385-217137.jpg,2238360884-87525.jpg,A3SFP9VSFJY2YW
465,2.0,right,right,1.0,4.5036,0.0,45.0,45.0,45.0,1.0,2575121890-204630.jpg,2883254439-140940.jpg,A3SFP9VSFJY2YW
466,3.0,left,left,1.0,5.7974,0.0,46.0,46.0,46.0,1.0,2883255450-215311.jpg,2575964014-130589.jpg,A3SFP9VSFJY2YW
467,1.0,right,right,1.0,4.0817,0.0,47.0,47.0,47.0,1.0,2238216693-10721.jpg,2868475410-213219.jpg,A3SFP9VSFJY2YW
468,3.0,left,left,1.0,1.5536,0.0,48.0,48.0,48.0,1.0,2883272438-68133.jpg,2592380136-279476.jpg,A3SFP9VSFJY2YW
469,3.0,left,left,1.0,1.6024,0.0,49.0,49.0,49.0,1.0,2862691449-137104.jpg,2238328478-11678.jpg,A3SFP9VSFJY2YW
470,2.0,left,left,1.0,1.5912,0.0,50.0,50.0,50.0,1.0,2238429999-90218.jpg,2901951459-144433.jpg,A3SFP9VSFJY2YW
471,3.0,right,left,0.0,2.4172,0.0,51.0,51.0,51.0,1.0,2989724308-73930.jpg,2964213381-294060.jpg,A3SFP9VSFJY2YW
472,3.0,left,left,1.0,2.1804,0.0,52.0,52.0,52.0,1.0,2901941426-292805.jpg,2901945303-70125.jpg,A3SFP9VSFJY2YW
473,2.0,left,left,1.0,1.3862,0.0,53.0,53.0,53.0,1.0,2898635427-367120.jpg,2237941457-301342.jpg,A3SFP9VSFJY2YW
474,3.0,left,right,0.0,1.8455,0.0,54.0,54.0,54.0,1.0,2238471391-240918.jpg,2986399339-146857.jpg,A3SFP9VSFJY2YW
475,1.0,left,right,0.0,1.9741,0.0,55.0,55.0,55.0,1.0,2238499155-170911.jpg,2446760621-272103.jpg,A3SFP9VSFJY2YW
476,2.0,right,left,0.0,2.0976,0.0,56.0,56.0,56.0,1.0,2856919327-359675.jpg,2901938432-367627.jpg,A3SFP9VSFJY2YW
477,2.0,left,left,1.0,2.0753,0.0,57.0,57.0,57.0,1.0,2883254439-140941.jpg,2237965109-79314.jpg,A3SFP9VSFJY2YW
478,3.0,right,right,1.0,1.8594,0.0,58.0,58.0,58.0,1.0,2898617396-291219.jpg,2964209380-218956.jpg,A3SFP9VSFJY2YW
479,3.0,left,right,0.0,2.1184,0.0,59.0,59.0,59.0,1.0,2901934573-69337.jpg,2901936407-367476.jpg,A3SFP9VSFJY2YW
480,1.0,left,left,1.0,3.1598,0.0,0.0,0.0,0.0,1.0,2898635427-367120.jpg,2238436632-314069.jpg,A28K46TA74RQH7
481,3.0,right,right,1.0,1.9005,0.0,1.0,1.0,1.0,1.0,2986455373-73646.jpg,2238584869-113153.jpg,A28K46TA74RQH7
482,2.0,left,right,0.0,2.0176,0.0,2.0,2.0,2.0,1.0,2452380166-273109.jpg,2592379781-279345.jpg,A28K46TA74RQH7
483,1.0,left,left,1.0,1.8077,0.0,3.0,3.0,3.0,1.0,2964213381-294061.jpg,2238433340-164524.jpg,A28K46TA74RQH7
484,3.0,left,left,1.0,3.0163,0.0,4.0,4.0,4.0,1.0,2964224310-219527.jpg,2238490590-169598.jpg,A28K46TA74RQH7
485,3.0,left,left,1.0,2.6019,0.0,5.0,5.0,5.0,1.0,2238429999-90218.jpg,2964222378-71332.jpg,A28K46TA74RQH7
486,2.0,left,left,1.0,1.4363,0.0,6.0,6.0,6.0,1.0,2625337302-355866.jpg,2238478760-167789.jpg,A28K46TA74RQH7
487,1.0,right,right,1.0,4.1573,0.0,7.0,7.0,7.0,1.0,2986450330-221526.jpg,2981231446-294731.jpg,A28K46TA74RQH7
488,3.0,left,left,1.0,3.1151,0.0,8.0,8.0,8.0,1.0,2898624426-291546.jpg,2864902304-137862.jpg,A28K46TA74RQH7
489,2.0,right,right,1.0,4.1066,0.0,9.0,9.0,9.0,1.0,2273188118-40829.jpg,2898632385-217138.jpg,A28K46TA74RQH7
490,3.0,left,left,1.0,2.3161,0.0,10.0,10.0,10.0,1.0,2446759803-49249.jpg,2238498786-244797.jpg,A28K46TA74RQH7
491,3.0,right,left,0.0,3.1189,0.0,11.0,11.0,11.0,1.0,2856916345-210056.jpg,2986408352-371293.jpg,A28K46TA74RQH7
492,3.0,right,right,1.0,1.5528,0.0,12.0,12.0,12.0,1.0,2994403305-222559.jpg,2864906345-212360.jpg,A28K46TA74RQH7
493,2.0,left,left,1.0,2.3264,0.0,13.0,13.0,13.0,1.0,2994405328-74628.jpg,2825702353-60662.jpg,A28K46TA74RQH7
494,1.0,right,right,1.0,1.775,0.0,14.0,14.0,14.0,1.0,2986450334-147215.jpg,2901939379-143479.jpg,A28K46TA74RQH7
495,1.0,right,left,0.0,2.6364,0.0,15.0,15.0,15.0,1.0,2446760483-49429.jpg,2331570830-189984.jpg,A28K46TA74RQH7
496,1.0,left,left,1.0,1.9987,0.0,16.0,16.0,16.0,1.0,2898626385-216899.jpg,2989715328-73658.jpg,A28K46TA74RQH7
497,2.0,right,left,0.0,2.1095,0.0,17.0,17.0,17.0,1.0,2575122854-130480.jpg,2238126735-154721.jpg,A28K46TA74RQH7
498,3.0,left,left,1.0,1.4604,0.0,18.0,18.0,18.0,1.0,2238550049-105691.jpg,2964219468-71238.jpg,A28K46TA74RQH7
499,1.0,right,right,1.0,1.2615,0.0,19.0,19.0,19.0,1.0,2238570142-333223.jpg,2238496457-319749.jpg,A28K46TA74RQH7
500,1.0,left,left,1.0,1.4678,0.0,20.0,20.0,20.0,1.0,2592380138-56727.jpg,2986419351-296471.jpg,A28K46TA74RQH7
501,2.0,right,right,1.0,1.5635,0.0,21.0,21.0,21.0,1.0,2898618444-142233.jpg,2238129579-80916.jpg,A28K46TA74RQH7
502,3.0,left,right,0.0,1.5567,0.0,22.0,22.0,22.0,1.0,2868475410-213219.jpg,2238436851-238821.jpg,A28K46TA74RQH7
503,3.0,right,right,1.0,1.3528,0.0,23.0,23.0,23.0,1.0,2452381442-348755.jpg,2238584018-38513.jpg,A28K46TA74RQH7
504,2.0,left,right,0.0,1.2447,0.0,24.0,24.0,24.0,1.0,2446760940-198145.jpg,2592380188-56743.jpg,A28K46TA74RQH7
505,3.0,left,right,0.0,1.3602,0.0,25.0,25.0,25.0,1.0,2986400320-221190.jpg,2238538133-29662.jpg,A28K46TA74RQH7
506,2.0,left,left,1.0,1.3534,0.0,26.0,26.0,26.0,1.0,2446758985-197609.jpg,2635396318-58409.jpg,A28K46TA74RQH7
507,2.0,right,right,1.0,1.5583,0.0,27.0,27.0,27.0,1.0,2446758985-197610.jpg,2274829821-263682.jpg,A28K46TA74RQH7
508,1.0,left,right,0.0,1.3338,0.0,28.0,28.0,28.0,1.0,2883255450-215309.jpg,2238429999-90216.jpg,A28K46TA74RQH7
509,2.0,right,right,1.0,1.2149,0.0,29.0,29.0,29.0,1.0,2238547522-328488.jpg,2575964140-205050.jpg,A28K46TA74RQH7
510,1.0,left,right,0.0,1.2245,0.0,30.0,30.0,30.0,1.0,2238499155-170911.jpg,2446760621-272103.jpg,A28K46TA74RQH7
511,1.0,left,right,0.0,1.2401,0.0,31.0,31.0,31.0,1.0,2901934573-69337.jpg,2986401333-73218.jpg,A28K46TA74RQH7
512,1.0,right,right,1.0,1.0179,0.0,32.0,32.0,32.0,1.0,2238540598-30035.jpg,2862691449-137104.jpg,A28K46TA74RQH7
513,1.0,right,right,1.0,1.0038,0.0,33.0,33.0,33.0,1.0,2804906319-133082.jpg,2238480434-93829.jpg,A28K46TA74RQH7
514,2.0,left,right,0.0,1.0132,0.0,34.0,34.0,34.0,1.0,2238561223-33794.jpg,2592380177-354626.jpg,A28K46TA74RQH7
515,1.0,left,left,1.0,1.6234,0.0,35.0,35.0,35.0,1.0,2964218374-144968.jpg,2238411877-313125.jpg,A28K46TA74RQH7
516,3.0,left,right,0.0,1.2196,0.0,36.0,36.0,36.0,1.0,2883255450-215311.jpg,2575964014-130589.jpg,A28K46TA74RQH7
517,1.0,left,right,0.0,1.2055,0.0,37.0,37.0,37.0,1.0,2883254439-140940.jpg,2452380166-273110.jpg,A28K46TA74RQH7
518,3.0,left,right,0.0,1.2004,0.0,38.0,38.0,38.0,1.0,2449442529-124446.jpg,2864911339-138231.jpg,A28K46TA74RQH7
519,2.0,left,right,0.0,1.443,0.0,39.0,39.0,39.0,1.0,2883272438-68133.jpg,2901936369-143233.jpg,A28K46TA74RQH7
520,2.0,left,right,0.0,1.1265,0.0,40.0,40.0,40.0,1.0,2901941426-292805.jpg,2238510189-98616.jpg,A28K46TA74RQH7
521,2.0,right,right,1.0,1.1114,0.0,41.0,41.0,41.0,1.0,2986450334-147216.jpg,2898633480-217190.jpg,A28K46TA74RQH7
522,3.0,left,left,1.0,1.1197,0.0,42.0,42.0,42.0,1.0,2901938432-367627.jpg,2424122568-45517.jpg,A28K46TA74RQH7
523,3.0,left,right,0.0,1.0091,0.0,43.0,43.0,43.0,1.0,2964213381-294060.jpg,2989724308-73930.jpg,A28K46TA74RQH7
524,2.0,right,left,0.0,0.7833,0.0,44.0,44.0,44.0,1.0,2868472420-213024.jpg,2868485396-288511.jpg,A28K46TA74RQH7
525,1.0,right,right,1.0,0.2296,0.0,45.0,45.0,45.0,1.0,2901934573-69336.jpg,2460547467-349421.jpg,A28K46TA74RQH7
526,2.0,left,left,1.0,0.246,0.0,46.0,46.0,46.0,1.0,2898632385-217137.jpg,2238480803-19739.jpg,A28K46TA74RQH7
527,3.0,left,right,0.0,0.134,0.0,47.0,47.0,47.0,1.0,2238575092-334269.jpg,2964218374-144967.jpg,A28K46TA74RQH7
528,3.0,left,left,1.0,0.1198,0.0,48.0,48.0,48.0,1.0,2964216465-219242.jpg,2446760917-347439.jpg,A28K46TA74RQH7
529,2.0,left,right,0.0,0.129,0.0,49.0,49.0,49.0,1.0,2883254439-140941.jpg,2237965109-79314.jpg,A28K46TA74RQH7
530,1.0,right,right,1.0,0.1303,0.0,50.0,50.0,50.0,1.0,2874316384-140749.jpg,2864909447-362146.jpg,A28K46TA74RQH7
531,1.0,right,left,0.0,0.0096,0.0,51.0,51.0,51.0,1.0,2825712309-134957.jpg,2238521193-26286.jpg,A28K46TA74RQH7
532,2.0,right,right,1.0,0.0103,0.0,52.0,52.0,52.0,1.0,2898636443-69154.jpg,2512876023-52283.jpg,A28K46TA74RQH7
533,1.0,left,left,1.0,0.1283,0.0,53.0,53.0,53.0,1.0,2898617468-68274.jpg,2512875899-126682.jpg,A28K46TA74RQH7
534,2.0,left,right,0.0,0.0098,0.0,54.0,54.0,54.0,1.0,2579432576-279079.jpg,2446760226-272006.jpg,A28K46TA74RQH7
535,1.0,right,left,0.0,0.1184,0.0,55.0,55.0,55.0,1.0,2868470400-212889.jpg,2238471391-240918.jpg,A28K46TA74RQH7
536,2.0,right,right,1.0,0.1245,0.0,56.0,56.0,56.0,1.0,2862686459-136888.jpg,2238516618-25604.jpg,A28K46TA74RQH7
537,3.0,left,left,1.0,0.0097,0.0,57.0,57.0,57.0,1.0,2964209380-218956.jpg,2898617396-291219.jpg,A28K46TA74RQH7
538,3.0,right,right,1.0,0.1196,0.0,58.0,58.0,58.0,1.0,2238539138-29878.jpg,2446760524-123999.jpg,A28K46TA74RQH7
539,3.0,right,left,0.0,0.0103,0.0,59.0,59.0,59.0,1.0,2460547508-51571.jpg,2238375302-311538.jpg,A28K46TA74RQH7
540,1.0,left,left,1.0,1.8852,0.0,0.0,0.0,0.0,1.0,2964218374-144968.jpg,2238411877-313125.jpg,A2WJ1KQW2UBTG6
541,2.0,right,right,1.0,2.0159,0.0,1.0,1.0,1.0,1.0,2575122854-130480.jpg,2238126735-154721.jpg,A2WJ1KQW2UBTG6
542,2.0,left,right,0.0,1.1986,0.0,2.0,2.0,2.0,1.0,2331570830-189984.jpg,2449442529-124445.jpg,A2WJ1KQW2UBTG6
543,2.0,left,left,1.0,1.0798,0.0,3.0,3.0,3.0,1.0,2238375302-311538.jpg,2592380049-131077.jpg,A2WJ1KQW2UBTG6
544,3.0,right,right,1.0,1.1293,0.0,4.0,4.0,4.0,1.0,2238470979-92618.jpg,2238516618-25604.jpg,A2WJ1KQW2UBTG6
545,3.0,left,left,1.0,1.7526,0.0,5.0,5.0,5.0,1.0,2901934573-69337.jpg,2901936407-367476.jpg,A2WJ1KQW2UBTG6
546,2.0,right,right,1.0,1.6126,0.0,6.0,6.0,6.0,1.0,2868469458-64561.jpg,2449442529-124446.jpg,A2WJ1KQW2UBTG6
547,3.0,left,left,1.0,0.7639,0.0,7.0,7.0,7.0,1.0,2964213381-294061.jpg,2989721347-371917.jpg,A2WJ1KQW2UBTG6
548,2.0,left,left,1.0,0.9334,0.0,8.0,8.0,8.0,1.0,2864906345-212360.jpg,2238087237-303447.jpg,A2WJ1KQW2UBTG6
549,1.0,right,right,1.0,1.0965,0.0,9.0,9.0,9.0,1.0,2238481575-168208.jpg,2883255450-215311.jpg,A2WJ1KQW2UBTG6
550,2.0,left,left,1.0,0.898,0.0,10.0,10.0,10.0,1.0,2446760524-123999.jpg,2238552469-106359.jpg,A2WJ1KQW2UBTG6
551,1.0,left,left,1.0,1.4972,0.0,11.0,11.0,11.0,1.0,2883255450-215309.jpg,2238429999-90216.jpg,A2WJ1KQW2UBTG6
552,2.0,left,left,1.0,0.9976,0.0,12.0,12.0,12.0,1.0,2868485396-288511.jpg,2868472420-213024.jpg,A2WJ1KQW2UBTG6
553,1.0,right,right,1.0,0.9832,0.0,13.0,13.0,13.0,1.0,2575120738-55529.jpg,2898632385-217138.jpg,A2WJ1KQW2UBTG6
554,1.0,left,right,0.0,0.936,0.0,14.0,14.0,14.0,1.0,2579432576-279079.jpg,2901934574-143126.jpg,A2WJ1KQW2UBTG6
555,1.0,right,right,1.0,1.9974,0.0,15.0,15.0,15.0,1.0,2898631359-142720.jpg,2964213381-294060.jpg,A2WJ1KQW2UBTG6
556,3.0,right,right,1.0,1.6569,0.0,16.0,16.0,16.0,1.0,2898618440-216545.jpg,2898626385-216899.jpg,A2WJ1KQW2UBTG6
557,1.0,right,right,1.0,0.997,0.0,17.0,17.0,17.0,1.0,2238482972-317759.jpg,2238550049-105691.jpg,A2WJ1KQW2UBTG6
558,3.0,left,right,0.0,3.3306,0.0,18.0,18.0,18.0,1.0,2238480434-93829.jpg,2238479903-19596.jpg,A2WJ1KQW2UBTG6
559,3.0,left,left,1.0,1.3963,0.0,19.0,19.0,19.0,1.0,2964224310-219527.jpg,2238490590-169598.jpg,A2WJ1KQW2UBTG6
560,2.0,left,left,1.0,1.0861,0.0,20.0,20.0,20.0,1.0,2452380166-273109.jpg,2592379781-279345.jpg,A2WJ1KQW2UBTG6
561,2.0,left,left,1.0,1.1065,0.0,21.0,21.0,21.0,1.0,2446759803-49249.jpg,2238468265-166556.jpg,A2WJ1KQW2UBTG6
562,3.0,left,left,1.0,1.3654,0.0,22.0,22.0,22.0,1.0,2883254439-140940.jpg,2812983311-281946.jpg,A2WJ1KQW2UBTG6
563,3.0,left,left,1.0,0.9741,0.0,23.0,23.0,23.0,1.0,2575964140-205050.jpg,2446760226-272005.jpg,A2WJ1KQW2UBTG6
564,2.0,right,right,1.0,1.2717,0.0,24.0,24.0,24.0,1.0,2592380177-354626.jpg,2238561223-33794.jpg,A2WJ1KQW2UBTG6
565,1.0,right,right,1.0,0.9141,0.0,25.0,25.0,25.0,1.0,2901934573-69336.jpg,2460547467-349421.jpg,A2WJ1KQW2UBTG6
566,1.0,left,left,1.0,0.7855,0.0,26.0,26.0,26.0,1.0,2238584018-38513.jpg,2449443163-50093.jpg,A2WJ1KQW2UBTG6
567,3.0,left,left,1.0,1.9866,0.0,27.0,27.0,27.0,1.0,2238496457-319749.jpg,2460547467-349422.jpg,A2WJ1KQW2UBTG6
568,2.0,left,left,1.0,1.1999,0.0,28.0,28.0,28.0,1.0,2238584869-113153.jpg,2981241419-145844.jpg,A2WJ1KQW2UBTG6
569,3.0,right,right,1.0,0.8987,0.0,29.0,29.0,29.0,1.0,2864904453-63932.jpg,2898632385-217137.jpg,A2WJ1KQW2UBTG6
570,1.0,right,left,0.0,1.3333,0.0,30.0,30.0,30.0,1.0,2868488422-363713.jpg,2986408352-371293.jpg,A2WJ1KQW2UBTG6
571,1.0,left,right,0.0,1.3193,0.0,31.0,31.0,31.0,1.0,2901941426-292805.jpg,2868488422-363715.jpg,A2WJ1KQW2UBTG6
572,3.0,left,left,1.0,1.8854,0.0,32.0,32.0,32.0,1.0,2238471391-240918.jpg,2986399339-146857.jpg,A2WJ1KQW2UBTG6
573,3.0,left,right,0.0,1.1141,0.0,33.0,33.0,33.0,1.0,2446760940-198145.jpg,2446760692-347392.jpg,A2WJ1KQW2UBTG6
574,1.0,right,left,0.0,1.3801,0.0,34.0,34.0,34.0,1.0,2425492472-343825.jpg,2625337302-355866.jpg,A2WJ1KQW2UBTG6
575,2.0,left,left,1.0,0.9809,0.0,35.0,35.0,35.0,1.0,2883254439-140941.jpg,2237965109-79314.jpg,A2WJ1KQW2UBTG6
576,1.0,right,left,0.0,0.6872,0.0,36.0,36.0,36.0,1.0,2446760621-272103.jpg,2238499155-170911.jpg,A2WJ1KQW2UBTG6
577,1.0,left,left,1.0,1.8204,0.0,37.0,37.0,37.0,1.0,2868475410-213219.jpg,2238216693-10721.jpg,A2WJ1KQW2UBTG6
578,1.0,left,left,1.0,1.2131,0.0,38.0,38.0,38.0,1.0,2883272438-68133.jpg,2237949408-4018.jpg,A2WJ1KQW2UBTG6
579,2.0,left,left,1.0,1.7669,0.0,39.0,39.0,39.0,1.0,2274829821-263682.jpg,2446758985-197610.jpg,A2WJ1KQW2UBTG6
580,1.0,left,left,1.0,1.0897,0.0,40.0,40.0,40.0,1.0,2964216465-219242.jpg,2592380049-131079.jpg,A2WJ1KQW2UBTG6
581,1.0,left,left,1.0,0.9553,0.0,41.0,41.0,41.0,1.0,2898633480-217190.jpg,2446760147-347245.jpg,A2WJ1KQW2UBTG6
582,3.0,right,right,1.0,1.1287,0.0,42.0,42.0,42.0,1.0,2883273443-68192.jpg,2994405328-74628.jpg,A2WJ1KQW2UBTG6
583,2.0,right,right,1.0,1.5221,0.0,43.0,43.0,43.0,1.0,2898636443-69154.jpg,2512876023-52283.jpg,A2WJ1KQW2UBTG6
584,2.0,left,left,1.0,1.456,0.0,44.0,44.0,44.0,1.0,2862691449-137104.jpg,2986455341-296758.jpg,A2WJ1KQW2UBTG6
585,1.0,left,left,1.0,1.514,0.0,45.0,45.0,45.0,1.0,2964209380-218956.jpg,2868488456-288710.jpg,A2WJ1KQW2UBTG6
586,2.0,left,left,1.0,0.8236,0.0,46.0,46.0,46.0,1.0,2446758985-197609.jpg,2635396318-58409.jpg,A2WJ1KQW2UBTG6
587,1.0,left,left,1.0,1.6671,0.0,47.0,47.0,47.0,1.0,2898617468-68274.jpg,2512875899-126682.jpg,A2WJ1KQW2UBTG6
588,2.0,left,left,1.0,1.0831,0.0,48.0,48.0,48.0,1.0,2901938432-367627.jpg,2856919327-359675.jpg,A2WJ1KQW2UBTG6
589,2.0,right,right,1.0,0.8801,0.0,49.0,49.0,49.0,1.0,2238555799-106905.jpg,2864909447-362146.jpg,A2WJ1KQW2UBTG6
590,3.0,right,right,1.0,1.2028,0.0,50.0,50.0,50.0,1.0,2417207297-342139.jpg,2981231446-294731.jpg,A2WJ1KQW2UBTG6
591,2.0,right,right,1.0,0.7971,0.0,51.0,51.0,51.0,1.0,2549106844-127878.jpg,2898624426-291546.jpg,A2WJ1KQW2UBTG6
592,3.0,right,right,1.0,0.9141,0.0,52.0,52.0,52.0,1.0,2901936309-143207.jpg,2898635427-367120.jpg,A2WJ1KQW2UBTG6
593,3.0,left,left,1.0,0.6972,0.0,53.0,53.0,53.0,1.0,2238129579-80916.jpg,2238161924-82646.jpg,A2WJ1KQW2UBTG6
594,2.0,left,left,1.0,0.9328,0.0,54.0,54.0,54.0,1.0,2986400320-221190.jpg,2238470979-92615.jpg,A2WJ1KQW2UBTG6
595,3.0,right,right,1.0,1.0661,0.0,55.0,55.0,55.0,1.0,2446760306-272024.jpg,2238521193-26286.jpg,A2WJ1KQW2UBTG6
596,3.0,right,right,1.0,1.5229,0.0,56.0,56.0,56.0,1.0,2864909422-362141.jpg,2901939379-143479.jpg,A2WJ1KQW2UBTG6
597,3.0,right,left,0.0,1.2226,0.0,57.0,57.0,57.0,1.0,2238537701-251772.jpg,2592380138-56727.jpg,A2WJ1KQW2UBTG6
598,1.0,left,left,1.0,0.9633,0.0,58.0,58.0,58.0,1.0,2238575092-334269.jpg,2592380285-205564.jpg,A2WJ1KQW2UBTG6
599,3.0,right,right,1.0,1.7846,0.0,59.0,59.0,59.0,1.0,2964222378-71332.jpg,2238429999-90218.jpg,A2WJ1KQW2UBTG6
600,2.0,left,left,1.0,2.4607,0.0,0.0,0.0,0.0,1.0,2901934573-69337.jpg,2238345946-235007.jpg,A2IQ0QCTQ3KWLT
601,2.0,right,right,1.0,0.791,0.0,1.0,1.0,1.0,1.0,2592380177-354626.jpg,2238561223-33794.jpg,A2IQ0QCTQ3KWLT
602,1.0,right,right,1.0,1.4088,0.0,2.0,2.0,2.0,1.0,2898633421-291973.jpg,2446758985-197609.jpg,A2IQ0QCTQ3KWLT
603,1.0,left,left,1.0,1.4068,0.0,3.0,3.0,3.0,1.0,2964218374-144968.jpg,2238411877-313125.jpg,A2IQ0QCTQ3KWLT
604,2.0,right,right,1.0,1.3951,0.0,4.0,4.0,4.0,1.0,2238568685-183597.jpg,2981231446-294731.jpg,A2IQ0QCTQ3KWLT
605,2.0,right,left,0.0,1.4338,0.0,5.0,5.0,5.0,1.0,2592380234-131135.jpg,2238496457-319749.jpg,A2IQ0QCTQ3KWLT
606,2.0,right,right,1.0,0.9003,0.0,6.0,6.0,6.0,1.0,2273188118-40829.jpg,2898632385-217138.jpg,A2IQ0QCTQ3KWLT
607,1.0,right,right,1.0,1.2524,0.0,7.0,7.0,7.0,1.0,2825712309-134957.jpg,2238521193-26286.jpg,A2IQ0QCTQ3KWLT
608,2.0,left,left,1.0,1.3625,0.0,8.0,8.0,8.0,1.0,2898624426-291546.jpg,2549106844-127878.jpg,A2IQ0QCTQ3KWLT
609,3.0,right,right,1.0,2.4098,0.0,9.0,9.0,9.0,1.0,2238436851-238821.jpg,2868475410-213219.jpg,A2IQ0QCTQ3KWLT
610,3.0,right,right,1.0,1.0755,0.0,10.0,10.0,10.0,1.0,2238539138-29878.jpg,2446760524-123999.jpg,A2IQ0QCTQ3KWLT
611,3.0,left,left,1.0,1.1156,0.0,11.0,11.0,11.0,1.0,2986400320-221190.jpg,2238538133-29662.jpg,A2IQ0QCTQ3KWLT
612,3.0,right,right,1.0,1.827,0.0,12.0,12.0,12.0,1.0,2446760917-347439.jpg,2964216465-219242.jpg,A2IQ0QCTQ3KWLT
613,3.0,left,left,1.0,1.3506,0.0,13.0,13.0,13.0,1.0,2238499155-170911.jpg,2238373603-13733.jpg,A2IQ0QCTQ3KWLT
614,1.0,left,left,1.0,1.8404,0.0,14.0,14.0,14.0,1.0,2898626385-216899.jpg,2989715328-73658.jpg,A2IQ0QCTQ3KWLT
615,2.0,right,right,1.0,2.4522,0.0,15.0,15.0,15.0,1.0,2901951459-144433.jpg,2238429999-90218.jpg,A2IQ0QCTQ3KWLT
616,2.0,left,left,1.0,0.837,0.0,16.0,16.0,16.0,1.0,2901939379-143479.jpg,2449443292-348022.jpg,A2IQ0QCTQ3KWLT
617,1.0,right,left,0.0,1.0207,0.0,17.0,17.0,17.0,1.0,2452380166-273110.jpg,2883254439-140940.jpg,A2IQ0QCTQ3KWLT
618,1.0,right,right,1.0,0.7948,0.0,18.0,18.0,18.0,1.0,2238481610-168214.jpg,2449442529-124446.jpg,A2IQ0QCTQ3KWLT
619,3.0,right,right,1.0,1.0486,0.0,19.0,19.0,19.0,1.0,2862687442-360837.jpg,2274829821-263682.jpg,A2IQ0QCTQ3KWLT
620,2.0,left,left,1.0,1.0858,0.0,20.0,20.0,20.0,1.0,2898635427-367120.jpg,2237941457-301342.jpg,A2IQ0QCTQ3KWLT
621,1.0,right,right,1.0,1.4186,0.0,21.0,21.0,21.0,1.0,2868488422-363713.jpg,2986408352-371293.jpg,A2IQ0QCTQ3KWLT
622,3.0,right,right,1.0,1.3651,0.0,22.0,22.0,22.0,1.0,2446760692-347392.jpg,2446760940-198145.jpg,A2IQ0QCTQ3KWLT
623,3.0,right,right,1.0,1.9681,0.0,23.0,23.0,23.0,1.0,2460547508-51571.jpg,2238375302-311538.jpg,A2IQ0QCTQ3KWLT
624,1.0,right,right,1.0,1.3946,0.0,24.0,24.0,24.0,1.0,2864908323-64106.jpg,2512876023-52283.jpg,A2IQ0QCTQ3KWLT
625,2.0,right,right,1.0,0.9509,0.0,25.0,25.0,25.0,1.0,2898633321-291943.jpg,2238584018-38513.jpg,A2IQ0QCTQ3KWLT
626,3.0,left,left,1.0,2.0299,0.0,26.0,26.0,26.0,1.0,2238550049-105691.jpg,2964219468-71238.jpg,A2IQ0QCTQ3KWLT
627,2.0,left,left,1.0,2.1108,0.0,27.0,27.0,27.0,1.0,2898617468-68274.jpg,2238585512-336576.jpg,A2IQ0QCTQ3KWLT
628,1.0,left,left,1.0,1.1319,0.0,28.0,28.0,28.0,1.0,2964213381-294061.jpg,2238433340-164524.jpg,A2IQ0QCTQ3KWLT
629,2.0,left,left,1.0,1.3517,0.0,29.0,29.0,29.0,1.0,2579432576-279079.jpg,2446760226-272006.jpg,A2IQ0QCTQ3KWLT
630,3.0,right,right,1.0,1.6551,0.0,30.0,30.0,30.0,1.0,2874303453-66056.jpg,2864909447-362146.jpg,A2IQ0QCTQ3KWLT
631,1.0,left,left,1.0,1.275,0.0,31.0,31.0,31.0,1.0,2331570830-189984.jpg,2446760483-49429.jpg,A2IQ0QCTQ3KWLT
632,3.0,left,left,1.0,1.7016,0.0,32.0,32.0,32.0,1.0,2238126735-154721.jpg,2901951430-218724.jpg,A2IQ0QCTQ3KWLT
633,1.0,left,left,1.0,1.9877,0.0,33.0,33.0,33.0,1.0,2238516618-25604.jpg,2238573549-110485.jpg,A2IQ0QCTQ3KWLT
634,3.0,left,left,1.0,1.3067,0.0,34.0,34.0,34.0,1.0,2446759803-49249.jpg,2238498786-244797.jpg,A2IQ0QCTQ3KWLT
635,1.0,right,right,1.0,1.1705,0.0,35.0,35.0,35.0,1.0,2425492472-343825.jpg,2625337302-355866.jpg,A2IQ0QCTQ3KWLT
636,2.0,right,right,1.0,1.1054,0.0,36.0,36.0,36.0,1.0,2238520921-248323.jpg,2964213381-294060.jpg,A2IQ0QCTQ3KWLT
637,1.0,right,right,1.0,0.8861,0.0,37.0,37.0,37.0,1.0,2986419351-296471.jpg,2592380138-56727.jpg,A2IQ0QCTQ3KWLT
638,3.0,left,left,1.0,2.16,0.0,38.0,38.0,38.0,1.0,2883255450-215311.jpg,2575964014-130589.jpg,A2IQ0QCTQ3KWLT
639,3.0,left,left,1.0,1.1845,0.0,39.0,39.0,39.0,1.0,2238471391-240918.jpg,2986399339-146857.jpg,A2IQ0QCTQ3KWLT
640,1.0,right,right,1.0,1.3794,0.0,40.0,40.0,40.0,1.0,2986397365-221133.jpg,2864906345-212360.jpg,A2IQ0QCTQ3KWLT
641,2.0,left,left,1.0,1.164,0.0,41.0,41.0,41.0,1.0,2238480434-93829.jpg,2592380255-205551.jpg,A2IQ0QCTQ3KWLT
642,3.0,right,right,1.0,1.2986,0.0,42.0,42.0,42.0,1.0,2238328478-11678.jpg,2862691449-137104.jpg,A2IQ0QCTQ3KWLT
643,2.0,left,left,1.0,1.1518,0.0,43.0,43.0,43.0,1.0,2575964140-205050.jpg,2238547522-328488.jpg,A2IQ0QCTQ3KWLT
644,2.0,left,left,1.0,0.7456,0.0,44.0,44.0,44.0,1.0,2238575092-334269.jpg,2860304305-210777.jpg,A2IQ0QCTQ3KWLT
645,2.0,right,right,1.0,1.3514,0.0,45.0,45.0,45.0,1.0,2901936369-143233.jpg,2883272438-68133.jpg,A2IQ0QCTQ3KWLT
646,3.0,right,right,1.0,1.0828,0.0,46.0,46.0,46.0,1.0,2238380901-236499.jpg,2452380166-273109.jpg,A2IQ0QCTQ3KWLT
647,1.0,left,left,1.0,1.5262,0.0,47.0,47.0,47.0,1.0,2964224310-219527.jpg,2238380178-14011.jpg,A2IQ0QCTQ3KWLT
648,3.0,right,right,1.0,3.1353,0.0,48.0,48.0,48.0,1.0,2237858043-1434.jpg,2898633480-217190.jpg,A2IQ0QCTQ3KWLT
649,1.0,right,right,1.0,1.0344,0.0,49.0,49.0,49.0,1.0,2864901420-212147.jpg,2238584869-113153.jpg,A2IQ0QCTQ3KWLT
650,1.0,right,right,1.0,1.225,0.0,50.0,50.0,50.0,1.0,2901934573-69336.jpg,2460547467-349421.jpg,A2IQ0QCTQ3KWLT
651,1.0,right,right,1.0,1.2873,0.0,51.0,51.0,51.0,1.0,2868488422-363715.jpg,2901941426-292805.jpg,A2IQ0QCTQ3KWLT
652,1.0,right,right,1.0,0.7686,0.0,52.0,52.0,52.0,1.0,2460547477-349426.jpg,2238129579-80916.jpg,A2IQ0QCTQ3KWLT
653,2.0,right,right,1.0,1.2256,0.0,53.0,53.0,53.0,1.0,2825702353-60662.jpg,2994405328-74628.jpg,A2IQ0QCTQ3KWLT
654,1.0,right,left,0.0,2.4705,0.0,54.0,54.0,54.0,1.0,2868488456-288710.jpg,2964209380-218956.jpg,A2IQ0QCTQ3KWLT
655,2.0,left,left,1.0,1.1364,0.0,55.0,55.0,55.0,1.0,2883254439-140941.jpg,2237965109-79314.jpg,A2IQ0QCTQ3KWLT
656,3.0,left,left,1.0,1.4037,0.0,56.0,56.0,56.0,1.0,2901938432-367627.jpg,2424122568-45517.jpg,A2IQ0QCTQ3KWLT
657,2.0,right,right,1.0,1.3222,0.0,57.0,57.0,57.0,1.0,2868472420-213024.jpg,2868485396-288511.jpg,A2IQ0QCTQ3KWLT
658,3.0,right,right,1.0,1.0409,0.0,58.0,58.0,58.0,1.0,2864904453-63932.jpg,2898632385-217137.jpg,A2IQ0QCTQ3KWLT
659,3.0,right,right,1.0,0.7527,0.0,59.0,59.0,59.0,1.0,2238562336-256366.jpg,2883255450-215309.jpg,A2IQ0QCTQ3KWLT
660,2.0,right,right,1.0,1.89,0.0,0.0,0.0,0.0,1.0,2986455341-296758.jpg,2862691449-137104.jpg,A26M997VYVK0E6
661,3.0,right,right,1.0,2.317,0.0,1.0,1.0,1.0,1.0,2238498786-244797.jpg,2446759803-49249.jpg,A26M997VYVK0E6
662,3.0,right,left,0.0,3.457,0.0,2.0,2.0,2.0,1.0,2901945303-70125.jpg,2901941426-292805.jpg,A26M997VYVK0E6
663,3.0,left,left,1.0,1.471,0.0,3.0,3.0,3.0,1.0,2883255450-215311.jpg,2575964014-130589.jpg,A26M997VYVK0E6
664,1.0,left,left,1.0,3.325,0.0,4.0,4.0,4.0,1.0,2883255450-215309.jpg,2238429999-90216.jpg,A26M997VYVK0E6
665,3.0,right,left,0.0,1.593,0.0,5.0,5.0,5.0,1.0,2898618440-216545.jpg,2898626385-216899.jpg,A26M997VYVK0E6
666,2.0,left,right,0.0,1.351,0.0,6.0,6.0,6.0,1.0,2238496457-319749.jpg,2592380234-131135.jpg,A26M997VYVK0E6
667,3.0,right,left,0.0,1.833,0.0,7.0,7.0,7.0,1.0,2986455373-73646.jpg,2238584869-113153.jpg,A26M997VYVK0E6
668,1.0,right,right,1.0,1.908,0.0,8.0,8.0,8.0,1.0,2986448334-147157.jpg,2238429999-90218.jpg,A26M997VYVK0E6
669,2.0,left,left,1.0,0.999,0.0,9.0,9.0,9.0,1.0,2238480434-93829.jpg,2592380255-205551.jpg,A26M997VYVK0E6
670,1.0,left,right,0.0,2.208,0.0,10.0,10.0,10.0,1.0,2964213381-294060.jpg,2898631359-142720.jpg,A26M997VYVK0E6
671,3.0,left,right,0.0,1.285,0.0,11.0,11.0,11.0,1.0,2238516618-25604.jpg,2238470979-92618.jpg,A26M997VYVK0E6
672,1.0,right,right,1.0,1.209,0.0,12.0,12.0,12.0,1.0,2986450330-221526.jpg,2981231446-294731.jpg,A26M997VYVK0E6
673,3.0,right,right,1.0,1.466,0.0,13.0,13.0,13.0,1.0,2812983311-281946.jpg,2883254439-140940.jpg,A26M997VYVK0E6
674,1.0,left,right,0.0,2.588,0.0,14.0,14.0,14.0,1.0,2964213381-294061.jpg,2238433340-164524.jpg,A26M997VYVK0E6
675,3.0,right,left,0.0,1.329,0.0,15.0,15.0,15.0,1.0,2460547508-51571.jpg,2238375302-311538.jpg,A26M997VYVK0E6
676,1.0,left,left,1.0,1.231,0.0,16.0,16.0,16.0,1.0,2964218374-144968.jpg,2238411877-313125.jpg,A26M997VYVK0E6
677,1.0,left,right,0.0,2.385,0.0,17.0,17.0,17.0,1.0,2446758985-197609.jpg,2898633421-291973.jpg,A26M997VYVK0E6
678,1.0,right,right,1.0,1.463,0.0,18.0,18.0,18.0,1.0,2446760147-347245.jpg,2898633480-217190.jpg,A26M997VYVK0E6
679,3.0,left,left,1.0,1.532,0.0,19.0,19.0,19.0,1.0,2964216465-219242.jpg,2446760917-347439.jpg,A26M997VYVK0E6
680,2.0,left,right,0.0,2.55,0.0,20.0,20.0,20.0,1.0,2883272438-68133.jpg,2901936369-143233.jpg,A26M997VYVK0E6
681,3.0,right,left,0.0,1.028,0.0,21.0,21.0,21.0,1.0,2964218374-144967.jpg,2238575092-334269.jpg,A26M997VYVK0E6
682,1.0,right,right,1.0,1.407,0.0,22.0,22.0,22.0,1.0,2417206274-118542.jpg,2994405328-74628.jpg,A26M997VYVK0E6
683,3.0,left,right,0.0,2.83,0.0,23.0,23.0,23.0,1.0,2864909447-362146.jpg,2874303453-66056.jpg,A26M997VYVK0E6
684,2.0,right,left,0.0,0.826,0.0,24.0,24.0,24.0,1.0,2449442529-124445.jpg,2331570830-189984.jpg,A26M997VYVK0E6
685,2.0,left,left,1.0,1.544,0.0,25.0,25.0,25.0,1.0,2238129579-80916.jpg,2898618444-142233.jpg,A26M997VYVK0E6
686,1.0,left,left,1.0,1.484,0.0,26.0,26.0,26.0,1.0,2460547467-349421.jpg,2901934573-69336.jpg,A26M997VYVK0E6
687,2.0,right,left,0.0,3.98,0.0,27.0,27.0,27.0,1.0,2238585512-336576.jpg,2898617468-68274.jpg,A26M997VYVK0E6
688,1.0,right,right,1.0,4.551,0.0,28.0,28.0,28.0,1.0,2856919327-359676.jpg,2238126735-154721.jpg,A26M997VYVK0E6
689,2.0,right,right,1.0,1.723,0.0,29.0,29.0,29.0,1.0,2238552469-106359.jpg,2446760524-123999.jpg,A26M997VYVK0E6
690,1.0,left,left,1.0,3.834,0.0,30.0,30.0,30.0,1.0,2868475410-213219.jpg,2238216693-10721.jpg,A26M997VYVK0E6
691,3.0,left,left,1.0,1.13,0.0,31.0,31.0,31.0,1.0,2986400320-221190.jpg,2238538133-29662.jpg,A26M997VYVK0E6
692,3.0,left,right,0.0,1.849,0.0,32.0,32.0,32.0,1.0,2449442529-124446.jpg,2864911339-138231.jpg,A26M997VYVK0E6
693,3.0,left,left,1.0,1.344,0.0,33.0,33.0,33.0,1.0,2864906345-212360.jpg,2994403305-222559.jpg,A26M997VYVK0E6
694,1.0,right,left,0.0,2.42,0.0,34.0,34.0,34.0,1.0,2425492472-343825.jpg,2625337302-355866.jpg,A26M997VYVK0E6
695,3.0,left,left,1.0,1.332,0.0,35.0,35.0,35.0,1.0,2901939379-143479.jpg,2864909422-362141.jpg,A26M997VYVK0E6
696,2.0,left,left,1.0,7.747,0.0,36.0,36.0,36.0,1.0,2238584018-38513.jpg,2898633321-291943.jpg,A26M997VYVK0E6
697,1.0,left,right,0.0,1.969,0.0,37.0,37.0,37.0,1.0,2898635427-367120.jpg,2238436632-314069.jpg,A26M997VYVK0E6
698,1.0,left,left,1.0,1.2,0.0,38.0,38.0,38.0,1.0,2446760940-198145.jpg,2449443300-198739.jpg,A26M997VYVK0E6
699,2.0,right,left,0.0,1.252,0.0,39.0,39.0,39.0,1.0,2237965109-79314.jpg,2883254439-140941.jpg,A26M997VYVK0E6
700,3.0,right,left,0.0,1.334,0.0,40.0,40.0,40.0,1.0,2238490590-169598.jpg,2964224310-219527.jpg,A26M997VYVK0E6
701,1.0,right,left,0.0,1.879,0.0,41.0,41.0,41.0,1.0,2825712309-134957.jpg,2238521193-26286.jpg,A26M997VYVK0E6
702,3.0,left,left,1.0,1.052,0.0,42.0,42.0,42.0,1.0,2986408352-371293.jpg,2856916345-210056.jpg,A26M997VYVK0E6
703,2.0,right,left,0.0,1.136,0.0,43.0,43.0,43.0,1.0,2446758985-197610.jpg,2274829821-263682.jpg,A26M997VYVK0E6
704,2.0,right,right,1.0,1.251,0.0,44.0,44.0,44.0,1.0,2273188118-40829.jpg,2898632385-217138.jpg,A26M997VYVK0E6
705,2.0,left,right,0.0,7.934,0.0,45.0,45.0,45.0,1.0,2238471391-240918.jpg,2901943388-69995.jpg,A26M997VYVK0E6
706,2.0,right,right,1.0,2.833,0.0,46.0,46.0,46.0,1.0,2898631429-142736.jpg,2964209380-218956.jpg,A26M997VYVK0E6
707,1.0,right,left,0.0,1.499,0.0,47.0,47.0,47.0,1.0,2238482920-168428.jpg,2575964140-205050.jpg,A26M997VYVK0E6
708,2.0,left,left,1.0,4.315,0.0,48.0,48.0,48.0,1.0,2868485396-288511.jpg,2868472420-213024.jpg,A26M997VYVK0E6
709,2.0,left,right,0.0,0.901,0.0,49.0,49.0,49.0,1.0,2579432576-279079.jpg,2446760226-272006.jpg,A26M997VYVK0E6
710,3.0,left,left,1.0,1.699,0.0,50.0,50.0,50.0,1.0,2592380138-56727.jpg,2238537701-251772.jpg,A26M997VYVK0E6
711,1.0,right,left,0.0,3.122,0.0,51.0,51.0,51.0,1.0,2238360884-87525.jpg,2898632385-217137.jpg,A26M997VYVK0E6
712,2.0,left,left,1.0,0.982,0.0,52.0,52.0,52.0,1.0,2898624426-291546.jpg,2549106844-127878.jpg,A26M997VYVK0E6
713,2.0,left,right,0.0,1.096,0.0,53.0,53.0,53.0,1.0,2238561223-33794.jpg,2592380177-354626.jpg,A26M997VYVK0E6
714,3.0,left,left,1.0,0.932,0.0,54.0,54.0,54.0,1.0,2238550049-105691.jpg,2964219468-71238.jpg,A26M997VYVK0E6
715,1.0,left,right,0.0,1.834,0.0,55.0,55.0,55.0,1.0,2901934573-69337.jpg,2986401333-73218.jpg,A26M997VYVK0E6
716,2.0,right,right,1.0,1.012,0.0,56.0,56.0,56.0,1.0,2856919327-359675.jpg,2901938432-367627.jpg,A26M997VYVK0E6
717,2.0,right,left,0.0,1.849,0.0,57.0,57.0,57.0,1.0,2452380832-348593.jpg,2238499155-170911.jpg,A26M997VYVK0E6
718,3.0,right,left,0.0,0.897,0.0,58.0,58.0,58.0,1.0,2238576267-334532.jpg,2512876023-52283.jpg,A26M997VYVK0E6
719,1.0,left,left,1.0,0.791,0.0,59.0,59.0,59.0,1.0,2452380166-273109.jpg,2452380171-273112.jpg,A26M997VYVK0E6
720,3.0,left,left,1.0,1.6947,0.0,0.0,0.0,0.0,1.0,2994405328-74628.jpg,2883273443-68192.jpg,AHZ7C7ETHYX3N
721,1.0,right,right,1.0,1.0507,0.0,1.0,1.0,1.0,1.0,2592380255-205552.jpg,2238375302-311538.jpg,AHZ7C7ETHYX3N
722,3.0,left,left,1.0,1.1165,0.0,2.0,2.0,2.0,1.0,2274829821-263682.jpg,2862687442-360837.jpg,AHZ7C7ETHYX3N
723,1.0,left,left,1.0,1.3549,0.0,3.0,3.0,3.0,1.0,2238429999-90218.jpg,2986448334-147157.jpg,AHZ7C7ETHYX3N
724,2.0,left,left,1.0,1.2747,0.0,4.0,4.0,4.0,1.0,2238584869-113153.jpg,2981241419-145844.jpg,AHZ7C7ETHYX3N
725,1.0,right,right,1.0,0.9671,0.0,5.0,5.0,5.0,1.0,2804906319-133082.jpg,2238480434-93829.jpg,AHZ7C7ETHYX3N
726,2.0,right,right,1.0,1.1192,0.0,6.0,6.0,6.0,1.0,2592380177-354626.jpg,2238561223-33794.jpg,AHZ7C7ETHYX3N
727,1.0,right,right,1.0,1.6175,0.0,7.0,7.0,7.0,1.0,2579432708-56394.jpg,2901938432-367627.jpg,AHZ7C7ETHYX3N
728,1.0,right,right,1.0,1.472,0.0,8.0,8.0,8.0,1.0,2986397365-221133.jpg,2864906345-212360.jpg,AHZ7C7ETHYX3N
729,2.0,right,right,1.0,1.8284,0.0,9.0,9.0,9.0,1.0,2452380832-348593.jpg,2238499155-170911.jpg,AHZ7C7ETHYX3N
730,2.0,left,left,1.0,1.4181,0.0,10.0,10.0,10.0,1.0,2964213381-294060.jpg,2238520921-248323.jpg,AHZ7C7ETHYX3N
731,1.0,left,left,1.0,1.0244,0.0,11.0,11.0,11.0,1.0,2964218374-144968.jpg,2238411877-313125.jpg,AHZ7C7ETHYX3N
732,2.0,left,left,1.0,1.2384,0.0,12.0,12.0,12.0,1.0,2238126735-154721.jpg,2575122854-130480.jpg,AHZ7C7ETHYX3N
733,2.0,right,right,1.0,1.7404,0.0,13.0,13.0,13.0,1.0,2446759580-197801.jpg,2986408352-371293.jpg,AHZ7C7ETHYX3N
734,3.0,left,left,1.0,1.0292,0.0,14.0,14.0,14.0,1.0,2898632385-217137.jpg,2864904453-63932.jpg,AHZ7C7ETHYX3N
735,2.0,left,left,1.0,1.5669,0.0,15.0,15.0,15.0,1.0,2981231446-294731.jpg,2238568685-183597.jpg,AHZ7C7ETHYX3N
736,2.0,right,right,1.0,1.3501,0.0,16.0,16.0,16.0,1.0,2898631429-142736.jpg,2964209380-218956.jpg,AHZ7C7ETHYX3N
737,1.0,right,right,1.0,1.3736,0.0,17.0,17.0,17.0,1.0,2460547477-349426.jpg,2238129579-80916.jpg,AHZ7C7ETHYX3N
738,1.0,right,right,1.0,1.2618,0.0,18.0,18.0,18.0,1.0,2238481610-168214.jpg,2449442529-124446.jpg,AHZ7C7ETHYX3N
739,2.0,right,right,1.0,1.747,0.0,19.0,19.0,19.0,1.0,2449442365-198476.jpg,2898626385-216899.jpg,AHZ7C7ETHYX3N
740,2.0,left,left,1.0,2.1483,0.0,20.0,20.0,20.0,1.0,2898617468-68274.jpg,2238585512-336576.jpg,AHZ7C7ETHYX3N
741,2.0,right,left,0.0,1.3818,0.0,21.0,21.0,21.0,1.0,2238510189-98616.jpg,2901941426-292805.jpg,AHZ7C7ETHYX3N
742,3.0,left,left,1.0,1.6459,0.0,22.0,22.0,22.0,1.0,2901934573-69337.jpg,2901936407-367476.jpg,AHZ7C7ETHYX3N
743,1.0,left,right,0.0,1.4192,0.0,23.0,23.0,23.0,1.0,2512876023-52283.jpg,2864908323-64106.jpg,AHZ7C7ETHYX3N
744,3.0,left,left,1.0,1.4012,0.0,24.0,24.0,24.0,1.0,2868485396-288511.jpg,2238380314-88261.jpg,AHZ7C7ETHYX3N
745,2.0,left,right,0.0,1.8643,0.0,25.0,25.0,25.0,1.0,2883272438-68133.jpg,2901936369-143233.jpg,AHZ7C7ETHYX3N
746,3.0,left,left,1.0,1.0693,0.0,26.0,26.0,26.0,1.0,2446758985-197609.jpg,2984618344-146295.jpg,AHZ7C7ETHYX3N
747,3.0,left,left,1.0,0.977,0.0,27.0,27.0,27.0,1.0,2238550049-105691.jpg,2964219468-71238.jpg,AHZ7C7ETHYX3N
748,3.0,left,left,1.0,2.0345,0.0,28.0,28.0,28.0,1.0,2964213381-294061.jpg,2989721347-371917.jpg,AHZ7C7ETHYX3N
749,1.0,right,left,0.0,1.0869,0.0,29.0,29.0,29.0,1.0,2986402377-371266.jpg,2898624426-291546.jpg,AHZ7C7ETHYX3N
750,1.0,right,left,0.0,1.7234,0.0,30.0,30.0,30.0,1.0,2989727350-222011.jpg,2986400320-221190.jpg,AHZ7C7ETHYX3N
751,1.0,left,left,1.0,1.1332,0.0,31.0,31.0,31.0,1.0,2592380138-56727.jpg,2986419351-296471.jpg,AHZ7C7ETHYX3N
752,1.0,left,left,1.0,1.0714,0.0,32.0,32.0,32.0,1.0,2898632385-217138.jpg,2575120738-55529.jpg,AHZ7C7ETHYX3N
753,3.0,left,left,1.0,1.0189,0.0,33.0,33.0,33.0,1.0,2883254439-140940.jpg,2812983311-281946.jpg,AHZ7C7ETHYX3N
754,2.0,left,left,1.0,2.1854,0.0,34.0,34.0,34.0,1.0,2901939379-143479.jpg,2449443292-348022.jpg,AHZ7C7ETHYX3N
755,1.0,left,left,1.0,1.5204,0.0,35.0,35.0,35.0,1.0,2238521193-26286.jpg,2825712309-134957.jpg,AHZ7C7ETHYX3N
756,2.0,right,left,0.0,2.2754,0.0,36.0,36.0,36.0,1.0,2592380188-56743.jpg,2446760940-198145.jpg,AHZ7C7ETHYX3N
757,1.0,left,left,1.0,2.2239,0.0,37.0,37.0,37.0,1.0,2446760524-123999.jpg,2446760621-272102.jpg,AHZ7C7ETHYX3N
758,3.0,right,left,0.0,3.0376,0.0,38.0,38.0,38.0,1.0,2237858043-1434.jpg,2898633480-217190.jpg,AHZ7C7ETHYX3N
759,3.0,right,right,1.0,1.1565,0.0,39.0,39.0,39.0,1.0,2238498786-244797.jpg,2446759803-49249.jpg,AHZ7C7ETHYX3N
760,2.0,right,right,1.0,1.58,0.0,40.0,40.0,40.0,1.0,2237965109-79314.jpg,2883254439-140941.jpg,AHZ7C7ETHYX3N
761,2.0,left,left,1.0,1.9087,0.0,41.0,41.0,41.0,1.0,2964216465-219242.jpg,2512875796-274856.jpg,AHZ7C7ETHYX3N
762,3.0,left,left,1.0,1.0396,0.0,42.0,42.0,42.0,1.0,2331570830-189984.jpg,2458348012-349114.jpg,AHZ7C7ETHYX3N
763,2.0,right,right,1.0,1.2047,0.0,43.0,43.0,43.0,1.0,2238470079-92499.jpg,2460547467-349421.jpg,AHZ7C7ETHYX3N
764,1.0,right,right,1.0,1.5479,0.0,44.0,44.0,44.0,1.0,2238481575-168208.jpg,2883255450-215311.jpg,AHZ7C7ETHYX3N
765,3.0,left,left,1.0,2.5247,0.0,45.0,45.0,45.0,1.0,2898635427-367120.jpg,2901936309-143207.jpg,AHZ7C7ETHYX3N
766,2.0,left,left,1.0,1.5282,0.0,46.0,46.0,46.0,1.0,2862691449-137104.jpg,2986455341-296758.jpg,AHZ7C7ETHYX3N
767,1.0,left,left,1.0,1.5213,0.0,47.0,47.0,47.0,1.0,2238471391-240918.jpg,2868470400-212889.jpg,AHZ7C7ETHYX3N
768,3.0,right,right,1.0,1.1831,0.0,48.0,48.0,48.0,1.0,2458348144-125787.jpg,2579432576-279079.jpg,AHZ7C7ETHYX3N
769,1.0,right,right,1.0,1.4762,0.0,49.0,49.0,49.0,1.0,2592380285-205564.jpg,2238575092-334269.jpg,AHZ7C7ETHYX3N
770,1.0,left,left,1.0,1.6242,0.0,50.0,50.0,50.0,1.0,2238496457-319749.jpg,2238570142-333223.jpg,AHZ7C7ETHYX3N
771,3.0,left,left,1.0,2.5101,0.0,51.0,51.0,51.0,1.0,2575964140-205050.jpg,2446760226-272005.jpg,AHZ7C7ETHYX3N
772,3.0,right,right,1.0,1.0095,0.0,52.0,52.0,52.0,1.0,2598726160-205998.jpg,2625337302-355866.jpg,AHZ7C7ETHYX3N
773,3.0,left,left,1.0,1.6009,0.0,53.0,53.0,53.0,1.0,2238516618-25604.jpg,2238470979-92618.jpg,AHZ7C7ETHYX3N
774,3.0,right,right,1.0,1.4471,0.0,54.0,54.0,54.0,1.0,2238380901-236499.jpg,2452380166-273109.jpg,AHZ7C7ETHYX3N
775,2.0,left,left,1.0,1.2446,0.0,55.0,55.0,55.0,1.0,2238584018-38513.jpg,2898633321-291943.jpg,AHZ7C7ETHYX3N
776,2.0,left,left,1.0,1.6512,0.0,56.0,56.0,56.0,1.0,2964224310-219527.jpg,2964213441-294073.jpg,AHZ7C7ETHYX3N
777,3.0,right,right,1.0,1.4309,0.0,57.0,57.0,57.0,1.0,2238562336-256366.jpg,2883255450-215309.jpg,AHZ7C7ETHYX3N
778,3.0,right,left,0.0,1.7808,0.0,58.0,58.0,58.0,1.0,2238436851-238821.jpg,2868475410-213219.jpg,AHZ7C7ETHYX3N
779,1.0,left,left,1.0,1.677,0.0,59.0,59.0,59.0,1.0,2864909447-362146.jpg,2874316384-140749.jpg,AHZ7C7ETHYX3N
780,2.0,left,left,1.0,2.7286,0.0,0.0,0.0,0.0,1.0,2883254439-140940.jpg,2575121890-204630.jpg,A3VH9AT1MB4MI2
781,3.0,left,left,1.0,7.3599,0.0,1.0,1.0,1.0,1.0,2446760524-123999.jpg,2238539138-29878.jpg,A3VH9AT1MB4MI2
782,1.0,right,right,1.0,1.4754,0.0,2.0,2.0,2.0,1.0,2238482920-168428.jpg,2575964140-205050.jpg,A3VH9AT1MB4MI2
783,3.0,left,left,1.0,4.3512,0.0,3.0,3.0,3.0,1.0,2238499155-170911.jpg,2238373603-13733.jpg,A3VH9AT1MB4MI2
784,1.0,right,right,1.0,1.7948,0.0,4.0,4.0,4.0,1.0,2592380255-205552.jpg,2238375302-311538.jpg,A3VH9AT1MB4MI2
785,3.0,right,right,1.0,1.6899,0.0,5.0,5.0,5.0,1.0,2901945303-70125.jpg,2901941426-292805.jpg,A3VH9AT1MB4MI2
786,3.0,left,left,1.0,1.3285,0.0,6.0,6.0,6.0,1.0,2274829821-263682.jpg,2862687442-360837.jpg,A3VH9AT1MB4MI2
787,3.0,right,right,1.0,1.6582,0.0,7.0,7.0,7.0,1.0,2238380901-236499.jpg,2452380166-273109.jpg,A3VH9AT1MB4MI2
788,2.0,left,left,1.0,1.4205,0.0,8.0,8.0,8.0,1.0,2238516618-25604.jpg,2862686459-136888.jpg,A3VH9AT1MB4MI2
789,3.0,right,right,1.0,1.5741,0.0,9.0,9.0,9.0,1.0,2883271323-68049.jpg,2238561223-33794.jpg,A3VH9AT1MB4MI2
790,2.0,right,right,1.0,1.5954,0.0,10.0,10.0,10.0,1.0,2238521157-323782.jpg,2964218374-144968.jpg,A3VH9AT1MB4MI2
791,2.0,right,right,1.0,1.7811,0.0,11.0,11.0,11.0,1.0,2575122854-130480.jpg,2238126735-154721.jpg,A3VH9AT1MB4MI2
792,3.0,left,left,1.0,1.7386,0.0,12.0,12.0,12.0,1.0,2964213381-294060.jpg,2989724308-73930.jpg,A3VH9AT1MB4MI2
793,2.0,left,left,1.0,2.1122,0.0,13.0,13.0,13.0,1.0,2238521193-26286.jpg,2874301437-363905.jpg,A3VH9AT1MB4MI2
794,1.0,right,right,1.0,1.8248,0.0,14.0,14.0,14.0,1.0,2579432708-56394.jpg,2901938432-367627.jpg,A3VH9AT1MB4MI2
795,3.0,left,left,1.0,1.3346,0.0,15.0,15.0,15.0,1.0,2512876023-52283.jpg,2238576267-334532.jpg,A3VH9AT1MB4MI2
796,1.0,left,left,1.0,1.2551,0.0,16.0,16.0,16.0,1.0,2994405328-74628.jpg,2417206274-118542.jpg,A3VH9AT1MB4MI2
797,1.0,right,right,1.0,1.3514,0.0,17.0,17.0,17.0,1.0,2874316384-140749.jpg,2864909447-362146.jpg,A3VH9AT1MB4MI2
798,2.0,left,left,1.0,1.2195,0.0,18.0,18.0,18.0,1.0,2446759803-49249.jpg,2238468265-166556.jpg,A3VH9AT1MB4MI2
799,2.0,right,left,0.0,1.3872,0.0,19.0,19.0,19.0,1.0,2592380188-56743.jpg,2446760940-198145.jpg,A3VH9AT1MB4MI2
800,3.0,left,right,0.0,2.2275,0.0,20.0,20.0,20.0,1.0,2964224310-219527.jpg,2238490590-169598.jpg,A3VH9AT1MB4MI2
801,2.0,left,left,1.0,2.3095,0.0,21.0,21.0,21.0,1.0,2446758985-197609.jpg,2635396318-58409.jpg,A3VH9AT1MB4MI2
802,3.0,right,right,1.0,1.5859,0.0,22.0,22.0,22.0,1.0,2864902304-137862.jpg,2898624426-291546.jpg,A3VH9AT1MB4MI2
803,1.0,right,right,1.0,1.9248,0.0,23.0,23.0,23.0,1.0,2986450334-147215.jpg,2901939379-143479.jpg,A3VH9AT1MB4MI2
804,3.0,right,right,1.0,1.7776,0.0,24.0,24.0,24.0,1.0,2460547992-349586.jpg,2898632385-217138.jpg,A3VH9AT1MB4MI2
805,3.0,right,right,1.0,1.8884,0.0,25.0,25.0,25.0,1.0,2238538133-29662.jpg,2986400320-221190.jpg,A3VH9AT1MB4MI2
806,2.0,right,right,1.0,2.3659,0.0,26.0,26.0,26.0,1.0,2238345946-235007.jpg,2901934573-69337.jpg,A3VH9AT1MB4MI2
807,1.0,right,left,0.0,3.7199,0.0,27.0,27.0,27.0,1.0,2868470456-287597.jpg,2868485396-288511.jpg,A3VH9AT1MB4MI2
808,1.0,right,left,0.0,11.1869,0.0,28.0,28.0,28.0,1.0,2868470400-212889.jpg,2238471391-240918.jpg,A3VH9AT1MB4MI2
809,1.0,left,left,1.0,2.1467,0.0,29.0,29.0,29.0,1.0,2238584018-38513.jpg,2449443163-50093.jpg,A3VH9AT1MB4MI2
810,1.0,left,left,1.0,1.5934,0.0,30.0,30.0,30.0,1.0,2981231446-294731.jpg,2986450330-221526.jpg,A3VH9AT1MB4MI2
811,3.0,right,right,1.0,1.6169,0.0,31.0,31.0,31.0,1.0,2986455373-73646.jpg,2238584869-113153.jpg,A3VH9AT1MB4MI2
812,1.0,left,left,1.0,1.8305,0.0,32.0,32.0,32.0,1.0,2592380138-56727.jpg,2986419351-296471.jpg,A3VH9AT1MB4MI2
813,1.0,left,left,1.0,1.3321,0.0,33.0,33.0,33.0,1.0,2238550049-105691.jpg,2238482972-317759.jpg,A3VH9AT1MB4MI2
814,1.0,left,left,1.0,1.1569,0.0,34.0,34.0,34.0,1.0,2883272438-68133.jpg,2237949408-4018.jpg,A3VH9AT1MB4MI2
815,2.0,left,left,1.0,1.4111,0.0,35.0,35.0,35.0,1.0,2449442529-124446.jpg,2868469458-64561.jpg,A3VH9AT1MB4MI2
816,2.0,right,right,1.0,1.3904,0.0,36.0,36.0,36.0,1.0,2592380255-205551.jpg,2238480434-93829.jpg,A3VH9AT1MB4MI2
817,2.0,left,left,1.0,1.7125,0.0,37.0,37.0,37.0,1.0,2625337302-355866.jpg,2238478760-167789.jpg,A3VH9AT1MB4MI2
818,2.0,left,left,1.0,2.6505,0.0,38.0,38.0,38.0,1.0,2238496457-319749.jpg,2592380234-131135.jpg,A3VH9AT1MB4MI2
819,1.0,right,right,1.0,1.544,0.0,39.0,39.0,39.0,1.0,2989724308-73928.jpg,2883254439-140941.jpg,A3VH9AT1MB4MI2
820,3.0,left,left,1.0,2.4319,0.0,40.0,40.0,40.0,1.0,2862691449-137104.jpg,2238328478-11678.jpg,A3VH9AT1MB4MI2
821,3.0,left,left,1.0,2.1191,0.0,41.0,41.0,41.0,1.0,2964209380-218956.jpg,2898617396-291219.jpg,A3VH9AT1MB4MI2
822,2.0,left,left,1.0,1.8142,0.0,42.0,42.0,42.0,1.0,2964216465-219242.jpg,2512875796-274856.jpg,A3VH9AT1MB4MI2
823,2.0,right,right,1.0,2.7355,0.0,43.0,43.0,43.0,1.0,2446760226-272006.jpg,2579432576-279079.jpg,A3VH9AT1MB4MI2
824,3.0,left,left,1.0,2.2385,0.0,44.0,44.0,44.0,1.0,2986408352-371293.jpg,2856916345-210056.jpg,A3VH9AT1MB4MI2
825,3.0,right,right,1.0,1.9995,0.0,45.0,45.0,45.0,1.0,2862684406-285700.jpg,2898617468-68274.jpg,A3VH9AT1MB4MI2
826,2.0,left,left,1.0,2.1057,0.0,46.0,46.0,46.0,1.0,2898633480-217190.jpg,2986450334-147216.jpg,A3VH9AT1MB4MI2
827,2.0,left,left,1.0,2.3911,0.0,47.0,47.0,47.0,1.0,2883255450-215309.jpg,2868476439-138927.jpg,A3VH9AT1MB4MI2
828,1.0,right,right,1.0,1.7443,0.0,48.0,48.0,48.0,1.0,2460547477-349426.jpg,2238129579-80916.jpg,A3VH9AT1MB4MI2
829,2.0,left,left,1.0,1.7116,0.0,49.0,49.0,49.0,1.0,2898632385-217137.jpg,2238480803-19739.jpg,A3VH9AT1MB4MI2
830,1.0,right,right,1.0,1.5391,0.0,50.0,50.0,50.0,1.0,2238433340-164524.jpg,2964213381-294061.jpg,A3VH9AT1MB4MI2
831,1.0,left,left,1.0,2.2008,0.0,51.0,51.0,51.0,1.0,2898626385-216899.jpg,2989715328-73658.jpg,A3VH9AT1MB4MI2
832,3.0,right,right,1.0,2.7601,0.0,52.0,52.0,52.0,1.0,2238436851-238821.jpg,2868475410-213219.jpg,A3VH9AT1MB4MI2
833,1.0,left,left,1.0,2.1781,0.0,53.0,53.0,53.0,1.0,2883255450-215311.jpg,2238481575-168208.jpg,A3VH9AT1MB4MI2
834,1.0,left,left,1.0,1.8114,0.0,54.0,54.0,54.0,1.0,2898635427-367120.jpg,2238436632-314069.jpg,A3VH9AT1MB4MI2
835,3.0,right,right,1.0,4.3687,0.0,55.0,55.0,55.0,1.0,2458348012-349114.jpg,2331570830-189984.jpg,A3VH9AT1MB4MI2
836,3.0,right,right,1.0,1.4338,0.0,56.0,56.0,56.0,1.0,2238554179-106663.jpg,2460547467-349421.jpg,A3VH9AT1MB4MI2
837,2.0,left,left,1.0,1.9578,0.0,57.0,57.0,57.0,1.0,2238575092-334269.jpg,2860304305-210777.jpg,A3VH9AT1MB4MI2
838,1.0,right,right,1.0,1.642,0.0,58.0,58.0,58.0,1.0,2986448334-147157.jpg,2238429999-90218.jpg,A3VH9AT1MB4MI2
839,2.0,right,right,1.0,1.5514,0.0,59.0,59.0,59.0,1.0,2238087237-303447.jpg,2864906345-212360.jpg,A3VH9AT1MB4MI2
840,2.0,left,left,1.0,1.6842,0.0,0.0,0.0,0.0,1.0,2446759803-49249.jpg,2238468265-166556.jpg,A3N0QZ9ZKUCTCQ
841,2.0,right,right,1.0,1.3548,0.0,1.0,1.0,1.0,1.0,2592380177-354626.jpg,2238561223-33794.jpg,A3N0QZ9ZKUCTCQ
842,1.0,left,left,1.0,1.1249,0.0,2.0,2.0,2.0,1.0,2592380138-56727.jpg,2986419351-296471.jpg,A3N0QZ9ZKUCTCQ
843,3.0,left,left,1.0,1.782,0.0,3.0,3.0,3.0,1.0,2238480434-93829.jpg,2238479903-19596.jpg,A3N0QZ9ZKUCTCQ
844,1.0,left,left,1.0,1.204,0.0,4.0,4.0,4.0,1.0,2575964140-205050.jpg,2238482920-168428.jpg,A3N0QZ9ZKUCTCQ
845,2.0,left,left,1.0,1.051,0.0,5.0,5.0,5.0,1.0,2460547467-349421.jpg,2238470079-92499.jpg,A3N0QZ9ZKUCTCQ
846,2.0,left,left,1.0,1.6723,0.0,6.0,6.0,6.0,1.0,2238499155-170911.jpg,2452380832-348593.jpg,A3N0QZ9ZKUCTCQ
847,3.0,left,left,1.0,1.5802,0.0,7.0,7.0,7.0,1.0,2238584018-38513.jpg,2452381442-348755.jpg,A3N0QZ9ZKUCTCQ
848,1.0,right,right,1.0,1.0896,0.0,8.0,8.0,8.0,1.0,2898633421-291973.jpg,2446758985-197609.jpg,A3N0QZ9ZKUCTCQ
849,2.0,right,right,1.0,1.03,0.0,9.0,9.0,9.0,1.0,2237941457-301342.jpg,2898635427-367120.jpg,A3N0QZ9ZKUCTCQ
850,1.0,right,right,1.0,1.0331,0.0,10.0,10.0,10.0,1.0,2238216693-10721.jpg,2868475410-213219.jpg,A3N0QZ9ZKUCTCQ
851,1.0,right,right,1.0,1.1115,0.0,11.0,11.0,11.0,1.0,2575120738-55529.jpg,2898632385-217138.jpg,A3N0QZ9ZKUCTCQ
852,3.0,right,right,1.0,1.2725,0.0,12.0,12.0,12.0,1.0,2238380314-88261.jpg,2868485396-288511.jpg,A3N0QZ9ZKUCTCQ
853,2.0,left,right,0.0,1.5081,0.0,13.0,13.0,13.0,1.0,2864906345-212360.jpg,2238087237-303447.jpg,A3N0QZ9ZKUCTCQ
854,1.0,left,left,1.0,0.8695,0.0,14.0,14.0,14.0,1.0,2331570830-189984.jpg,2446760483-49429.jpg,A3N0QZ9ZKUCTCQ
855,3.0,right,right,1.0,1.4249,0.0,15.0,15.0,15.0,1.0,2864902304-137862.jpg,2898624426-291546.jpg,A3N0QZ9ZKUCTCQ
856,1.0,right,right,1.0,1.3126,0.0,16.0,16.0,16.0,1.0,2592380255-205552.jpg,2238375302-311538.jpg,A3N0QZ9ZKUCTCQ
857,3.0,right,right,1.0,3.5751,0.0,17.0,17.0,17.0,1.0,2986455373-73646.jpg,2238584869-113153.jpg,A3N0QZ9ZKUCTCQ
858,1.0,left,left,1.0,1.495,0.0,18.0,18.0,18.0,1.0,2964224310-219527.jpg,2238380178-14011.jpg,A3N0QZ9ZKUCTCQ
859,3.0,right,right,1.0,1.8083,0.0,19.0,19.0,19.0,1.0,2856916345-210056.jpg,2986408352-371293.jpg,A3N0QZ9ZKUCTCQ
860,3.0,left,left,1.0,1.125,0.0,20.0,20.0,20.0,1.0,2238575092-334269.jpg,2964218374-144967.jpg,A3N0QZ9ZKUCTCQ
861,1.0,right,right,1.0,0.8864,0.0,21.0,21.0,21.0,1.0,2986450334-147215.jpg,2901939379-143479.jpg,A3N0QZ9ZKUCTCQ
862,1.0,left,right,0.0,4.5336,0.0,22.0,22.0,22.0,1.0,2883255450-215311.jpg,2238481575-168208.jpg,A3N0QZ9ZKUCTCQ
863,1.0,right,right,1.0,1.1844,0.0,23.0,23.0,23.0,1.0,2986401333-73218.jpg,2901934573-69337.jpg,A3N0QZ9ZKUCTCQ
864,3.0,left,right,0.0,1.1353,0.0,24.0,24.0,24.0,1.0,2579432576-279079.jpg,2458348144-125787.jpg,A3N0QZ9ZKUCTCQ
865,1.0,right,right,1.0,2.9787,0.0,25.0,25.0,25.0,1.0,2417206274-118542.jpg,2994405328-74628.jpg,A3N0QZ9ZKUCTCQ
866,1.0,left,left,1.0,1.9348,0.0,26.0,26.0,26.0,1.0,2274829821-263682.jpg,2238570526-257884.jpg,A3N0QZ9ZKUCTCQ
867,1.0,left,left,1.0,2.2865,0.0,27.0,27.0,27.0,1.0,2238429999-90218.jpg,2986448334-147157.jpg,A3N0QZ9ZKUCTCQ
868,3.0,left,left,1.0,1.5633,0.0,28.0,28.0,28.0,1.0,2238496457-319749.jpg,2460547467-349422.jpg,A3N0QZ9ZKUCTCQ
869,2.0,right,right,1.0,2.4987,0.0,29.0,29.0,29.0,1.0,2901943388-69995.jpg,2238471391-240918.jpg,A3N0QZ9ZKUCTCQ
870,3.0,right,right,1.0,3.3381,0.0,30.0,30.0,30.0,1.0,2424122568-45517.jpg,2901938432-367627.jpg,A3N0QZ9ZKUCTCQ
871,2.0,right,right,1.0,2.6095,0.0,31.0,31.0,31.0,1.0,2238585512-336576.jpg,2898617468-68274.jpg,A3N0QZ9ZKUCTCQ
872,3.0,left,left,1.0,1.5763,0.0,32.0,32.0,32.0,1.0,2862691449-137104.jpg,2238328478-11678.jpg,A3N0QZ9ZKUCTCQ
873,2.0,left,left,1.0,1.9486,0.0,33.0,33.0,33.0,1.0,2898633480-217190.jpg,2986450334-147216.jpg,A3N0QZ9ZKUCTCQ
874,3.0,left,left,1.0,2.0825,0.0,34.0,34.0,34.0,1.0,2238516618-25604.jpg,2238470979-92618.jpg,A3N0QZ9ZKUCTCQ
875,3.0,right,right,1.0,1.3488,0.0,35.0,35.0,35.0,1.0,2238525773-27014.jpg,2964218374-144968.jpg,A3N0QZ9ZKUCTCQ
876,2.0,right,right,1.0,3.7666,0.0,36.0,36.0,36.0,1.0,2449443271-272729.jpg,2238550049-105691.jpg,A3N0QZ9ZKUCTCQ
877,1.0,right,right,1.0,4.0981,0.0,37.0,37.0,37.0,1.0,2989727350-222011.jpg,2986400320-221190.jpg,A3N0QZ9ZKUCTCQ
878,2.0,right,right,1.0,1.243,0.0,38.0,38.0,38.0,1.0,2238520921-248323.jpg,2964213381-294060.jpg,A3N0QZ9ZKUCTCQ
879,2.0,left,left,1.0,1.0704,0.0,39.0,39.0,39.0,1.0,2898632385-217137.jpg,2238480803-19739.jpg,A3N0QZ9ZKUCTCQ
880,3.0,right,left,0.0,6.6751,0.0,40.0,40.0,40.0,1.0,2238562336-256366.jpg,2883255450-215309.jpg,A3N0QZ9ZKUCTCQ
881,3.0,right,right,1.0,1.3243,0.0,41.0,41.0,41.0,1.0,2446760917-347439.jpg,2964216465-219242.jpg,A3N0QZ9ZKUCTCQ
882,2.0,left,left,1.0,1.551,0.0,42.0,42.0,42.0,1.0,2864909447-362146.jpg,2238555799-106905.jpg,A3N0QZ9ZKUCTCQ
883,1.0,right,right,1.0,2.5847,0.0,43.0,43.0,43.0,1.0,2868488422-363715.jpg,2901941426-292805.jpg,A3N0QZ9ZKUCTCQ
884,3.0,right,right,1.0,1.1273,0.0,44.0,44.0,44.0,1.0,2989721347-371917.jpg,2964213381-294061.jpg,A3N0QZ9ZKUCTCQ
885,2.0,right,right,1.0,1.0223,0.0,45.0,45.0,45.0,1.0,2898631429-142736.jpg,2964209380-218956.jpg,A3N0QZ9ZKUCTCQ
886,3.0,right,right,1.0,1.6119,0.0,46.0,46.0,46.0,1.0,2898618440-216545.jpg,2898626385-216899.jpg,A3N0QZ9ZKUCTCQ
887,3.0,right,right,1.0,1.8193,0.0,47.0,47.0,47.0,1.0,2812983311-281946.jpg,2883254439-140940.jpg,A3N0QZ9ZKUCTCQ
888,2.0,right,right,1.0,0.9633,0.0,48.0,48.0,48.0,1.0,2592379781-279345.jpg,2452380166-273109.jpg,A3N0QZ9ZKUCTCQ
889,3.0,right,left,0.0,3.936,0.0,49.0,49.0,49.0,1.0,2238161924-82646.jpg,2238129579-80916.jpg,A3N0QZ9ZKUCTCQ
890,2.0,left,left,1.0,2.0407,0.0,50.0,50.0,50.0,1.0,2449442529-124446.jpg,2868469458-64561.jpg,A3N0QZ9ZKUCTCQ
891,2.0,left,left,1.0,2.5624,0.0,51.0,51.0,51.0,1.0,2625337302-355866.jpg,2238478760-167789.jpg,A3N0QZ9ZKUCTCQ
892,2.0,left,left,1.0,2.0069,0.0,52.0,52.0,52.0,1.0,2238126735-154721.jpg,2575122854-130480.jpg,A3N0QZ9ZKUCTCQ
893,2.0,right,right,1.0,1.8472,0.0,53.0,53.0,53.0,1.0,2237965109-79314.jpg,2883254439-140941.jpg,A3N0QZ9ZKUCTCQ
894,1.0,right,right,1.0,3.0816,0.0,54.0,54.0,54.0,1.0,2446760621-272102.jpg,2446760524-123999.jpg,A3N0QZ9ZKUCTCQ
895,1.0,left,left,1.0,1.1955,0.0,55.0,55.0,55.0,1.0,2446760940-198145.jpg,2449443300-198739.jpg,A3N0QZ9ZKUCTCQ
896,3.0,right,right,1.0,1.4078,0.0,56.0,56.0,56.0,1.0,2238576267-334532.jpg,2512876023-52283.jpg,A3N0QZ9ZKUCTCQ
897,1.0,left,right,0.0,1.5583,0.0,57.0,57.0,57.0,1.0,2238521193-26286.jpg,2825712309-134957.jpg,A3N0QZ9ZKUCTCQ
898,2.0,left,left,1.0,2.199,0.0,58.0,58.0,58.0,1.0,2883272438-68133.jpg,2901936369-143233.jpg,A3N0QZ9ZKUCTCQ
899,1.0,right,right,1.0,1.5562,0.0,59.0,59.0,59.0,1.0,2986450330-221526.jpg,2981231446-294731.jpg,A3N0QZ9ZKUCTCQ
900,2.0,left,left,1.0,5.3236,0.0,0.0,0.0,0.0,1.0,2898632385-217138.jpg,2273188118-40829.jpg,ATO97EQDSSE7U
