,index,test_encoding_response.keys,test_encoding_response.corr,trials.thisTrialN,target_image,pair,layer,correct,test_encoding_response.rt,key_resp_end.keys,subject
0,20,,1.0,0.0,2238126735-154721.jpg,2856919327-359676.jpg,1.0,,,,A87D3K9YVKTQ7
1,21,,1.0,1.0,2868475410-213219.jpg,2238216693-10721.jpg,1.0,,,,A87D3K9YVKTQ7
2,22,,1.0,2.0,2898624426-291546.jpg,2986402377-371266.jpg,1.0,,,,A87D3K9YVKTQ7
3,23,,1.0,3.0,2238561223-33794.jpg,2883271323-68049.jpg,3.0,,,,A87D3K9YVKTQ7
4,24,,1.0,4.0,2994405328-74628.jpg,2825702353-60662.jpg,2.0,,,,A87D3K9YVKTQ7
5,25,,1.0,5.0,2575964140-205050.jpg,2446760226-272005.jpg,3.0,,,,A87D3K9YVKTQ7
6,26,,1.0,6.0,2964224310-219527.jpg,2238490590-169598.jpg,3.0,,,,A87D3K9YVKTQ7
7,27,,1.0,7.0,2883254439-140940.jpg,2575121890-204630.jpg,2.0,,,,A87D3K9YVKTQ7
8,28,,1.0,8.0,2238584018-38513.jpg,2452381442-348755.jpg,3.0,,,,A87D3K9YVKTQ7
9,29,,1.0,9.0,2238521193-26286.jpg,2825712309-134957.jpg,1.0,,,,A87D3K9YVKTQ7
10,30,,1.0,10.0,2901934573-69337.jpg,2986401333-73218.jpg,1.0,,,,A87D3K9YVKTQ7
11,31,,1.0,11.0,2964218374-144968.jpg,2238525773-27014.jpg,3.0,,,,A87D3K9YVKTQ7
12,32,,1.0,12.0,2898632385-217137.jpg,2238480803-19739.jpg,2.0,,,,A87D3K9YVKTQ7
13,33,left,1.0,13.0,left.jpg,,,left,0.5774,,A87D3K9YVKTQ7
14,34,,1.0,14.0,2238129579-80916.jpg,2460547477-349426.jpg,1.0,,,,A87D3K9YVKTQ7
15,35,,1.0,15.0,2274829821-263682.jpg,2238570526-257884.jpg,1.0,,,,A87D3K9YVKTQ7
16,36,right,1.0,16.0,right.jpg,,,right,0.5652,,A87D3K9YVKTQ7
17,37,,1.0,17.0,2446758985-197609.jpg,2898633421-291973.jpg,1.0,,,,A87D3K9YVKTQ7
18,38,,1.0,18.0,2898632385-217138.jpg,2460547992-349586.jpg,3.0,,,,A87D3K9YVKTQ7
19,39,,1.0,19.0,2981231446-294731.jpg,2238568685-183597.jpg,2.0,,,,A87D3K9YVKTQ7
20,40,,1.0,20.0,2964216465-219242.jpg,2512875796-274856.jpg,2.0,,,,A87D3K9YVKTQ7
21,41,,1.0,21.0,2238516618-25604.jpg,2238470979-92618.jpg,3.0,,,,A87D3K9YVKTQ7
22,42,,1.0,22.0,2901941426-292805.jpg,2868488422-363715.jpg,1.0,,,,A87D3K9YVKTQ7
23,43,,1.0,23.0,2238471391-240918.jpg,2986399339-146857.jpg,3.0,,,,A87D3K9YVKTQ7
24,44,,1.0,24.0,2862691449-137104.jpg,2986455341-296758.jpg,2.0,,,,A87D3K9YVKTQ7
25,45,,1.0,25.0,2238375302-311538.jpg,2460547508-51571.jpg,3.0,,,,A87D3K9YVKTQ7
26,46,,1.0,26.0,2446760524-123999.jpg,2238539138-29878.jpg,3.0,,,,A87D3K9YVKTQ7
27,47,,1.0,27.0,2592380138-56727.jpg,2430664847-345753.jpg,2.0,,,,A87D3K9YVKTQ7
28,48,,1.0,28.0,2579432576-279079.jpg,2446760226-272006.jpg,2.0,,,,A87D3K9YVKTQ7
29,49,,1.0,29.0,2238480434-93829.jpg,2592380255-205551.jpg,2.0,,,,A87D3K9YVKTQ7
30,50,,1.0,30.0,2452380166-273109.jpg,2452380171-273112.jpg,1.0,,,,A87D3K9YVKTQ7
31,51,,1.0,31.0,2625337302-355866.jpg,2238478760-167789.jpg,2.0,,,,A87D3K9YVKTQ7
32,52,,1.0,32.0,2238429999-90218.jpg,2986448334-147157.jpg,1.0,,,,A87D3K9YVKTQ7
33,53,,1.0,33.0,2883255450-215309.jpg,2238562336-256366.jpg,3.0,,,,A87D3K9YVKTQ7
34,54,right,1.0,34.0,right.jpg,,,right,0.4665,,A87D3K9YVKTQ7
35,55,,1.0,35.0,2883272438-68133.jpg,2592380136-279476.jpg,3.0,,,,A87D3K9YVKTQ7
36,56,,1.0,36.0,2986400320-221190.jpg,2238538133-29662.jpg,3.0,,,,A87D3K9YVKTQ7
37,57,,1.0,37.0,2883254439-140941.jpg,2989724308-73928.jpg,1.0,,,,A87D3K9YVKTQ7
38,58,right,1.0,38.0,right.jpg,,,right,0.7315,,A87D3K9YVKTQ7
39,59,,1.0,39.0,2883255450-215311.jpg,2575964014-130589.jpg,3.0,,,,A87D3K9YVKTQ7
40,60,,1.0,40.0,2864909447-362146.jpg,2238555799-106905.jpg,2.0,,,,A87D3K9YVKTQ7
41,61,,1.0,41.0,2238575092-334269.jpg,2860304305-210777.jpg,2.0,,,,A87D3K9YVKTQ7
42,62,,1.0,42.0,2898626385-216899.jpg,2449442365-198476.jpg,2.0,,,,A87D3K9YVKTQ7
43,63,,1.0,43.0,2964213381-294060.jpg,2238520921-248323.jpg,2.0,,,,A87D3K9YVKTQ7
44,64,,1.0,44.0,2238584869-113153.jpg,2986455373-73646.jpg,3.0,,,,A87D3K9YVKTQ7
45,65,,1.0,45.0,2460547467-349421.jpg,2238554179-106663.jpg,3.0,,,,A87D3K9YVKTQ7
46,66,,1.0,46.0,2238499155-170911.jpg,2452380832-348593.jpg,2.0,,,,A87D3K9YVKTQ7
47,67,,1.0,47.0,2512876023-52283.jpg,2864908323-64106.jpg,1.0,,,,A87D3K9YVKTQ7
48,68,,1.0,48.0,2446759803-49249.jpg,2238468265-166556.jpg,2.0,,,,A87D3K9YVKTQ7
49,69,right,1.0,49.0,right.jpg,,,right,0.4623,,A87D3K9YVKTQ7
50,70,,1.0,50.0,2964209380-218956.jpg,2868488456-288710.jpg,1.0,,,,A87D3K9YVKTQ7
51,71,,1.0,51.0,2238550049-105691.jpg,2449443271-272729.jpg,2.0,,,,A87D3K9YVKTQ7
52,72,,1.0,52.0,2898635427-367120.jpg,2901936309-143207.jpg,3.0,,,,A87D3K9YVKTQ7
53,73,,1.0,53.0,2986408352-371293.jpg,2446759580-197801.jpg,2.0,,,,A87D3K9YVKTQ7
54,74,,1.0,54.0,2446760940-198145.jpg,2449443300-198739.jpg,1.0,,,,A87D3K9YVKTQ7
55,75,,1.0,55.0,2331570830-189984.jpg,2446760483-49429.jpg,1.0,,,,A87D3K9YVKTQ7
56,76,,1.0,56.0,2449442529-124446.jpg,2864911339-138231.jpg,3.0,,,,A87D3K9YVKTQ7
57,77,,1.0,57.0,2901939379-143479.jpg,2864909422-362141.jpg,3.0,,,,A87D3K9YVKTQ7
58,78,,1.0,58.0,2964213381-294061.jpg,2981234334-145491.jpg,2.0,,,,A87D3K9YVKTQ7
59,79,,1.0,59.0,2898633480-217190.jpg,2986450334-147216.jpg,2.0,,,,A87D3K9YVKTQ7
60,80,,1.0,60.0,2864906345-212360.jpg,2994403305-222559.jpg,3.0,,,,A87D3K9YVKTQ7
61,81,,1.0,61.0,2868485396-288511.jpg,2868470456-287597.jpg,1.0,,,,A87D3K9YVKTQ7
62,82,,1.0,62.0,2898617468-68274.jpg,2512875899-126682.jpg,1.0,,,,A87D3K9YVKTQ7
63,83,,1.0,63.0,2901938432-367627.jpg,2579432708-56394.jpg,1.0,,,,A87D3K9YVKTQ7
64,84,,1.0,64.0,2238496457-319749.jpg,2238570142-333223.jpg,1.0,,,,A87D3K9YVKTQ7
65,20,,1.0,0.0,2238471391-240918.jpg,2901943388-69995.jpg,2.0,,,,A3HFB277V5OXY0
66,21,,1.0,1.0,2274829821-263682.jpg,2446758985-197610.jpg,2.0,,,,A3HFB277V5OXY0
67,22,,1.0,2.0,2238561223-33794.jpg,2592380177-354626.jpg,2.0,,,,A3HFB277V5OXY0
68,23,,1.0,3.0,2964218374-144968.jpg,2238521157-323782.jpg,2.0,,,,A3HFB277V5OXY0
69,24,,1.0,4.0,2238584018-38513.jpg,2898633321-291943.jpg,2.0,,,,A3HFB277V5OXY0
70,25,,1.0,5.0,2986408352-371293.jpg,2868488422-363713.jpg,1.0,,,,A3HFB277V5OXY0
71,26,,1.0,6.0,2981231446-294731.jpg,2986450330-221526.jpg,1.0,,,,A3HFB277V5OXY0
72,27,,1.0,7.0,2864909447-362146.jpg,2874316384-140749.jpg,1.0,,,,A3HFB277V5OXY0
73,28,,1.0,8.0,2864906345-212360.jpg,2994403305-222559.jpg,3.0,,,,A3HFB277V5OXY0
74,29,,1.0,9.0,2868485396-288511.jpg,2238380314-88261.jpg,3.0,,,,A3HFB277V5OXY0
75,30,,1.0,10.0,2238499155-170911.jpg,2238373603-13733.jpg,3.0,,,,A3HFB277V5OXY0
76,31,,1.0,11.0,2238575092-334269.jpg,2964218374-144967.jpg,3.0,,,,A3HFB277V5OXY0
77,32,right,1.0,12.0,right.jpg,,,right,1.1341,,A3HFB277V5OXY0
78,33,,1.0,13.0,2238584869-113153.jpg,2981241419-145844.jpg,2.0,,,,A3HFB277V5OXY0
79,34,,1.0,14.0,2449442529-124446.jpg,2864911339-138231.jpg,3.0,,,,A3HFB277V5OXY0
80,35,,1.0,15.0,2238550049-105691.jpg,2238482972-317759.jpg,1.0,,,,A3HFB277V5OXY0
81,36,,1.0,16.0,2238126735-154721.jpg,2901951430-218724.jpg,3.0,,,,A3HFB277V5OXY0
82,37,,1.0,17.0,2625337302-355866.jpg,2598726160-205998.jpg,3.0,,,,A3HFB277V5OXY0
83,38,,1.0,18.0,2986400320-221190.jpg,2238470979-92615.jpg,2.0,,,,A3HFB277V5OXY0
84,39,,1.0,19.0,2446760940-198145.jpg,2592380188-56743.jpg,2.0,,,,A3HFB277V5OXY0
85,40,left,1.0,20.0,left.jpg,,,left,1.1534,,A3HFB277V5OXY0
86,41,,1.0,21.0,2964224310-219527.jpg,2964213441-294073.jpg,2.0,,,,A3HFB277V5OXY0
87,42,,1.0,22.0,2994405328-74628.jpg,2825702353-60662.jpg,2.0,,,,A3HFB277V5OXY0
88,43,,1.0,23.0,2331570830-189984.jpg,2446760483-49429.jpg,1.0,,,,A3HFB277V5OXY0
89,44,,1.0,24.0,2898632385-217138.jpg,2273188118-40829.jpg,2.0,,,,A3HFB277V5OXY0
90,45,,1.0,25.0,2883255450-215309.jpg,2868476439-138927.jpg,2.0,,,,A3HFB277V5OXY0
91,46,,1.0,26.0,2460547467-349421.jpg,2901934573-69336.jpg,1.0,,,,A3HFB277V5OXY0
92,47,,1.0,27.0,2898626385-216899.jpg,2989715328-73658.jpg,1.0,,,,A3HFB277V5OXY0
93,48,,1.0,28.0,2901939379-143479.jpg,2449443292-348022.jpg,2.0,,,,A3HFB277V5OXY0
94,49,,1.0,29.0,2901934573-69337.jpg,2901936407-367476.jpg,3.0,,,,A3HFB277V5OXY0
95,50,left,1.0,30.0,left.jpg,,,left,0.9272,,A3HFB277V5OXY0
96,51,,1.0,31.0,2512876023-52283.jpg,2864908323-64106.jpg,1.0,,,,A3HFB277V5OXY0
97,52,,1.0,32.0,2901941426-292805.jpg,2868488422-363715.jpg,1.0,,,,A3HFB277V5OXY0
98,53,,1.0,33.0,2883272438-68133.jpg,2901936369-143233.jpg,2.0,,,,A3HFB277V5OXY0
99,54,,1.0,34.0,2579432576-279079.jpg,2446760226-272006.jpg,2.0,,,,A3HFB277V5OXY0
100,55,,1.0,35.0,2575964140-205050.jpg,2446760226-272005.jpg,3.0,,,,A3HFB277V5OXY0
101,56,,1.0,36.0,2883254439-140940.jpg,2452380166-273110.jpg,1.0,,,,A3HFB277V5OXY0
102,57,,1.0,37.0,2898632385-217137.jpg,2864904453-63932.jpg,3.0,,,,A3HFB277V5OXY0
103,58,,1.0,38.0,2238429999-90218.jpg,2964222378-71332.jpg,3.0,,,,A3HFB277V5OXY0
104,59,,1.0,39.0,2238516618-25604.jpg,2238573549-110485.jpg,1.0,,,,A3HFB277V5OXY0
105,60,right,1.0,40.0,right.jpg,,,right,1.0084,,A3HFB277V5OXY0
106,61,,1.0,41.0,2446760524-123999.jpg,2238552469-106359.jpg,2.0,,,,A3HFB277V5OXY0
107,62,,1.0,42.0,2964213381-294060.jpg,2898631359-142720.jpg,1.0,,,,A3HFB277V5OXY0
108,63,,1.0,43.0,2898635427-367120.jpg,2238436632-314069.jpg,1.0,,,,A3HFB277V5OXY0
109,64,,1.0,44.0,2446758985-197609.jpg,2984618344-146295.jpg,3.0,,,,A3HFB277V5OXY0
110,65,,1.0,45.0,2238375302-311538.jpg,2592380049-131077.jpg,2.0,,,,A3HFB277V5OXY0
111,66,,1.0,46.0,2452380166-273109.jpg,2452380171-273112.jpg,1.0,,,,A3HFB277V5OXY0
112,67,,1.0,47.0,2862691449-137104.jpg,2986455341-296758.jpg,2.0,,,,A3HFB277V5OXY0
113,68,right,1.0,48.0,right.jpg,,,right,0.9667,,A3HFB277V5OXY0
114,69,,1.0,49.0,2883254439-140941.jpg,2989724308-73928.jpg,1.0,,,,A3HFB277V5OXY0
115,70,,1.0,50.0,2964216465-219242.jpg,2446760917-347439.jpg,3.0,,,,A3HFB277V5OXY0
116,71,,1.0,51.0,2868475410-213219.jpg,2238436851-238821.jpg,3.0,,,,A3HFB277V5OXY0
117,72,,1.0,52.0,2964213381-294061.jpg,2981234334-145491.jpg,2.0,,,,A3HFB277V5OXY0
118,73,,1.0,53.0,2883255450-215311.jpg,2238481575-168208.jpg,1.0,,,,A3HFB277V5OXY0
119,74,,1.0,54.0,2238480434-93829.jpg,2804906319-133082.jpg,1.0,,,,A3HFB277V5OXY0
120,75,,1.0,55.0,2964209380-218956.jpg,2898617396-291219.jpg,3.0,,,,A3HFB277V5OXY0
121,76,,1.0,56.0,2901938432-367627.jpg,2856919327-359675.jpg,2.0,,,,A3HFB277V5OXY0
122,77,,1.0,57.0,2898633480-217190.jpg,2237858043-1434.jpg,3.0,,,,A3HFB277V5OXY0
123,78,,1.0,58.0,2898617468-68274.jpg,2862684406-285700.jpg,3.0,,,,A3HFB277V5OXY0
124,79,,1.0,59.0,2898624426-291546.jpg,2986402377-371266.jpg,1.0,,,,A3HFB277V5OXY0
125,80,,1.0,60.0,2238129579-80916.jpg,2238161924-82646.jpg,3.0,,,,A3HFB277V5OXY0
126,81,,1.0,61.0,2238521193-26286.jpg,2446760306-272024.jpg,3.0,,,,A3HFB277V5OXY0
127,82,,1.0,62.0,2446759803-49249.jpg,2592380177-354629.jpg,1.0,,,,A3HFB277V5OXY0
128,83,,1.0,63.0,2592380138-56727.jpg,2238537701-251772.jpg,3.0,,,,A3HFB277V5OXY0
129,84,,1.0,64.0,2238496457-319749.jpg,2238570142-333223.jpg,1.0,,,,A3HFB277V5OXY0
130,20,,1.0,0.0,2238516618-25604.jpg,2862686459-136888.jpg,2.0,,,,A177M9OIBDUWFW
131,21,,1.0,1.0,2625337302-355866.jpg,2598726160-205998.jpg,3.0,,,,A177M9OIBDUWFW
132,22,,1.0,2.0,2238584018-38513.jpg,2452381442-348755.jpg,3.0,,,,A177M9OIBDUWFW
133,23,,1.0,3.0,2898632385-217138.jpg,2575120738-55529.jpg,1.0,,,,A177M9OIBDUWFW
134,24,,1.0,4.0,2452380166-273109.jpg,2238380901-236499.jpg,3.0,,,,A177M9OIBDUWFW
135,25,,1.0,5.0,2512876023-52283.jpg,2898636443-69154.jpg,2.0,,,,A177M9OIBDUWFW
136,26,,1.0,6.0,2964213381-294060.jpg,2989724308-73930.jpg,3.0,,,,A177M9OIBDUWFW
137,27,right,1.0,7.0,right.jpg,,,right,0.993299999,,A177M9OIBDUWFW
138,28,,1.0,8.0,2238496457-319749.jpg,2592380234-131135.jpg,2.0,,,,A177M9OIBDUWFW
139,29,,1.0,9.0,2898632385-217137.jpg,2238360884-87525.jpg,1.0,,,,A177M9OIBDUWFW
140,30,,1.0,10.0,2238584869-113153.jpg,2864901420-212147.jpg,1.0,,,,A177M9OIBDUWFW
141,31,,1.0,11.0,2238471391-240918.jpg,2986399339-146857.jpg,3.0,,,,A177M9OIBDUWFW
142,32,,1.0,12.0,2898633480-217190.jpg,2986450334-147216.jpg,2.0,,,,A177M9OIBDUWFW
143,33,,1.0,13.0,2981231446-294731.jpg,2986450330-221526.jpg,1.0,,,,A177M9OIBDUWFW
144,34,,1.0,14.0,2964213381-294061.jpg,2981234334-145491.jpg,2.0,,,,A177M9OIBDUWFW
145,35,,1.0,15.0,2864909447-362146.jpg,2238555799-106905.jpg,2.0,,,,A177M9OIBDUWFW
146,36,,1.0,16.0,2883254439-140941.jpg,2417207511-266975.jpg,3.0,,,,A177M9OIBDUWFW
147,37,,1.0,17.0,2238375302-311538.jpg,2592380255-205552.jpg,1.0,,,,A177M9OIBDUWFW
148,38,,1.0,18.0,2238429999-90218.jpg,2901951459-144433.jpg,2.0,,,,A177M9OIBDUWFW
149,39,,1.0,19.0,2579432576-279079.jpg,2446760226-272006.jpg,2.0,,,,A177M9OIBDUWFW
150,40,,1.0,20.0,2986408352-371293.jpg,2856916345-210056.jpg,3.0,,,,A177M9OIBDUWFW
151,41,,1.0,21.0,2274829821-263682.jpg,2862687442-360837.jpg,3.0,,,,A177M9OIBDUWFW
152,42,right,1.0,22.0,right.jpg,,,right,0.966199999,,A177M9OIBDUWFW
153,43,,1.0,23.0,2446760940-198145.jpg,2446760692-347392.jpg,3.0,,,,A177M9OIBDUWFW
154,44,,1.0,24.0,2449442529-124446.jpg,2238481610-168214.jpg,1.0,,,,A177M9OIBDUWFW
155,45,,1.0,25.0,2331570830-189984.jpg,2446760483-49429.jpg,1.0,,,,A177M9OIBDUWFW
156,46,left,1.0,26.0,left.jpg,,,left,1.278800001,,A177M9OIBDUWFW
157,47,,1.0,27.0,2868475410-213219.jpg,2238436851-238821.jpg,3.0,,,,A177M9OIBDUWFW
158,48,,1.0,28.0,2238480434-93829.jpg,2804906319-133082.jpg,1.0,,,,A177M9OIBDUWFW
159,49,,1.0,29.0,2964218374-144968.jpg,2238521157-323782.jpg,2.0,,,,A177M9OIBDUWFW
160,50,,1.0,30.0,2883272438-68133.jpg,2237949408-4018.jpg,1.0,,,,A177M9OIBDUWFW
161,51,,1.0,31.0,2964216465-219242.jpg,2446760917-347439.jpg,3.0,,,,A177M9OIBDUWFW
162,52,,1.0,32.0,2898617468-68274.jpg,2512875899-126682.jpg,1.0,,,,A177M9OIBDUWFW
163,53,,1.0,33.0,2238550049-105691.jpg,2964219468-71238.jpg,3.0,,,,A177M9OIBDUWFW
164,54,,1.0,34.0,2575964140-205050.jpg,2238547522-328488.jpg,2.0,,,,A177M9OIBDUWFW
165,55,,1.0,35.0,2238575092-334269.jpg,2860304305-210777.jpg,2.0,,,,A177M9OIBDUWFW
166,56,,1.0,36.0,2901939379-143479.jpg,2986450334-147215.jpg,1.0,,,,A177M9OIBDUWFW
167,57,,1.0,37.0,2898626385-216899.jpg,2989715328-73658.jpg,1.0,,,,A177M9OIBDUWFW
168,58,,1.0,38.0,2883254439-140940.jpg,2812983311-281946.jpg,3.0,,,,A177M9OIBDUWFW
169,59,,1.0,39.0,2238521193-26286.jpg,2874301437-363905.jpg,2.0,,,,A177M9OIBDUWFW
170,60,,1.0,40.0,2994405328-74628.jpg,2883273443-68192.jpg,3.0,,,,A177M9OIBDUWFW
171,61,,1.0,41.0,2868485396-288511.jpg,2868472420-213024.jpg,2.0,,,,A177M9OIBDUWFW
172,62,,1.0,42.0,2446760524-123999.jpg,2238552469-106359.jpg,2.0,,,,A177M9OIBDUWFW
173,63,left,1.0,43.0,left.jpg,,,left,2.5146,,A177M9OIBDUWFW
174,64,,1.0,44.0,2964209380-218956.jpg,2868488456-288710.jpg,1.0,,,,A177M9OIBDUWFW
175,65,,1.0,45.0,2592380138-56727.jpg,2238537701-251772.jpg,3.0,,,,A177M9OIBDUWFW
176,66,left,1.0,46.0,left.jpg,,,left,1.007200001,,A177M9OIBDUWFW
177,67,,1.0,47.0,2446758985-197609.jpg,2984618344-146295.jpg,3.0,,,,A177M9OIBDUWFW
178,68,,1.0,48.0,2864906345-212360.jpg,2986397365-221133.jpg,1.0,,,,A177M9OIBDUWFW
179,69,,1.0,49.0,2883255450-215309.jpg,2238562336-256366.jpg,3.0,,,,A177M9OIBDUWFW
180,70,,1.0,50.0,2898635427-367120.jpg,2238436632-314069.jpg,1.0,,,,A177M9OIBDUWFW
181,71,,1.0,51.0,2898624426-291546.jpg,2986402377-371266.jpg,1.0,,,,A177M9OIBDUWFW
182,72,,1.0,52.0,2883255450-215311.jpg,2868485399-139476.jpg,2.0,,,,A177M9OIBDUWFW
183,73,,1.0,53.0,2862691449-137104.jpg,2238540598-30035.jpg,1.0,,,,A177M9OIBDUWFW
184,74,,1.0,54.0,2964224310-219527.jpg,2238380178-14011.jpg,1.0,,,,A177M9OIBDUWFW
185,75,,1.0,55.0,2238129579-80916.jpg,2898618444-142233.jpg,2.0,,,,A177M9OIBDUWFW
186,76,,1.0,56.0,2460547467-349421.jpg,2901934573-69336.jpg,1.0,,,,A177M9OIBDUWFW
187,77,,1.0,57.0,2986400320-221190.jpg,2238470979-92615.jpg,2.0,,,,A177M9OIBDUWFW
188,78,,1.0,58.0,2446759803-49249.jpg,2238468265-166556.jpg,2.0,,,,A177M9OIBDUWFW
189,79,,1.0,59.0,2238499155-170911.jpg,2452380832-348593.jpg,2.0,,,,A177M9OIBDUWFW
190,80,,1.0,60.0,2238561223-33794.jpg,2883271323-68049.jpg,3.0,,,,A177M9OIBDUWFW
191,81,,1.0,61.0,2901934573-69337.jpg,2238345946-235007.jpg,2.0,,,,A177M9OIBDUWFW
192,82,,1.0,62.0,2901938432-367627.jpg,2424122568-45517.jpg,3.0,,,,A177M9OIBDUWFW
193,83,,1.0,63.0,2901941426-292805.jpg,2868488422-363715.jpg,1.0,,,,A177M9OIBDUWFW
194,84,,1.0,64.0,2238126735-154721.jpg,2901951430-218724.jpg,3.0,,,,A177M9OIBDUWFW
195,20,,1.0,0.0,2238521193-26286.jpg,2874301437-363905.jpg,2.0,,,,AHZP05WVFXXCG
196,21,,1.0,1.0,2994405328-74628.jpg,2417206274-118542.jpg,1.0,,,,AHZP05WVFXXCG
197,22,,1.0,2.0,2238584869-113153.jpg,2986455373-73646.jpg,3.0,,,,AHZP05WVFXXCG
198,23,,1.0,3.0,2625337302-355866.jpg,2425492472-343825.jpg,1.0,,,,AHZP05WVFXXCG
199,24,,1.0,4.0,2901939379-143479.jpg,2864909422-362141.jpg,3.0,,,,AHZP05WVFXXCG
200,25,,1.0,5.0,2964216465-219242.jpg,2512875796-274856.jpg,2.0,,,,AHZP05WVFXXCG
201,26,,1.0,6.0,2274829821-263682.jpg,2238570526-257884.jpg,1.0,,,,AHZP05WVFXXCG
202,27,,1.0,7.0,2512876023-52283.jpg,2238576267-334532.jpg,3.0,,,,AHZP05WVFXXCG
203,28,,1.0,8.0,2964224310-219527.jpg,2238380178-14011.jpg,1.0,,,,AHZP05WVFXXCG
204,29,,1.0,9.0,2238496457-319749.jpg,2460547467-349422.jpg,3.0,,,,AHZP05WVFXXCG
205,30,,1.0,10.0,2238126735-154721.jpg,2856919327-359676.jpg,1.0,,,,AHZP05WVFXXCG
206,31,left,1.0,11.0,left.jpg,,,left,1.0394,,AHZP05WVFXXCG
207,32,,1.0,12.0,2901941426-292805.jpg,2901945303-70125.jpg,3.0,,,,AHZP05WVFXXCG
208,33,,1.0,13.0,2898626385-216899.jpg,2989715328-73658.jpg,1.0,,,,AHZP05WVFXXCG
209,34,,1.0,14.0,2238471391-240918.jpg,2901943388-69995.jpg,2.0,,,,AHZP05WVFXXCG
210,35,,1.0,15.0,2883254439-140940.jpg,2452380166-273110.jpg,1.0,,,,AHZP05WVFXXCG
211,36,,1.0,16.0,2986400320-221190.jpg,2238538133-29662.jpg,3.0,,,,AHZP05WVFXXCG
212,37,,1.0,17.0,2446759803-49249.jpg,2592380177-354629.jpg,1.0,,,,AHZP05WVFXXCG
213,38,,1.0,18.0,2449442529-124446.jpg,2864911339-138231.jpg,3.0,,,,AHZP05WVFXXCG
214,39,,1.0,19.0,2964209380-218956.jpg,2868488456-288710.jpg,1.0,,,,AHZP05WVFXXCG
215,40,,1.0,20.0,2238129579-80916.jpg,2898618444-142233.jpg,2.0,,,,AHZP05WVFXXCG
216,41,left,1.0,21.0,left.jpg,,,left,1.0573,,AHZP05WVFXXCG
217,42,,1.0,22.0,2446760524-123999.jpg,2238539138-29878.jpg,3.0,,,,AHZP05WVFXXCG
218,43,,1.0,23.0,2898633480-217190.jpg,2237858043-1434.jpg,3.0,,,,AHZP05WVFXXCG
219,44,,1.0,24.0,2452380166-273109.jpg,2592379781-279345.jpg,2.0,,,,AHZP05WVFXXCG
220,45,,1.0,25.0,2238561223-33794.jpg,2238506233-23904.jpg,1.0,,,,AHZP05WVFXXCG
221,46,,1.0,26.0,2238499155-170911.jpg,2452380832-348593.jpg,2.0,,,,AHZP05WVFXXCG
222,47,,1.0,27.0,2898617468-68274.jpg,2238585512-336576.jpg,2.0,,,,AHZP05WVFXXCG
223,48,,1.0,28.0,2238429999-90218.jpg,2964222378-71332.jpg,3.0,,,,AHZP05WVFXXCG
224,49,,1.0,29.0,2238575092-334269.jpg,2964218374-144967.jpg,3.0,,,,AHZP05WVFXXCG
225,50,,1.0,30.0,2883255450-215309.jpg,2238429999-90216.jpg,1.0,,,,AHZP05WVFXXCG
226,51,left,1.0,31.0,left.jpg,,,left,1.2391,,AHZP05WVFXXCG
227,52,,1.0,32.0,2901938432-367627.jpg,2856919327-359675.jpg,2.0,,,,AHZP05WVFXXCG
228,53,,1.0,33.0,2964213381-294060.jpg,2238520921-248323.jpg,2.0,,,,AHZP05WVFXXCG
229,54,,1.0,34.0,2238550049-105691.jpg,2238482972-317759.jpg,1.0,,,,AHZP05WVFXXCG
230,55,,1.0,35.0,2898635427-367120.jpg,2238436632-314069.jpg,1.0,,,,AHZP05WVFXXCG
231,56,,1.0,36.0,2575964140-205050.jpg,2238482920-168428.jpg,1.0,,,,AHZP05WVFXXCG
232,57,,1.0,37.0,2592380138-56727.jpg,2238537701-251772.jpg,3.0,,,,AHZP05WVFXXCG
233,58,,1.0,38.0,2864909447-362146.jpg,2874303453-66056.jpg,3.0,,,,AHZP05WVFXXCG
234,59,right,1.0,39.0,right.jpg,,,right,1.4773,,AHZP05WVFXXCG
235,60,,1.0,40.0,2460547467-349421.jpg,2238470079-92499.jpg,2.0,,,,AHZP05WVFXXCG
236,61,,1.0,41.0,2898632385-217138.jpg,2273188118-40829.jpg,2.0,,,,AHZP05WVFXXCG
237,62,,1.0,42.0,2579432576-279079.jpg,2446760226-272006.jpg,2.0,,,,AHZP05WVFXXCG
238,63,,1.0,43.0,2883254439-140941.jpg,2417207511-266975.jpg,3.0,,,,AHZP05WVFXXCG
239,64,,1.0,44.0,2981231446-294731.jpg,2986450330-221526.jpg,1.0,,,,AHZP05WVFXXCG
240,65,,1.0,45.0,2986408352-371293.jpg,2868488422-363713.jpg,1.0,,,,AHZP05WVFXXCG
241,66,left,1.0,46.0,left.jpg,,,left,1.2547,,AHZP05WVFXXCG
242,67,,1.0,47.0,2331570830-189984.jpg,2446760483-49429.jpg,1.0,,,,AHZP05WVFXXCG
243,68,,1.0,48.0,2898632385-217137.jpg,2238480803-19739.jpg,2.0,,,,AHZP05WVFXXCG
244,69,,1.0,49.0,2868475410-213219.jpg,2575964140-205051.jpg,2.0,,,,AHZP05WVFXXCG
245,70,,1.0,50.0,2964218374-144968.jpg,2238525773-27014.jpg,3.0,,,,AHZP05WVFXXCG
246,71,,1.0,51.0,2446758985-197609.jpg,2898633421-291973.jpg,1.0,,,,AHZP05WVFXXCG
247,72,,1.0,52.0,2864906345-212360.jpg,2986397365-221133.jpg,1.0,,,,AHZP05WVFXXCG
248,73,,1.0,53.0,2862691449-137104.jpg,2986455341-296758.jpg,2.0,,,,AHZP05WVFXXCG
249,74,,1.0,54.0,2238584018-38513.jpg,2452381442-348755.jpg,3.0,,,,AHZP05WVFXXCG
250,75,,1.0,55.0,2868485396-288511.jpg,2868472420-213024.jpg,2.0,,,,AHZP05WVFXXCG
251,76,,1.0,56.0,2883272438-68133.jpg,2592380136-279476.jpg,3.0,,,,AHZP05WVFXXCG
252,77,,1.0,57.0,2238480434-93829.jpg,2592380255-205551.jpg,2.0,,,,AHZP05WVFXXCG
253,78,,1.0,58.0,2898624426-291546.jpg,2549106844-127878.jpg,2.0,,,,AHZP05WVFXXCG
254,79,,1.0,59.0,2964213381-294061.jpg,2981234334-145491.jpg,2.0,,,,AHZP05WVFXXCG
255,80,,1.0,60.0,2901934573-69337.jpg,2901936407-367476.jpg,3.0,,,,AHZP05WVFXXCG
256,81,,1.0,61.0,2446760940-198145.jpg,2592380188-56743.jpg,2.0,,,,AHZP05WVFXXCG
257,82,,1.0,62.0,2238516618-25604.jpg,2238470979-92618.jpg,3.0,,,,AHZP05WVFXXCG
258,83,,1.0,63.0,2238375302-311538.jpg,2460547508-51571.jpg,3.0,,,,AHZP05WVFXXCG
259,84,,1.0,64.0,2883255450-215311.jpg,2238481575-168208.jpg,1.0,,,,AHZP05WVFXXCG
260,20,,1.0,0.0,2625337302-355866.jpg,2425492472-343825.jpg,1.0,,,,A389RPZ5TJZQ7D
261,21,,1.0,1.0,2898624426-291546.jpg,2864902304-137862.jpg,3.0,,,,A389RPZ5TJZQ7D
262,22,,1.0,2.0,2238516618-25604.jpg,2238573549-110485.jpg,1.0,,,,A389RPZ5TJZQ7D
263,23,,1.0,3.0,2238429999-90218.jpg,2901951459-144433.jpg,2.0,,,,A389RPZ5TJZQ7D
264,24,,1.0,4.0,2238480434-93829.jpg,2238479903-19596.jpg,3.0,,,,A389RPZ5TJZQ7D
265,25,,1.0,5.0,2883255450-215311.jpg,2868485399-139476.jpg,2.0,,,,A389RPZ5TJZQ7D
266,26,,1.0,6.0,2238584869-113153.jpg,2981241419-145844.jpg,2.0,,,,A389RPZ5TJZQ7D
267,27,,1.0,7.0,2862691449-137104.jpg,2238540598-30035.jpg,1.0,,,,A389RPZ5TJZQ7D
268,28,left,1.0,8.0,left.jpg,,,left,1.832799999,,A389RPZ5TJZQ7D
269,29,,1.0,9.0,2868475410-213219.jpg,2238216693-10721.jpg,1.0,,,,A389RPZ5TJZQ7D
270,30,,1.0,10.0,2460547467-349421.jpg,2238554179-106663.jpg,3.0,,,,A389RPZ5TJZQ7D
271,31,,1.0,11.0,2898633480-217190.jpg,2986450334-147216.jpg,2.0,,,,A389RPZ5TJZQ7D
272,32,,1.0,12.0,2964224310-219527.jpg,2238490590-169598.jpg,3.0,,,,A389RPZ5TJZQ7D
273,33,,1.0,13.0,2883255450-215309.jpg,2868476439-138927.jpg,2.0,,,,A389RPZ5TJZQ7D
274,34,,1.0,14.0,2446758985-197609.jpg,2984618344-146295.jpg,3.0,,,,A389RPZ5TJZQ7D
275,35,,1.0,15.0,2238561223-33794.jpg,2238506233-23904.jpg,1.0,,,,A389RPZ5TJZQ7D
276,36,,1.0,16.0,2274829821-263682.jpg,2862687442-360837.jpg,3.0,,,,A389RPZ5TJZQ7D
277,37,right,1.0,17.0,right.jpg,,,right,1.5884,,A389RPZ5TJZQ7D
278,38,,1.0,18.0,2986400320-221190.jpg,2238538133-29662.jpg,3.0,,,,A389RPZ5TJZQ7D
279,39,,1.0,19.0,2964213381-294061.jpg,2981234334-145491.jpg,2.0,,,,A389RPZ5TJZQ7D
280,40,,1.0,20.0,2446760940-198145.jpg,2449443300-198739.jpg,1.0,,,,A389RPZ5TJZQ7D
281,41,,1.0,21.0,2238129579-80916.jpg,2460547477-349426.jpg,1.0,,,,A389RPZ5TJZQ7D
282,42,,1.0,22.0,2512876023-52283.jpg,2898636443-69154.jpg,2.0,,,,A389RPZ5TJZQ7D
283,43,,1.0,23.0,2868485396-288511.jpg,2868470456-287597.jpg,1.0,,,,A389RPZ5TJZQ7D
284,44,,1.0,24.0,2592380138-56727.jpg,2430664847-345753.jpg,2.0,,,,A389RPZ5TJZQ7D
285,45,,1.0,25.0,2898626385-216899.jpg,2449442365-198476.jpg,2.0,,,,A389RPZ5TJZQ7D
286,46,,1.0,26.0,2898632385-217138.jpg,2460547992-349586.jpg,3.0,,,,A389RPZ5TJZQ7D
287,47,,1.0,27.0,2964213381-294060.jpg,2238520921-248323.jpg,2.0,,,,A389RPZ5TJZQ7D
288,48,,1.0,28.0,2446760524-123999.jpg,2446760621-272102.jpg,1.0,,,,A389RPZ5TJZQ7D
289,49,,1.0,29.0,2449442529-124446.jpg,2864911339-138231.jpg,3.0,,,,A389RPZ5TJZQ7D
290,50,,1.0,30.0,2964209380-218956.jpg,2868488456-288710.jpg,1.0,,,,A389RPZ5TJZQ7D
291,51,right,1.0,31.0,right.jpg,,,right,1.825,,A389RPZ5TJZQ7D
292,52,,1.0,32.0,2238499155-170911.jpg,2238373603-13733.jpg,3.0,,,,A389RPZ5TJZQ7D
293,53,,1.0,33.0,2883272438-68133.jpg,2901936369-143233.jpg,2.0,,,,A389RPZ5TJZQ7D
294,54,,1.0,34.0,2579432576-279079.jpg,2446760226-272006.jpg,2.0,,,,A389RPZ5TJZQ7D
295,55,,1.0,35.0,2898632385-217137.jpg,2238360884-87525.jpg,1.0,,,,A389RPZ5TJZQ7D
296,56,,1.0,36.0,2238126735-154721.jpg,2575122854-130480.jpg,2.0,,,,A389RPZ5TJZQ7D
297,57,,1.0,37.0,2901941426-292805.jpg,2868488422-363715.jpg,1.0,,,,A389RPZ5TJZQ7D
298,58,,1.0,38.0,2901934573-69337.jpg,2901936407-367476.jpg,3.0,,,,A389RPZ5TJZQ7D
299,59,,1.0,39.0,2238496457-319749.jpg,2460547467-349422.jpg,3.0,,,,A389RPZ5TJZQ7D
300,60,,1.0,40.0,2864909447-362146.jpg,2874303453-66056.jpg,3.0,,,,A389RPZ5TJZQ7D
301,61,,1.0,41.0,2331570830-189984.jpg,2446760483-49429.jpg,1.0,,,,A389RPZ5TJZQ7D
302,62,left,1.0,42.0,left.jpg,,,left,1.738200001,,A389RPZ5TJZQ7D
303,63,,1.0,43.0,2238584018-38513.jpg,2898633321-291943.jpg,2.0,,,,A389RPZ5TJZQ7D
304,64,,1.0,44.0,2238521193-26286.jpg,2874301437-363905.jpg,2.0,,,,A389RPZ5TJZQ7D
305,65,,1.0,45.0,2238471391-240918.jpg,2868470400-212889.jpg,1.0,,,,A389RPZ5TJZQ7D
306,66,,1.0,46.0,2452380166-273109.jpg,2452380171-273112.jpg,1.0,,,,A389RPZ5TJZQ7D
307,67,,1.0,47.0,2238550049-105691.jpg,2449443271-272729.jpg,2.0,,,,A389RPZ5TJZQ7D
308,68,,1.0,48.0,2898635427-367120.jpg,2901936309-143207.jpg,3.0,,,,A389RPZ5TJZQ7D
309,69,,1.0,49.0,2238375302-311538.jpg,2592380255-205552.jpg,1.0,,,,A389RPZ5TJZQ7D
310,70,,1.0,50.0,2964216465-219242.jpg,2446760917-347439.jpg,3.0,,,,A389RPZ5TJZQ7D
311,71,,1.0,51.0,2901939379-143479.jpg,2864909422-362141.jpg,3.0,,,,A389RPZ5TJZQ7D
312,72,left,1.0,52.0,left.jpg,,,left,1.6946,,A389RPZ5TJZQ7D
313,73,,1.0,53.0,2901938432-367627.jpg,2579432708-56394.jpg,1.0,,,,A389RPZ5TJZQ7D
314,74,,1.0,54.0,2981231446-294731.jpg,2417207297-342139.jpg,3.0,,,,A389RPZ5TJZQ7D
315,75,,1.0,55.0,2964218374-144968.jpg,2238411877-313125.jpg,1.0,,,,A389RPZ5TJZQ7D
316,76,,1.0,56.0,2864906345-212360.jpg,2986397365-221133.jpg,1.0,,,,A389RPZ5TJZQ7D
317,77,,1.0,57.0,2986408352-371293.jpg,2446759580-197801.jpg,2.0,,,,A389RPZ5TJZQ7D
318,78,,1.0,58.0,2994405328-74628.jpg,2883273443-68192.jpg,3.0,,,,A389RPZ5TJZQ7D
319,79,,1.0,59.0,2883254439-140941.jpg,2417207511-266975.jpg,3.0,,,,A389RPZ5TJZQ7D
320,80,,1.0,60.0,2238575092-334269.jpg,2860304305-210777.jpg,2.0,,,,A389RPZ5TJZQ7D
321,81,,1.0,61.0,2575964140-205050.jpg,2238547522-328488.jpg,2.0,,,,A389RPZ5TJZQ7D
322,82,,1.0,62.0,2446759803-49249.jpg,2592380177-354629.jpg,1.0,,,,A389RPZ5TJZQ7D
323,83,,1.0,63.0,2898617468-68274.jpg,2238585512-336576.jpg,2.0,,,,A389RPZ5TJZQ7D
324,84,,1.0,64.0,2883254439-140940.jpg,2812983311-281946.jpg,3.0,,,,A389RPZ5TJZQ7D
325,20,,1.0,0.0,2592380138-56727.jpg,2986419351-296471.jpg,1.0,,,,AIXO7JFFSBR5O
326,21,,1.0,1.0,2449442529-124446.jpg,2238481610-168214.jpg,1.0,,,,AIXO7JFFSBR5O
327,22,,1.0,2.0,2238480434-93829.jpg,2238479903-19596.jpg,3.0,,,,AIXO7JFFSBR5O
328,23,,1.0,3.0,2883254439-140941.jpg,2237965109-79314.jpg,2.0,,,,AIXO7JFFSBR5O
329,24,,1.0,4.0,2579432576-279079.jpg,2458348144-125787.jpg,3.0,,,,AIXO7JFFSBR5O
330,25,,1.0,5.0,2238429999-90218.jpg,2901951459-144433.jpg,2.0,,,,AIXO7JFFSBR5O
331,26,,1.0,6.0,2238129579-80916.jpg,2898618444-142233.jpg,2.0,,,,AIXO7JFFSBR5O
332,27,,1.0,7.0,2446760940-198145.jpg,2449443300-198739.jpg,1.0,,,,AIXO7JFFSBR5O
333,28,right,1.0,8.0,right.jpg,,,right,1.2537,,AIXO7JFFSBR5O
334,29,,1.0,9.0,2898626385-216899.jpg,2898618440-216545.jpg,3.0,,,,AIXO7JFFSBR5O
335,30,,1.0,10.0,2901938432-367627.jpg,2424122568-45517.jpg,3.0,,,,AIXO7JFFSBR5O
336,31,,1.0,11.0,2868485396-288511.jpg,2868472420-213024.jpg,2.0,,,,AIXO7JFFSBR5O
337,32,,1.0,12.0,2981231446-294731.jpg,2238568685-183597.jpg,2.0,,,,AIXO7JFFSBR5O
338,33,,1.0,13.0,2446758985-197609.jpg,2898633421-291973.jpg,1.0,,,,AIXO7JFFSBR5O
339,34,,1.0,14.0,2901939379-143479.jpg,2986450334-147215.jpg,1.0,,,,AIXO7JFFSBR5O
340,35,,1.0,15.0,2274829821-263682.jpg,2446758985-197610.jpg,2.0,,,,AIXO7JFFSBR5O
341,36,,1.0,16.0,2864909447-362146.jpg,2874303453-66056.jpg,3.0,,,,AIXO7JFFSBR5O
342,37,,1.0,17.0,2898624426-291546.jpg,2986402377-371266.jpg,1.0,,,,AIXO7JFFSBR5O
343,38,,1.0,18.0,2986408352-371293.jpg,2868488422-363713.jpg,1.0,,,,AIXO7JFFSBR5O
344,39,,1.0,19.0,2238496457-319749.jpg,2592380234-131135.jpg,2.0,,,,AIXO7JFFSBR5O
345,40,,1.0,20.0,2901941426-292805.jpg,2868488422-363715.jpg,1.0,,,,AIXO7JFFSBR5O
346,41,,1.0,21.0,2964213381-294060.jpg,2898631359-142720.jpg,1.0,,,,AIXO7JFFSBR5O
347,42,,1.0,22.0,2883254439-140940.jpg,2452380166-273110.jpg,1.0,,,,AIXO7JFFSBR5O
348,43,left,1.0,23.0,left.jpg,,,left,1.1221,,AIXO7JFFSBR5O
349,44,,1.0,24.0,2883255450-215309.jpg,2238429999-90216.jpg,1.0,,,,AIXO7JFFSBR5O
350,45,,1.0,25.0,2898617468-68274.jpg,2862684406-285700.jpg,3.0,,,,AIXO7JFFSBR5O
351,46,right,1.0,26.0,right.jpg,,,right,1.0826,,AIXO7JFFSBR5O
352,47,,1.0,27.0,2452380166-273109.jpg,2452380171-273112.jpg,1.0,,,,AIXO7JFFSBR5O
353,48,,1.0,28.0,2625337302-355866.jpg,2598726160-205998.jpg,3.0,,,,AIXO7JFFSBR5O
354,49,,1.0,29.0,2238584869-113153.jpg,2864901420-212147.jpg,1.0,,,,AIXO7JFFSBR5O
355,50,,1.0,30.0,2898633480-217190.jpg,2237858043-1434.jpg,3.0,,,,AIXO7JFFSBR5O
356,51,,1.0,31.0,2238575092-334269.jpg,2860304305-210777.jpg,2.0,,,,AIXO7JFFSBR5O
357,52,,1.0,32.0,2964218374-144968.jpg,2238525773-27014.jpg,3.0,,,,AIXO7JFFSBR5O
358,53,,1.0,33.0,2898635427-367120.jpg,2901936309-143207.jpg,3.0,,,,AIXO7JFFSBR5O
359,54,,1.0,34.0,2986400320-221190.jpg,2989727350-222011.jpg,1.0,,,,AIXO7JFFSBR5O
360,55,,1.0,35.0,2238550049-105691.jpg,2449443271-272729.jpg,2.0,,,,AIXO7JFFSBR5O
361,56,,1.0,36.0,2460547467-349421.jpg,2238554179-106663.jpg,3.0,,,,AIXO7JFFSBR5O
362,57,,1.0,37.0,2238126735-154721.jpg,2901951430-218724.jpg,3.0,,,,AIXO7JFFSBR5O
363,58,,1.0,38.0,2994405328-74628.jpg,2883273443-68192.jpg,3.0,,,,AIXO7JFFSBR5O
364,59,,1.0,39.0,2964224310-219527.jpg,2238490590-169598.jpg,3.0,,,,AIXO7JFFSBR5O
365,60,,1.0,40.0,2964209380-218956.jpg,2898631429-142736.jpg,2.0,,,,AIXO7JFFSBR5O
366,61,,1.0,41.0,2883255450-215311.jpg,2868485399-139476.jpg,2.0,,,,AIXO7JFFSBR5O
367,62,right,1.0,42.0,right.jpg,,,right,1.2237,,AIXO7JFFSBR5O
368,63,,1.0,43.0,2238471391-240918.jpg,2986399339-146857.jpg,3.0,,,,AIXO7JFFSBR5O
369,64,,1.0,44.0,2238521193-26286.jpg,2874301437-363905.jpg,2.0,,,,AIXO7JFFSBR5O
370,65,,1.0,45.0,2883272438-68133.jpg,2237949408-4018.jpg,1.0,,,,AIXO7JFFSBR5O
371,66,,1.0,46.0,2238499155-170911.jpg,2452380832-348593.jpg,2.0,,,,AIXO7JFFSBR5O
372,67,right,1.0,47.0,right.jpg,,,right,1.3019,,AIXO7JFFSBR5O
373,68,,1.0,48.0,2238561223-33794.jpg,2883271323-68049.jpg,3.0,,,,AIXO7JFFSBR5O
374,69,,1.0,49.0,2446759803-49249.jpg,2592380177-354629.jpg,1.0,,,,AIXO7JFFSBR5O
375,70,,1.0,50.0,2238584018-38513.jpg,2449443163-50093.jpg,1.0,,,,AIXO7JFFSBR5O
376,71,,1.0,51.0,2238516618-25604.jpg,2238573549-110485.jpg,1.0,,,,AIXO7JFFSBR5O
377,72,,1.0,52.0,2964213381-294061.jpg,2989721347-371917.jpg,3.0,,,,AIXO7JFFSBR5O
378,73,,1.0,53.0,2901934573-69337.jpg,2238345946-235007.jpg,2.0,,,,AIXO7JFFSBR5O
379,74,,1.0,54.0,2512876023-52283.jpg,2864908323-64106.jpg,1.0,,,,AIXO7JFFSBR5O
380,75,,1.0,55.0,2238375302-311538.jpg,2460547508-51571.jpg,3.0,,,,AIXO7JFFSBR5O
381,76,,1.0,56.0,2964216465-219242.jpg,2512875796-274856.jpg,2.0,,,,AIXO7JFFSBR5O
382,77,,1.0,57.0,2575964140-205050.jpg,2238547522-328488.jpg,2.0,,,,AIXO7JFFSBR5O
383,78,,1.0,58.0,2898632385-217137.jpg,2238480803-19739.jpg,2.0,,,,AIXO7JFFSBR5O
384,79,,1.0,59.0,2862691449-137104.jpg,2238540598-30035.jpg,1.0,,,,AIXO7JFFSBR5O
385,80,,1.0,60.0,2868475410-213219.jpg,2575964140-205051.jpg,2.0,,,,AIXO7JFFSBR5O
386,81,,1.0,61.0,2864906345-212360.jpg,2238087237-303447.jpg,2.0,,,,AIXO7JFFSBR5O
387,82,,1.0,62.0,2446760524-123999.jpg,2238552469-106359.jpg,2.0,,,,AIXO7JFFSBR5O
388,83,,1.0,63.0,2898632385-217138.jpg,2460547992-349586.jpg,3.0,,,,AIXO7JFFSBR5O
389,84,,1.0,64.0,2331570830-189984.jpg,2458348012-349114.jpg,3.0,,,,AIXO7JFFSBR5O
390,20,,1.0,0.0,2901939379-143479.jpg,2449443292-348022.jpg,2.0,,,,A2TTYORXHJ7I23
391,21,,1.0,1.0,2883272438-68133.jpg,2592380136-279476.jpg,3.0,,,,A2TTYORXHJ7I23
392,22,,1.0,2.0,2446760524-123999.jpg,2238539138-29878.jpg,3.0,,,,A2TTYORXHJ7I23
393,23,,1.0,3.0,2901941426-292805.jpg,2238510189-98616.jpg,2.0,,,,A2TTYORXHJ7I23
394,24,,1.0,4.0,2898632385-217138.jpg,2575120738-55529.jpg,1.0,,,,A2TTYORXHJ7I23
395,25,,1.0,5.0,2452380166-273109.jpg,2452380171-273112.jpg,1.0,,,,A2TTYORXHJ7I23
396,26,,1.0,6.0,2862691449-137104.jpg,2238540598-30035.jpg,1.0,,,,A2TTYORXHJ7I23
397,27,,1.0,7.0,2986408352-371293.jpg,2446759580-197801.jpg,2.0,,,,A2TTYORXHJ7I23
398,28,,1.0,8.0,2449442529-124446.jpg,2238481610-168214.jpg,1.0,,,,A2TTYORXHJ7I23
399,29,,1.0,9.0,2446760940-198145.jpg,2446760692-347392.jpg,3.0,,,,A2TTYORXHJ7I23
400,30,left,1.0,10.0,left.jpg,,,left,1.0539,,A2TTYORXHJ7I23
401,31,,1.0,11.0,2460547467-349421.jpg,2238470079-92499.jpg,2.0,,,,A2TTYORXHJ7I23
402,32,,1.0,12.0,2238499155-170911.jpg,2446760621-272103.jpg,1.0,,,,A2TTYORXHJ7I23
403,33,,1.0,13.0,2898617468-68274.jpg,2862684406-285700.jpg,3.0,,,,A2TTYORXHJ7I23
404,34,,1.0,14.0,2575964140-205050.jpg,2238547522-328488.jpg,2.0,,,,A2TTYORXHJ7I23
405,35,,1.0,15.0,2592380138-56727.jpg,2430664847-345753.jpg,2.0,,,,A2TTYORXHJ7I23
406,36,,1.0,16.0,2964216465-219242.jpg,2446760917-347439.jpg,3.0,,,,A2TTYORXHJ7I23
407,37,,1.0,17.0,2898632385-217137.jpg,2864904453-63932.jpg,3.0,,,,A2TTYORXHJ7I23
408,38,right,1.0,18.0,right.jpg,,,right,1.5075,,A2TTYORXHJ7I23
409,39,,1.0,19.0,2883254439-140941.jpg,2417207511-266975.jpg,3.0,,,,A2TTYORXHJ7I23
410,40,,1.0,20.0,2238575092-334269.jpg,2592380285-205564.jpg,1.0,,,,A2TTYORXHJ7I23
411,41,,1.0,21.0,2898626385-216899.jpg,2449442365-198476.jpg,2.0,,,,A2TTYORXHJ7I23
412,42,,1.0,22.0,2868485396-288511.jpg,2238380314-88261.jpg,3.0,,,,A2TTYORXHJ7I23
413,43,,1.0,23.0,2994405328-74628.jpg,2417206274-118542.jpg,1.0,,,,A2TTYORXHJ7I23
414,44,,1.0,24.0,2898635427-367120.jpg,2237941457-301342.jpg,2.0,,,,A2TTYORXHJ7I23
415,45,,1.0,25.0,2964213381-294060.jpg,2898631359-142720.jpg,1.0,,,,A2TTYORXHJ7I23
416,46,,1.0,26.0,2883255450-215311.jpg,2868485399-139476.jpg,2.0,,,,A2TTYORXHJ7I23
417,47,,1.0,27.0,2883255450-215309.jpg,2238562336-256366.jpg,3.0,,,,A2TTYORXHJ7I23
418,48,,1.0,28.0,2512876023-52283.jpg,2898636443-69154.jpg,2.0,,,,A2TTYORXHJ7I23
419,49,,1.0,29.0,2901934573-69337.jpg,2901936407-367476.jpg,3.0,,,,A2TTYORXHJ7I23
420,50,,1.0,30.0,2238471391-240918.jpg,2868470400-212889.jpg,1.0,,,,A2TTYORXHJ7I23
421,51,left,1.0,31.0,left.jpg,,,left,1.5728,,A2TTYORXHJ7I23
422,52,,1.0,32.0,2898624426-291546.jpg,2864902304-137862.jpg,3.0,,,,A2TTYORXHJ7I23
423,53,,1.0,33.0,2868475410-213219.jpg,2238436851-238821.jpg,3.0,,,,A2TTYORXHJ7I23
424,54,,1.0,34.0,2864906345-212360.jpg,2238087237-303447.jpg,2.0,,,,A2TTYORXHJ7I23
425,55,,1.0,35.0,2579432576-279079.jpg,2446760226-272006.jpg,2.0,,,,A2TTYORXHJ7I23
426,56,,1.0,36.0,2446758985-197609.jpg,2898633421-291973.jpg,1.0,,,,A2TTYORXHJ7I23
427,57,,1.0,37.0,2238550049-105691.jpg,2238482972-317759.jpg,1.0,,,,A2TTYORXHJ7I23
428,58,,1.0,38.0,2964213381-294061.jpg,2238433340-164524.jpg,1.0,,,,A2TTYORXHJ7I23
429,59,,1.0,39.0,2238126735-154721.jpg,2901951430-218724.jpg,3.0,,,,A2TTYORXHJ7I23
430,60,,1.0,40.0,2331570830-189984.jpg,2449442529-124445.jpg,2.0,,,,A2TTYORXHJ7I23
431,61,left,1.0,41.0,left.jpg,,,left,1.1665,,A2TTYORXHJ7I23
432,62,,1.0,42.0,2625337302-355866.jpg,2598726160-205998.jpg,3.0,,,,A2TTYORXHJ7I23
433,63,,1.0,43.0,2883254439-140940.jpg,2812983311-281946.jpg,3.0,,,,A2TTYORXHJ7I23
434,64,,1.0,44.0,2238584869-113153.jpg,2864901420-212147.jpg,1.0,,,,A2TTYORXHJ7I23
435,65,,1.0,45.0,2864909447-362146.jpg,2238555799-106905.jpg,2.0,,,,A2TTYORXHJ7I23
436,66,,1.0,46.0,2238584018-38513.jpg,2898633321-291943.jpg,2.0,,,,A2TTYORXHJ7I23
437,67,,1.0,47.0,2238480434-93829.jpg,2238479903-19596.jpg,3.0,,,,A2TTYORXHJ7I23
438,68,,1.0,48.0,2964209380-218956.jpg,2898631429-142736.jpg,2.0,,,,A2TTYORXHJ7I23
439,69,,1.0,49.0,2238429999-90218.jpg,2986448334-147157.jpg,1.0,,,,A2TTYORXHJ7I23
440,70,,1.0,50.0,2238521193-26286.jpg,2825712309-134957.jpg,1.0,,,,A2TTYORXHJ7I23
441,71,,1.0,51.0,2964224310-219527.jpg,2964213441-294073.jpg,2.0,,,,A2TTYORXHJ7I23
442,72,left,1.0,52.0,left.jpg,,,left,1.1331,,A2TTYORXHJ7I23
443,73,,1.0,53.0,2986400320-221190.jpg,2238470979-92615.jpg,2.0,,,,A2TTYORXHJ7I23
444,74,,1.0,54.0,2964218374-144968.jpg,2238525773-27014.jpg,3.0,,,,A2TTYORXHJ7I23
445,75,,1.0,55.0,2274829821-263682.jpg,2862687442-360837.jpg,3.0,,,,A2TTYORXHJ7I23
446,76,,1.0,56.0,2238496457-319749.jpg,2238570142-333223.jpg,1.0,,,,A2TTYORXHJ7I23
447,77,,1.0,57.0,2238516618-25604.jpg,2238573549-110485.jpg,1.0,,,,A2TTYORXHJ7I23
448,78,,1.0,58.0,2898633480-217190.jpg,2237858043-1434.jpg,3.0,,,,A2TTYORXHJ7I23
449,79,,1.0,59.0,2446759803-49249.jpg,2238498786-244797.jpg,3.0,,,,A2TTYORXHJ7I23
450,80,,1.0,60.0,2901938432-367627.jpg,2579432708-56394.jpg,1.0,,,,A2TTYORXHJ7I23
451,81,,1.0,61.0,2238129579-80916.jpg,2460547477-349426.jpg,1.0,,,,A2TTYORXHJ7I23
452,82,,1.0,62.0,2238561223-33794.jpg,2592380177-354626.jpg,2.0,,,,A2TTYORXHJ7I23
453,83,,1.0,63.0,2981231446-294731.jpg,2238568685-183597.jpg,2.0,,,,A2TTYORXHJ7I23
454,84,,1.0,64.0,2238375302-311538.jpg,2592380255-205552.jpg,1.0,,,,A2TTYORXHJ7I23
455,20,,1.0,0.0,2868485396-288511.jpg,2868470456-287597.jpg,1.0,,,,A3SFP9VSFJY2YW
456,21,,1.0,1.0,2868475410-213219.jpg,2238216693-10721.jpg,1.0,,,,A3SFP9VSFJY2YW
457,22,,1.0,2.0,2238499155-170911.jpg,2446760621-272103.jpg,1.0,,,,A3SFP9VSFJY2YW
458,23,,1.0,3.0,2446758985-197609.jpg,2898633421-291973.jpg,1.0,,,,A3SFP9VSFJY2YW
459,24,,1.0,4.0,2986408352-371293.jpg,2446759580-197801.jpg,2.0,,,,A3SFP9VSFJY2YW
460,25,,1.0,5.0,2238521193-26286.jpg,2825712309-134957.jpg,1.0,,,,A3SFP9VSFJY2YW
461,26,,1.0,6.0,2238126735-154721.jpg,2856919327-359676.jpg,1.0,,,,A3SFP9VSFJY2YW
462,27,,1.0,7.0,2994405328-74628.jpg,2883273443-68192.jpg,3.0,,,,A3SFP9VSFJY2YW
463,28,,1.0,8.0,2512876023-52283.jpg,2238576267-334532.jpg,3.0,,,,A3SFP9VSFJY2YW
464,29,,1.0,9.0,2883254439-140940.jpg,2575121890-204630.jpg,2.0,,,,A3SFP9VSFJY2YW
465,30,,1.0,10.0,2238575092-334269.jpg,2592380285-205564.jpg,1.0,,,,A3SFP9VSFJY2YW
466,31,,1.0,11.0,2898617468-68274.jpg,2238585512-336576.jpg,2.0,,,,A3SFP9VSFJY2YW
467,32,right,1.0,12.0,right.jpg,,,right,1.2447,,A3SFP9VSFJY2YW
468,33,,1.0,13.0,2592380138-56727.jpg,2430664847-345753.jpg,2.0,,,,A3SFP9VSFJY2YW
469,34,,1.0,14.0,2446760940-198145.jpg,2446760692-347392.jpg,3.0,,,,A3SFP9VSFJY2YW
470,35,,1.0,15.0,2238129579-80916.jpg,2898618444-142233.jpg,2.0,,,,A3SFP9VSFJY2YW
471,36,right,1.0,16.0,right.jpg,,,right,1.3517,,A3SFP9VSFJY2YW
472,37,,1.0,17.0,2964213381-294061.jpg,2989721347-371917.jpg,3.0,,,,A3SFP9VSFJY2YW
473,38,,1.0,18.0,2238561223-33794.jpg,2238506233-23904.jpg,1.0,,,,A3SFP9VSFJY2YW
474,39,,1.0,19.0,2238471391-240918.jpg,2986399339-146857.jpg,3.0,,,,A3SFP9VSFJY2YW
475,40,,1.0,20.0,2981231446-294731.jpg,2417207297-342139.jpg,3.0,,,,A3SFP9VSFJY2YW
476,41,,1.0,21.0,2238480434-93829.jpg,2238479903-19596.jpg,3.0,,,,A3SFP9VSFJY2YW
477,42,,1.0,22.0,2579432576-279079.jpg,2446760226-272006.jpg,2.0,,,,A3SFP9VSFJY2YW
478,43,,1.0,23.0,2331570830-189984.jpg,2446760483-49429.jpg,1.0,,,,A3SFP9VSFJY2YW
479,44,,1.0,24.0,2898632385-217137.jpg,2238360884-87525.jpg,1.0,,,,A3SFP9VSFJY2YW
480,45,,1.0,25.0,2238429999-90218.jpg,2901951459-144433.jpg,2.0,,,,A3SFP9VSFJY2YW
481,46,,1.0,26.0,2864906345-212360.jpg,2986397365-221133.jpg,1.0,,,,A3SFP9VSFJY2YW
482,47,,1.0,27.0,2986400320-221190.jpg,2238470979-92615.jpg,2.0,,,,A3SFP9VSFJY2YW
483,48,,1.0,28.0,2238496457-319749.jpg,2460547467-349422.jpg,3.0,,,,A3SFP9VSFJY2YW
484,49,,1.0,29.0,2964218374-144968.jpg,2238521157-323782.jpg,2.0,,,,A3SFP9VSFJY2YW
485,50,,1.0,30.0,2625337302-355866.jpg,2425492472-343825.jpg,1.0,,,,A3SFP9VSFJY2YW
486,51,,1.0,31.0,2274829821-263682.jpg,2238570526-257884.jpg,1.0,,,,A3SFP9VSFJY2YW
487,52,,1.0,32.0,2864909447-362146.jpg,2874316384-140749.jpg,1.0,,,,A3SFP9VSFJY2YW
488,53,,1.0,33.0,2862691449-137104.jpg,2238328478-11678.jpg,3.0,,,,A3SFP9VSFJY2YW
489,54,right,1.0,34.0,right.jpg,,,right,0.9929,,A3SFP9VSFJY2YW
490,55,,1.0,35.0,2964216465-219242.jpg,2592380049-131079.jpg,1.0,,,,A3SFP9VSFJY2YW
491,56,left,1.0,36.0,left.jpg,,,left,1.3263,,A3SFP9VSFJY2YW
492,57,,1.0,37.0,2883272438-68133.jpg,2592380136-279476.jpg,3.0,,,,A3SFP9VSFJY2YW
493,58,,1.0,38.0,2883254439-140941.jpg,2237965109-79314.jpg,2.0,,,,A3SFP9VSFJY2YW
494,59,,1.0,39.0,2964209380-218956.jpg,2898617396-291219.jpg,3.0,,,,A3SFP9VSFJY2YW
495,60,,1.0,40.0,2238584018-38513.jpg,2452381442-348755.jpg,3.0,,,,A3SFP9VSFJY2YW
496,61,,1.0,41.0,2449442529-124446.jpg,2238481610-168214.jpg,1.0,,,,A3SFP9VSFJY2YW
497,62,,1.0,42.0,2460547467-349421.jpg,2238470079-92499.jpg,2.0,,,,A3SFP9VSFJY2YW
498,63,,1.0,43.0,2238550049-105691.jpg,2449443271-272729.jpg,2.0,,,,A3SFP9VSFJY2YW
499,64,,1.0,44.0,2901934573-69337.jpg,2901936407-367476.jpg,3.0,,,,A3SFP9VSFJY2YW
500,65,,1.0,45.0,2238584869-113153.jpg,2981241419-145844.jpg,2.0,,,,A3SFP9VSFJY2YW
501,66,,1.0,46.0,2901938432-367627.jpg,2856919327-359675.jpg,2.0,,,,A3SFP9VSFJY2YW
502,67,,1.0,47.0,2901939379-143479.jpg,2864909422-362141.jpg,3.0,,,,A3SFP9VSFJY2YW
503,68,,1.0,48.0,2898633480-217190.jpg,2446760147-347245.jpg,1.0,,,,A3SFP9VSFJY2YW
504,69,,1.0,49.0,2901941426-292805.jpg,2901945303-70125.jpg,3.0,,,,A3SFP9VSFJY2YW
505,70,,1.0,50.0,2898632385-217138.jpg,2460547992-349586.jpg,3.0,,,,A3SFP9VSFJY2YW
506,71,,1.0,51.0,2883255450-215311.jpg,2575964014-130589.jpg,3.0,,,,A3SFP9VSFJY2YW
507,72,,1.0,52.0,2898624426-291546.jpg,2549106844-127878.jpg,2.0,,,,A3SFP9VSFJY2YW
508,73,right,1.0,53.0,right.jpg,,,right,0.9189,,A3SFP9VSFJY2YW
509,74,,1.0,54.0,2575964140-205050.jpg,2238482920-168428.jpg,1.0,,,,A3SFP9VSFJY2YW
510,75,,1.0,55.0,2898635427-367120.jpg,2237941457-301342.jpg,2.0,,,,A3SFP9VSFJY2YW
511,76,,1.0,56.0,2883255450-215309.jpg,2238562336-256366.jpg,3.0,,,,A3SFP9VSFJY2YW
512,77,,1.0,57.0,2898626385-216899.jpg,2449442365-198476.jpg,2.0,,,,A3SFP9VSFJY2YW
513,78,,1.0,58.0,2238516618-25604.jpg,2862686459-136888.jpg,2.0,,,,A3SFP9VSFJY2YW
514,79,,1.0,59.0,2446759803-49249.jpg,2238468265-166556.jpg,2.0,,,,A3SFP9VSFJY2YW
515,80,,1.0,60.0,2238375302-311538.jpg,2460547508-51571.jpg,3.0,,,,A3SFP9VSFJY2YW
516,81,,1.0,61.0,2964213381-294060.jpg,2989724308-73930.jpg,3.0,,,,A3SFP9VSFJY2YW
517,82,,1.0,62.0,2964224310-219527.jpg,2238380178-14011.jpg,1.0,,,,A3SFP9VSFJY2YW
518,83,,1.0,63.0,2452380166-273109.jpg,2592379781-279345.jpg,2.0,,,,A3SFP9VSFJY2YW
519,84,,1.0,64.0,2446760524-123999.jpg,2446760621-272102.jpg,1.0,,,,A3SFP9VSFJY2YW
520,20,,1.0,0.0,2238429999-90218.jpg,2964222378-71332.jpg,3.0,,,,A28K46TA74RQH7
521,21,,1.0,1.0,2898617468-68274.jpg,2512875899-126682.jpg,1.0,,,,A28K46TA74RQH7
522,22,,1.0,2.0,2964218374-144968.jpg,2238411877-313125.jpg,1.0,,,,A28K46TA74RQH7
523,23,,1.0,3.0,2446758985-197609.jpg,2635396318-58409.jpg,2.0,,,,A28K46TA74RQH7
524,24,,1.0,4.0,2452380166-273109.jpg,2592379781-279345.jpg,2.0,,,,A28K46TA74RQH7
525,25,,1.0,5.0,2446759803-49249.jpg,2238498786-244797.jpg,3.0,,,,A28K46TA74RQH7
526,26,,1.0,6.0,2898632385-217138.jpg,2273188118-40829.jpg,2.0,,,,A28K46TA74RQH7
527,27,left,1.0,7.0,left.jpg,,,left,1.0347,,A28K46TA74RQH7
528,28,,1.0,8.0,2883255450-215311.jpg,2575964014-130589.jpg,3.0,,,,A28K46TA74RQH7
529,29,,1.0,9.0,2901941426-292805.jpg,2238510189-98616.jpg,2.0,,,,A28K46TA74RQH7
530,30,,1.0,10.0,2446760524-123999.jpg,2238539138-29878.jpg,3.0,,,,A28K46TA74RQH7
531,31,,1.0,11.0,2864906345-212360.jpg,2994403305-222559.jpg,3.0,,,,A28K46TA74RQH7
532,32,,1.0,12.0,2898633480-217190.jpg,2986450334-147216.jpg,2.0,,,,A28K46TA74RQH7
533,33,,1.0,13.0,2883254439-140941.jpg,2237965109-79314.jpg,2.0,,,,A28K46TA74RQH7
534,34,,1.0,14.0,2964216465-219242.jpg,2446760917-347439.jpg,3.0,,,,A28K46TA74RQH7
535,35,,1.0,15.0,2238521193-26286.jpg,2825712309-134957.jpg,1.0,,,,A28K46TA74RQH7
536,36,,1.0,16.0,2238480434-93829.jpg,2804906319-133082.jpg,1.0,,,,A28K46TA74RQH7
537,37,left,1.0,17.0,left.jpg,,,left,1.2428,,A28K46TA74RQH7
538,38,,1.0,18.0,2238584869-113153.jpg,2986455373-73646.jpg,3.0,,,,A28K46TA74RQH7
539,39,,1.0,19.0,2868475410-213219.jpg,2238436851-238821.jpg,3.0,,,,A28K46TA74RQH7
540,40,,1.0,20.0,2862691449-137104.jpg,2238540598-30035.jpg,1.0,,,,A28K46TA74RQH7
541,41,,1.0,21.0,2579432576-279079.jpg,2446760226-272006.jpg,2.0,,,,A28K46TA74RQH7
542,42,,1.0,22.0,2238550049-105691.jpg,2964219468-71238.jpg,3.0,,,,A28K46TA74RQH7
543,43,,1.0,23.0,2883255450-215309.jpg,2238429999-90216.jpg,1.0,,,,A28K46TA74RQH7
544,44,,1.0,24.0,2964213381-294061.jpg,2238433340-164524.jpg,1.0,,,,A28K46TA74RQH7
545,45,,1.0,25.0,2981231446-294731.jpg,2986450330-221526.jpg,1.0,,,,A28K46TA74RQH7
546,46,,1.0,26.0,2238471391-240918.jpg,2868470400-212889.jpg,1.0,,,,A28K46TA74RQH7
547,47,,1.0,27.0,2274829821-263682.jpg,2446758985-197610.jpg,2.0,,,,A28K46TA74RQH7
548,48,,1.0,28.0,2592380138-56727.jpg,2986419351-296471.jpg,1.0,,,,A28K46TA74RQH7
549,49,,1.0,29.0,2864909447-362146.jpg,2874316384-140749.jpg,1.0,,,,A28K46TA74RQH7
550,50,left,1.0,30.0,left.jpg,,,left,1.0181,,A28K46TA74RQH7
551,51,,1.0,31.0,2883254439-140940.jpg,2452380166-273110.jpg,1.0,,,,A28K46TA74RQH7
552,52,,1.0,32.0,2901934573-69337.jpg,2986401333-73218.jpg,1.0,,,,A28K46TA74RQH7
553,53,,1.0,33.0,2964209380-218956.jpg,2898617396-291219.jpg,3.0,,,,A28K46TA74RQH7
554,54,,1.0,34.0,2238126735-154721.jpg,2575122854-130480.jpg,2.0,,,,A28K46TA74RQH7
555,55,,1.0,35.0,2446760940-198145.jpg,2592380188-56743.jpg,2.0,,,,A28K46TA74RQH7
556,56,,1.0,36.0,2898632385-217137.jpg,2238480803-19739.jpg,2.0,,,,A28K46TA74RQH7
557,57,,1.0,37.0,2460547467-349421.jpg,2901934573-69336.jpg,1.0,,,,A28K46TA74RQH7
558,58,,1.0,38.0,2986408352-371293.jpg,2856916345-210056.jpg,3.0,,,,A28K46TA74RQH7
559,59,,1.0,39.0,2868485396-288511.jpg,2868472420-213024.jpg,2.0,,,,A28K46TA74RQH7
560,60,,1.0,40.0,2898626385-216899.jpg,2989715328-73658.jpg,1.0,,,,A28K46TA74RQH7
561,61,left,1.0,41.0,left.jpg,,,left,1.2494,,A28K46TA74RQH7
562,62,,1.0,42.0,2898635427-367120.jpg,2238436632-314069.jpg,1.0,,,,A28K46TA74RQH7
563,63,,1.0,43.0,2238496457-319749.jpg,2238570142-333223.jpg,1.0,,,,A28K46TA74RQH7
564,64,,1.0,44.0,2238499155-170911.jpg,2446760621-272103.jpg,1.0,,,,A28K46TA74RQH7
565,65,,1.0,45.0,2994405328-74628.jpg,2825702353-60662.jpg,2.0,,,,A28K46TA74RQH7
566,66,,1.0,46.0,2238129579-80916.jpg,2898618444-142233.jpg,2.0,,,,A28K46TA74RQH7
567,67,,1.0,47.0,2238516618-25604.jpg,2862686459-136888.jpg,2.0,,,,A28K46TA74RQH7
568,68,,1.0,48.0,2331570830-189984.jpg,2446760483-49429.jpg,1.0,,,,A28K46TA74RQH7
569,69,,1.0,49.0,2901939379-143479.jpg,2986450334-147215.jpg,1.0,,,,A28K46TA74RQH7
570,70,,1.0,50.0,2575964140-205050.jpg,2238547522-328488.jpg,2.0,,,,A28K46TA74RQH7
571,71,,1.0,51.0,2512876023-52283.jpg,2898636443-69154.jpg,2.0,,,,A28K46TA74RQH7
572,72,right,1.0,52.0,right.jpg,,,right,1.429,,A28K46TA74RQH7
573,73,,1.0,53.0,2238375302-311538.jpg,2460547508-51571.jpg,3.0,,,,A28K46TA74RQH7
574,74,,1.0,54.0,2238584018-38513.jpg,2452381442-348755.jpg,3.0,,,,A28K46TA74RQH7
575,75,,1.0,55.0,2625337302-355866.jpg,2238478760-167789.jpg,2.0,,,,A28K46TA74RQH7
576,76,,1.0,56.0,2901938432-367627.jpg,2424122568-45517.jpg,3.0,,,,A28K46TA74RQH7
577,77,,1.0,57.0,2238561223-33794.jpg,2592380177-354626.jpg,2.0,,,,A28K46TA74RQH7
578,78,,1.0,58.0,2238575092-334269.jpg,2964218374-144967.jpg,3.0,,,,A28K46TA74RQH7
579,79,,1.0,59.0,2964224310-219527.jpg,2238490590-169598.jpg,3.0,,,,A28K46TA74RQH7
580,80,,1.0,60.0,2964213381-294060.jpg,2989724308-73930.jpg,3.0,,,,A28K46TA74RQH7
581,81,,1.0,61.0,2898624426-291546.jpg,2864902304-137862.jpg,3.0,,,,A28K46TA74RQH7
582,82,,1.0,62.0,2883272438-68133.jpg,2901936369-143233.jpg,2.0,,,,A28K46TA74RQH7
583,83,,1.0,63.0,2986400320-221190.jpg,2238538133-29662.jpg,3.0,,,,A28K46TA74RQH7
584,84,,1.0,64.0,2449442529-124446.jpg,2864911339-138231.jpg,3.0,,,,A28K46TA74RQH7
585,20,,1.0,0.0,2986400320-221190.jpg,2238470979-92615.jpg,2.0,,,,A2WJ1KQW2UBTG6
586,21,,1.0,1.0,2862691449-137104.jpg,2986455341-296758.jpg,2.0,,,,A2WJ1KQW2UBTG6
587,22,,1.0,2.0,2883272438-68133.jpg,2237949408-4018.jpg,1.0,,,,A2WJ1KQW2UBTG6
588,23,,1.0,3.0,2901941426-292805.jpg,2868488422-363715.jpg,1.0,,,,A2WJ1KQW2UBTG6
589,24,,1.0,4.0,2883254439-140941.jpg,2237965109-79314.jpg,2.0,,,,A2WJ1KQW2UBTG6
590,25,,1.0,5.0,2964216465-219242.jpg,2592380049-131079.jpg,1.0,,,,A2WJ1KQW2UBTG6
591,26,,1.0,6.0,2238561223-33794.jpg,2592380177-354626.jpg,2.0,,,,A2WJ1KQW2UBTG6
592,27,,1.0,7.0,2883255450-215309.jpg,2238429999-90216.jpg,1.0,,,,A2WJ1KQW2UBTG6
593,28,,1.0,8.0,2238550049-105691.jpg,2238482972-317759.jpg,1.0,,,,A2WJ1KQW2UBTG6
594,29,,1.0,9.0,2964218374-144968.jpg,2238411877-313125.jpg,1.0,,,,A2WJ1KQW2UBTG6
595,30,,1.0,10.0,2446760524-123999.jpg,2238552469-106359.jpg,2.0,,,,A2WJ1KQW2UBTG6
596,31,right,1.0,11.0,right.jpg,,,right,0.7503,,A2WJ1KQW2UBTG6
597,32,,1.0,12.0,2238126735-154721.jpg,2575122854-130480.jpg,2.0,,,,A2WJ1KQW2UBTG6
598,33,,1.0,13.0,2898617468-68274.jpg,2512875899-126682.jpg,1.0,,,,A2WJ1KQW2UBTG6
599,34,,1.0,14.0,2864909447-362146.jpg,2238555799-106905.jpg,2.0,,,,A2WJ1KQW2UBTG6
600,35,,1.0,15.0,2238375302-311538.jpg,2592380049-131077.jpg,2.0,,,,A2WJ1KQW2UBTG6
601,36,,1.0,16.0,2898632385-217137.jpg,2864904453-63932.jpg,3.0,,,,A2WJ1KQW2UBTG6
602,37,,1.0,17.0,2981231446-294731.jpg,2417207297-342139.jpg,3.0,,,,A2WJ1KQW2UBTG6
603,38,left,1.0,18.0,left.jpg,,,left,0.6805,,A2WJ1KQW2UBTG6
604,39,,1.0,19.0,2868475410-213219.jpg,2238216693-10721.jpg,1.0,,,,A2WJ1KQW2UBTG6
605,40,,1.0,20.0,2238480434-93829.jpg,2238479903-19596.jpg,3.0,,,,A2WJ1KQW2UBTG6
606,41,,1.0,21.0,2901934573-69337.jpg,2901936407-367476.jpg,3.0,,,,A2WJ1KQW2UBTG6
607,42,,1.0,22.0,2868485396-288511.jpg,2868472420-213024.jpg,2.0,,,,A2WJ1KQW2UBTG6
608,43,,1.0,23.0,2898632385-217138.jpg,2575120738-55529.jpg,1.0,,,,A2WJ1KQW2UBTG6
609,44,,1.0,24.0,2238516618-25604.jpg,2238470979-92618.jpg,3.0,,,,A2WJ1KQW2UBTG6
610,45,,1.0,25.0,2625337302-355866.jpg,2425492472-343825.jpg,1.0,,,,A2WJ1KQW2UBTG6
611,46,,1.0,26.0,2238429999-90218.jpg,2964222378-71332.jpg,3.0,,,,A2WJ1KQW2UBTG6
612,47,,1.0,27.0,2898626385-216899.jpg,2898618440-216545.jpg,3.0,,,,A2WJ1KQW2UBTG6
613,48,,1.0,28.0,2449442529-124446.jpg,2868469458-64561.jpg,2.0,,,,A2WJ1KQW2UBTG6
614,49,,1.0,29.0,2986408352-371293.jpg,2868488422-363713.jpg,1.0,,,,A2WJ1KQW2UBTG6
615,50,,1.0,30.0,2864906345-212360.jpg,2238087237-303447.jpg,2.0,,,,A2WJ1KQW2UBTG6
616,51,,1.0,31.0,2238584018-38513.jpg,2449443163-50093.jpg,1.0,,,,A2WJ1KQW2UBTG6
617,52,,1.0,32.0,2964224310-219527.jpg,2238490590-169598.jpg,3.0,,,,A2WJ1KQW2UBTG6
618,53,right,1.0,33.0,right.jpg,,,right,0.5915,,A2WJ1KQW2UBTG6
619,54,,1.0,34.0,2238129579-80916.jpg,2238161924-82646.jpg,3.0,,,,A2WJ1KQW2UBTG6
620,55,,1.0,35.0,2446759803-49249.jpg,2238468265-166556.jpg,2.0,,,,A2WJ1KQW2UBTG6
621,56,,1.0,36.0,2446760940-198145.jpg,2446760692-347392.jpg,3.0,,,,A2WJ1KQW2UBTG6
622,57,,1.0,37.0,2238471391-240918.jpg,2986399339-146857.jpg,3.0,,,,A2WJ1KQW2UBTG6
623,58,,1.0,38.0,2579432576-279079.jpg,2901934574-143126.jpg,1.0,,,,A2WJ1KQW2UBTG6
624,59,right,1.0,39.0,right.jpg,,,right,0.6971,,A2WJ1KQW2UBTG6
625,60,,1.0,40.0,2883255450-215311.jpg,2238481575-168208.jpg,1.0,,,,A2WJ1KQW2UBTG6
626,61,,1.0,41.0,2446758985-197609.jpg,2635396318-58409.jpg,2.0,,,,A2WJ1KQW2UBTG6
627,62,,1.0,42.0,2964209380-218956.jpg,2868488456-288710.jpg,1.0,,,,A2WJ1KQW2UBTG6
628,63,,1.0,43.0,2898633480-217190.jpg,2446760147-347245.jpg,1.0,,,,A2WJ1KQW2UBTG6
629,64,,1.0,44.0,2898624426-291546.jpg,2549106844-127878.jpg,2.0,,,,A2WJ1KQW2UBTG6
630,65,,1.0,45.0,2452380166-273109.jpg,2592379781-279345.jpg,2.0,,,,A2WJ1KQW2UBTG6
631,66,,1.0,46.0,2460547467-349421.jpg,2901934573-69336.jpg,1.0,,,,A2WJ1KQW2UBTG6
632,67,,1.0,47.0,2994405328-74628.jpg,2883273443-68192.jpg,3.0,,,,A2WJ1KQW2UBTG6
633,68,,1.0,48.0,2901938432-367627.jpg,2856919327-359675.jpg,2.0,,,,A2WJ1KQW2UBTG6
634,69,right,1.0,49.0,right.jpg,,,right,0.6517,,A2WJ1KQW2UBTG6
635,70,,1.0,50.0,2238521193-26286.jpg,2446760306-272024.jpg,3.0,,,,A2WJ1KQW2UBTG6
636,71,,1.0,51.0,2575964140-205050.jpg,2446760226-272005.jpg,3.0,,,,A2WJ1KQW2UBTG6
637,72,,1.0,52.0,2964213381-294061.jpg,2989721347-371917.jpg,3.0,,,,A2WJ1KQW2UBTG6
638,73,,1.0,53.0,2238496457-319749.jpg,2460547467-349422.jpg,3.0,,,,A2WJ1KQW2UBTG6
639,74,,1.0,54.0,2964213381-294060.jpg,2898631359-142720.jpg,1.0,,,,A2WJ1KQW2UBTG6
640,75,,1.0,55.0,2238584869-113153.jpg,2981241419-145844.jpg,2.0,,,,A2WJ1KQW2UBTG6
641,76,,1.0,56.0,2883254439-140940.jpg,2812983311-281946.jpg,3.0,,,,A2WJ1KQW2UBTG6
642,77,,1.0,57.0,2274829821-263682.jpg,2446758985-197610.jpg,2.0,,,,A2WJ1KQW2UBTG6
643,78,,1.0,58.0,2901939379-143479.jpg,2864909422-362141.jpg,3.0,,,,A2WJ1KQW2UBTG6
644,79,,1.0,59.0,2592380138-56727.jpg,2238537701-251772.jpg,3.0,,,,A2WJ1KQW2UBTG6
645,80,,1.0,60.0,2238499155-170911.jpg,2446760621-272103.jpg,1.0,,,,A2WJ1KQW2UBTG6
646,81,,1.0,61.0,2512876023-52283.jpg,2898636443-69154.jpg,2.0,,,,A2WJ1KQW2UBTG6
647,82,,1.0,62.0,2238575092-334269.jpg,2592380285-205564.jpg,1.0,,,,A2WJ1KQW2UBTG6
648,83,,1.0,63.0,2331570830-189984.jpg,2449442529-124445.jpg,2.0,,,,A2WJ1KQW2UBTG6
649,84,,1.0,64.0,2898635427-367120.jpg,2901936309-143207.jpg,3.0,,,,A2WJ1KQW2UBTG6
650,20,,1.0,0.0,2898635427-367120.jpg,2237941457-301342.jpg,2.0,,,,A2IQ0QCTQ3KWLT
651,21,,1.0,1.0,2625337302-355866.jpg,2425492472-343825.jpg,1.0,,,,A2IQ0QCTQ3KWLT
652,22,,1.0,2.0,2238516618-25604.jpg,2238573549-110485.jpg,1.0,,,,A2IQ0QCTQ3KWLT
653,23,,1.0,3.0,2238584869-113153.jpg,2864901420-212147.jpg,1.0,,,,A2IQ0QCTQ3KWLT
654,24,,1.0,4.0,2898626385-216899.jpg,2989715328-73658.jpg,1.0,,,,A2IQ0QCTQ3KWLT
655,25,,1.0,5.0,2981231446-294731.jpg,2238568685-183597.jpg,2.0,,,,A2IQ0QCTQ3KWLT
656,26,right,1.0,6.0,right.jpg,,,right,0.6586,,A2IQ0QCTQ3KWLT
657,27,,1.0,7.0,2994405328-74628.jpg,2825702353-60662.jpg,2.0,,,,A2IQ0QCTQ3KWLT
658,28,,1.0,8.0,2238129579-80916.jpg,2460547477-349426.jpg,1.0,,,,A2IQ0QCTQ3KWLT
659,29,,1.0,9.0,2898624426-291546.jpg,2549106844-127878.jpg,2.0,,,,A2IQ0QCTQ3KWLT
660,30,,1.0,10.0,2452380166-273109.jpg,2238380901-236499.jpg,3.0,,,,A2IQ0QCTQ3KWLT
661,31,,1.0,11.0,2238480434-93829.jpg,2592380255-205551.jpg,2.0,,,,A2IQ0QCTQ3KWLT
662,32,,1.0,12.0,2238521193-26286.jpg,2825712309-134957.jpg,1.0,,,,A2IQ0QCTQ3KWLT
663,33,,1.0,13.0,2883255450-215309.jpg,2238562336-256366.jpg,3.0,,,,A2IQ0QCTQ3KWLT
664,34,,1.0,14.0,2460547467-349421.jpg,2901934573-69336.jpg,1.0,,,,A2IQ0QCTQ3KWLT
665,35,,1.0,15.0,2986408352-371293.jpg,2868488422-363713.jpg,1.0,,,,A2IQ0QCTQ3KWLT
666,36,,1.0,16.0,2862691449-137104.jpg,2238328478-11678.jpg,3.0,,,,A2IQ0QCTQ3KWLT
667,37,,1.0,17.0,2238429999-90218.jpg,2901951459-144433.jpg,2.0,,,,A2IQ0QCTQ3KWLT
668,38,,1.0,18.0,2331570830-189984.jpg,2446760483-49429.jpg,1.0,,,,A2IQ0QCTQ3KWLT
669,39,left,1.0,19.0,left.jpg,,,left,0.5646,,A2IQ0QCTQ3KWLT
670,40,,1.0,20.0,2238550049-105691.jpg,2964219468-71238.jpg,3.0,,,,A2IQ0QCTQ3KWLT
671,41,,1.0,21.0,2883254439-140940.jpg,2452380166-273110.jpg,1.0,,,,A2IQ0QCTQ3KWLT
672,42,,1.0,22.0,2898633480-217190.jpg,2237858043-1434.jpg,3.0,,,,A2IQ0QCTQ3KWLT
673,43,,1.0,23.0,2883272438-68133.jpg,2901936369-143233.jpg,2.0,,,,A2IQ0QCTQ3KWLT
674,44,,1.0,24.0,2901941426-292805.jpg,2868488422-363715.jpg,1.0,,,,A2IQ0QCTQ3KWLT
675,45,,1.0,25.0,2868485396-288511.jpg,2868472420-213024.jpg,2.0,,,,A2IQ0QCTQ3KWLT
676,46,,1.0,26.0,2883255450-215311.jpg,2575964014-130589.jpg,3.0,,,,A2IQ0QCTQ3KWLT
677,47,,1.0,27.0,2274829821-263682.jpg,2862687442-360837.jpg,3.0,,,,A2IQ0QCTQ3KWLT
678,48,,1.0,28.0,2238375302-311538.jpg,2460547508-51571.jpg,3.0,,,,A2IQ0QCTQ3KWLT
679,49,,1.0,29.0,2901939379-143479.jpg,2449443292-348022.jpg,2.0,,,,A2IQ0QCTQ3KWLT
680,50,,1.0,30.0,2238471391-240918.jpg,2986399339-146857.jpg,3.0,,,,A2IQ0QCTQ3KWLT
681,51,,1.0,31.0,2238575092-334269.jpg,2860304305-210777.jpg,2.0,,,,A2IQ0QCTQ3KWLT
682,52,left,1.0,32.0,left.jpg,,,left,0.4648,,A2IQ0QCTQ3KWLT
683,53,,1.0,33.0,2449442529-124446.jpg,2238481610-168214.jpg,1.0,,,,A2IQ0QCTQ3KWLT
684,54,,1.0,34.0,2238561223-33794.jpg,2592380177-354626.jpg,2.0,,,,A2IQ0QCTQ3KWLT
685,55,,1.0,35.0,2512876023-52283.jpg,2864908323-64106.jpg,1.0,,,,A2IQ0QCTQ3KWLT
686,56,,1.0,36.0,2446758985-197609.jpg,2898633421-291973.jpg,1.0,,,,A2IQ0QCTQ3KWLT
687,57,,1.0,37.0,2238496457-319749.jpg,2592380234-131135.jpg,2.0,,,,A2IQ0QCTQ3KWLT
688,58,,1.0,38.0,2964218374-144968.jpg,2238411877-313125.jpg,1.0,,,,A2IQ0QCTQ3KWLT
689,59,,1.0,39.0,2964209380-218956.jpg,2868488456-288710.jpg,1.0,,,,A2IQ0QCTQ3KWLT
690,60,,1.0,40.0,2964213381-294060.jpg,2238520921-248323.jpg,2.0,,,,A2IQ0QCTQ3KWLT
691,61,,1.0,41.0,2868475410-213219.jpg,2238436851-238821.jpg,3.0,,,,A2IQ0QCTQ3KWLT
692,62,,1.0,42.0,2898617468-68274.jpg,2238585512-336576.jpg,2.0,,,,A2IQ0QCTQ3KWLT
693,63,,1.0,43.0,2864909447-362146.jpg,2874303453-66056.jpg,3.0,,,,A2IQ0QCTQ3KWLT
694,64,left,1.0,44.0,left.jpg,,,left,0.6413,,A2IQ0QCTQ3KWLT
695,65,,1.0,45.0,2898632385-217138.jpg,2273188118-40829.jpg,2.0,,,,A2IQ0QCTQ3KWLT
696,66,,1.0,46.0,2238584018-38513.jpg,2898633321-291943.jpg,2.0,,,,A2IQ0QCTQ3KWLT
697,67,,1.0,47.0,2898632385-217137.jpg,2864904453-63932.jpg,3.0,,,,A2IQ0QCTQ3KWLT
698,68,,1.0,48.0,2575964140-205050.jpg,2238547522-328488.jpg,2.0,,,,A2IQ0QCTQ3KWLT
699,69,,1.0,49.0,2964224310-219527.jpg,2238380178-14011.jpg,1.0,,,,A2IQ0QCTQ3KWLT
700,70,,1.0,50.0,2883254439-140941.jpg,2237965109-79314.jpg,2.0,,,,A2IQ0QCTQ3KWLT
701,71,,1.0,51.0,2864906345-212360.jpg,2986397365-221133.jpg,1.0,,,,A2IQ0QCTQ3KWLT
702,72,,1.0,52.0,2964213381-294061.jpg,2238433340-164524.jpg,1.0,,,,A2IQ0QCTQ3KWLT
703,73,,1.0,53.0,2579432576-279079.jpg,2446760226-272006.jpg,2.0,,,,A2IQ0QCTQ3KWLT
704,74,right,1.0,54.0,right.jpg,,,right,0.727,,A2IQ0QCTQ3KWLT
705,75,,1.0,55.0,2592380138-56727.jpg,2986419351-296471.jpg,1.0,,,,A2IQ0QCTQ3KWLT
706,76,,1.0,56.0,2446760940-198145.jpg,2446760692-347392.jpg,3.0,,,,A2IQ0QCTQ3KWLT
707,77,,1.0,57.0,2901934573-69337.jpg,2238345946-235007.jpg,2.0,,,,A2IQ0QCTQ3KWLT
708,78,,1.0,58.0,2901938432-367627.jpg,2424122568-45517.jpg,3.0,,,,A2IQ0QCTQ3KWLT
709,79,,1.0,59.0,2238499155-170911.jpg,2238373603-13733.jpg,3.0,,,,A2IQ0QCTQ3KWLT
710,80,,1.0,60.0,2986400320-221190.jpg,2238538133-29662.jpg,3.0,,,,A2IQ0QCTQ3KWLT
711,81,,1.0,61.0,2446760524-123999.jpg,2238539138-29878.jpg,3.0,,,,A2IQ0QCTQ3KWLT
712,82,,1.0,62.0,2964216465-219242.jpg,2446760917-347439.jpg,3.0,,,,A2IQ0QCTQ3KWLT
713,83,,1.0,63.0,2238126735-154721.jpg,2901951430-218724.jpg,3.0,,,,A2IQ0QCTQ3KWLT
714,84,,1.0,64.0,2446759803-49249.jpg,2238498786-244797.jpg,3.0,,,,A2IQ0QCTQ3KWLT
715,20,,1.0,0.0,2964216465-219242.jpg,2446760917-347439.jpg,3.0,,,,A26M997VYVK0E6
716,21,,1.0,1.0,2452380166-273109.jpg,2452380171-273112.jpg,1.0,,,,A26M997VYVK0E6
717,22,,1.0,2.0,2964218374-144968.jpg,2238411877-313125.jpg,1.0,,,,A26M997VYVK0E6
718,23,,1.0,3.0,2986408352-371293.jpg,2856916345-210056.jpg,3.0,,,,A26M997VYVK0E6
719,24,,1.0,4.0,2898626385-216899.jpg,2898618440-216545.jpg,3.0,,,,A26M997VYVK0E6
720,25,,1.0,5.0,2901938432-367627.jpg,2856919327-359675.jpg,2.0,,,,A26M997VYVK0E6
721,26,,1.0,6.0,2575964140-205050.jpg,2238482920-168428.jpg,1.0,,,,A26M997VYVK0E6
722,27,,1.0,7.0,2238561223-33794.jpg,2592380177-354626.jpg,2.0,,,,A26M997VYVK0E6
723,28,,1.0,8.0,2625337302-355866.jpg,2425492472-343825.jpg,1.0,,,,A26M997VYVK0E6
724,29,,1.0,9.0,2238575092-334269.jpg,2964218374-144967.jpg,3.0,,,,A26M997VYVK0E6
725,30,left,1.0,10.0,left.jpg,,,left,0.788,,A26M997VYVK0E6
726,31,,1.0,11.0,2994405328-74628.jpg,2417206274-118542.jpg,1.0,,,,A26M997VYVK0E6
727,32,,1.0,12.0,2512876023-52283.jpg,2238576267-334532.jpg,3.0,,,,A26M997VYVK0E6
728,33,,1.0,13.0,2446760524-123999.jpg,2238552469-106359.jpg,2.0,,,,A26M997VYVK0E6
729,34,,1.0,14.0,2238375302-311538.jpg,2460547508-51571.jpg,3.0,,,,A26M997VYVK0E6
730,35,,1.0,15.0,2868485396-288511.jpg,2868472420-213024.jpg,2.0,,,,A26M997VYVK0E6
731,36,,1.0,16.0,2864909447-362146.jpg,2874303453-66056.jpg,3.0,,,,A26M997VYVK0E6
732,37,,1.0,17.0,2274829821-263682.jpg,2446758985-197610.jpg,2.0,,,,A26M997VYVK0E6
733,38,,1.0,18.0,2446758985-197609.jpg,2898633421-291973.jpg,1.0,,,,A26M997VYVK0E6
734,39,,1.0,19.0,2238129579-80916.jpg,2898618444-142233.jpg,2.0,,,,A26M997VYVK0E6
735,40,,1.0,20.0,2238126735-154721.jpg,2856919327-359676.jpg,1.0,,,,A26M997VYVK0E6
736,41,,1.0,21.0,2898624426-291546.jpg,2549106844-127878.jpg,2.0,,,,A26M997VYVK0E6
737,42,,1.0,22.0,2238521193-26286.jpg,2825712309-134957.jpg,1.0,,,,A26M997VYVK0E6
738,43,,1.0,23.0,2964213381-294061.jpg,2238433340-164524.jpg,1.0,,,,A26M997VYVK0E6
739,44,right,1.0,24.0,right.jpg,,,right,0.902,,A26M997VYVK0E6
740,45,,1.0,25.0,2238584869-113153.jpg,2986455373-73646.jpg,3.0,,,,A26M997VYVK0E6
741,46,,1.0,26.0,2883255450-215311.jpg,2575964014-130589.jpg,3.0,,,,A26M997VYVK0E6
742,47,,1.0,27.0,2460547467-349421.jpg,2901934573-69336.jpg,1.0,,,,A26M997VYVK0E6
743,48,,1.0,28.0,2446760940-198145.jpg,2449443300-198739.jpg,1.0,,,,A26M997VYVK0E6
744,49,,1.0,29.0,2901939379-143479.jpg,2864909422-362141.jpg,3.0,,,,A26M997VYVK0E6
745,50,,1.0,30.0,2901941426-292805.jpg,2901945303-70125.jpg,3.0,,,,A26M997VYVK0E6
746,51,,1.0,31.0,2868475410-213219.jpg,2238216693-10721.jpg,1.0,,,,A26M997VYVK0E6
747,52,,1.0,32.0,2446759803-49249.jpg,2238498786-244797.jpg,3.0,,,,A26M997VYVK0E6
748,53,right,1.0,33.0,right.jpg,,,right,0.712,,A26M997VYVK0E6
749,54,,1.0,34.0,2964224310-219527.jpg,2238490590-169598.jpg,3.0,,,,A26M997VYVK0E6
750,55,,1.0,35.0,2238496457-319749.jpg,2592380234-131135.jpg,2.0,,,,A26M997VYVK0E6
751,56,right,1.0,36.0,right.jpg,,,right,0.702,,A26M997VYVK0E6
752,57,,1.0,37.0,2864906345-212360.jpg,2994403305-222559.jpg,3.0,,,,A26M997VYVK0E6
753,58,,1.0,38.0,2238499155-170911.jpg,2452380832-348593.jpg,2.0,,,,A26M997VYVK0E6
754,59,,1.0,39.0,2883272438-68133.jpg,2901936369-143233.jpg,2.0,,,,A26M997VYVK0E6
755,60,,1.0,40.0,2898633480-217190.jpg,2446760147-347245.jpg,1.0,,,,A26M997VYVK0E6
756,61,,1.0,41.0,2986400320-221190.jpg,2238538133-29662.jpg,3.0,,,,A26M997VYVK0E6
757,62,,1.0,42.0,2331570830-189984.jpg,2449442529-124445.jpg,2.0,,,,A26M997VYVK0E6
758,63,,1.0,43.0,2238584018-38513.jpg,2898633321-291943.jpg,2.0,,,,A26M997VYVK0E6
759,64,,1.0,44.0,2964213381-294060.jpg,2898631359-142720.jpg,1.0,,,,A26M997VYVK0E6
760,65,,1.0,45.0,2883254439-140941.jpg,2237965109-79314.jpg,2.0,,,,A26M997VYVK0E6
761,66,,1.0,46.0,2862691449-137104.jpg,2986455341-296758.jpg,2.0,,,,A26M997VYVK0E6
762,67,,1.0,47.0,2981231446-294731.jpg,2986450330-221526.jpg,1.0,,,,A26M997VYVK0E6
763,68,,1.0,48.0,2238471391-240918.jpg,2901943388-69995.jpg,2.0,,,,A26M997VYVK0E6
764,69,,1.0,49.0,2238550049-105691.jpg,2964219468-71238.jpg,3.0,,,,A26M997VYVK0E6
765,70,right,1.0,50.0,right.jpg,,,right,0.698,,A26M997VYVK0E6
766,71,,1.0,51.0,2898635427-367120.jpg,2238436632-314069.jpg,1.0,,,,A26M997VYVK0E6
767,72,,1.0,52.0,2579432576-279079.jpg,2446760226-272006.jpg,2.0,,,,A26M997VYVK0E6
768,73,,1.0,53.0,2964209380-218956.jpg,2898631429-142736.jpg,2.0,,,,A26M997VYVK0E6
769,74,,1.0,54.0,2238429999-90218.jpg,2986448334-147157.jpg,1.0,,,,A26M997VYVK0E6
770,75,,1.0,55.0,2449442529-124446.jpg,2864911339-138231.jpg,3.0,,,,A26M997VYVK0E6
771,76,,1.0,56.0,2238480434-93829.jpg,2592380255-205551.jpg,2.0,,,,A26M997VYVK0E6
772,77,,1.0,57.0,2238516618-25604.jpg,2238470979-92618.jpg,3.0,,,,A26M997VYVK0E6
773,78,,1.0,58.0,2898617468-68274.jpg,2238585512-336576.jpg,2.0,,,,A26M997VYVK0E6
774,79,,1.0,59.0,2898632385-217137.jpg,2238360884-87525.jpg,1.0,,,,A26M997VYVK0E6
775,80,,1.0,60.0,2901934573-69337.jpg,2986401333-73218.jpg,1.0,,,,A26M997VYVK0E6
776,81,,1.0,61.0,2898632385-217138.jpg,2273188118-40829.jpg,2.0,,,,A26M997VYVK0E6
777,82,,1.0,62.0,2592380138-56727.jpg,2238537701-251772.jpg,3.0,,,,A26M997VYVK0E6
778,83,,1.0,63.0,2883255450-215309.jpg,2238429999-90216.jpg,1.0,,,,A26M997VYVK0E6
779,84,,1.0,64.0,2883254439-140940.jpg,2812983311-281946.jpg,3.0,,,,A26M997VYVK0E6
780,20,,1.0,0.0,2575964140-205050.jpg,2446760226-272005.jpg,3.0,,,,AHZ7C7ETHYX3N
781,21,,1.0,1.0,2238584869-113153.jpg,2981241419-145844.jpg,2.0,,,,AHZ7C7ETHYX3N
782,22,,1.0,2.0,2901939379-143479.jpg,2449443292-348022.jpg,2.0,,,,AHZ7C7ETHYX3N
783,23,,1.0,3.0,2452380166-273109.jpg,2238380901-236499.jpg,3.0,,,,AHZ7C7ETHYX3N
784,24,,1.0,4.0,2331570830-189984.jpg,2458348012-349114.jpg,3.0,,,,AHZ7C7ETHYX3N
785,25,,1.0,5.0,2898635427-367120.jpg,2901936309-143207.jpg,3.0,,,,AHZ7C7ETHYX3N
786,26,right,1.0,6.0,right.jpg,,,right,0.6671,,AHZ7C7ETHYX3N
787,27,,1.0,7.0,2964216465-219242.jpg,2512875796-274856.jpg,2.0,,,,AHZ7C7ETHYX3N
788,28,,1.0,8.0,2592380138-56727.jpg,2986419351-296471.jpg,1.0,,,,AHZ7C7ETHYX3N
789,29,,1.0,9.0,2238375302-311538.jpg,2592380255-205552.jpg,1.0,,,,AHZ7C7ETHYX3N
790,30,,1.0,10.0,2238429999-90218.jpg,2986448334-147157.jpg,1.0,,,,AHZ7C7ETHYX3N
791,31,,1.0,11.0,2274829821-263682.jpg,2862687442-360837.jpg,3.0,,,,AHZ7C7ETHYX3N
792,32,,1.0,12.0,2864906345-212360.jpg,2986397365-221133.jpg,1.0,,,,AHZ7C7ETHYX3N
793,33,,1.0,13.0,2446759803-49249.jpg,2238498786-244797.jpg,3.0,,,,AHZ7C7ETHYX3N
794,34,,1.0,14.0,2579432576-279079.jpg,2458348144-125787.jpg,3.0,,,,AHZ7C7ETHYX3N
795,35,,1.0,15.0,2238496457-319749.jpg,2238570142-333223.jpg,1.0,,,,AHZ7C7ETHYX3N
796,36,,1.0,16.0,2901938432-367627.jpg,2579432708-56394.jpg,1.0,,,,AHZ7C7ETHYX3N
797,37,,1.0,17.0,2238575092-334269.jpg,2592380285-205564.jpg,1.0,,,,AHZ7C7ETHYX3N
798,38,,1.0,18.0,2238129579-80916.jpg,2460547477-349426.jpg,1.0,,,,AHZ7C7ETHYX3N
799,39,,1.0,19.0,2238471391-240918.jpg,2868470400-212889.jpg,1.0,,,,AHZ7C7ETHYX3N
800,40,,1.0,20.0,2964224310-219527.jpg,2964213441-294073.jpg,2.0,,,,AHZ7C7ETHYX3N
801,41,,1.0,21.0,2883255450-215309.jpg,2238562336-256366.jpg,3.0,,,,AHZ7C7ETHYX3N
802,42,,1.0,22.0,2868485396-288511.jpg,2238380314-88261.jpg,3.0,,,,AHZ7C7ETHYX3N
803,43,,1.0,23.0,2238584018-38513.jpg,2898633321-291943.jpg,2.0,,,,AHZ7C7ETHYX3N
804,44,right,1.0,24.0,right.jpg,,,right,0.5781,,AHZ7C7ETHYX3N
805,45,,1.0,25.0,2883272438-68133.jpg,2901936369-143233.jpg,2.0,,,,AHZ7C7ETHYX3N
806,46,,1.0,26.0,2883254439-140940.jpg,2812983311-281946.jpg,3.0,,,,AHZ7C7ETHYX3N
807,47,left,1.0,27.0,left.jpg,,,left,0.5067,,AHZ7C7ETHYX3N
808,48,,1.0,28.0,2446758985-197609.jpg,2984618344-146295.jpg,3.0,,,,AHZ7C7ETHYX3N
809,49,,1.0,29.0,2446760940-198145.jpg,2592380188-56743.jpg,2.0,,,,AHZ7C7ETHYX3N
810,50,,1.0,30.0,2986408352-371293.jpg,2446759580-197801.jpg,2.0,,,,AHZ7C7ETHYX3N
811,51,,1.0,31.0,2238499155-170911.jpg,2452380832-348593.jpg,2.0,,,,AHZ7C7ETHYX3N
812,52,,1.0,32.0,2449442529-124446.jpg,2238481610-168214.jpg,1.0,,,,AHZ7C7ETHYX3N
813,53,,1.0,33.0,2964218374-144968.jpg,2238411877-313125.jpg,1.0,,,,AHZ7C7ETHYX3N
814,54,,1.0,34.0,2898626385-216899.jpg,2449442365-198476.jpg,2.0,,,,AHZ7C7ETHYX3N
815,55,,1.0,35.0,2883254439-140941.jpg,2237965109-79314.jpg,2.0,,,,AHZ7C7ETHYX3N
816,56,,1.0,36.0,2862691449-137104.jpg,2986455341-296758.jpg,2.0,,,,AHZ7C7ETHYX3N
817,57,right,1.0,37.0,right.jpg,,,right,0.6099,,AHZ7C7ETHYX3N
818,58,,1.0,38.0,2238126735-154721.jpg,2575122854-130480.jpg,2.0,,,,AHZ7C7ETHYX3N
819,59,,1.0,39.0,2964213381-294060.jpg,2238520921-248323.jpg,2.0,,,,AHZ7C7ETHYX3N
820,60,,1.0,40.0,2898617468-68274.jpg,2238585512-336576.jpg,2.0,,,,AHZ7C7ETHYX3N
821,61,,1.0,41.0,2898624426-291546.jpg,2986402377-371266.jpg,1.0,,,,AHZ7C7ETHYX3N
822,62,,1.0,42.0,2981231446-294731.jpg,2238568685-183597.jpg,2.0,,,,AHZ7C7ETHYX3N
823,63,,1.0,43.0,2446760524-123999.jpg,2446760621-272102.jpg,1.0,,,,AHZ7C7ETHYX3N
824,64,,1.0,44.0,2898632385-217138.jpg,2575120738-55529.jpg,1.0,,,,AHZ7C7ETHYX3N
825,65,,1.0,45.0,2238521193-26286.jpg,2825712309-134957.jpg,1.0,,,,AHZ7C7ETHYX3N
826,66,,1.0,46.0,2238550049-105691.jpg,2964219468-71238.jpg,3.0,,,,AHZ7C7ETHYX3N
827,67,,1.0,47.0,2901934573-69337.jpg,2901936407-367476.jpg,3.0,,,,AHZ7C7ETHYX3N
828,68,,1.0,48.0,2883255450-215311.jpg,2238481575-168208.jpg,1.0,,,,AHZ7C7ETHYX3N
829,69,,1.0,49.0,2460547467-349421.jpg,2238470079-92499.jpg,2.0,,,,AHZ7C7ETHYX3N
830,70,right,1.0,50.0,right.jpg,,,right,0.4864,,AHZ7C7ETHYX3N
831,71,,1.0,51.0,2868475410-213219.jpg,2238436851-238821.jpg,3.0,,,,AHZ7C7ETHYX3N
832,72,,1.0,52.0,2898632385-217137.jpg,2864904453-63932.jpg,3.0,,,,AHZ7C7ETHYX3N
833,73,,1.0,53.0,2964213381-294061.jpg,2989721347-371917.jpg,3.0,,,,AHZ7C7ETHYX3N
834,74,,1.0,54.0,2986400320-221190.jpg,2989727350-222011.jpg,1.0,,,,AHZ7C7ETHYX3N
835,75,,1.0,55.0,2238480434-93829.jpg,2804906319-133082.jpg,1.0,,,,AHZ7C7ETHYX3N
836,76,,1.0,56.0,2898633480-217190.jpg,2237858043-1434.jpg,3.0,,,,AHZ7C7ETHYX3N
837,77,,1.0,57.0,2238561223-33794.jpg,2592380177-354626.jpg,2.0,,,,AHZ7C7ETHYX3N
838,78,,1.0,58.0,2864909447-362146.jpg,2874316384-140749.jpg,1.0,,,,AHZ7C7ETHYX3N
839,79,,1.0,59.0,2964209380-218956.jpg,2898631429-142736.jpg,2.0,,,,AHZ7C7ETHYX3N
840,80,,1.0,60.0,2512876023-52283.jpg,2864908323-64106.jpg,1.0,,,,AHZ7C7ETHYX3N
841,81,,1.0,61.0,2994405328-74628.jpg,2883273443-68192.jpg,3.0,,,,AHZ7C7ETHYX3N
842,82,,1.0,62.0,2238516618-25604.jpg,2238470979-92618.jpg,3.0,,,,AHZ7C7ETHYX3N
843,83,,1.0,63.0,2901941426-292805.jpg,2238510189-98616.jpg,2.0,,,,AHZ7C7ETHYX3N
844,84,,1.0,64.0,2625337302-355866.jpg,2598726160-205998.jpg,3.0,,,,AHZ7C7ETHYX3N
845,20,,1.0,0.0,2986400320-221190.jpg,2238538133-29662.jpg,3.0,,,,A3VH9AT1MB4MI2
846,21,,1.0,1.0,2964209380-218956.jpg,2898617396-291219.jpg,3.0,,,,A3VH9AT1MB4MI2
847,22,,1.0,2.0,2579432576-279079.jpg,2446760226-272006.jpg,2.0,,,,A3VH9AT1MB4MI2
848,23,,1.0,3.0,2274829821-263682.jpg,2862687442-360837.jpg,3.0,,,,A3VH9AT1MB4MI2
849,24,,1.0,4.0,2460547467-349421.jpg,2238554179-106663.jpg,3.0,,,,A3VH9AT1MB4MI2
850,25,,1.0,5.0,2986408352-371293.jpg,2856916345-210056.jpg,3.0,,,,A3VH9AT1MB4MI2
851,26,,1.0,6.0,2446760524-123999.jpg,2238539138-29878.jpg,3.0,,,,A3VH9AT1MB4MI2
852,27,,1.0,7.0,2446758985-197609.jpg,2635396318-58409.jpg,2.0,,,,A3VH9AT1MB4MI2
853,28,,1.0,8.0,2238471391-240918.jpg,2868470400-212889.jpg,1.0,,,,A3VH9AT1MB4MI2
854,29,right,1.0,9.0,right.jpg,,,right,1.0747,,A3VH9AT1MB4MI2
855,30,,1.0,10.0,2238499155-170911.jpg,2238373603-13733.jpg,3.0,,,,A3VH9AT1MB4MI2
856,31,,1.0,11.0,2238584018-38513.jpg,2449443163-50093.jpg,1.0,,,,A3VH9AT1MB4MI2
857,32,,1.0,12.0,2964218374-144968.jpg,2238521157-323782.jpg,2.0,,,,A3VH9AT1MB4MI2
858,33,,1.0,13.0,2238561223-33794.jpg,2883271323-68049.jpg,3.0,,,,A3VH9AT1MB4MI2
859,34,,1.0,14.0,2898632385-217137.jpg,2238480803-19739.jpg,2.0,,,,A3VH9AT1MB4MI2
860,35,,1.0,15.0,2862691449-137104.jpg,2238328478-11678.jpg,3.0,,,,A3VH9AT1MB4MI2
861,36,,1.0,16.0,2238429999-90218.jpg,2986448334-147157.jpg,1.0,,,,A3VH9AT1MB4MI2
862,37,,1.0,17.0,2449442529-124446.jpg,2868469458-64561.jpg,2.0,,,,A3VH9AT1MB4MI2
863,38,,1.0,18.0,2452380166-273109.jpg,2238380901-236499.jpg,3.0,,,,A3VH9AT1MB4MI2
864,39,,1.0,19.0,2238129579-80916.jpg,2460547477-349426.jpg,1.0,,,,A3VH9AT1MB4MI2
865,40,,1.0,20.0,2238375302-311538.jpg,2592380255-205552.jpg,1.0,,,,A3VH9AT1MB4MI2
866,41,,1.0,21.0,2238575092-334269.jpg,2860304305-210777.jpg,2.0,,,,A3VH9AT1MB4MI2
867,42,left,1.0,22.0,left.jpg,,,left,1.1552,,A3VH9AT1MB4MI2
868,43,,1.0,23.0,2964213381-294061.jpg,2238433340-164524.jpg,1.0,,,,A3VH9AT1MB4MI2
869,44,,1.0,24.0,2592380138-56727.jpg,2986419351-296471.jpg,1.0,,,,A3VH9AT1MB4MI2
870,45,,1.0,25.0,2898633480-217190.jpg,2986450334-147216.jpg,2.0,,,,A3VH9AT1MB4MI2
871,46,,1.0,26.0,2901934573-69337.jpg,2238345946-235007.jpg,2.0,,,,A3VH9AT1MB4MI2
872,47,,1.0,27.0,2575964140-205050.jpg,2238482920-168428.jpg,1.0,,,,A3VH9AT1MB4MI2
873,48,,1.0,28.0,2864906345-212360.jpg,2238087237-303447.jpg,2.0,,,,A3VH9AT1MB4MI2
874,49,,1.0,29.0,2898624426-291546.jpg,2864902304-137862.jpg,3.0,,,,A3VH9AT1MB4MI2
875,50,left,1.0,30.0,left.jpg,,,left,0.9312,,A3VH9AT1MB4MI2
876,51,,1.0,31.0,2898635427-367120.jpg,2238436632-314069.jpg,1.0,,,,A3VH9AT1MB4MI2
877,52,,1.0,32.0,2238521193-26286.jpg,2874301437-363905.jpg,2.0,,,,A3VH9AT1MB4MI2
878,53,,1.0,33.0,2868485396-288511.jpg,2868470456-287597.jpg,1.0,,,,A3VH9AT1MB4MI2
879,54,,1.0,34.0,2625337302-355866.jpg,2238478760-167789.jpg,2.0,,,,A3VH9AT1MB4MI2
880,55,,1.0,35.0,2238126735-154721.jpg,2575122854-130480.jpg,2.0,,,,A3VH9AT1MB4MI2
881,56,,1.0,36.0,2964216465-219242.jpg,2512875796-274856.jpg,2.0,,,,A3VH9AT1MB4MI2
882,57,,1.0,37.0,2883255450-215309.jpg,2868476439-138927.jpg,2.0,,,,A3VH9AT1MB4MI2
883,58,,1.0,38.0,2883254439-140940.jpg,2575121890-204630.jpg,2.0,,,,A3VH9AT1MB4MI2
884,59,left,1.0,39.0,left.jpg,,,left,1.0193,,A3VH9AT1MB4MI2
885,60,,1.0,40.0,2868475410-213219.jpg,2238436851-238821.jpg,3.0,,,,A3VH9AT1MB4MI2
886,61,,1.0,41.0,2238550049-105691.jpg,2238482972-317759.jpg,1.0,,,,A3VH9AT1MB4MI2
887,62,,1.0,42.0,2238516618-25604.jpg,2862686459-136888.jpg,2.0,,,,A3VH9AT1MB4MI2
888,63,,1.0,43.0,2964224310-219527.jpg,2238490590-169598.jpg,3.0,,,,A3VH9AT1MB4MI2
889,64,,1.0,44.0,2238496457-319749.jpg,2592380234-131135.jpg,2.0,,,,A3VH9AT1MB4MI2
890,65,,1.0,45.0,2898617468-68274.jpg,2862684406-285700.jpg,3.0,,,,A3VH9AT1MB4MI2
891,66,,1.0,46.0,2898626385-216899.jpg,2989715328-73658.jpg,1.0,,,,A3VH9AT1MB4MI2
892,67,,1.0,47.0,2238584869-113153.jpg,2986455373-73646.jpg,3.0,,,,A3VH9AT1MB4MI2
893,68,,1.0,48.0,2864909447-362146.jpg,2874316384-140749.jpg,1.0,,,,A3VH9AT1MB4MI2
894,69,right,1.0,49.0,right.jpg,,,right,1.1372,,A3VH9AT1MB4MI2
895,70,,1.0,50.0,2512876023-52283.jpg,2238576267-334532.jpg,3.0,,,,A3VH9AT1MB4MI2
896,71,,1.0,51.0,2883255450-215311.jpg,2238481575-168208.jpg,1.0,,,,A3VH9AT1MB4MI2
897,72,,1.0,52.0,2901938432-367627.jpg,2579432708-56394.jpg,1.0,,,,A3VH9AT1MB4MI2
898,73,,1.0,53.0,2901941426-292805.jpg,2901945303-70125.jpg,3.0,,,,A3VH9AT1MB4MI2
899,74,,1.0,54.0,2901939379-143479.jpg,2986450334-147215.jpg,1.0,,,,A3VH9AT1MB4MI2
900,75,,1.0,55.0,2994405328-74628.jpg,2417206274-118542.jpg,1.0,,,,A3VH9AT1MB4MI2
901,76,,1.0,56.0,2883272438-68133.jpg,2237949408-4018.jpg,1.0,,,,A3VH9AT1MB4MI2
902,77,,1.0,57.0,2883254439-140941.jpg,2989724308-73928.jpg,1.0,,,,A3VH9AT1MB4MI2
903,78,,1.0,58.0,2446760940-198145.jpg,2592380188-56743.jpg,2.0,,,,A3VH9AT1MB4MI2
904,79,,1.0,59.0,2331570830-189984.jpg,2458348012-349114.jpg,3.0,,,,A3VH9AT1MB4MI2
905,80,,1.0,60.0,2964213381-294060.jpg,2989724308-73930.jpg,3.0,,,,A3VH9AT1MB4MI2
906,81,,1.0,61.0,2981231446-294731.jpg,2986450330-221526.jpg,1.0,,,,A3VH9AT1MB4MI2
907,82,,1.0,62.0,2238480434-93829.jpg,2592380255-205551.jpg,2.0,,,,A3VH9AT1MB4MI2
908,83,,1.0,63.0,2446759803-49249.jpg,2238468265-166556.jpg,2.0,,,,A3VH9AT1MB4MI2
909,84,,1.0,64.0,2898632385-217138.jpg,2460547992-349586.jpg,3.0,,,,A3VH9AT1MB4MI2
910,20,,1.0,0.0,2460547467-349421.jpg,2238470079-92499.jpg,2.0,,,,A3N0QZ9ZKUCTCQ
911,21,,1.0,1.0,2883272438-68133.jpg,2901936369-143233.jpg,2.0,,,,A3N0QZ9ZKUCTCQ
912,22,,1.0,2.0,2898632385-217138.jpg,2575120738-55529.jpg,1.0,,,,A3N0QZ9ZKUCTCQ
913,23,,1.0,3.0,2446760940-198145.jpg,2449443300-198739.jpg,1.0,,,,A3N0QZ9ZKUCTCQ
914,24,,1.0,4.0,2901941426-292805.jpg,2868488422-363715.jpg,1.0,,,,A3N0QZ9ZKUCTCQ
915,25,,1.0,5.0,2449442529-124446.jpg,2868469458-64561.jpg,2.0,,,,A3N0QZ9ZKUCTCQ
916,26,,1.0,6.0,2512876023-52283.jpg,2238576267-334532.jpg,3.0,,,,A3N0QZ9ZKUCTCQ
917,27,,1.0,7.0,2898624426-291546.jpg,2864902304-137862.jpg,3.0,,,,A3N0QZ9ZKUCTCQ
918,28,,1.0,8.0,2238129579-80916.jpg,2238161924-82646.jpg,3.0,,,,A3N0QZ9ZKUCTCQ
919,29,,1.0,9.0,2864909447-362146.jpg,2238555799-106905.jpg,2.0,,,,A3N0QZ9ZKUCTCQ
920,30,right,1.0,10.0,right.jpg,,,right,0.8132,,A3N0QZ9ZKUCTCQ
921,31,,1.0,11.0,2864906345-212360.jpg,2238087237-303447.jpg,2.0,,,,A3N0QZ9ZKUCTCQ
922,32,,1.0,12.0,2868475410-213219.jpg,2238216693-10721.jpg,1.0,,,,A3N0QZ9ZKUCTCQ
923,33,,1.0,13.0,2238471391-240918.jpg,2901943388-69995.jpg,2.0,,,,A3N0QZ9ZKUCTCQ
924,34,,1.0,14.0,2592380138-56727.jpg,2986419351-296471.jpg,1.0,,,,A3N0QZ9ZKUCTCQ
925,35,,1.0,15.0,2883255450-215309.jpg,2238562336-256366.jpg,3.0,,,,A3N0QZ9ZKUCTCQ
926,36,,1.0,16.0,2331570830-189984.jpg,2446760483-49429.jpg,1.0,,,,A3N0QZ9ZKUCTCQ
927,37,,1.0,17.0,2862691449-137104.jpg,2238328478-11678.jpg,3.0,,,,A3N0QZ9ZKUCTCQ
928,38,,1.0,18.0,2964216465-219242.jpg,2446760917-347439.jpg,3.0,,,,A3N0QZ9ZKUCTCQ
929,39,,1.0,19.0,2898617468-68274.jpg,2238585512-336576.jpg,2.0,,,,A3N0QZ9ZKUCTCQ
930,40,,1.0,20.0,2625337302-355866.jpg,2238478760-167789.jpg,2.0,,,,A3N0QZ9ZKUCTCQ
931,41,,1.0,21.0,2579432576-279079.jpg,2458348144-125787.jpg,3.0,,,,A3N0QZ9ZKUCTCQ
932,42,,1.0,22.0,2238521193-26286.jpg,2825712309-134957.jpg,1.0,,,,A3N0QZ9ZKUCTCQ
933,43,left,1.0,23.0,left.jpg,,,left,0.7046,,A3N0QZ9ZKUCTCQ
934,44,,1.0,24.0,2986408352-371293.jpg,2856916345-210056.jpg,3.0,,,,A3N0QZ9ZKUCTCQ
935,45,,1.0,25.0,2238584018-38513.jpg,2452381442-348755.jpg,3.0,,,,A3N0QZ9ZKUCTCQ
936,46,,1.0,26.0,2446758985-197609.jpg,2898633421-291973.jpg,1.0,,,,A3N0QZ9ZKUCTCQ
937,47,,1.0,27.0,2883254439-140940.jpg,2812983311-281946.jpg,3.0,,,,A3N0QZ9ZKUCTCQ
938,48,,1.0,28.0,2274829821-263682.jpg,2238570526-257884.jpg,1.0,,,,A3N0QZ9ZKUCTCQ
939,49,,1.0,29.0,2981231446-294731.jpg,2986450330-221526.jpg,1.0,,,,A3N0QZ9ZKUCTCQ
940,50,left,1.0,30.0,left.jpg,,,left,0.7946,,A3N0QZ9ZKUCTCQ
941,51,,1.0,31.0,2901938432-367627.jpg,2424122568-45517.jpg,3.0,,,,A3N0QZ9ZKUCTCQ
942,52,,1.0,32.0,2898635427-367120.jpg,2237941457-301342.jpg,2.0,,,,A3N0QZ9ZKUCTCQ
943,53,,1.0,33.0,2452380166-273109.jpg,2592379781-279345.jpg,2.0,,,,A3N0QZ9ZKUCTCQ
944,54,,1.0,34.0,2238499155-170911.jpg,2452380832-348593.jpg,2.0,,,,A3N0QZ9ZKUCTCQ
945,55,,1.0,35.0,2898632385-217137.jpg,2238480803-19739.jpg,2.0,,,,A3N0QZ9ZKUCTCQ
946,56,,1.0,36.0,2238561223-33794.jpg,2592380177-354626.jpg,2.0,,,,A3N0QZ9ZKUCTCQ
947,57,,1.0,37.0,2994405328-74628.jpg,2417206274-118542.jpg,1.0,,,,A3N0QZ9ZKUCTCQ
948,58,left,1.0,38.0,left.jpg,,,left,0.7242,,A3N0QZ9ZKUCTCQ
949,59,,1.0,39.0,2898626385-216899.jpg,2898618440-216545.jpg,3.0,,,,A3N0QZ9ZKUCTCQ
950,60,,1.0,40.0,2986400320-221190.jpg,2989727350-222011.jpg,1.0,,,,A3N0QZ9ZKUCTCQ
951,61,,1.0,41.0,2883254439-140941.jpg,2237965109-79314.jpg,2.0,,,,A3N0QZ9ZKUCTCQ
952,62,,1.0,42.0,2238126735-154721.jpg,2575122854-130480.jpg,2.0,,,,A3N0QZ9ZKUCTCQ
953,63,,1.0,43.0,2883255450-215311.jpg,2238481575-168208.jpg,1.0,,,,A3N0QZ9ZKUCTCQ
954,64,,1.0,44.0,2898633480-217190.jpg,2986450334-147216.jpg,2.0,,,,A3N0QZ9ZKUCTCQ
955,65,,1.0,45.0,2238575092-334269.jpg,2964218374-144967.jpg,3.0,,,,A3N0QZ9ZKUCTCQ
956,66,,1.0,46.0,2901934573-69337.jpg,2986401333-73218.jpg,1.0,,,,A3N0QZ9ZKUCTCQ
957,67,,1.0,47.0,2964213381-294060.jpg,2238520921-248323.jpg,2.0,,,,A3N0QZ9ZKUCTCQ
958,68,,1.0,48.0,2238429999-90218.jpg,2986448334-147157.jpg,1.0,,,,A3N0QZ9ZKUCTCQ
959,69,,1.0,49.0,2238496457-319749.jpg,2460547467-349422.jpg,3.0,,,,A3N0QZ9ZKUCTCQ
960,70,,1.0,50.0,2238516618-25604.jpg,2238470979-92618.jpg,3.0,,,,A3N0QZ9ZKUCTCQ
961,71,,1.0,51.0,2964209380-218956.jpg,2898631429-142736.jpg,2.0,,,,A3N0QZ9ZKUCTCQ
962,72,,1.0,52.0,2446760524-123999.jpg,2446760621-272102.jpg,1.0,,,,A3N0QZ9ZKUCTCQ
963,73,,1.0,53.0,2868485396-288511.jpg,2238380314-88261.jpg,3.0,,,,A3N0QZ9ZKUCTCQ
964,74,right,1.0,54.0,right.jpg,,,right,1.0414,,A3N0QZ9ZKUCTCQ
965,75,,1.0,55.0,2446759803-49249.jpg,2238468265-166556.jpg,2.0,,,,A3N0QZ9ZKUCTCQ
966,76,,1.0,56.0,2238480434-93829.jpg,2238479903-19596.jpg,3.0,,,,A3N0QZ9ZKUCTCQ
967,77,,1.0,57.0,2901939379-143479.jpg,2986450334-147215.jpg,1.0,,,,A3N0QZ9ZKUCTCQ
968,78,,1.0,58.0,2964218374-144968.jpg,2238525773-27014.jpg,3.0,,,,A3N0QZ9ZKUCTCQ
969,79,,1.0,59.0,2238375302-311538.jpg,2592380255-205552.jpg,1.0,,,,A3N0QZ9ZKUCTCQ
970,80,,1.0,60.0,2964224310-219527.jpg,2238380178-14011.jpg,1.0,,,,A3N0QZ9ZKUCTCQ
971,81,,1.0,61.0,2238584869-113153.jpg,2986455373-73646.jpg,3.0,,,,A3N0QZ9ZKUCTCQ
972,82,,1.0,62.0,2238550049-105691.jpg,2449443271-272729.jpg,2.0,,,,A3N0QZ9ZKUCTCQ
973,83,,1.0,63.0,2575964140-205050.jpg,2238482920-168428.jpg,1.0,,,,A3N0QZ9ZKUCTCQ
974,84,,1.0,64.0,2964213381-294061.jpg,2989721347-371917.jpg,3.0,,,,A3N0QZ9ZKUCTCQ
975,20,,1.0,0.0,2579432576-279079.jpg,2446760226-272006.jpg,2.0,,,,ATO97EQDSSE7U
976,21,,1.0,1.0,2238575092-334269.jpg,2860304305-210777.jpg,2.0,,,,ATO97EQDSSE7U
977,22,,1.0,2.0,2883254439-140941.jpg,2417207511-266975.jpg,3.0,,,,ATO97EQDSSE7U
978,23,,1.0,3.0,2868475410-213219.jpg,2575964140-205051.jpg,2.0,,,,ATO97EQDSSE7U
979,24,,1.0,4.0,2460547467-349421.jpg,2901934573-69336.jpg,1.0,,,,ATO97EQDSSE7U
980,25,,1.0,5.0,2274829821-263682.jpg,2238570526-257884.jpg,1.0,,,,ATO97EQDSSE7U
981,26,,1.0,6.0,2883272438-68133.jpg,2237949408-4018.jpg,1.0,,,,ATO97EQDSSE7U
982,27,left,1.0,7.0,left.jpg,,,left,1.244,,ATO97EQDSSE7U
983,28,,1.0,8.0,2238499155-170911.jpg,2452380832-348593.jpg,2.0,,,,ATO97EQDSSE7U
984,29,,1.0,9.0,2238516618-25604.jpg,2238470979-92618.jpg,3.0,,,,ATO97EQDSSE7U
985,30,,1.0,10.0,2964213381-294060.jpg,2989724308-73930.jpg,3.0,,,,ATO97EQDSSE7U
986,31,,1.0,11.0,2901939379-143479.jpg,2864909422-362141.jpg,3.0,,,,ATO97EQDSSE7U
987,32,,1.0,12.0,2238471391-240918.jpg,2901943388-69995.jpg,2.0,,,,ATO97EQDSSE7U
988,33,,1.0,13.0,2868485396-288511.jpg,2238380314-88261.jpg,3.0,,,,ATO97EQDSSE7U
989,34,,1.0,14.0,2898633480-217190.jpg,2986450334-147216.jpg,2.0,,,,ATO97EQDSSE7U
990,35,,1.0,15.0,2901938432-367627.jpg,2579432708-56394.jpg,1.0,,,,ATO97EQDSSE7U
991,36,,1.0,16.0,2862691449-137104.jpg,2986455341-296758.jpg,2.0,,,,ATO97EQDSSE7U
992,37,left,0.0,17.0,right.jpg,,,right,2.3367,,ATO97EQDSSE7U
993,38,,1.0,18.0,2592380138-56727.jpg,2986419351-296471.jpg,1.0,,,,ATO97EQDSSE7U
994,39,,1.0,19.0,2883255450-215311.jpg,2575964014-130589.jpg,3.0,,,,ATO97EQDSSE7U
995,40,,1.0,20.0,2446760940-198145.jpg,2446760692-347392.jpg,3.0,,,,ATO97EQDSSE7U
996,41,,1.0,21.0,2238521193-26286.jpg,2874301437-363905.jpg,2.0,,,,ATO97EQDSSE7U
997,42,,1.0,22.0,2898626385-216899.jpg,2989715328-73658.jpg,1.0,,,,ATO97EQDSSE7U
998,43,,1.0,23.0,2625337302-355866.jpg,2238478760-167789.jpg,2.0,,,,ATO97EQDSSE7U
999,44,,1.0,24.0,2986408352-371293.jpg,2446759580-197801.jpg,2.0,,,,ATO97EQDSSE7U
1000,45,,1.0,25.0,2864909447-362146.jpg,2874316384-140749.jpg,1.0,,,,ATO97EQDSSE7U
1001,46,,1.0,26.0,2964213381-294061.jpg,2981234334-145491.jpg,2.0,,,,ATO97EQDSSE7U
1002,47,,1.0,27.0,2512876023-52283.jpg,2238576267-334532.jpg,3.0,,,,ATO97EQDSSE7U
1003,48,,1.0,28.0,2331570830-189984.jpg,2449442529-124445.jpg,2.0,,,,ATO97EQDSSE7U
1004,49,,1.0,29.0,2964218374-144968.jpg,2238521157-323782.jpg,2.0,,,,ATO97EQDSSE7U
1005,50,,1.0,30.0,2901934573-69337.jpg,2901936407-367476.jpg,3.0,,,,ATO97EQDSSE7U
1006,51,,1.0,31.0,2898632385-217138.jpg,2273188118-40829.jpg,2.0,,,,ATO97EQDSSE7U
1007,52,,1.0,32.0,2452380166-273109.jpg,2592379781-279345.jpg,2.0,,,,ATO97EQDSSE7U
1008,53,left,1.0,33.0,left.jpg,,,left,2.0103,,ATO97EQDSSE7U
1009,54,,1.0,34.0,2238375302-311538.jpg,2460547508-51571.jpg,3.0,,,,ATO97EQDSSE7U
1010,55,,1.0,35.0,2898632385-217137.jpg,2238360884-87525.jpg,1.0,,,,ATO97EQDSSE7U
1011,56,,1.0,36.0,2446760524-123999.jpg,2238539138-29878.jpg,3.0,,,,ATO97EQDSSE7U
1012,57,,1.0,37.0,2964216465-219242.jpg,2592380049-131079.jpg,1.0,,,,ATO97EQDSSE7U
1013,58,,0.0,38.0,right.jpg,,,right,,,ATO97EQDSSE7U
1014,59,,1.0,39.0,2883254439-140940.jpg,2452380166-273110.jpg,1.0,,,,ATO97EQDSSE7U
1015,60,,1.0,40.0,2449442529-124446.jpg,2868469458-64561.jpg,2.0,,,,ATO97EQDSSE7U
1016,61,,1.0,41.0,2964224310-219527.jpg,2238490590-169598.jpg,3.0,,,,ATO97EQDSSE7U
1017,62,,1.0,42.0,2898617468-68274.jpg,2512875899-126682.jpg,1.0,,,,ATO97EQDSSE7U
1018,63,,1.0,43.0,2238584869-113153.jpg,2986455373-73646.jpg,3.0,,,,ATO97EQDSSE7U
1019,64,,1.0,44.0,2964209380-218956.jpg,2868488456-288710.jpg,1.0,,,,ATO97EQDSSE7U
1020,65,,1.0,45.0,2883255450-215309.jpg,2238562336-256366.jpg,3.0,,,,ATO97EQDSSE7U
1021,66,,1.0,46.0,2238584018-38513.jpg,2449443163-50093.jpg,1.0,,,,ATO97EQDSSE7U
1022,67,,1.0,47.0,2238126735-154721.jpg,2575122854-130480.jpg,2.0,,,,ATO97EQDSSE7U
1023,68,,1.0,48.0,2901941426-292805.jpg,2868488422-363715.jpg,1.0,,,,ATO97EQDSSE7U
1024,69,,1.0,49.0,2898635427-367120.jpg,2901936309-143207.jpg,3.0,,,,ATO97EQDSSE7U
1025,70,,1.0,50.0,2238429999-90218.jpg,2964222378-71332.jpg,3.0,,,,ATO97EQDSSE7U
1026,71,,1.0,51.0,2994405328-74628.jpg,2883273443-68192.jpg,3.0,,,,ATO97EQDSSE7U
1027,72,,1.0,52.0,2986400320-221190.jpg,2238538133-29662.jpg,3.0,,,,ATO97EQDSSE7U
1028,73,left,1.0,53.0,left.jpg,,,left,1.7949,,ATO97EQDSSE7U
1029,74,,1.0,54.0,2238129579-80916.jpg,2898618444-142233.jpg,2.0,,,,ATO97EQDSSE7U
1030,75,,1.0,55.0,2238561223-33794.jpg,2238506233-23904.jpg,1.0,,,,ATO97EQDSSE7U
1031,76,,1.0,56.0,2238496457-319749.jpg,2592380234-131135.jpg,2.0,,,,ATO97EQDSSE7U
1032,77,,1.0,57.0,2446758985-197609.jpg,2898633421-291973.jpg,1.0,,,,ATO97EQDSSE7U
1033,78,,1.0,58.0,2238480434-93829.jpg,2804906319-133082.jpg,1.0,,,,ATO97EQDSSE7U
1034,79,,1.0,59.0,2864906345-212360.jpg,2994403305-222559.jpg,3.0,,,,ATO97EQDSSE7U
1035,80,,1.0,60.0,2446759803-49249.jpg,2592380177-354629.jpg,1.0,,,,ATO97EQDSSE7U
1036,81,,1.0,61.0,2238550049-105691.jpg,2449443271-272729.jpg,2.0,,,,ATO97EQDSSE7U
1037,82,,1.0,62.0,2898624426-291546.jpg,2864902304-137862.jpg,3.0,,,,ATO97EQDSSE7U
1038,83,,1.0,63.0,2575964140-205050.jpg,2238482920-168428.jpg,1.0,,,,ATO97EQDSSE7U
1039,84,,1.0,64.0,2981231446-294731.jpg,2986450330-221526.jpg,1.0,,,,ATO97EQDSSE7U
1040,20,,1.0,0.0,2238584018-38513.jpg,2449443163-50093.jpg,1.0,,,,A2FFCQ9WU6R764
1041,21,,1.0,1.0,2446760940-198145.jpg,2449443300-198739.jpg,1.0,,,,A2FFCQ9WU6R764
1042,22,,1.0,2.0,2883255450-215309.jpg,2868476439-138927.jpg,2.0,,,,A2FFCQ9WU6R764
1043,23,,1.0,3.0,2883254439-140941.jpg,2417207511-266975.jpg,3.0,,,,A2FFCQ9WU6R764
1044,24,,1.0,4.0,2864906345-212360.jpg,2238087237-303447.jpg,2.0,,,,A2FFCQ9WU6R764
1045,25,,1.0,5.0,2238584869-113153.jpg,2981241419-145844.jpg,2.0,,,,A2FFCQ9WU6R764
1046,26,,1.0,6.0,2883254439-140940.jpg,2575121890-204630.jpg,2.0,,,,A2FFCQ9WU6R764
1047,27,,1.0,7.0,2452380166-273109.jpg,2238380901-236499.jpg,3.0,,,,A2FFCQ9WU6R764
1048,28,,1.0,8.0,2238375302-311538.jpg,2460547508-51571.jpg,3.0,,,,A2FFCQ9WU6R764
1049,29,,1.0,9.0,2986400320-221190.jpg,2989727350-222011.jpg,1.0,,,,A2FFCQ9WU6R764
1050,30,,1.0,10.0,2460547467-349421.jpg,2901934573-69336.jpg,1.0,,,,A2FFCQ9WU6R764
1051,31,,1.0,11.0,2898617468-68274.jpg,2512875899-126682.jpg,1.0,,,,A2FFCQ9WU6R764
1052,32,,1.0,12.0,2331570830-189984.jpg,2446760483-49429.jpg,1.0,,,,A2FFCQ9WU6R764
1053,33,,1.0,13.0,2238575092-334269.jpg,2592380285-205564.jpg,1.0,,,,A2FFCQ9WU6R764
1054,34,,0.0,14.0,left.jpg,,,left,,,A2FFCQ9WU6R764
1055,35,,1.0,15.0,2883272438-68133.jpg,2237949408-4018.jpg,1.0,,,,A2FFCQ9WU6R764
1056,36,,1.0,16.0,2238129579-80916.jpg,2460547477-349426.jpg,1.0,,,,A2FFCQ9WU6R764
1057,37,,1.0,17.0,2964213381-294061.jpg,2238433340-164524.jpg,1.0,,,,A2FFCQ9WU6R764
1058,38,,1.0,18.0,2238516618-25604.jpg,2862686459-136888.jpg,2.0,,,,A2FFCQ9WU6R764
1059,39,,1.0,19.0,2868475410-213219.jpg,2238216693-10721.jpg,1.0,,,,A2FFCQ9WU6R764
1060,40,,1.0,20.0,2901938432-367627.jpg,2424122568-45517.jpg,3.0,,,,A2FFCQ9WU6R764
1061,41,,1.0,21.0,2238496457-319749.jpg,2592380234-131135.jpg,2.0,,,,A2FFCQ9WU6R764
1062,42,,1.0,22.0,2964218374-144968.jpg,2238525773-27014.jpg,3.0,,,,A2FFCQ9WU6R764
1063,43,left,1.0,23.0,left.jpg,,,left,2.5396,,A2FFCQ9WU6R764
1064,44,,1.0,24.0,2446760524-123999.jpg,2238552469-106359.jpg,2.0,,,,A2FFCQ9WU6R764
1065,45,,1.0,25.0,2238429999-90218.jpg,2964222378-71332.jpg,3.0,,,,A2FFCQ9WU6R764
1066,46,right,1.0,26.0,right.jpg,,,right,2.1998,,A2FFCQ9WU6R764
1067,47,,1.0,27.0,2901934573-69337.jpg,2986401333-73218.jpg,1.0,,,,A2FFCQ9WU6R764
1068,48,,1.0,28.0,2238471391-240918.jpg,2986399339-146857.jpg,3.0,,,,A2FFCQ9WU6R764
1069,49,,1.0,29.0,2981231446-294731.jpg,2417207297-342139.jpg,3.0,,,,A2FFCQ9WU6R764
1070,50,,1.0,30.0,2274829821-263682.jpg,2862687442-360837.jpg,3.0,,,,A2FFCQ9WU6R764
1071,51,,1.0,31.0,2862691449-137104.jpg,2238328478-11678.jpg,3.0,,,,A2FFCQ9WU6R764
1072,52,,1.0,32.0,2964224310-219527.jpg,2238490590-169598.jpg,3.0,,,,A2FFCQ9WU6R764
1073,53,,1.0,33.0,2238499155-170911.jpg,2238373603-13733.jpg,3.0,,,,A2FFCQ9WU6R764
1074,54,,1.0,34.0,2986408352-371293.jpg,2856916345-210056.jpg,3.0,,,,A2FFCQ9WU6R764
1075,55,,1.0,35.0,2512876023-52283.jpg,2898636443-69154.jpg,2.0,,,,A2FFCQ9WU6R764
1076,56,,1.0,36.0,2575964140-205050.jpg,2238547522-328488.jpg,2.0,,,,A2FFCQ9WU6R764
1077,57,,1.0,37.0,2898635427-367120.jpg,2238436632-314069.jpg,1.0,,,,A2FFCQ9WU6R764
1078,58,,1.0,38.0,2964213381-294060.jpg,2238520921-248323.jpg,2.0,,,,A2FFCQ9WU6R764
1079,59,,1.0,39.0,2238521193-26286.jpg,2825712309-134957.jpg,1.0,,,,A2FFCQ9WU6R764
1080,60,,1.0,40.0,2883255450-215311.jpg,2868485399-139476.jpg,2.0,,,,A2FFCQ9WU6R764
1081,61,right,1.0,41.0,right.jpg,,,right,1.4146,,A2FFCQ9WU6R764
1082,62,,1.0,42.0,2625337302-355866.jpg,2238478760-167789.jpg,2.0,,,,A2FFCQ9WU6R764
1083,63,,1.0,43.0,2964209380-218956.jpg,2898631429-142736.jpg,2.0,,,,A2FFCQ9WU6R764
1084,64,,1.0,44.0,2864909447-362146.jpg,2238555799-106905.jpg,2.0,,,,A2FFCQ9WU6R764
1085,65,,1.0,45.0,2592380138-56727.jpg,2238537701-251772.jpg,3.0,,,,A2FFCQ9WU6R764
1086,66,,1.0,46.0,2446758985-197609.jpg,2635396318-58409.jpg,2.0,,,,A2FFCQ9WU6R764
1087,67,,1.0,47.0,2898632385-217138.jpg,2575120738-55529.jpg,1.0,,,,A2FFCQ9WU6R764
1088,68,right,1.0,48.0,right.jpg,,,right,1.0458,,A2FFCQ9WU6R764
1089,69,,1.0,49.0,2898632385-217137.jpg,2238480803-19739.jpg,2.0,,,,A2FFCQ9WU6R764
1090,70,,1.0,50.0,2579432576-279079.jpg,2458348144-125787.jpg,3.0,,,,A2FFCQ9WU6R764
1091,71,,1.0,51.0,2449442529-124446.jpg,2868469458-64561.jpg,2.0,,,,A2FFCQ9WU6R764
1092,72,,1.0,52.0,2868485396-288511.jpg,2868470456-287597.jpg,1.0,,,,A2FFCQ9WU6R764
1093,73,,1.0,53.0,2238480434-93829.jpg,2238479903-19596.jpg,3.0,,,,A2FFCQ9WU6R764
1094,74,,1.0,54.0,2238126735-154721.jpg,2901951430-218724.jpg,3.0,,,,A2FFCQ9WU6R764
1095,75,,1.0,55.0,2964216465-219242.jpg,2446760917-347439.jpg,3.0,,,,A2FFCQ9WU6R764
1096,76,,1.0,56.0,2238550049-105691.jpg,2238482972-317759.jpg,1.0,,,,A2FFCQ9WU6R764
1097,77,,1.0,57.0,2898624426-291546.jpg,2864902304-137862.jpg,3.0,,,,A2FFCQ9WU6R764
1098,78,,1.0,58.0,2238561223-33794.jpg,2592380177-354626.jpg,2.0,,,,A2FFCQ9WU6R764
1099,79,,1.0,59.0,2901941426-292805.jpg,2868488422-363715.jpg,1.0,,,,A2FFCQ9WU6R764
1100,80,,1.0,60.0,2994405328-74628.jpg,2417206274-118542.jpg,1.0,,,,A2FFCQ9WU6R764
1101,81,,1.0,61.0,2901939379-143479.jpg,2449443292-348022.jpg,2.0,,,,A2FFCQ9WU6R764
1102,82,,1.0,62.0,2898626385-216899.jpg,2449442365-198476.jpg,2.0,,,,A2FFCQ9WU6R764
1103,83,,1.0,63.0,2446759803-49249.jpg,2238498786-244797.jpg,3.0,,,,A2FFCQ9WU6R764
1104,84,,1.0,64.0,2898633480-217190.jpg,2446760147-347245.jpg,1.0,,,,A2FFCQ9WU6R764
1105,20,,1.0,0.0,2901939379-143479.jpg,2986450334-147215.jpg,1.0,,,,AMBZATQDG38V0
1106,21,,1.0,1.0,2898632385-217138.jpg,2273188118-40829.jpg,2.0,,,,AMBZATQDG38V0
1107,22,,1.0,2.0,2883254439-140940.jpg,2575121890-204630.jpg,2.0,,,,AMBZATQDG38V0
1108,23,,1.0,3.0,2449442529-124446.jpg,2238481610-168214.jpg,1.0,,,,AMBZATQDG38V0
1109,24,,1.0,4.0,2446760940-198145.jpg,2592380188-56743.jpg,2.0,,,,AMBZATQDG38V0
1110,25,,1.0,5.0,2238126735-154721.jpg,2575122854-130480.jpg,2.0,,,,AMBZATQDG38V0
1111,26,,1.0,6.0,2964213381-294060.jpg,2989724308-73930.jpg,3.0,,,,AMBZATQDG38V0
1112,27,,1.0,7.0,2862691449-137104.jpg,2238540598-30035.jpg,1.0,,,,AMBZATQDG38V0
1113,28,,1.0,8.0,2238499155-170911.jpg,2238373603-13733.jpg,3.0,,,,AMBZATQDG38V0
1114,29,,1.0,9.0,2238584018-38513.jpg,2449443163-50093.jpg,1.0,,,,AMBZATQDG38V0
1115,30,,1.0,10.0,2864906345-212360.jpg,2238087237-303447.jpg,2.0,,,,AMBZATQDG38V0
1116,31,,1.0,11.0,2331570830-189984.jpg,2458348012-349114.jpg,3.0,,,,AMBZATQDG38V0
1117,32,,1.0,12.0,2625337302-355866.jpg,2425492472-343825.jpg,1.0,,,,AMBZATQDG38V0
1118,33,,0.0,13.0,left.jpg,,,left,,,AMBZATQDG38V0
1119,34,,1.0,14.0,2238471391-240918.jpg,2986399339-146857.jpg,3.0,,,,AMBZATQDG38V0
1120,35,,1.0,15.0,2238375302-311538.jpg,2460547508-51571.jpg,3.0,,,,AMBZATQDG38V0
1121,36,,1.0,16.0,2901934573-69337.jpg,2901936407-367476.jpg,3.0,,,,AMBZATQDG38V0
1122,37,,1.0,17.0,2868475410-213219.jpg,2575964140-205051.jpg,2.0,,,,AMBZATQDG38V0
1123,38,,1.0,18.0,2898632385-217137.jpg,2864904453-63932.jpg,3.0,,,,AMBZATQDG38V0
1124,39,,1.0,19.0,2446760524-123999.jpg,2446760621-272102.jpg,1.0,,,,AMBZATQDG38V0
1125,40,,1.0,20.0,2446759803-49249.jpg,2238468265-166556.jpg,2.0,,,,AMBZATQDG38V0
1126,41,,1.0,21.0,2238550049-105691.jpg,2964219468-71238.jpg,3.0,,,,AMBZATQDG38V0
1127,42,,1.0,22.0,2883254439-140941.jpg,2417207511-266975.jpg,3.0,,,,AMBZATQDG38V0
1128,43,,0.0,23.0,left.jpg,,,left,,,AMBZATQDG38V0
1129,44,,1.0,24.0,2868485396-288511.jpg,2868470456-287597.jpg,1.0,,,,AMBZATQDG38V0
1130,45,,1.0,25.0,2452380166-273109.jpg,2592379781-279345.jpg,2.0,,,,AMBZATQDG38V0
1131,46,,1.0,26.0,2898635427-367120.jpg,2901936309-143207.jpg,3.0,,,,AMBZATQDG38V0
1132,47,,1.0,27.0,2898633480-217190.jpg,2237858043-1434.jpg,3.0,,,,AMBZATQDG38V0
1133,48,,1.0,28.0,2575964140-205050.jpg,2238482920-168428.jpg,1.0,,,,AMBZATQDG38V0
1134,49,,1.0,29.0,2592380138-56727.jpg,2986419351-296471.jpg,1.0,,,,AMBZATQDG38V0
1135,50,,1.0,30.0,2964218374-144968.jpg,2238521157-323782.jpg,2.0,,,,AMBZATQDG38V0
1136,51,,1.0,31.0,2964213381-294061.jpg,2238433340-164524.jpg,1.0,,,,AMBZATQDG38V0
1137,52,,1.0,32.0,2446758985-197609.jpg,2635396318-58409.jpg,2.0,,,,AMBZATQDG38V0
1138,53,,1.0,33.0,2238496457-319749.jpg,2238570142-333223.jpg,1.0,,,,AMBZATQDG38V0
1139,54,right,1.0,34.0,right.jpg,,,right,1.977,,AMBZATQDG38V0
1140,55,,1.0,35.0,2238516618-25604.jpg,2862686459-136888.jpg,2.0,,,,AMBZATQDG38V0
1141,56,,1.0,36.0,2981231446-294731.jpg,2417207297-342139.jpg,3.0,,,,AMBZATQDG38V0
1142,57,,1.0,37.0,2994405328-74628.jpg,2883273443-68192.jpg,3.0,,,,AMBZATQDG38V0
1143,58,,1.0,38.0,2238429999-90218.jpg,2964222378-71332.jpg,3.0,,,,AMBZATQDG38V0
1144,59,,1.0,39.0,2964224310-219527.jpg,2964213441-294073.jpg,2.0,,,,AMBZATQDG38V0
1145,60,,1.0,40.0,2238480434-93829.jpg,2238479903-19596.jpg,3.0,,,,AMBZATQDG38V0
1146,61,,1.0,41.0,2238129579-80916.jpg,2460547477-349426.jpg,1.0,,,,AMBZATQDG38V0
1147,62,,1.0,42.0,2898617468-68274.jpg,2862684406-285700.jpg,3.0,,,,AMBZATQDG38V0
1148,63,,1.0,43.0,2460547467-349421.jpg,2901934573-69336.jpg,1.0,,,,AMBZATQDG38V0
1149,64,right,1.0,44.0,right.jpg,,,right,1.881,,AMBZATQDG38V0
1150,65,,1.0,45.0,2512876023-52283.jpg,2898636443-69154.jpg,2.0,,,,AMBZATQDG38V0
1151,66,left,1.0,46.0,left.jpg,,,left,1.269,,AMBZATQDG38V0
1152,67,,1.0,47.0,2964209380-218956.jpg,2868488456-288710.jpg,1.0,,,,AMBZATQDG38V0
1153,68,,1.0,48.0,2238561223-33794.jpg,2592380177-354626.jpg,2.0,,,,AMBZATQDG38V0
1154,69,,1.0,49.0,2883255450-215309.jpg,2868476439-138927.jpg,2.0,,,,AMBZATQDG38V0
1155,70,,1.0,50.0,2901941426-292805.jpg,2868488422-363715.jpg,1.0,,,,AMBZATQDG38V0
1156,71,,1.0,51.0,2883272438-68133.jpg,2901936369-143233.jpg,2.0,,,,AMBZATQDG38V0
1157,72,,1.0,52.0,2986408352-371293.jpg,2856916345-210056.jpg,3.0,,,,AMBZATQDG38V0
1158,73,,1.0,53.0,2238575092-334269.jpg,2860304305-210777.jpg,2.0,,,,AMBZATQDG38V0
1159,74,,1.0,54.0,2898624426-291546.jpg,2549106844-127878.jpg,2.0,,,,AMBZATQDG38V0
1160,75,,1.0,55.0,2964216465-219242.jpg,2592380049-131079.jpg,1.0,,,,AMBZATQDG38V0
1161,76,,1.0,56.0,2864909447-362146.jpg,2874316384-140749.jpg,1.0,,,,AMBZATQDG38V0
1162,77,,1.0,57.0,2901938432-367627.jpg,2579432708-56394.jpg,1.0,,,,AMBZATQDG38V0
1163,78,,1.0,58.0,2898626385-216899.jpg,2898618440-216545.jpg,3.0,,,,AMBZATQDG38V0
1164,79,,1.0,59.0,2883255450-215311.jpg,2575964014-130589.jpg,3.0,,,,AMBZATQDG38V0
1165,80,,1.0,60.0,2238584869-113153.jpg,2986455373-73646.jpg,3.0,,,,AMBZATQDG38V0
1166,81,,1.0,61.0,2238521193-26286.jpg,2825712309-134957.jpg,1.0,,,,AMBZATQDG38V0
1167,82,,1.0,62.0,2986400320-221190.jpg,2238470979-92615.jpg,2.0,,,,AMBZATQDG38V0
1168,83,,1.0,63.0,2579432576-279079.jpg,2901934574-143126.jpg,1.0,,,,AMBZATQDG38V0
1169,84,,1.0,64.0,2274829821-263682.jpg,2446758985-197610.jpg,2.0,,,,AMBZATQDG38V0
1170,20,,1.0,0.0,2901938432-367627.jpg,2856919327-359675.jpg,2.0,,,,AWG17Q6SD22GM
1171,21,,1.0,1.0,2452380166-273109.jpg,2592379781-279345.jpg,2.0,,,,AWG17Q6SD22GM
1172,22,,1.0,2.0,2964209380-218956.jpg,2898617396-291219.jpg,3.0,,,,AWG17Q6SD22GM
1173,23,,1.0,3.0,2868485396-288511.jpg,2868470456-287597.jpg,1.0,,,,AWG17Q6SD22GM
1174,24,,1.0,4.0,2986408352-371293.jpg,2856916345-210056.jpg,3.0,,,,AWG17Q6SD22GM
1175,25,,1.0,5.0,2238584869-113153.jpg,2986455373-73646.jpg,3.0,,,,AWG17Q6SD22GM
1176,26,,1.0,6.0,2446760524-123999.jpg,2446760621-272102.jpg,1.0,,,,AWG17Q6SD22GM
1177,27,right,1.0,7.0,right.jpg,,,right,0.5411,,AWG17Q6SD22GM
1178,28,,1.0,8.0,2981231446-294731.jpg,2986450330-221526.jpg,1.0,,,,AWG17Q6SD22GM
1179,29,,1.0,9.0,2898632385-217137.jpg,2864904453-63932.jpg,3.0,,,,AWG17Q6SD22GM
1180,30,,1.0,10.0,2238550049-105691.jpg,2449443271-272729.jpg,2.0,,,,AWG17Q6SD22GM
1181,31,,1.0,11.0,2238584018-38513.jpg,2449443163-50093.jpg,1.0,,,,AWG17Q6SD22GM
1182,32,,1.0,12.0,2446760940-198145.jpg,2446760692-347392.jpg,3.0,,,,AWG17Q6SD22GM
1183,33,,1.0,13.0,2964213381-294061.jpg,2238433340-164524.jpg,1.0,,,,AWG17Q6SD22GM
1184,34,,1.0,14.0,2238480434-93829.jpg,2592380255-205551.jpg,2.0,,,,AWG17Q6SD22GM
1185,35,,1.0,15.0,2446759803-49249.jpg,2238468265-166556.jpg,2.0,,,,AWG17Q6SD22GM
1186,36,left,1.0,16.0,left.jpg,,,left,1.3729,,AWG17Q6SD22GM
1187,37,,1.0,17.0,2579432576-279079.jpg,2901934574-143126.jpg,1.0,,,,AWG17Q6SD22GM
1188,38,,1.0,18.0,2898635427-367120.jpg,2237941457-301342.jpg,2.0,,,,AWG17Q6SD22GM
1189,39,,1.0,19.0,2868475410-213219.jpg,2238216693-10721.jpg,1.0,,,,AWG17Q6SD22GM
1190,40,,1.0,20.0,2898632385-217138.jpg,2273188118-40829.jpg,2.0,,,,AWG17Q6SD22GM
1191,41,,1.0,21.0,2883254439-140940.jpg,2812983311-281946.jpg,3.0,,,,AWG17Q6SD22GM
1192,42,,1.0,22.0,2898617468-68274.jpg,2512875899-126682.jpg,1.0,,,,AWG17Q6SD22GM
1193,43,,1.0,23.0,2898633480-217190.jpg,2446760147-347245.jpg,1.0,,,,AWG17Q6SD22GM
1194,44,,1.0,24.0,2901939379-143479.jpg,2449443292-348022.jpg,2.0,,,,AWG17Q6SD22GM
1195,45,,1.0,25.0,2238575092-334269.jpg,2964218374-144967.jpg,3.0,,,,AWG17Q6SD22GM
1196,46,,1.0,26.0,2238375302-311538.jpg,2460547508-51571.jpg,3.0,,,,AWG17Q6SD22GM
1197,47,left,1.0,27.0,left.jpg,,,left,1.048,,AWG17Q6SD22GM
1198,48,,1.0,28.0,2986400320-221190.jpg,2989727350-222011.jpg,1.0,,,,AWG17Q6SD22GM
1199,49,,1.0,29.0,2964213381-294060.jpg,2238520921-248323.jpg,2.0,,,,AWG17Q6SD22GM
1200,50,,1.0,30.0,2883254439-140941.jpg,2237965109-79314.jpg,2.0,,,,AWG17Q6SD22GM
1201,51,,1.0,31.0,2964218374-144968.jpg,2238525773-27014.jpg,3.0,,,,AWG17Q6SD22GM
1202,52,,1.0,32.0,2238561223-33794.jpg,2883271323-68049.jpg,3.0,,,,AWG17Q6SD22GM
1203,53,,1.0,33.0,2238129579-80916.jpg,2460547477-349426.jpg,1.0,,,,AWG17Q6SD22GM
1204,54,,1.0,34.0,2901941426-292805.jpg,2238510189-98616.jpg,2.0,,,,AWG17Q6SD22GM
1205,55,,1.0,35.0,2864906345-212360.jpg,2238087237-303447.jpg,2.0,,,,AWG17Q6SD22GM
1206,56,,1.0,36.0,2446758985-197609.jpg,2898633421-291973.jpg,1.0,,,,AWG17Q6SD22GM
1207,57,,1.0,37.0,2238499155-170911.jpg,2446760621-272103.jpg,1.0,,,,AWG17Q6SD22GM
1208,58,,1.0,38.0,2883272438-68133.jpg,2592380136-279476.jpg,3.0,,,,AWG17Q6SD22GM
1209,59,,1.0,39.0,2460547467-349421.jpg,2238554179-106663.jpg,3.0,,,,AWG17Q6SD22GM
1210,60,,1.0,40.0,2274829821-263682.jpg,2238570526-257884.jpg,1.0,,,,AWG17Q6SD22GM
1211,61,left,1.0,41.0,left.jpg,,,left,0.4637,,AWG17Q6SD22GM
1212,62,,1.0,42.0,2964216465-219242.jpg,2592380049-131079.jpg,1.0,,,,AWG17Q6SD22GM
1213,63,,1.0,43.0,2625337302-355866.jpg,2598726160-205998.jpg,3.0,,,,AWG17Q6SD22GM
1214,64,,1.0,44.0,2592380138-56727.jpg,2238537701-251772.jpg,3.0,,,,AWG17Q6SD22GM
1215,65,,1.0,45.0,2238516618-25604.jpg,2238470979-92618.jpg,3.0,,,,AWG17Q6SD22GM
1216,66,,1.0,46.0,2898626385-216899.jpg,2449442365-198476.jpg,2.0,,,,AWG17Q6SD22GM
1217,67,,1.0,47.0,2883255450-215309.jpg,2238429999-90216.jpg,1.0,,,,AWG17Q6SD22GM
1218,68,,1.0,48.0,2512876023-52283.jpg,2238576267-334532.jpg,3.0,,,,AWG17Q6SD22GM
1219,69,left,1.0,49.0,left.jpg,,,left,0.4724,,AWG17Q6SD22GM
1220,70,,1.0,50.0,2862691449-137104.jpg,2986455341-296758.jpg,2.0,,,,AWG17Q6SD22GM
1221,71,,1.0,51.0,2898624426-291546.jpg,2864902304-137862.jpg,3.0,,,,AWG17Q6SD22GM
1222,72,,1.0,52.0,2994405328-74628.jpg,2825702353-60662.jpg,2.0,,,,AWG17Q6SD22GM
1223,73,,1.0,53.0,2449442529-124446.jpg,2238481610-168214.jpg,1.0,,,,AWG17Q6SD22GM
1224,74,,1.0,54.0,2575964140-205050.jpg,2446760226-272005.jpg,3.0,,,,AWG17Q6SD22GM
1225,75,,1.0,55.0,2864909447-362146.jpg,2874316384-140749.jpg,1.0,,,,AWG17Q6SD22GM
1226,76,,1.0,56.0,2238521193-26286.jpg,2825712309-134957.jpg,1.0,,,,AWG17Q6SD22GM
1227,77,,1.0,57.0,2238496457-319749.jpg,2592380234-131135.jpg,2.0,,,,AWG17Q6SD22GM
1228,78,,1.0,58.0,2901934573-69337.jpg,2901936407-367476.jpg,3.0,,,,AWG17Q6SD22GM
1229,79,,1.0,59.0,2964224310-219527.jpg,2964213441-294073.jpg,2.0,,,,AWG17Q6SD22GM
1230,80,,1.0,60.0,2238126735-154721.jpg,2856919327-359676.jpg,1.0,,,,AWG17Q6SD22GM
1231,81,,1.0,61.0,2238471391-240918.jpg,2901943388-69995.jpg,2.0,,,,AWG17Q6SD22GM
1232,82,,1.0,62.0,2883255450-215311.jpg,2868485399-139476.jpg,2.0,,,,AWG17Q6SD22GM
1233,83,,1.0,63.0,2238429999-90218.jpg,2901951459-144433.jpg,2.0,,,,AWG17Q6SD22GM
1234,84,,1.0,64.0,2331570830-189984.jpg,2458348012-349114.jpg,3.0,,,,AWG17Q6SD22GM
1235,20,,1.0,0.0,2238375302-311538.jpg,2460547508-51571.jpg,3.0,,,,A23R1XDY6N3XK2
1236,21,,1.0,1.0,2512876023-52283.jpg,2238576267-334532.jpg,3.0,,,,A23R1XDY6N3XK2
1237,22,,1.0,2.0,2238471391-240918.jpg,2901943388-69995.jpg,2.0,,,,A23R1XDY6N3XK2
1238,23,,1.0,3.0,2986408352-371293.jpg,2446759580-197801.jpg,2.0,,,,A23R1XDY6N3XK2
1239,24,,1.0,4.0,2446759803-49249.jpg,2592380177-354629.jpg,1.0,,,,A23R1XDY6N3XK2
1240,25,,1.0,5.0,2898632385-217138.jpg,2460547992-349586.jpg,3.0,,,,A23R1XDY6N3XK2
