button.numClicks,button.timesOn,button.timesOff,workID,Age,Gender,Hours slept (last night),date,expName,psychopyVersion,OS,frameRate,space_key_responce.keys,space_key_responce.rt,demo_encoding_response.keys,demo_encoding_response.corr,demo_encoding_loop.thisRepN,demo_encoding_loop.thisTrialN,demo_encoding_loop.thisN,demo_encoding_loop.thisIndex,demo_encoding_loop.ran,DemoImage,DemoCorrect,demo_encoding_response.rt,demo_test_response.keys,demo_test_response.corr,demo_test_response.rt,demo_test_loop.thisRepN,demo_test_loop.thisTrialN,demo_test_loop.thisN,demo_test_loop.thisIndex,demo_test_loop.ran,DemoImage1,DemoImage2,DemoCorrectTest,test_encoding_response.keys,test_encoding_response.corr,trials.thisRepN,trials.thisTrialN,trials.thisN,trials.thisIndex,trials.ran,target_image,pair,layer,correct,test_encoding_response.rt,key_resp_end.keys,key_resp_end.rt,test_test_response.keys,test_test_response.corr,test_test_response.rt,trials_2.thisRepN,trials_2.thisTrialN,trials_2.thisN,trials_2.thisIndex,trials_2.ran,image1,image2,key_resp_end_2.keys,key_resp_end_2.rt
1,[3.847999999999999],[3.847999999999999],A26M997VYVK0E6,35,male,5,2022-12-12_07h10.50.382,memory_pilot_most_recent,2022.2.4,Win32,60.0240096,,,,,,,,,,,,,,,,,,,,,,,,,,,,,,,,,,,,,,,,,,,,,,,,,
,,,A26M997VYVK0E6,35,male,5,2022-12-12_07h10.50.382,memory_pilot_most_recent,2022.2.4,Win32,60.0240096,,,,,,,,,,,,,,,,,,,,,,,,,,,,,,,,,,,,,,,,,,,,,,,,,
,,,A26M997VYVK0E6,35,male,5,2022-12-12_07h10.50.382,memory_pilot_most_recent,2022.2.4,Win32,60.0240096,space,4.408,,,,,,,,,,,,,,,,,,,,,,,,,,,,,,,,,,,,,,,,,,,,,,,
,,,A26M997VYVK0E6,35,male,5,2022-12-12_07h10.50.382,memory_pilot_most_recent,2022.2.4,Win32,60.0240096,,,,,,,,,,,,,,,,,,,,,,,,,,,,,,,,,,,,,,,,,,,,,,,,,
,,,A26M997VYVK0E6,35,male,5,2022-12-12_07h10.50.382,memory_pilot_most_recent,2022.2.4,Win32,60.0240096,,,,1,0,0,0,0,1,flower1.jpg,,,,,,,,,,,,,,,,,,,,,,,,,,,,,,,,,,,,,,,
,,,A26M997VYVK0E6,35,male,5,2022-12-12_07h10.50.382,memory_pilot_most_recent,2022.2.4,Win32,60.0240096,,,,1,0,1,1,1,1,flower2.jpg,,,,,,,,,,,,,,,,,,,,,,,,,,,,,,,,,,,,,,,
,,,A26M997VYVK0E6,35,male,5,2022-12-12_07h10.50.382,memory_pilot_most_recent,2022.2.4,Win32,60.0240096,,,left,1,0,2,2,2,1,left.jpg,left,1.007,,,,,,,,,,,,,,,,,,,,,,,,,,,,,,,,,,,,,
,,,A26M997VYVK0E6,35,male,5,2022-12-12_07h10.50.382,memory_pilot_most_recent,2022.2.4,Win32,60.0240096,,,,1,0,3,3,3,1,flower3.jpg,,,,,,,,,,,,,,,,,,,,,,,,,,,,,,,,,,,,,,,
,,,A26M997VYVK0E6,35,male,5,2022-12-12_07h10.50.382,memory_pilot_most_recent,2022.2.4,Win32,60.0240096,,,,1,0,4,4,4,1,flower4.jpg,,,,,,,,,,,,,,,,,,,,,,,,,,,,,,,,,,,,,,,
,,,A26M997VYVK0E6,35,male,5,2022-12-12_07h10.50.382,memory_pilot_most_recent,2022.2.4,Win32,60.0240096,,,,1,0,5,5,5,1,flower5.jpg,,,,,,,,,,,,,,,,,,,,,,,,,,,,,,,,,,,,,,,
,,,A26M997VYVK0E6,35,male,5,2022-12-12_07h10.50.382,memory_pilot_most_recent,2022.2.4,Win32,60.0240096,,,,1,0,6,6,6,1,flower6.jpg,,,,,,,,,,,,,,,,,,,,,,,,,,,,,,,,,,,,,,,
,,,A26M997VYVK0E6,35,male,5,2022-12-12_07h10.50.382,memory_pilot_most_recent,2022.2.4,Win32,60.0240096,,,,,,,,,,,,,,,,,,,,,,,,,,,,,,,,,,,,,,,,,,,,,,,,,
,,,A26M997VYVK0E6,35,male,5,2022-12-12_07h10.50.382,memory_pilot_most_recent,2022.2.4,Win32,60.0240096,,,,,,,,,,,,,left,1,1.598,0,0,0,0,1,flower1.jpg,flower1_pair.jpg,left,,,,,,,,,,,,,,,,,,,,,,,,,,
,,,A26M997VYVK0E6,35,male,5,2022-12-12_07h10.50.382,memory_pilot_most_recent,2022.2.4,Win32,60.0240096,,,,,,,,,,,,,right,1,1.651,0,1,1,1,1,flower2_pair.jpg,flower2.jpg,right,,,,,,,,,,,,,,,,,,,,,,,,,,
,,,A26M997VYVK0E6,35,male,5,2022-12-12_07h10.50.382,memory_pilot_most_recent,2022.2.4,Win32,60.0240096,,,,,,,,,,,,,left,1,1.57,0,2,2,2,1,flower3.jpg,flower3_pair.jpg,left,,,,,,,,,,,,,,,,,,,,,,,,,,
,,,A26M997VYVK0E6,35,male,5,2022-12-12_07h10.50.382,memory_pilot_most_recent,2022.2.4,Win32,60.0240096,,,,,,,,,,,,,left,1,1.304,0,3,3,3,1,flower4.jpg,flower4_pair.jpg,left,,,,,,,,,,,,,,,,,,,,,,,,,,
,,,A26M997VYVK0E6,35,male,5,2022-12-12_07h10.50.382,memory_pilot_most_recent,2022.2.4,Win32,60.0240096,,,,,,,,,,,,,right,1,3.02,0,4,4,4,1,flower5_pair.jpg,flower5.jpg,right,,,,,,,,,,,,,,,,,,,,,,,,,,
,,,A26M997VYVK0E6,35,male,5,2022-12-12_07h10.50.382,memory_pilot_most_recent,2022.2.4,Win32,60.0240096,,,,,,,,,,,,,left,1,2.056,0,5,5,5,1,flower6.jpg,flower6_pair.jpg,left,,,,,,,,,,,,,,,,,,,,,,,,,,
,,,A26M997VYVK0E6,35,male,5,2022-12-12_07h10.50.382,memory_pilot_most_recent,2022.2.4,Win32,60.0240096,,,,,,,,,,,,,,,,,,,,,,,,,,,,,,,,,,,,,,,,,,,,,,,,,
,,,A26M997VYVK0E6,35,male,5,2022-12-12_07h10.50.382,memory_pilot_most_recent,2022.2.4,Win32,60.0240096,space,1.304,,,,,,,,,,,,,,,,,,,,,,,,,,,,,,,,,,,,,,,,,,,,,,,
,,,A26M997VYVK0E6,35,male,5,2022-12-12_07h10.50.382,memory_pilot_most_recent,2022.2.4,Win32,60.0240096,,,,,,,,,,,,,,,,,,,,,,,,,1,0,0,0,0,1,2964216465-219242.jpg,2446760917-347439.jpg,3,,,,,,,,,,,,,,,,
,,,A26M997VYVK0E6,35,male,5,2022-12-12_07h10.50.382,memory_pilot_most_recent,2022.2.4,Win32,60.0240096,,,,,,,,,,,,,,,,,,,,,,,,,1,0,1,1,1,1,2452380166-273109.jpg,2452380171-273112.jpg,1,,,,,,,,,,,,,,,,
,,,A26M997VYVK0E6,35,male,5,2022-12-12_07h10.50.382,memory_pilot_most_recent,2022.2.4,Win32,60.0240096,,,,,,,,,,,,,,,,,,,,,,,,,1,0,2,2,2,1,2964218374-144968.jpg,2238411877-313125.jpg,1,,,,,,,,,,,,,,,,
,,,A26M997VYVK0E6,35,male,5,2022-12-12_07h10.50.382,memory_pilot_most_recent,2022.2.4,Win32,60.0240096,,,,,,,,,,,,,,,,,,,,,,,,,1,0,3,3,3,1,2986408352-371293.jpg,2856916345-210056.jpg,3,,,,,,,,,,,,,,,,
,,,A26M997VYVK0E6,35,male,5,2022-12-12_07h10.50.382,memory_pilot_most_recent,2022.2.4,Win32,60.0240096,,,,,,,,,,,,,,,,,,,,,,,,,1,0,4,4,4,1,2898626385-216899.jpg,2898618440-216545.jpg,3,,,,,,,,,,,,,,,,
,,,A26M997VYVK0E6,35,male,5,2022-12-12_07h10.50.382,memory_pilot_most_recent,2022.2.4,Win32,60.0240096,,,,,,,,,,,,,,,,,,,,,,,,,1,0,5,5,5,1,2901938432-367627.jpg,2856919327-359675.jpg,2,,,,,,,,,,,,,,,,
,,,A26M997VYVK0E6,35,male,5,2022-12-12_07h10.50.382,memory_pilot_most_recent,2022.2.4,Win32,60.0240096,,,,,,,,,,,,,,,,,,,,,,,,,1,0,6,6,6,1,2575964140-205050.jpg,2238482920-168428.jpg,1,,,,,,,,,,,,,,,,
,,,A26M997VYVK0E6,35,male,5,2022-12-12_07h10.50.382,memory_pilot_most_recent,2022.2.4,Win32,60.0240096,,,,,,,,,,,,,,,,,,,,,,,,,1,0,7,7,7,1,2238561223-33794.jpg,2592380177-354626.jpg,2,,,,,,,,,,,,,,,,
,,,A26M997VYVK0E6,35,male,5,2022-12-12_07h10.50.382,memory_pilot_most_recent,2022.2.4,Win32,60.0240096,,,,,,,,,,,,,,,,,,,,,,,,,1,0,8,8,8,1,2625337302-355866.jpg,2425492472-343825.jpg,1,,,,,,,,,,,,,,,,
,,,A26M997VYVK0E6,35,male,5,2022-12-12_07h10.50.382,memory_pilot_most_recent,2022.2.4,Win32,60.0240096,,,,,,,,,,,,,,,,,,,,,,,,,1,0,9,9,9,1,2238575092-334269.jpg,2964218374-144967.jpg,3,,,,,,,,,,,,,,,,
,,,A26M997VYVK0E6,35,male,5,2022-12-12_07h10.50.382,memory_pilot_most_recent,2022.2.4,Win32,60.0240096,,,,,,,,,,,,,,,,,,,,,,,,left,1,0,10,10,10,1,left.jpg,,,left,0.788,,,,,,,,,,,,,,
,,,A26M997VYVK0E6,35,male,5,2022-12-12_07h10.50.382,memory_pilot_most_recent,2022.2.4,Win32,60.0240096,,,,,,,,,,,,,,,,,,,,,,,,,1,0,11,11,11,1,2994405328-74628.jpg,2417206274-118542.jpg,1,,,,,,,,,,,,,,,,
,,,A26M997VYVK0E6,35,male,5,2022-12-12_07h10.50.382,memory_pilot_most_recent,2022.2.4,Win32,60.0240096,,,,,,,,,,,,,,,,,,,,,,,,,1,0,12,12,12,1,2512876023-52283.jpg,2238576267-334532.jpg,3,,,,,,,,,,,,,,,,
,,,A26M997VYVK0E6,35,male,5,2022-12-12_07h10.50.382,memory_pilot_most_recent,2022.2.4,Win32,60.0240096,,,,,,,,,,,,,,,,,,,,,,,,,1,0,13,13,13,1,2446760524-123999.jpg,2238552469-106359.jpg,2,,,,,,,,,,,,,,,,
,,,A26M997VYVK0E6,35,male,5,2022-12-12_07h10.50.382,memory_pilot_most_recent,2022.2.4,Win32,60.0240096,,,,,,,,,,,,,,,,,,,,,,,,,1,0,14,14,14,1,2238375302-311538.jpg,2460547508-51571.jpg,3,,,,,,,,,,,,,,,,
,,,A26M997VYVK0E6,35,male,5,2022-12-12_07h10.50.382,memory_pilot_most_recent,2022.2.4,Win32,60.0240096,,,,,,,,,,,,,,,,,,,,,,,,,1,0,15,15,15,1,2868485396-288511.jpg,2868472420-213024.jpg,2,,,,,,,,,,,,,,,,
,,,A26M997VYVK0E6,35,male,5,2022-12-12_07h10.50.382,memory_pilot_most_recent,2022.2.4,Win32,60.0240096,,,,,,,,,,,,,,,,,,,,,,,,,1,0,16,16,16,1,2864909447-362146.jpg,2874303453-66056.jpg,3,,,,,,,,,,,,,,,,
,,,A26M997VYVK0E6,35,male,5,2022-12-12_07h10.50.382,memory_pilot_most_recent,2022.2.4,Win32,60.0240096,,,,,,,,,,,,,,,,,,,,,,,,,1,0,17,17,17,1,2274829821-263682.jpg,2446758985-197610.jpg,2,,,,,,,,,,,,,,,,
,,,A26M997VYVK0E6,35,male,5,2022-12-12_07h10.50.382,memory_pilot_most_recent,2022.2.4,Win32,60.0240096,,,,,,,,,,,,,,,,,,,,,,,,,1,0,18,18,18,1,2446758985-197609.jpg,2898633421-291973.jpg,1,,,,,,,,,,,,,,,,
,,,A26M997VYVK0E6,35,male,5,2022-12-12_07h10.50.382,memory_pilot_most_recent,2022.2.4,Win32,60.0240096,,,,,,,,,,,,,,,,,,,,,,,,,1,0,19,19,19,1,2238129579-80916.jpg,2898618444-142233.jpg,2,,,,,,,,,,,,,,,,
,,,A26M997VYVK0E6,35,male,5,2022-12-12_07h10.50.382,memory_pilot_most_recent,2022.2.4,Win32,60.0240096,,,,,,,,,,,,,,,,,,,,,,,,,1,0,20,20,20,1,2238126735-154721.jpg,2856919327-359676.jpg,1,,,,,,,,,,,,,,,,
,,,A26M997VYVK0E6,35,male,5,2022-12-12_07h10.50.382,memory_pilot_most_recent,2022.2.4,Win32,60.0240096,,,,,,,,,,,,,,,,,,,,,,,,,1,0,21,21,21,1,2898624426-291546.jpg,2549106844-127878.jpg,2,,,,,,,,,,,,,,,,
,,,A26M997VYVK0E6,35,male,5,2022-12-12_07h10.50.382,memory_pilot_most_recent,2022.2.4,Win32,60.0240096,,,,,,,,,,,,,,,,,,,,,,,,,1,0,22,22,22,1,2238521193-26286.jpg,2825712309-134957.jpg,1,,,,,,,,,,,,,,,,
,,,A26M997VYVK0E6,35,male,5,2022-12-12_07h10.50.382,memory_pilot_most_recent,2022.2.4,Win32,60.0240096,,,,,,,,,,,,,,,,,,,,,,,,,1,0,23,23,23,1,2964213381-294061.jpg,2238433340-164524.jpg,1,,,,,,,,,,,,,,,,
,,,A26M997VYVK0E6,35,male,5,2022-12-12_07h10.50.382,memory_pilot_most_recent,2022.2.4,Win32,60.0240096,,,,,,,,,,,,,,,,,,,,,,,,right,1,0,24,24,24,1,right.jpg,,,right,0.902,,,,,,,,,,,,,,
,,,A26M997VYVK0E6,35,male,5,2022-12-12_07h10.50.382,memory_pilot_most_recent,2022.2.4,Win32,60.0240096,,,,,,,,,,,,,,,,,,,,,,,,,1,0,25,25,25,1,2238584869-113153.jpg,2986455373-73646.jpg,3,,,,,,,,,,,,,,,,
,,,A26M997VYVK0E6,35,male,5,2022-12-12_07h10.50.382,memory_pilot_most_recent,2022.2.4,Win32,60.0240096,,,,,,,,,,,,,,,,,,,,,,,,,1,0,26,26,26,1,2883255450-215311.jpg,2575964014-130589.jpg,3,,,,,,,,,,,,,,,,
,,,A26M997VYVK0E6,35,male,5,2022-12-12_07h10.50.382,memory_pilot_most_recent,2022.2.4,Win32,60.0240096,,,,,,,,,,,,,,,,,,,,,,,,,1,0,27,27,27,1,2460547467-349421.jpg,2901934573-69336.jpg,1,,,,,,,,,,,,,,,,
,,,A26M997VYVK0E6,35,male,5,2022-12-12_07h10.50.382,memory_pilot_most_recent,2022.2.4,Win32,60.0240096,,,,,,,,,,,,,,,,,,,,,,,,,1,0,28,28,28,1,2446760940-198145.jpg,2449443300-198739.jpg,1,,,,,,,,,,,,,,,,
,,,A26M997VYVK0E6,35,male,5,2022-12-12_07h10.50.382,memory_pilot_most_recent,2022.2.4,Win32,60.0240096,,,,,,,,,,,,,,,,,,,,,,,,,1,0,29,29,29,1,2901939379-143479.jpg,2864909422-362141.jpg,3,,,,,,,,,,,,,,,,
,,,A26M997VYVK0E6,35,male,5,2022-12-12_07h10.50.382,memory_pilot_most_recent,2022.2.4,Win32,60.0240096,,,,,,,,,,,,,,,,,,,,,,,,,1,0,30,30,30,1,2901941426-292805.jpg,2901945303-70125.jpg,3,,,,,,,,,,,,,,,,
,,,A26M997VYVK0E6,35,male,5,2022-12-12_07h10.50.382,memory_pilot_most_recent,2022.2.4,Win32,60.0240096,,,,,,,,,,,,,,,,,,,,,,,,,1,0,31,31,31,1,2868475410-213219.jpg,2238216693-10721.jpg,1,,,,,,,,,,,,,,,,
,,,A26M997VYVK0E6,35,male,5,2022-12-12_07h10.50.382,memory_pilot_most_recent,2022.2.4,Win32,60.0240096,,,,,,,,,,,,,,,,,,,,,,,,,1,0,32,32,32,1,2446759803-49249.jpg,2238498786-244797.jpg,3,,,,,,,,,,,,,,,,
,,,A26M997VYVK0E6,35,male,5,2022-12-12_07h10.50.382,memory_pilot_most_recent,2022.2.4,Win32,60.0240096,,,,,,,,,,,,,,,,,,,,,,,,right,1,0,33,33,33,1,right.jpg,,,right,0.712,,,,,,,,,,,,,,
,,,A26M997VYVK0E6,35,male,5,2022-12-12_07h10.50.382,memory_pilot_most_recent,2022.2.4,Win32,60.0240096,,,,,,,,,,,,,,,,,,,,,,,,,1,0,34,34,34,1,2964224310-219527.jpg,2238490590-169598.jpg,3,,,,,,,,,,,,,,,,
,,,A26M997VYVK0E6,35,male,5,2022-12-12_07h10.50.382,memory_pilot_most_recent,2022.2.4,Win32,60.0240096,,,,,,,,,,,,,,,,,,,,,,,,,1,0,35,35,35,1,2238496457-319749.jpg,2592380234-131135.jpg,2,,,,,,,,,,,,,,,,
,,,A26M997VYVK0E6,35,male,5,2022-12-12_07h10.50.382,memory_pilot_most_recent,2022.2.4,Win32,60.0240096,,,,,,,,,,,,,,,,,,,,,,,,right,1,0,36,36,36,1,right.jpg,,,right,0.702,,,,,,,,,,,,,,
,,,A26M997VYVK0E6,35,male,5,2022-12-12_07h10.50.382,memory_pilot_most_recent,2022.2.4,Win32,60.0240096,,,,,,,,,,,,,,,,,,,,,,,,,1,0,37,37,37,1,2864906345-212360.jpg,2994403305-222559.jpg,3,,,,,,,,,,,,,,,,
,,,A26M997VYVK0E6,35,male,5,2022-12-12_07h10.50.382,memory_pilot_most_recent,2022.2.4,Win32,60.0240096,,,,,,,,,,,,,,,,,,,,,,,,,1,0,38,38,38,1,2238499155-170911.jpg,2452380832-348593.jpg,2,,,,,,,,,,,,,,,,
,,,A26M997VYVK0E6,35,male,5,2022-12-12_07h10.50.382,memory_pilot_most_recent,2022.2.4,Win32,60.0240096,,,,,,,,,,,,,,,,,,,,,,,,,1,0,39,39,39,1,2883272438-68133.jpg,2901936369-143233.jpg,2,,,,,,,,,,,,,,,,
,,,A26M997VYVK0E6,35,male,5,2022-12-12_07h10.50.382,memory_pilot_most_recent,2022.2.4,Win32,60.0240096,,,,,,,,,,,,,,,,,,,,,,,,,1,0,40,40,40,1,2898633480-217190.jpg,2446760147-347245.jpg,1,,,,,,,,,,,,,,,,
,,,A26M997VYVK0E6,35,male,5,2022-12-12_07h10.50.382,memory_pilot_most_recent,2022.2.4,Win32,60.0240096,,,,,,,,,,,,,,,,,,,,,,,,,1,0,41,41,41,1,2986400320-221190.jpg,2238538133-29662.jpg,3,,,,,,,,,,,,,,,,
,,,A26M997VYVK0E6,35,male,5,2022-12-12_07h10.50.382,memory_pilot_most_recent,2022.2.4,Win32,60.0240096,,,,,,,,,,,,,,,,,,,,,,,,,1,0,42,42,42,1,2331570830-189984.jpg,2449442529-124445.jpg,2,,,,,,,,,,,,,,,,
,,,A26M997VYVK0E6,35,male,5,2022-12-12_07h10.50.382,memory_pilot_most_recent,2022.2.4,Win32,60.0240096,,,,,,,,,,,,,,,,,,,,,,,,,1,0,43,43,43,1,2238584018-38513.jpg,2898633321-291943.jpg,2,,,,,,,,,,,,,,,,
,,,A26M997VYVK0E6,35,male,5,2022-12-12_07h10.50.382,memory_pilot_most_recent,2022.2.4,Win32,60.0240096,,,,,,,,,,,,,,,,,,,,,,,,,1,0,44,44,44,1,2964213381-294060.jpg,2898631359-142720.jpg,1,,,,,,,,,,,,,,,,
,,,A26M997VYVK0E6,35,male,5,2022-12-12_07h10.50.382,memory_pilot_most_recent,2022.2.4,Win32,60.0240096,,,,,,,,,,,,,,,,,,,,,,,,,1,0,45,45,45,1,2883254439-140941.jpg,2237965109-79314.jpg,2,,,,,,,,,,,,,,,,
,,,A26M997VYVK0E6,35,male,5,2022-12-12_07h10.50.382,memory_pilot_most_recent,2022.2.4,Win32,60.0240096,,,,,,,,,,,,,,,,,,,,,,,,,1,0,46,46,46,1,2862691449-137104.jpg,2986455341-296758.jpg,2,,,,,,,,,,,,,,,,
,,,A26M997VYVK0E6,35,male,5,2022-12-12_07h10.50.382,memory_pilot_most_recent,2022.2.4,Win32,60.0240096,,,,,,,,,,,,,,,,,,,,,,,,,1,0,47,47,47,1,2981231446-294731.jpg,2986450330-221526.jpg,1,,,,,,,,,,,,,,,,
,,,A26M997VYVK0E6,35,male,5,2022-12-12_07h10.50.382,memory_pilot_most_recent,2022.2.4,Win32,60.0240096,,,,,,,,,,,,,,,,,,,,,,,,,1,0,48,48,48,1,2238471391-240918.jpg,2901943388-69995.jpg,2,,,,,,,,,,,,,,,,
,,,A26M997VYVK0E6,35,male,5,2022-12-12_07h10.50.382,memory_pilot_most_recent,2022.2.4,Win32,60.0240096,,,,,,,,,,,,,,,,,,,,,,,,,1,0,49,49,49,1,2238550049-105691.jpg,2964219468-71238.jpg,3,,,,,,,,,,,,,,,,
,,,A26M997VYVK0E6,35,male,5,2022-12-12_07h10.50.382,memory_pilot_most_recent,2022.2.4,Win32,60.0240096,,,,,,,,,,,,,,,,,,,,,,,,right,1,0,50,50,50,1,right.jpg,,,right,0.698,,,,,,,,,,,,,,
,,,A26M997VYVK0E6,35,male,5,2022-12-12_07h10.50.382,memory_pilot_most_recent,2022.2.4,Win32,60.0240096,,,,,,,,,,,,,,,,,,,,,,,,,1,0,51,51,51,1,2898635427-367120.jpg,2238436632-314069.jpg,1,,,,,,,,,,,,,,,,
,,,A26M997VYVK0E6,35,male,5,2022-12-12_07h10.50.382,memory_pilot_most_recent,2022.2.4,Win32,60.0240096,,,,,,,,,,,,,,,,,,,,,,,,,1,0,52,52,52,1,2579432576-279079.jpg,2446760226-272006.jpg,2,,,,,,,,,,,,,,,,
,,,A26M997VYVK0E6,35,male,5,2022-12-12_07h10.50.382,memory_pilot_most_recent,2022.2.4,Win32,60.0240096,,,,,,,,,,,,,,,,,,,,,,,,,1,0,53,53,53,1,2964209380-218956.jpg,2898631429-142736.jpg,2,,,,,,,,,,,,,,,,
,,,A26M997VYVK0E6,35,male,5,2022-12-12_07h10.50.382,memory_pilot_most_recent,2022.2.4,Win32,60.0240096,,,,,,,,,,,,,,,,,,,,,,,,,1,0,54,54,54,1,2238429999-90218.jpg,2986448334-147157.jpg,1,,,,,,,,,,,,,,,,
,,,A26M997VYVK0E6,35,male,5,2022-12-12_07h10.50.382,memory_pilot_most_recent,2022.2.4,Win32,60.0240096,,,,,,,,,,,,,,,,,,,,,,,,,1,0,55,55,55,1,2449442529-124446.jpg,2864911339-138231.jpg,3,,,,,,,,,,,,,,,,
,,,A26M997VYVK0E6,35,male,5,2022-12-12_07h10.50.382,memory_pilot_most_recent,2022.2.4,Win32,60.0240096,,,,,,,,,,,,,,,,,,,,,,,,,1,0,56,56,56,1,2238480434-93829.jpg,2592380255-205551.jpg,2,,,,,,,,,,,,,,,,
,,,A26M997VYVK0E6,35,male,5,2022-12-12_07h10.50.382,memory_pilot_most_recent,2022.2.4,Win32,60.0240096,,,,,,,,,,,,,,,,,,,,,,,,,1,0,57,57,57,1,2238516618-25604.jpg,2238470979-92618.jpg,3,,,,,,,,,,,,,,,,
,,,A26M997VYVK0E6,35,male,5,2022-12-12_07h10.50.382,memory_pilot_most_recent,2022.2.4,Win32,60.0240096,,,,,,,,,,,,,,,,,,,,,,,,,1,0,58,58,58,1,2898617468-68274.jpg,2238585512-336576.jpg,2,,,,,,,,,,,,,,,,
,,,A26M997VYVK0E6,35,male,5,2022-12-12_07h10.50.382,memory_pilot_most_recent,2022.2.4,Win32,60.0240096,,,,,,,,,,,,,,,,,,,,,,,,,1,0,59,59,59,1,2898632385-217137.jpg,2238360884-87525.jpg,1,,,,,,,,,,,,,,,,
,,,A26M997VYVK0E6,35,male,5,2022-12-12_07h10.50.382,memory_pilot_most_recent,2022.2.4,Win32,60.0240096,,,,,,,,,,,,,,,,,,,,,,,,,1,0,60,60,60,1,2901934573-69337.jpg,2986401333-73218.jpg,1,,,,,,,,,,,,,,,,
,,,A26M997VYVK0E6,35,male,5,2022-12-12_07h10.50.382,memory_pilot_most_recent,2022.2.4,Win32,60.0240096,,,,,,,,,,,,,,,,,,,,,,,,,1,0,61,61,61,1,2898632385-217138.jpg,2273188118-40829.jpg,2,,,,,,,,,,,,,,,,
,,,A26M997VYVK0E6,35,male,5,2022-12-12_07h10.50.382,memory_pilot_most_recent,2022.2.4,Win32,60.0240096,,,,,,,,,,,,,,,,,,,,,,,,,1,0,62,62,62,1,2592380138-56727.jpg,2238537701-251772.jpg,3,,,,,,,,,,,,,,,,
,,,A26M997VYVK0E6,35,male,5,2022-12-12_07h10.50.382,memory_pilot_most_recent,2022.2.4,Win32,60.0240096,,,,,,,,,,,,,,,,,,,,,,,,,1,0,63,63,63,1,2883255450-215309.jpg,2238429999-90216.jpg,1,,,,,,,,,,,,,,,,
,,,A26M997VYVK0E6,35,male,5,2022-12-12_07h10.50.382,memory_pilot_most_recent,2022.2.4,Win32,60.0240096,,,,,,,,,,,,,,,,,,,,,,,,,1,0,64,64,64,1,2883254439-140940.jpg,2812983311-281946.jpg,3,,,,,,,,,,,,,,,,
,,,A26M997VYVK0E6,35,male,5,2022-12-12_07h10.50.382,memory_pilot_most_recent,2022.2.4,Win32,60.0240096,,,,,,,,,,,,,,,,,,,,,,,,,,,,,,,,,,,,space,1.993,,,,,,,,,,,,
,,,A26M997VYVK0E6,35,male,5,2022-12-12_07h10.50.382,memory_pilot_most_recent,2022.2.4,Win32,60.0240096,,,,,,,,,,,,,,,,,,,,,,,,,,,,,,,,,,,,,,,,,,,,,,,,,
,,,A26M997VYVK0E6,35,male,5,2022-12-12_07h10.50.382,memory_pilot_most_recent,2022.2.4,Win32,60.0240096,,,,,,,,,,,,,,,,,,,,,,,,,,,,,,,,,2,right,,,,right,1,1.89,0,0,0,0,1,2986455341-296758.jpg,2862691449-137104.jpg,,
,,,A26M997VYVK0E6,35,male,5,2022-12-12_07h10.50.382,memory_pilot_most_recent,2022.2.4,Win32,60.0240096,,,,,,,,,,,,,,,,,,,,,,,,,,,,,,,,,3,right,,,,right,1,2.317,0,1,1,1,1,2238498786-244797.jpg,2446759803-49249.jpg,,
,,,A26M997VYVK0E6,35,male,5,2022-12-12_07h10.50.382,memory_pilot_most_recent,2022.2.4,Win32,60.0240096,,,,,,,,,,,,,,,,,,,,,,,,,,,,,,,,,3,right,,,,left,0,3.457,0,2,2,2,1,2901945303-70125.jpg,2901941426-292805.jpg,,
,,,A26M997VYVK0E6,35,male,5,2022-12-12_07h10.50.382,memory_pilot_most_recent,2022.2.4,Win32,60.0240096,,,,,,,,,,,,,,,,,,,,,,,,,,,,,,,,,3,left,,,,left,1,1.471,0,3,3,3,1,2883255450-215311.jpg,2575964014-130589.jpg,,
,,,A26M997VYVK0E6,35,male,5,2022-12-12_07h10.50.382,memory_pilot_most_recent,2022.2.4,Win32,60.0240096,,,,,,,,,,,,,,,,,,,,,,,,,,,,,,,,,1,left,,,,left,1,3.325,0,4,4,4,1,2883255450-215309.jpg,2238429999-90216.jpg,,
,,,A26M997VYVK0E6,35,male,5,2022-12-12_07h10.50.382,memory_pilot_most_recent,2022.2.4,Win32,60.0240096,,,,,,,,,,,,,,,,,,,,,,,,,,,,,,,,,3,right,,,,left,0,1.593,0,5,5,5,1,2898618440-216545.jpg,2898626385-216899.jpg,,
,,,A26M997VYVK0E6,35,male,5,2022-12-12_07h10.50.382,memory_pilot_most_recent,2022.2.4,Win32,60.0240096,,,,,,,,,,,,,,,,,,,,,,,,,,,,,,,,,2,left,,,,right,0,1.351,0,6,6,6,1,2238496457-319749.jpg,2592380234-131135.jpg,,
,,,A26M997VYVK0E6,35,male,5,2022-12-12_07h10.50.382,memory_pilot_most_recent,2022.2.4,Win32,60.0240096,,,,,,,,,,,,,,,,,,,,,,,,,,,,,,,,,3,right,,,,left,0,1.833,0,7,7,7,1,2986455373-73646.jpg,2238584869-113153.jpg,,
,,,A26M997VYVK0E6,35,male,5,2022-12-12_07h10.50.382,memory_pilot_most_recent,2022.2.4,Win32,60.0240096,,,,,,,,,,,,,,,,,,,,,,,,,,,,,,,,,1,right,,,,right,1,1.908,0,8,8,8,1,2986448334-147157.jpg,2238429999-90218.jpg,,
,,,A26M997VYVK0E6,35,male,5,2022-12-12_07h10.50.382,memory_pilot_most_recent,2022.2.4,Win32,60.0240096,,,,,,,,,,,,,,,,,,,,,,,,,,,,,,,,,2,left,,,,left,1,0.999,0,9,9,9,1,2238480434-93829.jpg,2592380255-205551.jpg,,
,,,A26M997VYVK0E6,35,male,5,2022-12-12_07h10.50.382,memory_pilot_most_recent,2022.2.4,Win32,60.0240096,,,,,,,,,,,,,,,,,,,,,,,,,,,,,,,,,1,left,,,,right,0,2.208,0,10,10,10,1,2964213381-294060.jpg,2898631359-142720.jpg,,
,,,A26M997VYVK0E6,35,male,5,2022-12-12_07h10.50.382,memory_pilot_most_recent,2022.2.4,Win32,60.0240096,,,,,,,,,,,,,,,,,,,,,,,,,,,,,,,,,3,left,,,,right,0,1.285,0,11,11,11,1,2238516618-25604.jpg,2238470979-92618.jpg,,
,,,A26M997VYVK0E6,35,male,5,2022-12-12_07h10.50.382,memory_pilot_most_recent,2022.2.4,Win32,60.0240096,,,,,,,,,,,,,,,,,,,,,,,,,,,,,,,,,1,right,,,,right,1,1.209,0,12,12,12,1,2986450330-221526.jpg,2981231446-294731.jpg,,
,,,A26M997VYVK0E6,35,male,5,2022-12-12_07h10.50.382,memory_pilot_most_recent,2022.2.4,Win32,60.0240096,,,,,,,,,,,,,,,,,,,,,,,,,,,,,,,,,3,right,,,,right,1,1.466,0,13,13,13,1,2812983311-281946.jpg,2883254439-140940.jpg,,
,,,A26M997VYVK0E6,35,male,5,2022-12-12_07h10.50.382,memory_pilot_most_recent,2022.2.4,Win32,60.0240096,,,,,,,,,,,,,,,,,,,,,,,,,,,,,,,,,1,left,,,,right,0,2.588,0,14,14,14,1,2964213381-294061.jpg,2238433340-164524.jpg,,
,,,A26M997VYVK0E6,35,male,5,2022-12-12_07h10.50.382,memory_pilot_most_recent,2022.2.4,Win32,60.0240096,,,,,,,,,,,,,,,,,,,,,,,,,,,,,,,,,3,right,,,,left,0,1.329,0,15,15,15,1,2460547508-51571.jpg,2238375302-311538.jpg,,
,,,A26M997VYVK0E6,35,male,5,2022-12-12_07h10.50.382,memory_pilot_most_recent,2022.2.4,Win32,60.0240096,,,,,,,,,,,,,,,,,,,,,,,,,,,,,,,,,1,left,,,,left,1,1.231,0,16,16,16,1,2964218374-144968.jpg,2238411877-313125.jpg,,
,,,A26M997VYVK0E6,35,male,5,2022-12-12_07h10.50.382,memory_pilot_most_recent,2022.2.4,Win32,60.0240096,,,,,,,,,,,,,,,,,,,,,,,,,,,,,,,,,1,left,,,,right,0,2.385,0,17,17,17,1,2446758985-197609.jpg,2898633421-291973.jpg,,
,,,A26M997VYVK0E6,35,male,5,2022-12-12_07h10.50.382,memory_pilot_most_recent,2022.2.4,Win32,60.0240096,,,,,,,,,,,,,,,,,,,,,,,,,,,,,,,,,1,right,,,,right,1,1.463,0,18,18,18,1,2446760147-347245.jpg,2898633480-217190.jpg,,
,,,A26M997VYVK0E6,35,male,5,2022-12-12_07h10.50.382,memory_pilot_most_recent,2022.2.4,Win32,60.0240096,,,,,,,,,,,,,,,,,,,,,,,,,,,,,,,,,3,left,,,,left,1,1.532,0,19,19,19,1,2964216465-219242.jpg,2446760917-347439.jpg,,
,,,A26M997VYVK0E6,35,male,5,2022-12-12_07h10.50.382,memory_pilot_most_recent,2022.2.4,Win32,60.0240096,,,,,,,,,,,,,,,,,,,,,,,,,,,,,,,,,2,left,,,,right,0,2.55,0,20,20,20,1,2883272438-68133.jpg,2901936369-143233.jpg,,
,,,A26M997VYVK0E6,35,male,5,2022-12-12_07h10.50.382,memory_pilot_most_recent,2022.2.4,Win32,60.0240096,,,,,,,,,,,,,,,,,,,,,,,,,,,,,,,,,3,right,,,,left,0,1.028,0,21,21,21,1,2964218374-144967.jpg,2238575092-334269.jpg,,
,,,A26M997VYVK0E6,35,male,5,2022-12-12_07h10.50.382,memory_pilot_most_recent,2022.2.4,Win32,60.0240096,,,,,,,,,,,,,,,,,,,,,,,,,,,,,,,,,1,right,,,,right,1,1.407,0,22,22,22,1,2417206274-118542.jpg,2994405328-74628.jpg,,
,,,A26M997VYVK0E6,35,male,5,2022-12-12_07h10.50.382,memory_pilot_most_recent,2022.2.4,Win32,60.0240096,,,,,,,,,,,,,,,,,,,,,,,,,,,,,,,,,3,left,,,,right,0,2.83,0,23,23,23,1,2864909447-362146.jpg,2874303453-66056.jpg,,
,,,A26M997VYVK0E6,35,male,5,2022-12-12_07h10.50.382,memory_pilot_most_recent,2022.2.4,Win32,60.0240096,,,,,,,,,,,,,,,,,,,,,,,,,,,,,,,,,2,right,,,,left,0,0.826,0,24,24,24,1,2449442529-124445.jpg,2331570830-189984.jpg,,
,,,A26M997VYVK0E6,35,male,5,2022-12-12_07h10.50.382,memory_pilot_most_recent,2022.2.4,Win32,60.0240096,,,,,,,,,,,,,,,,,,,,,,,,,,,,,,,,,2,left,,,,left,1,1.544,0,25,25,25,1,2238129579-80916.jpg,2898618444-142233.jpg,,
,,,A26M997VYVK0E6,35,male,5,2022-12-12_07h10.50.382,memory_pilot_most_recent,2022.2.4,Win32,60.0240096,,,,,,,,,,,,,,,,,,,,,,,,,,,,,,,,,1,left,,,,left,1,1.484,0,26,26,26,1,2460547467-349421.jpg,2901934573-69336.jpg,,
,,,A26M997VYVK0E6,35,male,5,2022-12-12_07h10.50.382,memory_pilot_most_recent,2022.2.4,Win32,60.0240096,,,,,,,,,,,,,,,,,,,,,,,,,,,,,,,,,2,right,,,,left,0,3.98,0,27,27,27,1,2238585512-336576.jpg,2898617468-68274.jpg,,
,,,A26M997VYVK0E6,35,male,5,2022-12-12_07h10.50.382,memory_pilot_most_recent,2022.2.4,Win32,60.0240096,,,,,,,,,,,,,,,,,,,,,,,,,,,,,,,,,1,right,,,,right,1,4.551,0,28,28,28,1,2856919327-359676.jpg,2238126735-154721.jpg,,
,,,A26M997VYVK0E6,35,male,5,2022-12-12_07h10.50.382,memory_pilot_most_recent,2022.2.4,Win32,60.0240096,,,,,,,,,,,,,,,,,,,,,,,,,,,,,,,,,2,right,,,,right,1,1.723,0,29,29,29,1,2238552469-106359.jpg,2446760524-123999.jpg,,
,,,A26M997VYVK0E6,35,male,5,2022-12-12_07h10.50.382,memory_pilot_most_recent,2022.2.4,Win32,60.0240096,,,,,,,,,,,,,,,,,,,,,,,,,,,,,,,,,1,left,,,,left,1,3.834,0,30,30,30,1,2868475410-213219.jpg,2238216693-10721.jpg,,
,,,A26M997VYVK0E6,35,male,5,2022-12-12_07h10.50.382,memory_pilot_most_recent,2022.2.4,Win32,60.0240096,,,,,,,,,,,,,,,,,,,,,,,,,,,,,,,,,3,left,,,,left,1,1.13,0,31,31,31,1,2986400320-221190.jpg,2238538133-29662.jpg,,
,,,A26M997VYVK0E6,35,male,5,2022-12-12_07h10.50.382,memory_pilot_most_recent,2022.2.4,Win32,60.0240096,,,,,,,,,,,,,,,,,,,,,,,,,,,,,,,,,3,left,,,,right,0,1.849,0,32,32,32,1,2449442529-124446.jpg,2864911339-138231.jpg,,
,,,A26M997VYVK0E6,35,male,5,2022-12-12_07h10.50.382,memory_pilot_most_recent,2022.2.4,Win32,60.0240096,,,,,,,,,,,,,,,,,,,,,,,,,,,,,,,,,3,left,,,,left,1,1.344,0,33,33,33,1,2864906345-212360.jpg,2994403305-222559.jpg,,
,,,A26M997VYVK0E6,35,male,5,2022-12-12_07h10.50.382,memory_pilot_most_recent,2022.2.4,Win32,60.0240096,,,,,,,,,,,,,,,,,,,,,,,,,,,,,,,,,1,right,,,,left,0,2.42,0,34,34,34,1,2425492472-343825.jpg,2625337302-355866.jpg,,
,,,A26M997VYVK0E6,35,male,5,2022-12-12_07h10.50.382,memory_pilot_most_recent,2022.2.4,Win32,60.0240096,,,,,,,,,,,,,,,,,,,,,,,,,,,,,,,,,3,left,,,,left,1,1.332,0,35,35,35,1,2901939379-143479.jpg,2864909422-362141.jpg,,
,,,A26M997VYVK0E6,35,male,5,2022-12-12_07h10.50.382,memory_pilot_most_recent,2022.2.4,Win32,60.0240096,,,,,,,,,,,,,,,,,,,,,,,,,,,,,,,,,2,left,,,,left,1,7.747,0,36,36,36,1,2238584018-38513.jpg,2898633321-291943.jpg,,
,,,A26M997VYVK0E6,35,male,5,2022-12-12_07h10.50.382,memory_pilot_most_recent,2022.2.4,Win32,60.0240096,,,,,,,,,,,,,,,,,,,,,,,,,,,,,,,,,1,left,,,,right,0,1.969,0,37,37,37,1,2898635427-367120.jpg,2238436632-314069.jpg,,
,,,A26M997VYVK0E6,35,male,5,2022-12-12_07h10.50.382,memory_pilot_most_recent,2022.2.4,Win32,60.0240096,,,,,,,,,,,,,,,,,,,,,,,,,,,,,,,,,1,left,,,,left,1,1.2,0,38,38,38,1,2446760940-198145.jpg,2449443300-198739.jpg,,
,,,A26M997VYVK0E6,35,male,5,2022-12-12_07h10.50.382,memory_pilot_most_recent,2022.2.4,Win32,60.0240096,,,,,,,,,,,,,,,,,,,,,,,,,,,,,,,,,2,right,,,,left,0,1.252,0,39,39,39,1,2237965109-79314.jpg,2883254439-140941.jpg,,
,,,A26M997VYVK0E6,35,male,5,2022-12-12_07h10.50.382,memory_pilot_most_recent,2022.2.4,Win32,60.0240096,,,,,,,,,,,,,,,,,,,,,,,,,,,,,,,,,3,right,,,,left,0,1.334,0,40,40,40,1,2238490590-169598.jpg,2964224310-219527.jpg,,
,,,A26M997VYVK0E6,35,male,5,2022-12-12_07h10.50.382,memory_pilot_most_recent,2022.2.4,Win32,60.0240096,,,,,,,,,,,,,,,,,,,,,,,,,,,,,,,,,1,right,,,,left,0,1.879,0,41,41,41,1,2825712309-134957.jpg,2238521193-26286.jpg,,
,,,A26M997VYVK0E6,35,male,5,2022-12-12_07h10.50.382,memory_pilot_most_recent,2022.2.4,Win32,60.0240096,,,,,,,,,,,,,,,,,,,,,,,,,,,,,,,,,3,left,,,,left,1,1.052,0,42,42,42,1,2986408352-371293.jpg,2856916345-210056.jpg,,
,,,A26M997VYVK0E6,35,male,5,2022-12-12_07h10.50.382,memory_pilot_most_recent,2022.2.4,Win32,60.0240096,,,,,,,,,,,,,,,,,,,,,,,,,,,,,,,,,2,right,,,,left,0,1.136,0,43,43,43,1,2446758985-197610.jpg,2274829821-263682.jpg,,
,,,A26M997VYVK0E6,35,male,5,2022-12-12_07h10.50.382,memory_pilot_most_recent,2022.2.4,Win32,60.0240096,,,,,,,,,,,,,,,,,,,,,,,,,,,,,,,,,2,right,,,,right,1,1.251,0,44,44,44,1,2273188118-40829.jpg,2898632385-217138.jpg,,
,,,A26M997VYVK0E6,35,male,5,2022-12-12_07h10.50.382,memory_pilot_most_recent,2022.2.4,Win32,60.0240096,,,,,,,,,,,,,,,,,,,,,,,,,,,,,,,,,2,left,,,,right,0,7.934,0,45,45,45,1,2238471391-240918.jpg,2901943388-69995.jpg,,
,,,A26M997VYVK0E6,35,male,5,2022-12-12_07h10.50.382,memory_pilot_most_recent,2022.2.4,Win32,60.0240096,,,,,,,,,,,,,,,,,,,,,,,,,,,,,,,,,2,right,,,,right,1,2.833,0,46,46,46,1,2898631429-142736.jpg,2964209380-218956.jpg,,
,,,A26M997VYVK0E6,35,male,5,2022-12-12_07h10.50.382,memory_pilot_most_recent,2022.2.4,Win32,60.0240096,,,,,,,,,,,,,,,,,,,,,,,,,,,,,,,,,1,right,,,,left,0,1.499,0,47,47,47,1,2238482920-168428.jpg,2575964140-205050.jpg,,
,,,A26M997VYVK0E6,35,male,5,2022-12-12_07h10.50.382,memory_pilot_most_recent,2022.2.4,Win32,60.0240096,,,,,,,,,,,,,,,,,,,,,,,,,,,,,,,,,2,left,,,,left,1,4.315,0,48,48,48,1,2868485396-288511.jpg,2868472420-213024.jpg,,
,,,A26M997VYVK0E6,35,male,5,2022-12-12_07h10.50.382,memory_pilot_most_recent,2022.2.4,Win32,60.0240096,,,,,,,,,,,,,,,,,,,,,,,,,,,,,,,,,2,left,,,,right,0,0.901,0,49,49,49,1,2579432576-279079.jpg,2446760226-272006.jpg,,
,,,A26M997VYVK0E6,35,male,5,2022-12-12_07h10.50.382,memory_pilot_most_recent,2022.2.4,Win32,60.0240096,,,,,,,,,,,,,,,,,,,,,,,,,,,,,,,,,3,left,,,,left,1,1.699,0,50,50,50,1,2592380138-56727.jpg,2238537701-251772.jpg,,
,,,A26M997VYVK0E6,35,male,5,2022-12-12_07h10.50.382,memory_pilot_most_recent,2022.2.4,Win32,60.0240096,,,,,,,,,,,,,,,,,,,,,,,,,,,,,,,,,1,right,,,,left,0,3.122,0,51,51,51,1,2238360884-87525.jpg,2898632385-217137.jpg,,
,,,A26M997VYVK0E6,35,male,5,2022-12-12_07h10.50.382,memory_pilot_most_recent,2022.2.4,Win32,60.0240096,,,,,,,,,,,,,,,,,,,,,,,,,,,,,,,,,2,left,,,,left,1,0.982,0,52,52,52,1,2898624426-291546.jpg,2549106844-127878.jpg,,
,,,A26M997VYVK0E6,35,male,5,2022-12-12_07h10.50.382,memory_pilot_most_recent,2022.2.4,Win32,60.0240096,,,,,,,,,,,,,,,,,,,,,,,,,,,,,,,,,2,left,,,,right,0,1.096,0,53,53,53,1,2238561223-33794.jpg,2592380177-354626.jpg,,
,,,A26M997VYVK0E6,35,male,5,2022-12-12_07h10.50.382,memory_pilot_most_recent,2022.2.4,Win32,60.0240096,,,,,,,,,,,,,,,,,,,,,,,,,,,,,,,,,3,left,,,,left,1,0.932,0,54,54,54,1,2238550049-105691.jpg,2964219468-71238.jpg,,
,,,A26M997VYVK0E6,35,male,5,2022-12-12_07h10.50.382,memory_pilot_most_recent,2022.2.4,Win32,60.0240096,,,,,,,,,,,,,,,,,,,,,,,,,,,,,,,,,1,left,,,,right,0,1.834,0,55,55,55,1,2901934573-69337.jpg,2986401333-73218.jpg,,
,,,A26M997VYVK0E6,35,male,5,2022-12-12_07h10.50.382,memory_pilot_most_recent,2022.2.4,Win32,60.0240096,,,,,,,,,,,,,,,,,,,,,,,,,,,,,,,,,2,right,,,,right,1,1.012,0,56,56,56,1,2856919327-359675.jpg,2901938432-367627.jpg,,
,,,A26M997VYVK0E6,35,male,5,2022-12-12_07h10.50.382,memory_pilot_most_recent,2022.2.4,Win32,60.0240096,,,,,,,,,,,,,,,,,,,,,,,,,,,,,,,,,2,right,,,,left,0,1.849,0,57,57,57,1,2452380832-348593.jpg,2238499155-170911.jpg,,
,,,A26M997VYVK0E6,35,male,5,2022-12-12_07h10.50.382,memory_pilot_most_recent,2022.2.4,Win32,60.0240096,,,,,,,,,,,,,,,,,,,,,,,,,,,,,,,,,3,right,,,,left,0,0.897,0,58,58,58,1,2238576267-334532.jpg,2512876023-52283.jpg,,
,,,A26M997VYVK0E6,35,male,5,2022-12-12_07h10.50.382,memory_pilot_most_recent,2022.2.4,Win32,60.0240096,,,,,,,,,,,,,,,,,,,,,,,,,,,,,,,,,1,left,,,,left,1,0.791,0,59,59,59,1,2452380166-273109.jpg,2452380171-273112.jpg,,
,,,A26M997VYVK0E6,35,male,5,2022-12-12_07h10.50.382,memory_pilot_most_recent,2022.2.4,Win32,60.0240096,,,,,,,,,,,,,,,,,,,,,,,,,,,,,,,,,,,,,,,,,,,,,,,,space,5.387
