button.numClicks,button.timesOn,button.timesOff,workID,Age,Gender,Hours slept (last night),date,expName,psychopyVersion,OS,frameRate,space_key_responce.keys,space_key_responce.rt,demo_encoding_response.keys,demo_encoding_response.corr,demo_encoding_loop.thisRepN,demo_encoding_loop.thisTrialN,demo_encoding_loop.thisN,demo_encoding_loop.thisIndex,demo_encoding_loop.ran,DemoImage,DemoCorrect,demo_encoding_response.rt,demo_test_response.keys,demo_test_response.corr,demo_test_response.rt,demo_test_loop.thisRepN,demo_test_loop.thisTrialN,demo_test_loop.thisN,demo_test_loop.thisIndex,demo_test_loop.ran,DemoImage1,DemoImage2,DemoCorrectTest,test_encoding_response.keys,test_encoding_response.corr,trials.thisRepN,trials.thisTrialN,trials.thisN,trials.thisIndex,trials.ran,target_image,pair,layer,correct,test_encoding_response.rt,key_resp_end.keys,key_resp_end.rt,test_test_response.keys,test_test_response.corr,test_test_response.rt,trials_2.thisRepN,trials_2.thisTrialN,trials_2.thisN,trials_2.thisIndex,trials_2.ran,image1,image2,key_resp_end_2.keys,key_resp_end_2.rt
1,[2.691500000000019],[2.69160000038147],A3UOG4U007DSXL,35,Female,8,2022-12-12_08h10.42.729,memory_pilot_most_recent,2022.2.4,Win32,16.13527817,,,,,,,,,,,,,,,,,,,,,,,,,,,,,,,,,,,,,,,,,,,,,,,,,
,,,A3UOG4U007DSXL,35,Female,8,2022-12-12_08h10.42.729,memory_pilot_most_recent,2022.2.4,Win32,16.13527817,,,,,,,,,,,,,,,,,,,,,,,,,,,,,,,,,,,,,,,,,,,,,,,,,
,,,A3UOG4U007DSXL,35,Female,8,2022-12-12_08h10.42.729,memory_pilot_most_recent,2022.2.4,Win32,16.13527817,space,2.3391,,,,,,,,,,,,,,,,,,,,,,,,,,,,,,,,,,,,,,,,,,,,,,,
,,,A3UOG4U007DSXL,35,Female,8,2022-12-12_08h10.42.729,memory_pilot_most_recent,2022.2.4,Win32,16.13527817,,,,,,,,,,,,,,,,,,,,,,,,,,,,,,,,,,,,,,,,,,,,,,,,,
,,,A3UOG4U007DSXL,35,Female,8,2022-12-12_08h10.42.729,memory_pilot_most_recent,2022.2.4,Win32,16.13527817,,,,1,0,0,0,0,1,flower1.jpg,,,,,,,,,,,,,,,,,,,,,,,,,,,,,,,,,,,,,,,
,,,A3UOG4U007DSXL,35,Female,8,2022-12-12_08h10.42.729,memory_pilot_most_recent,2022.2.4,Win32,16.13527817,,,,1,0,1,1,1,1,flower2.jpg,,,,,,,,,,,,,,,,,,,,,,,,,,,,,,,,,,,,,,,
,,,A3UOG4U007DSXL,35,Female,8,2022-12-12_08h10.42.729,memory_pilot_most_recent,2022.2.4,Win32,16.13527817,,,left,1,0,2,2,2,1,left.jpg,left,1.5504,,,,,,,,,,,,,,,,,,,,,,,,,,,,,,,,,,,,,
,,,A3UOG4U007DSXL,35,Female,8,2022-12-12_08h10.42.729,memory_pilot_most_recent,2022.2.4,Win32,16.13527817,,,,1,0,3,3,3,1,flower3.jpg,,,,,,,,,,,,,,,,,,,,,,,,,,,,,,,,,,,,,,,
,,,A3UOG4U007DSXL,35,Female,8,2022-12-12_08h10.42.729,memory_pilot_most_recent,2022.2.4,Win32,16.13527817,,,,1,0,4,4,4,1,flower4.jpg,,,,,,,,,,,,,,,,,,,,,,,,,,,,,,,,,,,,,,,
,,,A3UOG4U007DSXL,35,Female,8,2022-12-12_08h10.42.729,memory_pilot_most_recent,2022.2.4,Win32,16.13527817,,,,1,0,5,5,5,1,flower5.jpg,,,,,,,,,,,,,,,,,,,,,,,,,,,,,,,,,,,,,,,
,,,A3UOG4U007DSXL,35,Female,8,2022-12-12_08h10.42.729,memory_pilot_most_recent,2022.2.4,Win32,16.13527817,,,,1,0,6,6,6,1,flower6.jpg,,,,,,,,,,,,,,,,,,,,,,,,,,,,,,,,,,,,,,,
,,,A3UOG4U007DSXL,35,Female,8,2022-12-12_08h10.42.729,memory_pilot_most_recent,2022.2.4,Win32,16.13527817,,,,,,,,,,,,,,,,,,,,,,,,,,,,,,,,,,,,,,,,,,,,,,,,,
,,,A3UOG4U007DSXL,35,Female,8,2022-12-12_08h10.42.729,memory_pilot_most_recent,2022.2.4,Win32,16.13527817,,,,,,,,,,,,,left,1,1.738200001,0,0,0,0,1,flower1.jpg,flower1_pair.jpg,left,,,,,,,,,,,,,,,,,,,,,,,,,,
,,,A3UOG4U007DSXL,35,Female,8,2022-12-12_08h10.42.729,memory_pilot_most_recent,2022.2.4,Win32,16.13527817,,,,,,,,,,,,,left,0,1.591,0,1,1,1,1,flower2_pair.jpg,flower2.jpg,right,,,,,,,,,,,,,,,,,,,,,,,,,,
,,,A3UOG4U007DSXL,35,Female,8,2022-12-12_08h10.42.729,memory_pilot_most_recent,2022.2.4,Win32,16.13527817,,,,,,,,,,,,,left,1,1.4059,0,2,2,2,1,flower3.jpg,flower3_pair.jpg,left,,,,,,,,,,,,,,,,,,,,,,,,,,
,,,A3UOG4U007DSXL,35,Female,8,2022-12-12_08h10.42.729,memory_pilot_most_recent,2022.2.4,Win32,16.13527817,,,,,,,,,,,,,left,1,1.5157,0,3,3,3,1,flower4.jpg,flower4_pair.jpg,left,,,,,,,,,,,,,,,,,,,,,,,,,,
,,,A3UOG4U007DSXL,35,Female,8,2022-12-12_08h10.42.729,memory_pilot_most_recent,2022.2.4,Win32,16.13527817,,,,,,,,,,,,,right,1,1.8515,0,4,4,4,1,flower5_pair.jpg,flower5.jpg,right,,,,,,,,,,,,,,,,,,,,,,,,,,
,,,A3UOG4U007DSXL,35,Female,8,2022-12-12_08h10.42.729,memory_pilot_most_recent,2022.2.4,Win32,16.13527817,,,,,,,,,,,,,left,1,1.3332,0,5,5,5,1,flower6.jpg,flower6_pair.jpg,left,,,,,,,,,,,,,,,,,,,,,,,,,,
,,,A3UOG4U007DSXL,35,Female,8,2022-12-12_08h10.42.729,memory_pilot_most_recent,2022.2.4,Win32,16.13527817,,,,,,,,,,,,,,,,,,,,,,,,,,,,,,,,,,,,,,,,,,,,,,,,,
,,,A3UOG4U007DSXL,35,Female,8,2022-12-12_08h10.42.729,memory_pilot_most_recent,2022.2.4,Win32,16.13527817,space,2.225400001,,,,,,,,,,,,,,,,,,,,,,,,,,,,,,,,,,,,,,,,,,,,,,,
,,,A3UOG4U007DSXL,35,Female,8,2022-12-12_08h10.42.729,memory_pilot_most_recent,2022.2.4,Win32,16.13527817,,,,,,,,,,,,,,,,,,,,,,,,,1,0,0,0,0,1,2883272438-68133.jpg,2901936369-143233.jpg,2,,,,,,,,,,,,,,,,
,,,A3UOG4U007DSXL,35,Female,8,2022-12-12_08h10.42.729,memory_pilot_most_recent,2022.2.4,Win32,16.13527817,,,,,,,,,,,,,,,,,,,,,,,,,1,0,1,1,1,1,2579432576-279079.jpg,2446760226-272006.jpg,2,,,,,,,,,,,,,,,,
,,,A3UOG4U007DSXL,35,Female,8,2022-12-12_08h10.42.729,memory_pilot_most_recent,2022.2.4,Win32,16.13527817,,,,,,,,,,,,,,,,,,,,,,,,,1,0,2,2,2,1,2986400320-221190.jpg,2238538133-29662.jpg,3,,,,,,,,,,,,,,,,
,,,A3UOG4U007DSXL,35,Female,8,2022-12-12_08h10.42.729,memory_pilot_most_recent,2022.2.4,Win32,16.13527817,,,,,,,,,,,,,,,,,,,,,,,,,1,0,3,3,3,1,2964224310-219527.jpg,2964213441-294073.jpg,2,,,,,,,,,,,,,,,,
,,,A3UOG4U007DSXL,35,Female,8,2022-12-12_08h10.42.729,memory_pilot_most_recent,2022.2.4,Win32,16.13527817,,,,,,,,,,,,,,,,,,,,,,,,,1,0,4,4,4,1,2864909447-362146.jpg,2874316384-140749.jpg,1,,,,,,,,,,,,,,,,
,,,A3UOG4U007DSXL,35,Female,8,2022-12-12_08h10.42.729,memory_pilot_most_recent,2022.2.4,Win32,16.13527817,,,,,,,,,,,,,,,,,,,,,,,,,1,0,5,5,5,1,2868485396-288511.jpg,2238380314-88261.jpg,3,,,,,,,,,,,,,,,,
,,,A3UOG4U007DSXL,35,Female,8,2022-12-12_08h10.42.729,memory_pilot_most_recent,2022.2.4,Win32,16.13527817,,,,,,,,,,,,,,,,,,,,,,,,,1,0,6,6,6,1,2964216465-219242.jpg,2592380049-131079.jpg,1,,,,,,,,,,,,,,,,
,,,A3UOG4U007DSXL,35,Female,8,2022-12-12_08h10.42.729,memory_pilot_most_recent,2022.2.4,Win32,16.13527817,,,,,,,,,,,,,,,,,,,,,,,,,1,0,7,7,7,1,2868475410-213219.jpg,2575964140-205051.jpg,2,,,,,,,,,,,,,,,,
,,,A3UOG4U007DSXL,35,Female,8,2022-12-12_08h10.42.729,memory_pilot_most_recent,2022.2.4,Win32,16.13527817,,,,,,,,,,,,,,,,,,,,,,,,right,1,0,8,8,8,1,right.jpg,,,right,1.5966,,,,,,,,,,,,,,
,,,A3UOG4U007DSXL,35,Female,8,2022-12-12_08h10.42.729,memory_pilot_most_recent,2022.2.4,Win32,16.13527817,,,,,,,,,,,,,,,,,,,,,,,,,1,0,9,9,9,1,2862691449-137104.jpg,2238328478-11678.jpg,3,,,,,,,,,,,,,,,,
,,,A3UOG4U007DSXL,35,Female,8,2022-12-12_08h10.42.729,memory_pilot_most_recent,2022.2.4,Win32,16.13527817,,,,,,,,,,,,,,,,,,,,,,,,,1,0,10,10,10,1,2981231446-294731.jpg,2986450330-221526.jpg,1,,,,,,,,,,,,,,,,
,,,A3UOG4U007DSXL,35,Female,8,2022-12-12_08h10.42.729,memory_pilot_most_recent,2022.2.4,Win32,16.13527817,,,,,,,,,,,,,,,,,,,,,,,,,1,0,11,11,11,1,2238516618-25604.jpg,2238573549-110485.jpg,1,,,,,,,,,,,,,,,,
,,,A3UOG4U007DSXL,35,Female,8,2022-12-12_08h10.42.729,memory_pilot_most_recent,2022.2.4,Win32,16.13527817,,,,,,,,,,,,,,,,,,,,,,,,,1,0,12,12,12,1,2460547467-349421.jpg,2238470079-92499.jpg,2,,,,,,,,,,,,,,,,
,,,A3UOG4U007DSXL,35,Female,8,2022-12-12_08h10.42.729,memory_pilot_most_recent,2022.2.4,Win32,16.13527817,,,,,,,,,,,,,,,,,,,,,,,,,1,0,13,13,13,1,2901939379-143479.jpg,2986450334-147215.jpg,1,,,,,,,,,,,,,,,,
,,,A3UOG4U007DSXL,35,Female,8,2022-12-12_08h10.42.729,memory_pilot_most_recent,2022.2.4,Win32,16.13527817,,,,,,,,,,,,,,,,,,,,,,,,,1,0,14,14,14,1,2994405328-74628.jpg,2825702353-60662.jpg,2,,,,,,,,,,,,,,,,
,,,A3UOG4U007DSXL,35,Female,8,2022-12-12_08h10.42.729,memory_pilot_most_recent,2022.2.4,Win32,16.13527817,,,,,,,,,,,,,,,,,,,,,,,,,1,0,15,15,15,1,2575964140-205050.jpg,2446760226-272005.jpg,3,,,,,,,,,,,,,,,,
,,,A3UOG4U007DSXL,35,Female,8,2022-12-12_08h10.42.729,memory_pilot_most_recent,2022.2.4,Win32,16.13527817,,,,,,,,,,,,,,,,,,,,,,,,,1,0,16,16,16,1,2901934573-69337.jpg,2986401333-73218.jpg,1,,,,,,,,,,,,,,,,
,,,A3UOG4U007DSXL,35,Female,8,2022-12-12_08h10.42.729,memory_pilot_most_recent,2022.2.4,Win32,16.13527817,,,,,,,,,,,,,,,,,,,,,,,,left,1,0,17,17,17,1,left.jpg,,,left,1.3125,,,,,,,,,,,,,,
,,,A3UOG4U007DSXL,35,Female,8,2022-12-12_08h10.42.729,memory_pilot_most_recent,2022.2.4,Win32,16.13527817,,,,,,,,,,,,,,,,,,,,,,,,,1,0,18,18,18,1,2512876023-52283.jpg,2864908323-64106.jpg,1,,,,,,,,,,,,,,,,
,,,A3UOG4U007DSXL,35,Female,8,2022-12-12_08h10.42.729,memory_pilot_most_recent,2022.2.4,Win32,16.13527817,,,,,,,,,,,,,,,,,,,,,,,,,1,0,19,19,19,1,2964213381-294060.jpg,2898631359-142720.jpg,1,,,,,,,,,,,,,,,,
,,,A3UOG4U007DSXL,35,Female,8,2022-12-12_08h10.42.729,memory_pilot_most_recent,2022.2.4,Win32,16.13527817,,,,,,,,,,,,,,,,,,,,,,,,,1,0,20,20,20,1,2274829821-263682.jpg,2862687442-360837.jpg,3,,,,,,,,,,,,,,,,
,,,A3UOG4U007DSXL,35,Female,8,2022-12-12_08h10.42.729,memory_pilot_most_recent,2022.2.4,Win32,16.13527817,,,,,,,,,,,,,,,,,,,,,,,,,1,0,21,21,21,1,2331570830-189984.jpg,2458348012-349114.jpg,3,,,,,,,,,,,,,,,,
,,,A3UOG4U007DSXL,35,Female,8,2022-12-12_08h10.42.729,memory_pilot_most_recent,2022.2.4,Win32,16.13527817,,,,,,,,,,,,,,,,,,,,,,,,,1,0,22,22,22,1,2901941426-292805.jpg,2238510189-98616.jpg,2,,,,,,,,,,,,,,,,
,,,A3UOG4U007DSXL,35,Female,8,2022-12-12_08h10.42.729,memory_pilot_most_recent,2022.2.4,Win32,16.13527817,,,,,,,,,,,,,,,,,,,,,,,,,1,0,23,23,23,1,2238480434-93829.jpg,2592380255-205551.jpg,2,,,,,,,,,,,,,,,,
,,,A3UOG4U007DSXL,35,Female,8,2022-12-12_08h10.42.729,memory_pilot_most_recent,2022.2.4,Win32,16.13527817,,,,,,,,,,,,,,,,,,,,,,,,,1,0,24,24,24,1,2864906345-212360.jpg,2986397365-221133.jpg,1,,,,,,,,,,,,,,,,
,,,A3UOG4U007DSXL,35,Female,8,2022-12-12_08h10.42.729,memory_pilot_most_recent,2022.2.4,Win32,16.13527817,,,,,,,,,,,,,,,,,,,,,,,,,1,0,25,25,25,1,2898626385-216899.jpg,2898618440-216545.jpg,3,,,,,,,,,,,,,,,,
,,,A3UOG4U007DSXL,35,Female,8,2022-12-12_08h10.42.729,memory_pilot_most_recent,2022.2.4,Win32,16.13527817,,,,,,,,,,,,,,,,,,,,,,,,right,1,0,26,26,26,1,right.jpg,,,right,1.1432,,,,,,,,,,,,,,
,,,A3UOG4U007DSXL,35,Female,8,2022-12-12_08h10.42.729,memory_pilot_most_recent,2022.2.4,Win32,16.13527817,,,,,,,,,,,,,,,,,,,,,,,,,1,0,27,27,27,1,2898617468-68274.jpg,2512875899-126682.jpg,1,,,,,,,,,,,,,,,,
,,,A3UOG4U007DSXL,35,Female,8,2022-12-12_08h10.42.729,memory_pilot_most_recent,2022.2.4,Win32,16.13527817,,,,,,,,,,,,,,,,,,,,,,,,,1,0,28,28,28,1,2883254439-140940.jpg,2575121890-204630.jpg,2,,,,,,,,,,,,,,,,
,,,A3UOG4U007DSXL,35,Female,8,2022-12-12_08h10.42.729,memory_pilot_most_recent,2022.2.4,Win32,16.13527817,,,,,,,,,,,,,,,,,,,,,,,,,1,0,29,29,29,1,2592380138-56727.jpg,2986419351-296471.jpg,1,,,,,,,,,,,,,,,,
,,,A3UOG4U007DSXL,35,Female,8,2022-12-12_08h10.42.729,memory_pilot_most_recent,2022.2.4,Win32,16.13527817,,,,,,,,,,,,,,,,,,,,,,,,,1,0,30,30,30,1,2625337302-355866.jpg,2238478760-167789.jpg,2,,,,,,,,,,,,,,,,
,,,A3UOG4U007DSXL,35,Female,8,2022-12-12_08h10.42.729,memory_pilot_most_recent,2022.2.4,Win32,16.13527817,,,,,,,,,,,,,,,,,,,,,,,,,1,0,31,31,31,1,2238126735-154721.jpg,2856919327-359676.jpg,1,,,,,,,,,,,,,,,,
,,,A3UOG4U007DSXL,35,Female,8,2022-12-12_08h10.42.729,memory_pilot_most_recent,2022.2.4,Win32,16.13527817,,,,,,,,,,,,,,,,,,,,,,,,,1,0,32,32,32,1,2901938432-367627.jpg,2579432708-56394.jpg,1,,,,,,,,,,,,,,,,
,,,A3UOG4U007DSXL,35,Female,8,2022-12-12_08h10.42.729,memory_pilot_most_recent,2022.2.4,Win32,16.13527817,,,,,,,,,,,,,,,,,,,,,,,,,1,0,33,33,33,1,2238561223-33794.jpg,2592380177-354626.jpg,2,,,,,,,,,,,,,,,,
,,,A3UOG4U007DSXL,35,Female,8,2022-12-12_08h10.42.729,memory_pilot_most_recent,2022.2.4,Win32,16.13527817,,,,,,,,,,,,,,,,,,,,,,,,,1,0,34,34,34,1,2446760940-198145.jpg,2446760692-347392.jpg,3,,,,,,,,,,,,,,,,
,,,A3UOG4U007DSXL,35,Female,8,2022-12-12_08h10.42.729,memory_pilot_most_recent,2022.2.4,Win32,16.13527817,,,,,,,,,,,,,,,,,,,,,,,,,1,0,35,35,35,1,2446760524-123999.jpg,2238552469-106359.jpg,2,,,,,,,,,,,,,,,,
,,,A3UOG4U007DSXL,35,Female,8,2022-12-12_08h10.42.729,memory_pilot_most_recent,2022.2.4,Win32,16.13527817,,,,,,,,,,,,,,,,,,,,,,,,,1,0,36,36,36,1,2898632385-217138.jpg,2575120738-55529.jpg,1,,,,,,,,,,,,,,,,
,,,A3UOG4U007DSXL,35,Female,8,2022-12-12_08h10.42.729,memory_pilot_most_recent,2022.2.4,Win32,16.13527817,,,,,,,,,,,,,,,,,,,,,,,,,1,0,37,37,37,1,2883255450-215311.jpg,2868485399-139476.jpg,2,,,,,,,,,,,,,,,,
,,,A3UOG4U007DSXL,35,Female,8,2022-12-12_08h10.42.729,memory_pilot_most_recent,2022.2.4,Win32,16.13527817,,,,,,,,,,,,,,,,,,,,,,,,,1,0,38,38,38,1,2898635427-367120.jpg,2237941457-301342.jpg,2,,,,,,,,,,,,,,,,
,,,A3UOG4U007DSXL,35,Female,8,2022-12-12_08h10.42.729,memory_pilot_most_recent,2022.2.4,Win32,16.13527817,,,,,,,,,,,,,,,,,,,,,,,,,1,0,39,39,39,1,2238521193-26286.jpg,2825712309-134957.jpg,1,,,,,,,,,,,,,,,,
,,,A3UOG4U007DSXL,35,Female,8,2022-12-12_08h10.42.729,memory_pilot_most_recent,2022.2.4,Win32,16.13527817,,,,,,,,,,,,,,,,,,,,,,,,right,1,0,40,40,40,1,right.jpg,,,right,1.7082,,,,,,,,,,,,,,
,,,A3UOG4U007DSXL,35,Female,8,2022-12-12_08h10.42.729,memory_pilot_most_recent,2022.2.4,Win32,16.13527817,,,,,,,,,,,,,,,,,,,,,,,,,1,0,41,41,41,1,2964213381-294061.jpg,2981234334-145491.jpg,2,,,,,,,,,,,,,,,,
,,,A3UOG4U007DSXL,35,Female,8,2022-12-12_08h10.42.729,memory_pilot_most_recent,2022.2.4,Win32,16.13527817,,,,,,,,,,,,,,,,,,,,,,,,,1,0,42,42,42,1,2238575092-334269.jpg,2964218374-144967.jpg,3,,,,,,,,,,,,,,,,
,,,A3UOG4U007DSXL,35,Female,8,2022-12-12_08h10.42.729,memory_pilot_most_recent,2022.2.4,Win32,16.13527817,,,,,,,,,,,,,,,,,,,,,,,,,1,0,43,43,43,1,2238584018-38513.jpg,2452381442-348755.jpg,3,,,,,,,,,,,,,,,,
,,,A3UOG4U007DSXL,35,Female,8,2022-12-12_08h10.42.729,memory_pilot_most_recent,2022.2.4,Win32,16.13527817,,,,,,,,,,,,,,,,,,,,,,,,,1,0,44,44,44,1,2452380166-273109.jpg,2452380171-273112.jpg,1,,,,,,,,,,,,,,,,
,,,A3UOG4U007DSXL,35,Female,8,2022-12-12_08h10.42.729,memory_pilot_most_recent,2022.2.4,Win32,16.13527817,,,,,,,,,,,,,,,,,,,,,,,,,1,0,45,45,45,1,2898624426-291546.jpg,2549106844-127878.jpg,2,,,,,,,,,,,,,,,,
,,,A3UOG4U007DSXL,35,Female,8,2022-12-12_08h10.42.729,memory_pilot_most_recent,2022.2.4,Win32,16.13527817,,,,,,,,,,,,,,,,,,,,,,,,,1,0,46,46,46,1,2898633480-217190.jpg,2237858043-1434.jpg,3,,,,,,,,,,,,,,,,
,,,A3UOG4U007DSXL,35,Female,8,2022-12-12_08h10.42.729,memory_pilot_most_recent,2022.2.4,Win32,16.13527817,,,,,,,,,,,,,,,,,,,,,,,,,1,0,47,47,47,1,2238550049-105691.jpg,2964219468-71238.jpg,3,,,,,,,,,,,,,,,,
,,,A3UOG4U007DSXL,35,Female,8,2022-12-12_08h10.42.729,memory_pilot_most_recent,2022.2.4,Win32,16.13527817,,,,,,,,,,,,,,,,,,,,,,,,,1,0,48,48,48,1,2238129579-80916.jpg,2460547477-349426.jpg,1,,,,,,,,,,,,,,,,
,,,A3UOG4U007DSXL,35,Female,8,2022-12-12_08h10.42.729,memory_pilot_most_recent,2022.2.4,Win32,16.13527817,,,,,,,,,,,,,,,,,,,,,,,,,1,0,49,49,49,1,2238499155-170911.jpg,2238373603-13733.jpg,3,,,,,,,,,,,,,,,,
,,,A3UOG4U007DSXL,35,Female,8,2022-12-12_08h10.42.729,memory_pilot_most_recent,2022.2.4,Win32,16.13527817,,,,,,,,,,,,,,,,,,,,,,,,right,1,0,50,50,50,1,right.jpg,,,right,1.6767,,,,,,,,,,,,,,
,,,A3UOG4U007DSXL,35,Female,8,2022-12-12_08h10.42.729,memory_pilot_most_recent,2022.2.4,Win32,16.13527817,,,,,,,,,,,,,,,,,,,,,,,,,1,0,51,51,51,1,2964209380-218956.jpg,2898617396-291219.jpg,3,,,,,,,,,,,,,,,,
,,,A3UOG4U007DSXL,35,Female,8,2022-12-12_08h10.42.729,memory_pilot_most_recent,2022.2.4,Win32,16.13527817,,,,,,,,,,,,,,,,,,,,,,,,,1,0,52,52,52,1,2449442529-124446.jpg,2868469458-64561.jpg,2,,,,,,,,,,,,,,,,
,,,A3UOG4U007DSXL,35,Female,8,2022-12-12_08h10.42.729,memory_pilot_most_recent,2022.2.4,Win32,16.13527817,,,,,,,,,,,,,,,,,,,,,,,,,1,0,53,53,53,1,2238471391-240918.jpg,2868470400-212889.jpg,1,,,,,,,,,,,,,,,,
,,,A3UOG4U007DSXL,35,Female,8,2022-12-12_08h10.42.729,memory_pilot_most_recent,2022.2.4,Win32,16.13527817,,,,,,,,,,,,,,,,,,,,,,,,,1,0,54,54,54,1,2964218374-144968.jpg,2238525773-27014.jpg,3,,,,,,,,,,,,,,,,
,,,A3UOG4U007DSXL,35,Female,8,2022-12-12_08h10.42.729,memory_pilot_most_recent,2022.2.4,Win32,16.13527817,,,,,,,,,,,,,,,,,,,,,,,,,1,0,55,55,55,1,2238375302-311538.jpg,2460547508-51571.jpg,3,,,,,,,,,,,,,,,,
,,,A3UOG4U007DSXL,35,Female,8,2022-12-12_08h10.42.729,memory_pilot_most_recent,2022.2.4,Win32,16.13527817,,,,,,,,,,,,,,,,,,,,,,,,,1,0,56,56,56,1,2986408352-371293.jpg,2446759580-197801.jpg,2,,,,,,,,,,,,,,,,
,,,A3UOG4U007DSXL,35,Female,8,2022-12-12_08h10.42.729,memory_pilot_most_recent,2022.2.4,Win32,16.13527817,,,,,,,,,,,,,,,,,,,,,,,,,1,0,57,57,57,1,2883254439-140941.jpg,2989724308-73928.jpg,1,,,,,,,,,,,,,,,,
,,,A3UOG4U007DSXL,35,Female,8,2022-12-12_08h10.42.729,memory_pilot_most_recent,2022.2.4,Win32,16.13527817,,,,,,,,,,,,,,,,,,,,,,,,,1,0,58,58,58,1,2238584869-113153.jpg,2986455373-73646.jpg,3,,,,,,,,,,,,,,,,
,,,A3UOG4U007DSXL,35,Female,8,2022-12-12_08h10.42.729,memory_pilot_most_recent,2022.2.4,Win32,16.13527817,,,,,,,,,,,,,,,,,,,,,,,,,1,0,59,59,59,1,2446758985-197609.jpg,2984618344-146295.jpg,3,,,,,,,,,,,,,,,,
,,,A3UOG4U007DSXL,35,Female,8,2022-12-12_08h10.42.729,memory_pilot_most_recent,2022.2.4,Win32,16.13527817,,,,,,,,,,,,,,,,,,,,,,,,,1,0,60,60,60,1,2898632385-217137.jpg,2864904453-63932.jpg,3,,,,,,,,,,,,,,,,
,,,A3UOG4U007DSXL,35,Female,8,2022-12-12_08h10.42.729,memory_pilot_most_recent,2022.2.4,Win32,16.13527817,,,,,,,,,,,,,,,,,,,,,,,,,1,0,61,61,61,1,2446759803-49249.jpg,2592380177-354629.jpg,1,,,,,,,,,,,,,,,,
,,,A3UOG4U007DSXL,35,Female,8,2022-12-12_08h10.42.729,memory_pilot_most_recent,2022.2.4,Win32,16.13527817,,,,,,,,,,,,,,,,,,,,,,,,,1,0,62,62,62,1,2238429999-90218.jpg,2964222378-71332.jpg,3,,,,,,,,,,,,,,,,
,,,A3UOG4U007DSXL,35,Female,8,2022-12-12_08h10.42.729,memory_pilot_most_recent,2022.2.4,Win32,16.13527817,,,,,,,,,,,,,,,,,,,,,,,,,1,0,63,63,63,1,2238496457-319749.jpg,2592380234-131135.jpg,2,,,,,,,,,,,,,,,,
,,,A3UOG4U007DSXL,35,Female,8,2022-12-12_08h10.42.729,memory_pilot_most_recent,2022.2.4,Win32,16.13527817,,,,,,,,,,,,,,,,,,,,,,,,,1,0,64,64,64,1,2883255450-215309.jpg,2868476439-138927.jpg,2,,,,,,,,,,,,,,,,
,,,A3UOG4U007DSXL,35,Female,8,2022-12-12_08h10.42.729,memory_pilot_most_recent,2022.2.4,Win32,16.13527817,,,,,,,,,,,,,,,,,,,,,,,,,,,,,,,,,,,,space,3.218099999,,,,,,,,,,,,
,,,A3UOG4U007DSXL,35,Female,8,2022-12-12_08h10.42.729,memory_pilot_most_recent,2022.2.4,Win32,16.13527817,,,,,,,,,,,,,,,,,,,,,,,,,,,,,,,,,,,,,,,,,,,,,,,,,
,,,A3UOG4U007DSXL,35,Female,8,2022-12-12_08h10.42.729,memory_pilot_most_recent,2022.2.4,Win32,16.13527817,,,,,,,,,,,,,,,,,,,,,,,,,,,,,,,,,3,left,,,,left,1,3.067299999,0,0,0,0,1,2238584869-113153.jpg,2986455373-73646.jpg,,
,,,A3UOG4U007DSXL,35,Female,8,2022-12-12_08h10.42.729,memory_pilot_most_recent,2022.2.4,Win32,16.13527817,,,,,,,,,,,,,,,,,,,,,,,,,,,,,,,,,1,left,,,,left,1,1.39,0,1,1,1,1,2901934573-69337.jpg,2986401333-73218.jpg,,
,,,A3UOG4U007DSXL,35,Female,8,2022-12-12_08h10.42.729,memory_pilot_most_recent,2022.2.4,Win32,16.13527817,,,,,,,,,,,,,,,,,,,,,,,,,,,,,,,,,2,right,,,,right,1,2.9197,0,2,2,2,1,2237941457-301342.jpg,2898635427-367120.jpg,,
,,,A3UOG4U007DSXL,35,Female,8,2022-12-12_08h10.42.729,memory_pilot_most_recent,2022.2.4,Win32,16.13527817,,,,,,,,,,,,,,,,,,,,,,,,,,,,,,,,,2,right,,,,right,1,1.662,0,3,3,3,1,2238478760-167789.jpg,2625337302-355866.jpg,,
,,,A3UOG4U007DSXL,35,Female,8,2022-12-12_08h10.42.729,memory_pilot_most_recent,2022.2.4,Win32,16.13527817,,,,,,,,,,,,,,,,,,,,,,,,,,,,,,,,,3,right,,,,right,1,1.553299999,0,4,4,4,1,2238373603-13733.jpg,2238499155-170911.jpg,,
,,,A3UOG4U007DSXL,35,Female,8,2022-12-12_08h10.42.729,memory_pilot_most_recent,2022.2.4,Win32,16.13527817,,,,,,,,,,,,,,,,,,,,,,,,,,,,,,,,,1,right,,,,right,1,1.464599999,0,5,5,5,1,2460547477-349426.jpg,2238129579-80916.jpg,,
,,,A3UOG4U007DSXL,35,Female,8,2022-12-12_08h10.42.729,memory_pilot_most_recent,2022.2.4,Win32,16.13527817,,,,,,,,,,,,,,,,,,,,,,,,,,,,,,,,,2,left,,,,left,1,1.575400001,0,6,6,6,1,2994405328-74628.jpg,2825702353-60662.jpg,,
,,,A3UOG4U007DSXL,35,Female,8,2022-12-12_08h10.42.729,memory_pilot_most_recent,2022.2.4,Win32,16.13527817,,,,,,,,,,,,,,,,,,,,,,,,,,,,,,,,,2,right,,,,right,1,1.356,0,7,7,7,1,2446759580-197801.jpg,2986408352-371293.jpg,,
,,,A3UOG4U007DSXL,35,Female,8,2022-12-12_08h10.42.729,memory_pilot_most_recent,2022.2.4,Win32,16.13527817,,,,,,,,,,,,,,,,,,,,,,,,,,,,,,,,,3,right,,,,right,1,1.5463,0,8,8,8,1,2984618344-146295.jpg,2446758985-197609.jpg,,
,,,A3UOG4U007DSXL,35,Female,8,2022-12-12_08h10.42.729,memory_pilot_most_recent,2022.2.4,Win32,16.13527817,,,,,,,,,,,,,,,,,,,,,,,,,,,,,,,,,3,left,,,,right,0,2.6903,0,9,9,9,1,2964209380-218956.jpg,2898617396-291219.jpg,,
,,,A3UOG4U007DSXL,35,Female,8,2022-12-12_08h10.42.729,memory_pilot_most_recent,2022.2.4,Win32,16.13527817,,,,,,,,,,,,,,,,,,,,,,,,,,,,,,,,,1,left,,,,left,1,1.7605,0,10,10,10,1,2864909447-362146.jpg,2874316384-140749.jpg,,
,,,A3UOG4U007DSXL,35,Female,8,2022-12-12_08h10.42.729,memory_pilot_most_recent,2022.2.4,Win32,16.13527817,,,,,,,,,,,,,,,,,,,,,,,,,,,,,,,,,1,right,,,,right,1,1.472,0,11,11,11,1,2989724308-73928.jpg,2883254439-140941.jpg,,
,,,A3UOG4U007DSXL,35,Female,8,2022-12-12_08h10.42.729,memory_pilot_most_recent,2022.2.4,Win32,16.13527817,,,,,,,,,,,,,,,,,,,,,,,,,,,,,,,,,2,left,,,,left,1,1.385,0,12,12,12,1,2446760524-123999.jpg,2238552469-106359.jpg,,
,,,A3UOG4U007DSXL,35,Female,8,2022-12-12_08h10.42.729,memory_pilot_most_recent,2022.2.4,Win32,16.13527817,,,,,,,,,,,,,,,,,,,,,,,,,,,,,,,,,1,right,,,,right,1,2.502799999,0,13,13,13,1,2856919327-359676.jpg,2238126735-154721.jpg,,
,,,A3UOG4U007DSXL,35,Female,8,2022-12-12_08h10.42.729,memory_pilot_most_recent,2022.2.4,Win32,16.13527817,,,,,,,,,,,,,,,,,,,,,,,,,,,,,,,,,3,left,,,,left,1,1.5967,0,14,14,14,1,2964218374-144968.jpg,2238525773-27014.jpg,,
,,,A3UOG4U007DSXL,35,Female,8,2022-12-12_08h10.42.729,memory_pilot_most_recent,2022.2.4,Win32,16.13527817,,,,,,,,,,,,,,,,,,,,,,,,,,,,,,,,,3,left,,,,left,1,1.2897,0,15,15,15,1,2238375302-311538.jpg,2460547508-51571.jpg,,
,,,A3UOG4U007DSXL,35,Female,8,2022-12-12_08h10.42.729,memory_pilot_most_recent,2022.2.4,Win32,16.13527817,,,,,,,,,,,,,,,,,,,,,,,,,,,,,,,,,1,right,,,,right,1,1.6137,0,16,16,16,1,2864908323-64106.jpg,2512876023-52283.jpg,,
,,,A3UOG4U007DSXL,35,Female,8,2022-12-12_08h10.42.729,memory_pilot_most_recent,2022.2.4,Win32,16.13527817,,,,,,,,,,,,,,,,,,,,,,,,,,,,,,,,,1,left,,,,left,1,2.2301,0,17,17,17,1,2964216465-219242.jpg,2592380049-131079.jpg,,
,,,A3UOG4U007DSXL,35,Female,8,2022-12-12_08h10.42.729,memory_pilot_most_recent,2022.2.4,Win32,16.13527817,,,,,,,,,,,,,,,,,,,,,,,,,,,,,,,,,3,right,,,,right,1,1.3849,0,18,18,18,1,2238380314-88261.jpg,2868485396-288511.jpg,,
,,,A3UOG4U007DSXL,35,Female,8,2022-12-12_08h10.42.729,memory_pilot_most_recent,2022.2.4,Win32,16.13527817,,,,,,,,,,,,,,,,,,,,,,,,,,,,,,,,,3,right,,,,right,1,3.1741,0,19,19,19,1,2898618440-216545.jpg,2898626385-216899.jpg,,
,,,A3UOG4U007DSXL,35,Female,8,2022-12-12_08h10.42.729,memory_pilot_most_recent,2022.2.4,Win32,16.13527817,,,,,,,,,,,,,,,,,,,,,,,,,,,,,,,,,3,right,,,,right,1,2.2948,0,20,20,20,1,2237858043-1434.jpg,2898633480-217190.jpg,,
,,,A3UOG4U007DSXL,35,Female,8,2022-12-12_08h10.42.729,memory_pilot_most_recent,2022.2.4,Win32,16.13527817,,,,,,,,,,,,,,,,,,,,,,,,,,,,,,,,,2,right,,,,right,1,2.0205,0,21,21,21,1,2868485399-139476.jpg,2883255450-215311.jpg,,
,,,A3UOG4U007DSXL,35,Female,8,2022-12-12_08h10.42.729,memory_pilot_most_recent,2022.2.4,Win32,16.13527817,,,,,,,,,,,,,,,,,,,,,,,,,,,,,,,,,2,right,,,,right,1,1.3741,0,22,22,22,1,2901936369-143233.jpg,2883272438-68133.jpg,,
,,,A3UOG4U007DSXL,35,Female,8,2022-12-12_08h10.42.729,memory_pilot_most_recent,2022.2.4,Win32,16.13527817,,,,,,,,,,,,,,,,,,,,,,,,,,,,,,,,,1,right,,,,right,1,1.5582,0,23,23,23,1,2986397365-221133.jpg,2864906345-212360.jpg,,
,,,A3UOG4U007DSXL,35,Female,8,2022-12-12_08h10.42.729,memory_pilot_most_recent,2022.2.4,Win32,16.13527817,,,,,,,,,,,,,,,,,,,,,,,,,,,,,,,,,2,right,,,,right,1,1.214,0,24,24,24,1,2446760226-272006.jpg,2579432576-279079.jpg,,
,,,A3UOG4U007DSXL,35,Female,8,2022-12-12_08h10.42.729,memory_pilot_most_recent,2022.2.4,Win32,16.13527817,,,,,,,,,,,,,,,,,,,,,,,,,,,,,,,,,2,left,,,,left,1,2.2769,0,25,25,25,1,2883254439-140940.jpg,2575121890-204630.jpg,,
,,,A3UOG4U007DSXL,35,Female,8,2022-12-12_08h10.42.729,memory_pilot_most_recent,2022.2.4,Win32,16.13527817,,,,,,,,,,,,,,,,,,,,,,,,,,,,,,,,,1,right,,,,right,1,1.388799999,0,26,26,26,1,2868470400-212889.jpg,2238471391-240918.jpg,,
,,,A3UOG4U007DSXL,35,Female,8,2022-12-12_08h10.42.729,memory_pilot_most_recent,2022.2.4,Win32,16.13527817,,,,,,,,,,,,,,,,,,,,,,,,,,,,,,,,,2,left,,,,left,1,1.4816,0,27,27,27,1,2460547467-349421.jpg,2238470079-92499.jpg,,
,,,A3UOG4U007DSXL,35,Female,8,2022-12-12_08h10.42.729,memory_pilot_most_recent,2022.2.4,Win32,16.13527817,,,,,,,,,,,,,,,,,,,,,,,,,,,,,,,,,1,left,,,,left,1,1.4508,0,28,28,28,1,2592380138-56727.jpg,2986419351-296471.jpg,,
,,,A3UOG4U007DSXL,35,Female,8,2022-12-12_08h10.42.729,memory_pilot_most_recent,2022.2.4,Win32,16.13527817,,,,,,,,,,,,,,,,,,,,,,,,,,,,,,,,,3,left,,,,left,1,1.1854,0,29,29,29,1,2238584018-38513.jpg,2452381442-348755.jpg,,
,,,A3UOG4U007DSXL,35,Female,8,2022-12-12_08h10.42.729,memory_pilot_most_recent,2022.2.4,Win32,16.13527817,,,,,,,,,,,,,,,,,,,,,,,,,,,,,,,,,3,right,,,,right,1,2.1489,0,30,30,30,1,2864904453-63932.jpg,2898632385-217137.jpg,,
,,,A3UOG4U007DSXL,35,Female,8,2022-12-12_08h10.42.729,memory_pilot_most_recent,2022.2.4,Win32,16.13527817,,,,,,,,,,,,,,,,,,,,,,,,,,,,,,,,,1,right,,,,right,1,1.285,0,31,31,31,1,2575120738-55529.jpg,2898632385-217138.jpg,,
,,,A3UOG4U007DSXL,35,Female,8,2022-12-12_08h10.42.729,memory_pilot_most_recent,2022.2.4,Win32,16.13527817,,,,,,,,,,,,,,,,,,,,,,,,,,,,,,,,,2,left,,,,left,1,1.2441,0,32,32,32,1,2964213381-294061.jpg,2981234334-145491.jpg,,
,,,A3UOG4U007DSXL,35,Female,8,2022-12-12_08h10.42.729,memory_pilot_most_recent,2022.2.4,Win32,16.13527817,,,,,,,,,,,,,,,,,,,,,,,,,,,,,,,,,1,right,,,,right,1,1.492799999,0,33,33,33,1,2898631359-142720.jpg,2964213381-294060.jpg,,
,,,A3UOG4U007DSXL,35,Female,8,2022-12-12_08h10.42.729,memory_pilot_most_recent,2022.2.4,Win32,16.13527817,,,,,,,,,,,,,,,,,,,,,,,,,,,,,,,,,1,left,,,,left,1,1.7218,0,34,34,34,1,2981231446-294731.jpg,2986450330-221526.jpg,,
,,,A3UOG4U007DSXL,35,Female,8,2022-12-12_08h10.42.729,memory_pilot_most_recent,2022.2.4,Win32,16.13527817,,,,,,,,,,,,,,,,,,,,,,,,,,,,,,,,,2,right,,,,left,0,2.384599999,0,35,35,35,1,2592380177-354626.jpg,2238561223-33794.jpg,,
,,,A3UOG4U007DSXL,35,Female,8,2022-12-12_08h10.42.729,memory_pilot_most_recent,2022.2.4,Win32,16.13527817,,,,,,,,,,,,,,,,,,,,,,,,,,,,,,,,,1,left,,,,right,0,2.6265,0,36,36,36,1,2238521193-26286.jpg,2825712309-134957.jpg,,
,,,A3UOG4U007DSXL,35,Female,8,2022-12-12_08h10.42.729,memory_pilot_most_recent,2022.2.4,Win32,16.13527817,,,,,,,,,,,,,,,,,,,,,,,,,,,,,,,,,3,left,,,,left,1,1.203099999,0,37,37,37,1,2331570830-189984.jpg,2458348012-349114.jpg,,
,,,A3UOG4U007DSXL,35,Female,8,2022-12-12_08h10.42.729,memory_pilot_most_recent,2022.2.4,Win32,16.13527817,,,,,,,,,,,,,,,,,,,,,,,,,,,,,,,,,2,right,,,,right,1,4.308799999,0,38,38,38,1,2592380234-131135.jpg,2238496457-319749.jpg,,
,,,A3UOG4U007DSXL,35,Female,8,2022-12-12_08h10.42.729,memory_pilot_most_recent,2022.2.4,Win32,16.13527817,,,,,,,,,,,,,,,,,,,,,,,,,,,,,,,,,3,right,,,,left,0,1.52,0,39,39,39,1,2964218374-144967.jpg,2238575092-334269.jpg,,
,,,A3UOG4U007DSXL,35,Female,8,2022-12-12_08h10.42.729,memory_pilot_most_recent,2022.2.4,Win32,16.13527817,,,,,,,,,,,,,,,,,,,,,,,,,,,,,,,,,3,left,,,,left,1,1.2099,0,40,40,40,1,2274829821-263682.jpg,2862687442-360837.jpg,,
,,,A3UOG4U007DSXL,35,Female,8,2022-12-12_08h10.42.729,memory_pilot_most_recent,2022.2.4,Win32,16.13527817,,,,,,,,,,,,,,,,,,,,,,,,,,,,,,,,,1,right,,,,left,0,2.200599999,0,41,41,41,1,2452380171-273112.jpg,2452380166-273109.jpg,,
,,,A3UOG4U007DSXL,35,Female,8,2022-12-12_08h10.42.729,memory_pilot_most_recent,2022.2.4,Win32,16.13527817,,,,,,,,,,,,,,,,,,,,,,,,,,,,,,,,,2,right,,,,left,0,3.0092,0,42,42,42,1,2238510189-98616.jpg,2901941426-292805.jpg,,
,,,A3UOG4U007DSXL,35,Female,8,2022-12-12_08h10.42.729,memory_pilot_most_recent,2022.2.4,Win32,16.13527817,,,,,,,,,,,,,,,,,,,,,,,,,,,,,,,,,3,right,,,,right,1,1.7303,0,43,43,43,1,2964219468-71238.jpg,2238550049-105691.jpg,,
,,,A3UOG4U007DSXL,35,Female,8,2022-12-12_08h10.42.729,memory_pilot_most_recent,2022.2.4,Win32,16.13527817,,,,,,,,,,,,,,,,,,,,,,,,,,,,,,,,,1,right,,,,right,1,1.837,0,44,44,44,1,2986450334-147215.jpg,2901939379-143479.jpg,,
,,,A3UOG4U007DSXL,35,Female,8,2022-12-12_08h10.42.729,memory_pilot_most_recent,2022.2.4,Win32,16.13527817,,,,,,,,,,,,,,,,,,,,,,,,,,,,,,,,,1,left,,,,left,1,2.039599999,0,45,45,45,1,2901938432-367627.jpg,2579432708-56394.jpg,,
,,,A3UOG4U007DSXL,35,Female,8,2022-12-12_08h10.42.729,memory_pilot_most_recent,2022.2.4,Win32,16.13527817,,,,,,,,,,,,,,,,,,,,,,,,,,,,,,,,,2,left,,,,left,1,1.308200001,0,46,46,46,1,2964224310-219527.jpg,2964213441-294073.jpg,,
,,,A3UOG4U007DSXL,35,Female,8,2022-12-12_08h10.42.729,memory_pilot_most_recent,2022.2.4,Win32,16.13527817,,,,,,,,,,,,,,,,,,,,,,,,,,,,,,,,,1,right,,,,right,1,3.532200001,0,47,47,47,1,2592380177-354629.jpg,2446759803-49249.jpg,,
,,,A3UOG4U007DSXL,35,Female,8,2022-12-12_08h10.42.729,memory_pilot_most_recent,2022.2.4,Win32,16.13527817,,,,,,,,,,,,,,,,,,,,,,,,,,,,,,,,,3,right,,,,right,1,1.670400001,0,48,48,48,1,2446760692-347392.jpg,2446760940-198145.jpg,,
,,,A3UOG4U007DSXL,35,Female,8,2022-12-12_08h10.42.729,memory_pilot_most_recent,2022.2.4,Win32,16.13527817,,,,,,,,,,,,,,,,,,,,,,,,,,,,,,,,,3,right,,,,right,1,2.4066,0,49,49,49,1,2446760226-272005.jpg,2575964140-205050.jpg,,
,,,A3UOG4U007DSXL,35,Female,8,2022-12-12_08h10.42.729,memory_pilot_most_recent,2022.2.4,Win32,16.13527817,,,,,,,,,,,,,,,,,,,,,,,,,,,,,,,,,3,right,,,,right,1,1.909,0,50,50,50,1,2238328478-11678.jpg,2862691449-137104.jpg,,
,,,A3UOG4U007DSXL,35,Female,8,2022-12-12_08h10.42.729,memory_pilot_most_recent,2022.2.4,Win32,16.13527817,,,,,,,,,,,,,,,,,,,,,,,,,,,,,,,,,2,left,,,,left,1,3.401299999,0,51,51,51,1,2868475410-213219.jpg,2575964140-205051.jpg,,
,,,A3UOG4U007DSXL,35,Female,8,2022-12-12_08h10.42.729,memory_pilot_most_recent,2022.2.4,Win32,16.13527817,,,,,,,,,,,,,,,,,,,,,,,,,,,,,,,,,2,right,,,,right,1,2.214,0,52,52,52,1,2868476439-138927.jpg,2883255450-215309.jpg,,
,,,A3UOG4U007DSXL,35,Female,8,2022-12-12_08h10.42.729,memory_pilot_most_recent,2022.2.4,Win32,16.13527817,,,,,,,,,,,,,,,,,,,,,,,,,,,,,,,,,2,left,,,,left,1,1.972,0,53,53,53,1,2898624426-291546.jpg,2549106844-127878.jpg,,
,,,A3UOG4U007DSXL,35,Female,8,2022-12-12_08h10.42.729,memory_pilot_most_recent,2022.2.4,Win32,16.13527817,,,,,,,,,,,,,,,,,,,,,,,,,,,,,,,,,1,left,,,,left,1,1.506900001,0,54,54,54,1,2898617468-68274.jpg,2512875899-126682.jpg,,
,,,A3UOG4U007DSXL,35,Female,8,2022-12-12_08h10.42.729,memory_pilot_most_recent,2022.2.4,Win32,16.13527817,,,,,,,,,,,,,,,,,,,,,,,,,,,,,,,,,1,right,,,,right,1,1.4465,0,55,55,55,1,2238573549-110485.jpg,2238516618-25604.jpg,,
,,,A3UOG4U007DSXL,35,Female,8,2022-12-12_08h10.42.729,memory_pilot_most_recent,2022.2.4,Win32,16.13527817,,,,,,,,,,,,,,,,,,,,,,,,,,,,,,,,,3,left,,,,left,1,2.0319,0,56,56,56,1,2986400320-221190.jpg,2238538133-29662.jpg,,
,,,A3UOG4U007DSXL,35,Female,8,2022-12-12_08h10.42.729,memory_pilot_most_recent,2022.2.4,Win32,16.13527817,,,,,,,,,,,,,,,,,,,,,,,,,,,,,,,,,2,right,,,,right,1,1.451,0,57,57,57,1,2868469458-64561.jpg,2449442529-124446.jpg,,
,,,A3UOG4U007DSXL,35,Female,8,2022-12-12_08h10.42.729,memory_pilot_most_recent,2022.2.4,Win32,16.13527817,,,,,,,,,,,,,,,,,,,,,,,,,,,,,,,,,2,left,,,,left,1,3.1761,0,58,58,58,1,2238480434-93829.jpg,2592380255-205551.jpg,,
,,,A3UOG4U007DSXL,35,Female,8,2022-12-12_08h10.42.729,memory_pilot_most_recent,2022.2.4,Win32,16.13527817,,,,,,,,,,,,,,,,,,,,,,,,,,,,,,,,,3,right,,,,right,1,2.939,0,59,59,59,1,2964222378-71332.jpg,2238429999-90218.jpg,,
,,,A3UOG4U007DSXL,35,Female,8,2022-12-12_08h10.42.729,memory_pilot_most_recent,2022.2.4,Win32,16.13527817,,,,,,,,,,,,,,,,,,,,,,,,,,,,,,,,,,,,,,,,,,,,,,,,space,11.5735
