button.numClicks,button.timesOn,button.timesOff,workID,Age,Gender,Hours slept (last night),date,expName,psychopyVersion,OS,frameRate,space_key_responce.keys,space_key_responce.rt,demo_encoding_response.keys,demo_encoding_response.corr,demo_encoding_loop.thisRepN,demo_encoding_loop.thisTrialN,demo_encoding_loop.thisN,demo_encoding_loop.thisIndex,demo_encoding_loop.ran,DemoImage,DemoCorrect,demo_encoding_response.rt,demo_test_response.keys,demo_test_response.corr,demo_test_response.rt,demo_test_loop.thisRepN,demo_test_loop.thisTrialN,demo_test_loop.thisN,demo_test_loop.thisIndex,demo_test_loop.ran,DemoImage1,DemoImage2,DemoCorrectTest,test_encoding_response.keys,test_encoding_response.corr,trials.thisRepN,trials.thisTrialN,trials.thisN,trials.thisIndex,trials.ran,target_image,pair,layer,correct,test_encoding_response.rt,key_resp_end.keys,key_resp_end.rt,test_test_response.keys,test_test_response.corr,test_test_response.rt,trials_2.thisRepN,trials_2.thisTrialN,trials_2.thisN,trials_2.thisIndex,trials_2.ran,image1,image2,key_resp_end_2.keys,key_resp_end_2.rt
1,[2.699799999997012],[2.699799999997012],A87D3K9YVKTQ7,40,Female,7,2022-12-12_10h15.11.273,memory_pilot_most_recent,2022.2.4,Win32,60.5877007,,,,,,,,,,,,,,,,,,,,,,,,,,,,,,,,,,,,,,,,,,,,,,,,,
,,,A87D3K9YVKTQ7,40,Female,7,2022-12-12_10h15.11.273,memory_pilot_most_recent,2022.2.4,Win32,60.5877007,,,,,,,,,,,,,,,,,,,,,,,,,,,,,,,,,,,,,,,,,,,,,,,,,
,,,A87D3K9YVKTQ7,40,Female,7,2022-12-12_10h15.11.273,memory_pilot_most_recent,2022.2.4,Win32,60.5877007,space,4.7392,,,,,,,,,,,,,,,,,,,,,,,,,,,,,,,,,,,,,,,,,,,,,,,
,,,A87D3K9YVKTQ7,40,Female,7,2022-12-12_10h15.11.273,memory_pilot_most_recent,2022.2.4,Win32,60.5877007,,,,,,,,,,,,,,,,,,,,,,,,,,,,,,,,,,,,,,,,,,,,,,,,,
,,,A87D3K9YVKTQ7,40,Female,7,2022-12-12_10h15.11.273,memory_pilot_most_recent,2022.2.4,Win32,60.5877007,,,,1,0,0,0,0,1,flower1.jpg,,,,,,,,,,,,,,,,,,,,,,,,,,,,,,,,,,,,,,,
,,,A87D3K9YVKTQ7,40,Female,7,2022-12-12_10h15.11.273,memory_pilot_most_recent,2022.2.4,Win32,60.5877007,,,,1,0,1,1,1,1,flower2.jpg,,,,,,,,,,,,,,,,,,,,,,,,,,,,,,,,,,,,,,,
,,,A87D3K9YVKTQ7,40,Female,7,2022-12-12_10h15.11.273,memory_pilot_most_recent,2022.2.4,Win32,60.5877007,,,left,1,0,2,2,2,1,left.jpg,left,0.5247,,,,,,,,,,,,,,,,,,,,,,,,,,,,,,,,,,,,,
,,,A87D3K9YVKTQ7,40,Female,7,2022-12-12_10h15.11.273,memory_pilot_most_recent,2022.2.4,Win32,60.5877007,,,,1,0,3,3,3,1,flower3.jpg,,,,,,,,,,,,,,,,,,,,,,,,,,,,,,,,,,,,,,,
,,,A87D3K9YVKTQ7,40,Female,7,2022-12-12_10h15.11.273,memory_pilot_most_recent,2022.2.4,Win32,60.5877007,,,,1,0,4,4,4,1,flower4.jpg,,,,,,,,,,,,,,,,,,,,,,,,,,,,,,,,,,,,,,,
,,,A87D3K9YVKTQ7,40,Female,7,2022-12-12_10h15.11.273,memory_pilot_most_recent,2022.2.4,Win32,60.5877007,,,,1,0,5,5,5,1,flower5.jpg,,,,,,,,,,,,,,,,,,,,,,,,,,,,,,,,,,,,,,,
,,,A87D3K9YVKTQ7,40,Female,7,2022-12-12_10h15.11.273,memory_pilot_most_recent,2022.2.4,Win32,60.5877007,,,,1,0,6,6,6,1,flower6.jpg,,,,,,,,,,,,,,,,,,,,,,,,,,,,,,,,,,,,,,,
,,,A87D3K9YVKTQ7,40,Female,7,2022-12-12_10h15.11.273,memory_pilot_most_recent,2022.2.4,Win32,60.5877007,,,,,,,,,,,,,,,,,,,,,,,,,,,,,,,,,,,,,,,,,,,,,,,,,
,,,A87D3K9YVKTQ7,40,Female,7,2022-12-12_10h15.11.273,memory_pilot_most_recent,2022.2.4,Win32,60.5877007,,,,,,,,,,,,,left,1,6.1939,0,0,0,0,1,flower1.jpg,flower1_pair.jpg,left,,,,,,,,,,,,,,,,,,,,,,,,,,
,,,A87D3K9YVKTQ7,40,Female,7,2022-12-12_10h15.11.273,memory_pilot_most_recent,2022.2.4,Win32,60.5877007,,,,,,,,,,,,,left,0,2.9508,0,1,1,1,1,flower2_pair.jpg,flower2.jpg,right,,,,,,,,,,,,,,,,,,,,,,,,,,
,,,A87D3K9YVKTQ7,40,Female,7,2022-12-12_10h15.11.273,memory_pilot_most_recent,2022.2.4,Win32,60.5877007,,,,,,,,,,,,,left,1,2.3648,0,2,2,2,1,flower3.jpg,flower3_pair.jpg,left,,,,,,,,,,,,,,,,,,,,,,,,,,
,,,A87D3K9YVKTQ7,40,Female,7,2022-12-12_10h15.11.273,memory_pilot_most_recent,2022.2.4,Win32,60.5877007,,,,,,,,,,,,,right,0,1.9899,0,3,3,3,1,flower4.jpg,flower4_pair.jpg,left,,,,,,,,,,,,,,,,,,,,,,,,,,
,,,A87D3K9YVKTQ7,40,Female,7,2022-12-12_10h15.11.273,memory_pilot_most_recent,2022.2.4,Win32,60.5877007,,,,,,,,,,,,,right,1,1.3162,0,4,4,4,1,flower5_pair.jpg,flower5.jpg,right,,,,,,,,,,,,,,,,,,,,,,,,,,
,,,A87D3K9YVKTQ7,40,Female,7,2022-12-12_10h15.11.273,memory_pilot_most_recent,2022.2.4,Win32,60.5877007,,,,,,,,,,,,,left,1,1.2769,0,5,5,5,1,flower6.jpg,flower6_pair.jpg,left,,,,,,,,,,,,,,,,,,,,,,,,,,
,,,A87D3K9YVKTQ7,40,Female,7,2022-12-12_10h15.11.273,memory_pilot_most_recent,2022.2.4,Win32,60.5877007,,,,,,,,,,,,,,,,,,,,,,,,,,,,,,,,,,,,,,,,,,,,,,,,,
,,,A87D3K9YVKTQ7,40,Female,7,2022-12-12_10h15.11.273,memory_pilot_most_recent,2022.2.4,Win32,60.5877007,space,1.4528,,,,,,,,,,,,,,,,,,,,,,,,,,,,,,,,,,,,,,,,,,,,,,,
,,,A87D3K9YVKTQ7,40,Female,7,2022-12-12_10h15.11.273,memory_pilot_most_recent,2022.2.4,Win32,60.5877007,,,,,,,,,,,,,,,,,,,,,,,,,1,0,0,0,0,1,2238126735-154721.jpg,2856919327-359676.jpg,1,,,,,,,,,,,,,,,,
,,,A87D3K9YVKTQ7,40,Female,7,2022-12-12_10h15.11.273,memory_pilot_most_recent,2022.2.4,Win32,60.5877007,,,,,,,,,,,,,,,,,,,,,,,,,1,0,1,1,1,1,2868475410-213219.jpg,2238216693-10721.jpg,1,,,,,,,,,,,,,,,,
,,,A87D3K9YVKTQ7,40,Female,7,2022-12-12_10h15.11.273,memory_pilot_most_recent,2022.2.4,Win32,60.5877007,,,,,,,,,,,,,,,,,,,,,,,,,1,0,2,2,2,1,2898624426-291546.jpg,2986402377-371266.jpg,1,,,,,,,,,,,,,,,,
,,,A87D3K9YVKTQ7,40,Female,7,2022-12-12_10h15.11.273,memory_pilot_most_recent,2022.2.4,Win32,60.5877007,,,,,,,,,,,,,,,,,,,,,,,,,1,0,3,3,3,1,2238561223-33794.jpg,2883271323-68049.jpg,3,,,,,,,,,,,,,,,,
,,,A87D3K9YVKTQ7,40,Female,7,2022-12-12_10h15.11.273,memory_pilot_most_recent,2022.2.4,Win32,60.5877007,,,,,,,,,,,,,,,,,,,,,,,,,1,0,4,4,4,1,2994405328-74628.jpg,2825702353-60662.jpg,2,,,,,,,,,,,,,,,,
,,,A87D3K9YVKTQ7,40,Female,7,2022-12-12_10h15.11.273,memory_pilot_most_recent,2022.2.4,Win32,60.5877007,,,,,,,,,,,,,,,,,,,,,,,,,1,0,5,5,5,1,2575964140-205050.jpg,2446760226-272005.jpg,3,,,,,,,,,,,,,,,,
,,,A87D3K9YVKTQ7,40,Female,7,2022-12-12_10h15.11.273,memory_pilot_most_recent,2022.2.4,Win32,60.5877007,,,,,,,,,,,,,,,,,,,,,,,,,1,0,6,6,6,1,2964224310-219527.jpg,2238490590-169598.jpg,3,,,,,,,,,,,,,,,,
,,,A87D3K9YVKTQ7,40,Female,7,2022-12-12_10h15.11.273,memory_pilot_most_recent,2022.2.4,Win32,60.5877007,,,,,,,,,,,,,,,,,,,,,,,,,1,0,7,7,7,1,2883254439-140940.jpg,2575121890-204630.jpg,2,,,,,,,,,,,,,,,,
,,,A87D3K9YVKTQ7,40,Female,7,2022-12-12_10h15.11.273,memory_pilot_most_recent,2022.2.4,Win32,60.5877007,,,,,,,,,,,,,,,,,,,,,,,,,1,0,8,8,8,1,2238584018-38513.jpg,2452381442-348755.jpg,3,,,,,,,,,,,,,,,,
,,,A87D3K9YVKTQ7,40,Female,7,2022-12-12_10h15.11.273,memory_pilot_most_recent,2022.2.4,Win32,60.5877007,,,,,,,,,,,,,,,,,,,,,,,,,1,0,9,9,9,1,2238521193-26286.jpg,2825712309-134957.jpg,1,,,,,,,,,,,,,,,,
,,,A87D3K9YVKTQ7,40,Female,7,2022-12-12_10h15.11.273,memory_pilot_most_recent,2022.2.4,Win32,60.5877007,,,,,,,,,,,,,,,,,,,,,,,,,1,0,10,10,10,1,2901934573-69337.jpg,2986401333-73218.jpg,1,,,,,,,,,,,,,,,,
,,,A87D3K9YVKTQ7,40,Female,7,2022-12-12_10h15.11.273,memory_pilot_most_recent,2022.2.4,Win32,60.5877007,,,,,,,,,,,,,,,,,,,,,,,,,1,0,11,11,11,1,2964218374-144968.jpg,2238525773-27014.jpg,3,,,,,,,,,,,,,,,,
,,,A87D3K9YVKTQ7,40,Female,7,2022-12-12_10h15.11.273,memory_pilot_most_recent,2022.2.4,Win32,60.5877007,,,,,,,,,,,,,,,,,,,,,,,,,1,0,12,12,12,1,2898632385-217137.jpg,2238480803-19739.jpg,2,,,,,,,,,,,,,,,,
,,,A87D3K9YVKTQ7,40,Female,7,2022-12-12_10h15.11.273,memory_pilot_most_recent,2022.2.4,Win32,60.5877007,,,,,,,,,,,,,,,,,,,,,,,,left,1,0,13,13,13,1,left.jpg,,,left,0.5774,,,,,,,,,,,,,,
,,,A87D3K9YVKTQ7,40,Female,7,2022-12-12_10h15.11.273,memory_pilot_most_recent,2022.2.4,Win32,60.5877007,,,,,,,,,,,,,,,,,,,,,,,,,1,0,14,14,14,1,2238129579-80916.jpg,2460547477-349426.jpg,1,,,,,,,,,,,,,,,,
,,,A87D3K9YVKTQ7,40,Female,7,2022-12-12_10h15.11.273,memory_pilot_most_recent,2022.2.4,Win32,60.5877007,,,,,,,,,,,,,,,,,,,,,,,,,1,0,15,15,15,1,2274829821-263682.jpg,2238570526-257884.jpg,1,,,,,,,,,,,,,,,,
,,,A87D3K9YVKTQ7,40,Female,7,2022-12-12_10h15.11.273,memory_pilot_most_recent,2022.2.4,Win32,60.5877007,,,,,,,,,,,,,,,,,,,,,,,,right,1,0,16,16,16,1,right.jpg,,,right,0.5652,,,,,,,,,,,,,,
,,,A87D3K9YVKTQ7,40,Female,7,2022-12-12_10h15.11.273,memory_pilot_most_recent,2022.2.4,Win32,60.5877007,,,,,,,,,,,,,,,,,,,,,,,,,1,0,17,17,17,1,2446758985-197609.jpg,2898633421-291973.jpg,1,,,,,,,,,,,,,,,,
,,,A87D3K9YVKTQ7,40,Female,7,2022-12-12_10h15.11.273,memory_pilot_most_recent,2022.2.4,Win32,60.5877007,,,,,,,,,,,,,,,,,,,,,,,,,1,0,18,18,18,1,2898632385-217138.jpg,2460547992-349586.jpg,3,,,,,,,,,,,,,,,,
,,,A87D3K9YVKTQ7,40,Female,7,2022-12-12_10h15.11.273,memory_pilot_most_recent,2022.2.4,Win32,60.5877007,,,,,,,,,,,,,,,,,,,,,,,,,1,0,19,19,19,1,2981231446-294731.jpg,2238568685-183597.jpg,2,,,,,,,,,,,,,,,,
,,,A87D3K9YVKTQ7,40,Female,7,2022-12-12_10h15.11.273,memory_pilot_most_recent,2022.2.4,Win32,60.5877007,,,,,,,,,,,,,,,,,,,,,,,,,1,0,20,20,20,1,2964216465-219242.jpg,2512875796-274856.jpg,2,,,,,,,,,,,,,,,,
,,,A87D3K9YVKTQ7,40,Female,7,2022-12-12_10h15.11.273,memory_pilot_most_recent,2022.2.4,Win32,60.5877007,,,,,,,,,,,,,,,,,,,,,,,,,1,0,21,21,21,1,2238516618-25604.jpg,2238470979-92618.jpg,3,,,,,,,,,,,,,,,,
,,,A87D3K9YVKTQ7,40,Female,7,2022-12-12_10h15.11.273,memory_pilot_most_recent,2022.2.4,Win32,60.5877007,,,,,,,,,,,,,,,,,,,,,,,,,1,0,22,22,22,1,2901941426-292805.jpg,2868488422-363715.jpg,1,,,,,,,,,,,,,,,,
,,,A87D3K9YVKTQ7,40,Female,7,2022-12-12_10h15.11.273,memory_pilot_most_recent,2022.2.4,Win32,60.5877007,,,,,,,,,,,,,,,,,,,,,,,,,1,0,23,23,23,1,2238471391-240918.jpg,2986399339-146857.jpg,3,,,,,,,,,,,,,,,,
,,,A87D3K9YVKTQ7,40,Female,7,2022-12-12_10h15.11.273,memory_pilot_most_recent,2022.2.4,Win32,60.5877007,,,,,,,,,,,,,,,,,,,,,,,,,1,0,24,24,24,1,2862691449-137104.jpg,2986455341-296758.jpg,2,,,,,,,,,,,,,,,,
,,,A87D3K9YVKTQ7,40,Female,7,2022-12-12_10h15.11.273,memory_pilot_most_recent,2022.2.4,Win32,60.5877007,,,,,,,,,,,,,,,,,,,,,,,,,1,0,25,25,25,1,2238375302-311538.jpg,2460547508-51571.jpg,3,,,,,,,,,,,,,,,,
,,,A87D3K9YVKTQ7,40,Female,7,2022-12-12_10h15.11.273,memory_pilot_most_recent,2022.2.4,Win32,60.5877007,,,,,,,,,,,,,,,,,,,,,,,,,1,0,26,26,26,1,2446760524-123999.jpg,2238539138-29878.jpg,3,,,,,,,,,,,,,,,,
,,,A87D3K9YVKTQ7,40,Female,7,2022-12-12_10h15.11.273,memory_pilot_most_recent,2022.2.4,Win32,60.5877007,,,,,,,,,,,,,,,,,,,,,,,,,1,0,27,27,27,1,2592380138-56727.jpg,2430664847-345753.jpg,2,,,,,,,,,,,,,,,,
,,,A87D3K9YVKTQ7,40,Female,7,2022-12-12_10h15.11.273,memory_pilot_most_recent,2022.2.4,Win32,60.5877007,,,,,,,,,,,,,,,,,,,,,,,,,1,0,28,28,28,1,2579432576-279079.jpg,2446760226-272006.jpg,2,,,,,,,,,,,,,,,,
,,,A87D3K9YVKTQ7,40,Female,7,2022-12-12_10h15.11.273,memory_pilot_most_recent,2022.2.4,Win32,60.5877007,,,,,,,,,,,,,,,,,,,,,,,,,1,0,29,29,29,1,2238480434-93829.jpg,2592380255-205551.jpg,2,,,,,,,,,,,,,,,,
,,,A87D3K9YVKTQ7,40,Female,7,2022-12-12_10h15.11.273,memory_pilot_most_recent,2022.2.4,Win32,60.5877007,,,,,,,,,,,,,,,,,,,,,,,,,1,0,30,30,30,1,2452380166-273109.jpg,2452380171-273112.jpg,1,,,,,,,,,,,,,,,,
,,,A87D3K9YVKTQ7,40,Female,7,2022-12-12_10h15.11.273,memory_pilot_most_recent,2022.2.4,Win32,60.5877007,,,,,,,,,,,,,,,,,,,,,,,,,1,0,31,31,31,1,2625337302-355866.jpg,2238478760-167789.jpg,2,,,,,,,,,,,,,,,,
,,,A87D3K9YVKTQ7,40,Female,7,2022-12-12_10h15.11.273,memory_pilot_most_recent,2022.2.4,Win32,60.5877007,,,,,,,,,,,,,,,,,,,,,,,,,1,0,32,32,32,1,2238429999-90218.jpg,2986448334-147157.jpg,1,,,,,,,,,,,,,,,,
,,,A87D3K9YVKTQ7,40,Female,7,2022-12-12_10h15.11.273,memory_pilot_most_recent,2022.2.4,Win32,60.5877007,,,,,,,,,,,,,,,,,,,,,,,,,1,0,33,33,33,1,2883255450-215309.jpg,2238562336-256366.jpg,3,,,,,,,,,,,,,,,,
,,,A87D3K9YVKTQ7,40,Female,7,2022-12-12_10h15.11.273,memory_pilot_most_recent,2022.2.4,Win32,60.5877007,,,,,,,,,,,,,,,,,,,,,,,,right,1,0,34,34,34,1,right.jpg,,,right,0.4665,,,,,,,,,,,,,,
,,,A87D3K9YVKTQ7,40,Female,7,2022-12-12_10h15.11.273,memory_pilot_most_recent,2022.2.4,Win32,60.5877007,,,,,,,,,,,,,,,,,,,,,,,,,1,0,35,35,35,1,2883272438-68133.jpg,2592380136-279476.jpg,3,,,,,,,,,,,,,,,,
,,,A87D3K9YVKTQ7,40,Female,7,2022-12-12_10h15.11.273,memory_pilot_most_recent,2022.2.4,Win32,60.5877007,,,,,,,,,,,,,,,,,,,,,,,,,1,0,36,36,36,1,2986400320-221190.jpg,2238538133-29662.jpg,3,,,,,,,,,,,,,,,,
,,,A87D3K9YVKTQ7,40,Female,7,2022-12-12_10h15.11.273,memory_pilot_most_recent,2022.2.4,Win32,60.5877007,,,,,,,,,,,,,,,,,,,,,,,,,1,0,37,37,37,1,2883254439-140941.jpg,2989724308-73928.jpg,1,,,,,,,,,,,,,,,,
,,,A87D3K9YVKTQ7,40,Female,7,2022-12-12_10h15.11.273,memory_pilot_most_recent,2022.2.4,Win32,60.5877007,,,,,,,,,,,,,,,,,,,,,,,,right,1,0,38,38,38,1,right.jpg,,,right,0.7315,,,,,,,,,,,,,,
,,,A87D3K9YVKTQ7,40,Female,7,2022-12-12_10h15.11.273,memory_pilot_most_recent,2022.2.4,Win32,60.5877007,,,,,,,,,,,,,,,,,,,,,,,,,1,0,39,39,39,1,2883255450-215311.jpg,2575964014-130589.jpg,3,,,,,,,,,,,,,,,,
,,,A87D3K9YVKTQ7,40,Female,7,2022-12-12_10h15.11.273,memory_pilot_most_recent,2022.2.4,Win32,60.5877007,,,,,,,,,,,,,,,,,,,,,,,,,1,0,40,40,40,1,2864909447-362146.jpg,2238555799-106905.jpg,2,,,,,,,,,,,,,,,,
,,,A87D3K9YVKTQ7,40,Female,7,2022-12-12_10h15.11.273,memory_pilot_most_recent,2022.2.4,Win32,60.5877007,,,,,,,,,,,,,,,,,,,,,,,,,1,0,41,41,41,1,2238575092-334269.jpg,2860304305-210777.jpg,2,,,,,,,,,,,,,,,,
,,,A87D3K9YVKTQ7,40,Female,7,2022-12-12_10h15.11.273,memory_pilot_most_recent,2022.2.4,Win32,60.5877007,,,,,,,,,,,,,,,,,,,,,,,,,1,0,42,42,42,1,2898626385-216899.jpg,2449442365-198476.jpg,2,,,,,,,,,,,,,,,,
,,,A87D3K9YVKTQ7,40,Female,7,2022-12-12_10h15.11.273,memory_pilot_most_recent,2022.2.4,Win32,60.5877007,,,,,,,,,,,,,,,,,,,,,,,,,1,0,43,43,43,1,2964213381-294060.jpg,2238520921-248323.jpg,2,,,,,,,,,,,,,,,,
,,,A87D3K9YVKTQ7,40,Female,7,2022-12-12_10h15.11.273,memory_pilot_most_recent,2022.2.4,Win32,60.5877007,,,,,,,,,,,,,,,,,,,,,,,,,1,0,44,44,44,1,2238584869-113153.jpg,2986455373-73646.jpg,3,,,,,,,,,,,,,,,,
,,,A87D3K9YVKTQ7,40,Female,7,2022-12-12_10h15.11.273,memory_pilot_most_recent,2022.2.4,Win32,60.5877007,,,,,,,,,,,,,,,,,,,,,,,,,1,0,45,45,45,1,2460547467-349421.jpg,2238554179-106663.jpg,3,,,,,,,,,,,,,,,,
,,,A87D3K9YVKTQ7,40,Female,7,2022-12-12_10h15.11.273,memory_pilot_most_recent,2022.2.4,Win32,60.5877007,,,,,,,,,,,,,,,,,,,,,,,,,1,0,46,46,46,1,2238499155-170911.jpg,2452380832-348593.jpg,2,,,,,,,,,,,,,,,,
,,,A87D3K9YVKTQ7,40,Female,7,2022-12-12_10h15.11.273,memory_pilot_most_recent,2022.2.4,Win32,60.5877007,,,,,,,,,,,,,,,,,,,,,,,,,1,0,47,47,47,1,2512876023-52283.jpg,2864908323-64106.jpg,1,,,,,,,,,,,,,,,,
,,,A87D3K9YVKTQ7,40,Female,7,2022-12-12_10h15.11.273,memory_pilot_most_recent,2022.2.4,Win32,60.5877007,,,,,,,,,,,,,,,,,,,,,,,,,1,0,48,48,48,1,2446759803-49249.jpg,2238468265-166556.jpg,2,,,,,,,,,,,,,,,,
,,,A87D3K9YVKTQ7,40,Female,7,2022-12-12_10h15.11.273,memory_pilot_most_recent,2022.2.4,Win32,60.5877007,,,,,,,,,,,,,,,,,,,,,,,,right,1,0,49,49,49,1,right.jpg,,,right,0.4623,,,,,,,,,,,,,,
,,,A87D3K9YVKTQ7,40,Female,7,2022-12-12_10h15.11.273,memory_pilot_most_recent,2022.2.4,Win32,60.5877007,,,,,,,,,,,,,,,,,,,,,,,,,1,0,50,50,50,1,2964209380-218956.jpg,2868488456-288710.jpg,1,,,,,,,,,,,,,,,,
,,,A87D3K9YVKTQ7,40,Female,7,2022-12-12_10h15.11.273,memory_pilot_most_recent,2022.2.4,Win32,60.5877007,,,,,,,,,,,,,,,,,,,,,,,,,1,0,51,51,51,1,2238550049-105691.jpg,2449443271-272729.jpg,2,,,,,,,,,,,,,,,,
,,,A87D3K9YVKTQ7,40,Female,7,2022-12-12_10h15.11.273,memory_pilot_most_recent,2022.2.4,Win32,60.5877007,,,,,,,,,,,,,,,,,,,,,,,,,1,0,52,52,52,1,2898635427-367120.jpg,2901936309-143207.jpg,3,,,,,,,,,,,,,,,,
,,,A87D3K9YVKTQ7,40,Female,7,2022-12-12_10h15.11.273,memory_pilot_most_recent,2022.2.4,Win32,60.5877007,,,,,,,,,,,,,,,,,,,,,,,,,1,0,53,53,53,1,2986408352-371293.jpg,2446759580-197801.jpg,2,,,,,,,,,,,,,,,,
,,,A87D3K9YVKTQ7,40,Female,7,2022-12-12_10h15.11.273,memory_pilot_most_recent,2022.2.4,Win32,60.5877007,,,,,,,,,,,,,,,,,,,,,,,,,1,0,54,54,54,1,2446760940-198145.jpg,2449443300-198739.jpg,1,,,,,,,,,,,,,,,,
,,,A87D3K9YVKTQ7,40,Female,7,2022-12-12_10h15.11.273,memory_pilot_most_recent,2022.2.4,Win32,60.5877007,,,,,,,,,,,,,,,,,,,,,,,,,1,0,55,55,55,1,2331570830-189984.jpg,2446760483-49429.jpg,1,,,,,,,,,,,,,,,,
,,,A87D3K9YVKTQ7,40,Female,7,2022-12-12_10h15.11.273,memory_pilot_most_recent,2022.2.4,Win32,60.5877007,,,,,,,,,,,,,,,,,,,,,,,,,1,0,56,56,56,1,2449442529-124446.jpg,2864911339-138231.jpg,3,,,,,,,,,,,,,,,,
,,,A87D3K9YVKTQ7,40,Female,7,2022-12-12_10h15.11.273,memory_pilot_most_recent,2022.2.4,Win32,60.5877007,,,,,,,,,,,,,,,,,,,,,,,,,1,0,57,57,57,1,2901939379-143479.jpg,2864909422-362141.jpg,3,,,,,,,,,,,,,,,,
,,,A87D3K9YVKTQ7,40,Female,7,2022-12-12_10h15.11.273,memory_pilot_most_recent,2022.2.4,Win32,60.5877007,,,,,,,,,,,,,,,,,,,,,,,,,1,0,58,58,58,1,2964213381-294061.jpg,2981234334-145491.jpg,2,,,,,,,,,,,,,,,,
,,,A87D3K9YVKTQ7,40,Female,7,2022-12-12_10h15.11.273,memory_pilot_most_recent,2022.2.4,Win32,60.5877007,,,,,,,,,,,,,,,,,,,,,,,,,1,0,59,59,59,1,2898633480-217190.jpg,2986450334-147216.jpg,2,,,,,,,,,,,,,,,,
,,,A87D3K9YVKTQ7,40,Female,7,2022-12-12_10h15.11.273,memory_pilot_most_recent,2022.2.4,Win32,60.5877007,,,,,,,,,,,,,,,,,,,,,,,,,1,0,60,60,60,1,2864906345-212360.jpg,2994403305-222559.jpg,3,,,,,,,,,,,,,,,,
,,,A87D3K9YVKTQ7,40,Female,7,2022-12-12_10h15.11.273,memory_pilot_most_recent,2022.2.4,Win32,60.5877007,,,,,,,,,,,,,,,,,,,,,,,,,1,0,61,61,61,1,2868485396-288511.jpg,2868470456-287597.jpg,1,,,,,,,,,,,,,,,,
,,,A87D3K9YVKTQ7,40,Female,7,2022-12-12_10h15.11.273,memory_pilot_most_recent,2022.2.4,Win32,60.5877007,,,,,,,,,,,,,,,,,,,,,,,,,1,0,62,62,62,1,2898617468-68274.jpg,2512875899-126682.jpg,1,,,,,,,,,,,,,,,,
,,,A87D3K9YVKTQ7,40,Female,7,2022-12-12_10h15.11.273,memory_pilot_most_recent,2022.2.4,Win32,60.5877007,,,,,,,,,,,,,,,,,,,,,,,,,1,0,63,63,63,1,2901938432-367627.jpg,2579432708-56394.jpg,1,,,,,,,,,,,,,,,,
,,,A87D3K9YVKTQ7,40,Female,7,2022-12-12_10h15.11.273,memory_pilot_most_recent,2022.2.4,Win32,60.5877007,,,,,,,,,,,,,,,,,,,,,,,,,1,0,64,64,64,1,2238496457-319749.jpg,2238570142-333223.jpg,1,,,,,,,,,,,,,,,,
,,,A87D3K9YVKTQ7,40,Female,7,2022-12-12_10h15.11.273,memory_pilot_most_recent,2022.2.4,Win32,60.5877007,,,,,,,,,,,,,,,,,,,,,,,,,,,,,,,,,,,,space,7.6386,,,,,,,,,,,,
,,,A87D3K9YVKTQ7,40,Female,7,2022-12-12_10h15.11.273,memory_pilot_most_recent,2022.2.4,Win32,60.5877007,,,,,,,,,,,,,,,,,,,,,,,,,,,,,,,,,,,,,,,,,,,,,,,,,
,,,A87D3K9YVKTQ7,40,Female,7,2022-12-12_10h15.11.273,memory_pilot_most_recent,2022.2.4,Win32,60.5877007,,,,,,,,,,,,,,,,,,,,,,,,,,,,,,,,,1,left,,,,left,1,1.8992,0,0,0,0,1,2238496457-319749.jpg,2238570142-333223.jpg,,
,,,A87D3K9YVKTQ7,40,Female,7,2022-12-12_10h15.11.273,memory_pilot_most_recent,2022.2.4,Win32,60.5877007,,,,,,,,,,,,,,,,,,,,,,,,,,,,,,,,,2,right,,,,right,1,1.4516,0,1,1,1,1,2430664847-345753.jpg,2592380138-56727.jpg,,
,,,A87D3K9YVKTQ7,40,Female,7,2022-12-12_10h15.11.273,memory_pilot_most_recent,2022.2.4,Win32,60.5877007,,,,,,,,,,,,,,,,,,,,,,,,,,,,,,,,,3,right,,,,left,0,1.7773,0,2,2,2,1,2592380136-279476.jpg,2883272438-68133.jpg,,
,,,A87D3K9YVKTQ7,40,Female,7,2022-12-12_10h15.11.273,memory_pilot_most_recent,2022.2.4,Win32,60.5877007,,,,,,,,,,,,,,,,,,,,,,,,,,,,,,,,,2,right,,,,right,1,1.5279,0,3,3,3,1,2986455341-296758.jpg,2862691449-137104.jpg,,
,,,A87D3K9YVKTQ7,40,Female,7,2022-12-12_10h15.11.273,memory_pilot_most_recent,2022.2.4,Win32,60.5877007,,,,,,,,,,,,,,,,,,,,,,,,,,,,,,,,,1,right,,,,right,1,1.1473,0,4,4,4,1,2238570526-257884.jpg,2274829821-263682.jpg,,
,,,A87D3K9YVKTQ7,40,Female,7,2022-12-12_10h15.11.273,memory_pilot_most_recent,2022.2.4,Win32,60.5877007,,,,,,,,,,,,,,,,,,,,,,,,,,,,,,,,,1,right,,,,left,0,1.7311,0,5,5,5,1,2864908323-64106.jpg,2512876023-52283.jpg,,
,,,A87D3K9YVKTQ7,40,Female,7,2022-12-12_10h15.11.273,memory_pilot_most_recent,2022.2.4,Win32,60.5877007,,,,,,,,,,,,,,,,,,,,,,,,,,,,,,,,,2,left,,,,left,1,1.3681,0,6,6,6,1,2238499155-170911.jpg,2452380832-348593.jpg,,
,,,A87D3K9YVKTQ7,40,Female,7,2022-12-12_10h15.11.273,memory_pilot_most_recent,2022.2.4,Win32,60.5877007,,,,,,,,,,,,,,,,,,,,,,,,,,,,,,,,,3,right,,,,right,1,1.3013,0,7,7,7,1,2238554179-106663.jpg,2460547467-349421.jpg,,
,,,A87D3K9YVKTQ7,40,Female,7,2022-12-12_10h15.11.273,memory_pilot_most_recent,2022.2.4,Win32,60.5877007,,,,,,,,,,,,,,,,,,,,,,,,,,,,,,,,,3,right,,,,left,0,2.0857,0,8,8,8,1,2901936309-143207.jpg,2898635427-367120.jpg,,
,,,A87D3K9YVKTQ7,40,Female,7,2022-12-12_10h15.11.273,memory_pilot_most_recent,2022.2.4,Win32,60.5877007,,,,,,,,,,,,,,,,,,,,,,,,,,,,,,,,,3,left,,,,left,1,1.8308,0,9,9,9,1,2901939379-143479.jpg,2864909422-362141.jpg,,
,,,A87D3K9YVKTQ7,40,Female,7,2022-12-12_10h15.11.273,memory_pilot_most_recent,2022.2.4,Win32,60.5877007,,,,,,,,,,,,,,,,,,,,,,,,,,,,,,,,,1,left,,,,right,0,1.6636,0,10,10,10,1,2898617468-68274.jpg,2512875899-126682.jpg,,
,,,A87D3K9YVKTQ7,40,Female,7,2022-12-12_10h15.11.273,memory_pilot_most_recent,2022.2.4,Win32,60.5877007,,,,,,,,,,,,,,,,,,,,,,,,,,,,,,,,,1,right,,,,left,0,2.1374,0,11,11,11,1,2452380171-273112.jpg,2452380166-273109.jpg,,
,,,A87D3K9YVKTQ7,40,Female,7,2022-12-12_10h15.11.273,memory_pilot_most_recent,2022.2.4,Win32,60.5877007,,,,,,,,,,,,,,,,,,,,,,,,,,,,,,,,,2,left,,,,left,1,1.1525,0,12,12,12,1,2964213381-294060.jpg,2238520921-248323.jpg,,
,,,A87D3K9YVKTQ7,40,Female,7,2022-12-12_10h15.11.273,memory_pilot_most_recent,2022.2.4,Win32,60.5877007,,,,,,,,,,,,,,,,,,,,,,,,,,,,,,,,,3,right,,,,right,1,1.9503,0,13,13,13,1,2238470979-92618.jpg,2238516618-25604.jpg,,
,,,A87D3K9YVKTQ7,40,Female,7,2022-12-12_10h15.11.273,memory_pilot_most_recent,2022.2.4,Win32,60.5877007,,,,,,,,,,,,,,,,,,,,,,,,,,,,,,,,,1,right,,,,right,1,1.4666,0,14,14,14,1,2989724308-73928.jpg,2883254439-140941.jpg,,
,,,A87D3K9YVKTQ7,40,Female,7,2022-12-12_10h15.11.273,memory_pilot_most_recent,2022.2.4,Win32,60.5877007,,,,,,,,,,,,,,,,,,,,,,,,,,,,,,,,,2,left,,,,left,1,1.4945,0,15,15,15,1,2994405328-74628.jpg,2825702353-60662.jpg,,
,,,A87D3K9YVKTQ7,40,Female,7,2022-12-12_10h15.11.273,memory_pilot_most_recent,2022.2.4,Win32,60.5877007,,,,,,,,,,,,,,,,,,,,,,,,,,,,,,,,,3,right,,,,right,1,2.5808,0,16,16,16,1,2986399339-146857.jpg,2238471391-240918.jpg,,
,,,A87D3K9YVKTQ7,40,Female,7,2022-12-12_10h15.11.273,memory_pilot_most_recent,2022.2.4,Win32,60.5877007,,,,,,,,,,,,,,,,,,,,,,,,,,,,,,,,,3,right,,,,right,1,2.2509,0,17,17,17,1,2238490590-169598.jpg,2964224310-219527.jpg,,
,,,A87D3K9YVKTQ7,40,Female,7,2022-12-12_10h15.11.273,memory_pilot_most_recent,2022.2.4,Win32,60.5877007,,,,,,,,,,,,,,,,,,,,,,,,,,,,,,,,,3,right,,,,right,1,1.2961,0,18,18,18,1,2452381442-348755.jpg,2238584018-38513.jpg,,
,,,A87D3K9YVKTQ7,40,Female,7,2022-12-12_10h15.11.273,memory_pilot_most_recent,2022.2.4,Win32,60.5877007,,,,,,,,,,,,,,,,,,,,,,,,,,,,,,,,,1,right,,,,left,0,1.5375,0,19,19,19,1,2868488422-363715.jpg,2901941426-292805.jpg,,
,,,A87D3K9YVKTQ7,40,Female,7,2022-12-12_10h15.11.273,memory_pilot_most_recent,2022.2.4,Win32,60.5877007,,,,,,,,,,,,,,,,,,,,,,,,,,,,,,,,,2,right,,,,right,1,2.1464,0,20,20,20,1,2238478760-167789.jpg,2625337302-355866.jpg,,
,,,A87D3K9YVKTQ7,40,Female,7,2022-12-12_10h15.11.273,memory_pilot_most_recent,2022.2.4,Win32,60.5877007,,,,,,,,,,,,,,,,,,,,,,,,,,,,,,,,,2,right,,,,right,1,1.6354,0,21,21,21,1,2446760226-272006.jpg,2579432576-279079.jpg,,
,,,A87D3K9YVKTQ7,40,Female,7,2022-12-12_10h15.11.273,memory_pilot_most_recent,2022.2.4,Win32,60.5877007,,,,,,,,,,,,,,,,,,,,,,,,,,,,,,,,,2,left,,,,left,1,1.6974,0,22,22,22,1,2898633480-217190.jpg,2986450334-147216.jpg,,
,,,A87D3K9YVKTQ7,40,Female,7,2022-12-12_10h15.11.273,memory_pilot_most_recent,2022.2.4,Win32,60.5877007,,,,,,,,,,,,,,,,,,,,,,,,,,,,,,,,,3,left,,,,right,0,1.9003,0,23,23,23,1,2238584869-113153.jpg,2986455373-73646.jpg,,
,,,A87D3K9YVKTQ7,40,Female,7,2022-12-12_10h15.11.273,memory_pilot_most_recent,2022.2.4,Win32,60.5877007,,,,,,,,,,,,,,,,,,,,,,,,,,,,,,,,,3,right,,,,right,1,2.3964,0,24,24,24,1,2238562336-256366.jpg,2883255450-215309.jpg,,
,,,A87D3K9YVKTQ7,40,Female,7,2022-12-12_10h15.11.273,memory_pilot_most_recent,2022.2.4,Win32,60.5877007,,,,,,,,,,,,,,,,,,,,,,,,,,,,,,,,,1,right,,,,right,1,1.6003,0,25,25,25,1,2446760483-49429.jpg,2331570830-189984.jpg,,
,,,A87D3K9YVKTQ7,40,Female,7,2022-12-12_10h15.11.273,memory_pilot_most_recent,2022.2.4,Win32,60.5877007,,,,,,,,,,,,,,,,,,,,,,,,,,,,,,,,,1,right,,,,right,1,1.5614,0,26,26,26,1,2460547477-349426.jpg,2238129579-80916.jpg,,
,,,A87D3K9YVKTQ7,40,Female,7,2022-12-12_10h15.11.273,memory_pilot_most_recent,2022.2.4,Win32,60.5877007,,,,,,,,,,,,,,,,,,,,,,,,,,,,,,,,,2,left,,,,left,1,2.1023,0,27,27,27,1,2238575092-334269.jpg,2860304305-210777.jpg,,
,,,A87D3K9YVKTQ7,40,Female,7,2022-12-12_10h15.11.273,memory_pilot_most_recent,2022.2.4,Win32,60.5877007,,,,,,,,,,,,,,,,,,,,,,,,,,,,,,,,,2,left,,,,left,1,1.6643,0,28,28,28,1,2864909447-362146.jpg,2238555799-106905.jpg,,
,,,A87D3K9YVKTQ7,40,Female,7,2022-12-12_10h15.11.273,memory_pilot_most_recent,2022.2.4,Win32,60.5877007,,,,,,,,,,,,,,,,,,,,,,,,,,,,,,,,,2,right,,,,right,1,1.9968,0,29,29,29,1,2512875796-274856.jpg,2964216465-219242.jpg,,
,,,A87D3K9YVKTQ7,40,Female,7,2022-12-12_10h15.11.273,memory_pilot_most_recent,2022.2.4,Win32,60.5877007,,,,,,,,,,,,,,,,,,,,,,,,,,,,,,,,,2,left,,,,left,1,3.2788,0,30,30,30,1,2964213381-294061.jpg,2981234334-145491.jpg,,
,,,A87D3K9YVKTQ7,40,Female,7,2022-12-12_10h15.11.273,memory_pilot_most_recent,2022.2.4,Win32,60.5877007,,,,,,,,,,,,,,,,,,,,,,,,,,,,,,,,,2,right,,,,right,1,2.6279,0,31,31,31,1,2446759580-197801.jpg,2986408352-371293.jpg,,
,,,A87D3K9YVKTQ7,40,Female,7,2022-12-12_10h15.11.273,memory_pilot_most_recent,2022.2.4,Win32,60.5877007,,,,,,,,,,,,,,,,,,,,,,,,,,,,,,,,,2,right,,,,right,1,2.5913,0,32,32,32,1,2575121890-204630.jpg,2883254439-140940.jpg,,
,,,A87D3K9YVKTQ7,40,Female,7,2022-12-12_10h15.11.273,memory_pilot_most_recent,2022.2.4,Win32,60.5877007,,,,,,,,,,,,,,,,,,,,,,,,,,,,,,,,,1,left,,,,right,0,2.2458,0,33,33,33,1,2898624426-291546.jpg,2986402377-371266.jpg,,
,,,A87D3K9YVKTQ7,40,Female,7,2022-12-12_10h15.11.273,memory_pilot_most_recent,2022.2.4,Win32,60.5877007,,,,,,,,,,,,,,,,,,,,,,,,,,,,,,,,,1,right,,,,left,0,4.3859,0,34,34,34,1,2238216693-10721.jpg,2868475410-213219.jpg,,
,,,A87D3K9YVKTQ7,40,Female,7,2022-12-12_10h15.11.273,memory_pilot_most_recent,2022.2.4,Win32,60.5877007,,,,,,,,,,,,,,,,,,,,,,,,,,,,,,,,,3,right,,,,right,1,4.8388,0,35,35,35,1,2446760226-272005.jpg,2575964140-205050.jpg,,
,,,A87D3K9YVKTQ7,40,Female,7,2022-12-12_10h15.11.273,memory_pilot_most_recent,2022.2.4,Win32,60.5877007,,,,,,,,,,,,,,,,,,,,,,,,,,,,,,,,,1,left,,,,left,1,4.1733,0,36,36,36,1,2868485396-288511.jpg,2868470456-287597.jpg,,
,,,A87D3K9YVKTQ7,40,Female,7,2022-12-12_10h15.11.273,memory_pilot_most_recent,2022.2.4,Win32,60.5877007,,,,,,,,,,,,,,,,,,,,,,,,,,,,,,,,,3,right,,,,right,1,4.4934,0,37,37,37,1,2575964014-130589.jpg,2883255450-215311.jpg,,
,,,A87D3K9YVKTQ7,40,Female,7,2022-12-12_10h15.11.273,memory_pilot_most_recent,2022.2.4,Win32,60.5877007,,,,,,,,,,,,,,,,,,,,,,,,,,,,,,,,,1,left,,,,left,1,5.511,0,38,38,38,1,2446760940-198145.jpg,2449443300-198739.jpg,,
,,,A87D3K9YVKTQ7,40,Female,7,2022-12-12_10h15.11.273,memory_pilot_most_recent,2022.2.4,Win32,60.5877007,,,,,,,,,,,,,,,,,,,,,,,,,,,,,,,,,2,left,,,,left,1,5.3634,0,39,39,39,1,2446759803-49249.jpg,2238468265-166556.jpg,,
,,,A87D3K9YVKTQ7,40,Female,7,2022-12-12_10h15.11.273,memory_pilot_most_recent,2022.2.4,Win32,60.5877007,,,,,,,,,,,,,,,,,,,,,,,,,,,,,,,,,1,right,,,,right,1,3.3339,0,40,40,40,1,2856919327-359676.jpg,2238126735-154721.jpg,,
,,,A87D3K9YVKTQ7,40,Female,7,2022-12-12_10h15.11.273,memory_pilot_most_recent,2022.2.4,Win32,60.5877007,,,,,,,,,,,,,,,,,,,,,,,,,,,,,,,,,1,right,,,,right,1,4.6709,0,41,41,41,1,2579432708-56394.jpg,2901938432-367627.jpg,,
,,,A87D3K9YVKTQ7,40,Female,7,2022-12-12_10h15.11.273,memory_pilot_most_recent,2022.2.4,Win32,60.5877007,,,,,,,,,,,,,,,,,,,,,,,,,,,,,,,,,1,right,,,,right,1,2.8044,0,42,42,42,1,2825712309-134957.jpg,2238521193-26286.jpg,,
,,,A87D3K9YVKTQ7,40,Female,7,2022-12-12_10h15.11.273,memory_pilot_most_recent,2022.2.4,Win32,60.5877007,,,,,,,,,,,,,,,,,,,,,,,,,,,,,,,,,2,right,,,,right,1,4.1227,0,43,43,43,1,2449442365-198476.jpg,2898626385-216899.jpg,,
,,,A87D3K9YVKTQ7,40,Female,7,2022-12-12_10h15.11.273,memory_pilot_most_recent,2022.2.4,Win32,60.5877007,,,,,,,,,,,,,,,,,,,,,,,,,,,,,,,,,3,right,,,,right,1,2.9878,0,44,44,44,1,2864911339-138231.jpg,2449442529-124446.jpg,,
,,,A87D3K9YVKTQ7,40,Female,7,2022-12-12_10h15.11.273,memory_pilot_most_recent,2022.2.4,Win32,60.5877007,,,,,,,,,,,,,,,,,,,,,,,,,,,,,,,,,1,left,,,,right,0,7.0758,0,45,45,45,1,2238429999-90218.jpg,2986448334-147157.jpg,,
,,,A87D3K9YVKTQ7,40,Female,7,2022-12-12_10h15.11.273,memory_pilot_most_recent,2022.2.4,Win32,60.5877007,,,,,,,,,,,,,,,,,,,,,,,,,,,,,,,,,2,left,,,,left,1,2.5933,0,46,46,46,1,2898632385-217137.jpg,2238480803-19739.jpg,,
,,,A87D3K9YVKTQ7,40,Female,7,2022-12-12_10h15.11.273,memory_pilot_most_recent,2022.2.4,Win32,60.5877007,,,,,,,,,,,,,,,,,,,,,,,,,,,,,,,,,1,left,,,,right,0,3.8094,0,47,47,47,1,2901934573-69337.jpg,2986401333-73218.jpg,,
,,,A87D3K9YVKTQ7,40,Female,7,2022-12-12_10h15.11.273,memory_pilot_most_recent,2022.2.4,Win32,60.5877007,,,,,,,,,,,,,,,,,,,,,,,,,,,,,,,,,1,left,,,,left,1,1.724,0,48,48,48,1,2964209380-218956.jpg,2868488456-288710.jpg,,
,,,A87D3K9YVKTQ7,40,Female,7,2022-12-12_10h15.11.273,memory_pilot_most_recent,2022.2.4,Win32,60.5877007,,,,,,,,,,,,,,,,,,,,,,,,,,,,,,,,,2,left,,,,left,1,3.4863,0,49,49,49,1,2238480434-93829.jpg,2592380255-205551.jpg,,
,,,A87D3K9YVKTQ7,40,Female,7,2022-12-12_10h15.11.273,memory_pilot_most_recent,2022.2.4,Win32,60.5877007,,,,,,,,,,,,,,,,,,,,,,,,,,,,,,,,,3,right,,,,right,1,1.6576,0,50,50,50,1,2994403305-222559.jpg,2864906345-212360.jpg,,
,,,A87D3K9YVKTQ7,40,Female,7,2022-12-12_10h15.11.273,memory_pilot_most_recent,2022.2.4,Win32,60.5877007,,,,,,,,,,,,,,,,,,,,,,,,,,,,,,,,,3,left,,,,right,0,4.5483,0,51,51,51,1,2446760524-123999.jpg,2238539138-29878.jpg,,
,,,A87D3K9YVKTQ7,40,Female,7,2022-12-12_10h15.11.273,memory_pilot_most_recent,2022.2.4,Win32,60.5877007,,,,,,,,,,,,,,,,,,,,,,,,,,,,,,,,,3,left,,,,left,1,1.3731,0,52,52,52,1,2238561223-33794.jpg,2883271323-68049.jpg,,
,,,A87D3K9YVKTQ7,40,Female,7,2022-12-12_10h15.11.273,memory_pilot_most_recent,2022.2.4,Win32,60.5877007,,,,,,,,,,,,,,,,,,,,,,,,,,,,,,,,,1,left,,,,left,1,6.1825,0,53,53,53,1,2446758985-197609.jpg,2898633421-291973.jpg,,
,,,A87D3K9YVKTQ7,40,Female,7,2022-12-12_10h15.11.273,memory_pilot_most_recent,2022.2.4,Win32,60.5877007,,,,,,,,,,,,,,,,,,,,,,,,,,,,,,,,,3,left,,,,left,1,5.7628,0,54,54,54,1,2964218374-144968.jpg,2238525773-27014.jpg,,
,,,A87D3K9YVKTQ7,40,Female,7,2022-12-12_10h15.11.273,memory_pilot_most_recent,2022.2.4,Win32,60.5877007,,,,,,,,,,,,,,,,,,,,,,,,,,,,,,,,,3,left,,,,left,1,4.8879,0,55,55,55,1,2986400320-221190.jpg,2238538133-29662.jpg,,
,,,A87D3K9YVKTQ7,40,Female,7,2022-12-12_10h15.11.273,memory_pilot_most_recent,2022.2.4,Win32,60.5877007,,,,,,,,,,,,,,,,,,,,,,,,,,,,,,,,,2,left,,,,right,0,3.9207,0,56,56,56,1,2981231446-294731.jpg,2238568685-183597.jpg,,
,,,A87D3K9YVKTQ7,40,Female,7,2022-12-12_10h15.11.273,memory_pilot_most_recent,2022.2.4,Win32,60.5877007,,,,,,,,,,,,,,,,,,,,,,,,,,,,,,,,,3,left,,,,left,1,3.7257,0,57,57,57,1,2898632385-217138.jpg,2460547992-349586.jpg,,
,,,A87D3K9YVKTQ7,40,Female,7,2022-12-12_10h15.11.273,memory_pilot_most_recent,2022.2.4,Win32,60.5877007,,,,,,,,,,,,,,,,,,,,,,,,,,,,,,,,,3,left,,,,left,1,2.5906,0,58,58,58,1,2238375302-311538.jpg,2460547508-51571.jpg,,
,,,A87D3K9YVKTQ7,40,Female,7,2022-12-12_10h15.11.273,memory_pilot_most_recent,2022.2.4,Win32,60.5877007,,,,,,,,,,,,,,,,,,,,,,,,,,,,,,,,,2,right,,,,right,1,2.7769,0,59,59,59,1,2449443271-272729.jpg,2238550049-105691.jpg,,
,,,A87D3K9YVKTQ7,40,Female,7,2022-12-12_10h15.11.273,memory_pilot_most_recent,2022.2.4,Win32,60.5877007,,,,,,,,,,,,,,,,,,,,,,,,,,,,,,,,,,,,,,,,,,,,,,,,space,5.0433
