,workID,Age,Gender,target,image1,image2,correct,background_0,background_1,background_2,background_3,background_4,background_5,target_index,test_key_resp.keys,test_key_resp.rt,distractor_level,category,selected_dist,slider_part2.response,slider_part2.rt,subject
0,AAUE4IKTZSXNW,32,male,golf_course_87.jpg,golf_course_161.jpg,golf_course_87.jpg,right,badlands_36.jpg,highway_193.jpg,bridge_87.jpg,mountain_92.jpg,golf_course_87.jpg,playground_162.jpg,4.0,right,1.8502,1.0,golf,golf_course_161.jpg,6.145833333,52.6043,AAUE4IKTZSXNW
1,AAUE4IKTZSXNW,32,male,bridge_65.jpg,bridge_65.jpg,bridge_181.jpg,left,bridge_65.jpg,mountain_294.jpg,highway_53.jpg,badlands_67.jpg,playground_49.jpg,golf_course_162.jpg,0.0,left,1.0434,0.0,bridge,bridge_181.jpg,5.979166667,5.1379,AAUE4IKTZSXNW
2,AAUE4IKTZSXNW,32,male,mountain_123.jpg,mountain_94.jpg,mountain_123.jpg,right,bridge_64.jpg,mountain_123.jpg,playground_154.jpg,highway_102.jpg,badlands_54.jpg,golf_course_265.jpg,1.0,right,2.6081,0.0,mountain,mountain_94.jpg,2.020833333,5.2971,AAUE4IKTZSXNW
3,AAUE4IKTZSXNW,32,male,highway_93.jpg,highway_93.jpg,highway_85.jpg,left,bridge_106.jpg,mountain_166.jpg,badlands_214.jpg,highway_93.jpg,playground_251.jpg,golf_course_241.jpg,3.0,left,4.8751,0.0,highway,highway_85.jpg,7.114583333,3.1758,AAUE4IKTZSXNW
4,AAUE4IKTZSXNW,32,male,highway_209.jpg,highway_209.jpg,highway_122.jpg,left,golf_course_305.jpg,badlands_60.jpg,bridge_66.jpg,playground_196.jpg,highway_209.jpg,mountain_253.jpg,4.0,left,18.6783,1.0,highway,highway_122.jpg,7.9375,2.7297,AAUE4IKTZSXNW
5,AAUE4IKTZSXNW,32,male,golf_course_195.jpg,golf_course_25.jpg,golf_course_195.jpg,right,playground_118.jpg,bridge_35.jpg,golf_course_195.jpg,mountain_76.jpg,highway_147.jpg,badlands_152.jpg,2.0,right,28.1488,0.0,golf,golf_course_25.jpg,2.041666667,3.2166,AAUE4IKTZSXNW
6,AAUE4IKTZSXNW,32,male,bridge_250.jpg,bridge_250.jpg,bridge_134.jpg,left,badlands_16.jpg,bridge_250.jpg,mountain_135.jpg,playground_141.jpg,golf_course_56.jpg,highway_274.jpg,1.0,left,4.3643,0.0,bridge,bridge_134.jpg,4.927083333,3.0449,AAUE4IKTZSXNW
7,AAUE4IKTZSXNW,32,male,playground_257.jpg,playground_257.jpg,playground_215.jpg,left,badlands_46.jpg,playground_257.jpg,highway_33.jpg,golf_course_116.jpg,bridge_120.jpg,mountain_33.jpg,1.0,left,3.5228,1.0,playground,playground_215.jpg,8.052083333,3.1698,AAUE4IKTZSXNW
8,AAUE4IKTZSXNW,32,male,bridge_146.jpg,bridge_121.jpg,bridge_146.jpg,right,playground_14.jpg,golf_course_174.jpg,bridge_146.jpg,mountain_290.jpg,highway_257.jpg,badlands_81.jpg,2.0,right,3.1722,1.0,bridge,bridge_121.jpg,5.958333333,3.1513,AAUE4IKTZSXNW
9,AAUE4IKTZSXNW,32,male,playground_145.jpg,playground_242.jpg,playground_145.jpg,right,mountain_87.jpg,playground_145.jpg,highway_76.jpg,bridge_39.jpg,golf_course_221.jpg,badlands_156.jpg,1.0,right,3.3842,1.0,playground,playground_242.jpg,7.958333333,2.6286,AAUE4IKTZSXNW
10,AAUE4IKTZSXNW,32,male,badlands_21.jpg,badlands_21.jpg,badlands_98.jpg,left,playground_132.jpg,highway_315.jpg,badlands_21.jpg,golf_course_144.jpg,mountain_120.jpg,bridge_22.jpg,2.0,left,2.6805,1.0,badlands,badlands_98.jpg,7.947916667,2.2038,AAUE4IKTZSXNW
11,AAUE4IKTZSXNW,32,male,mountain_57.jpg,mountain_57.jpg,mountain_138.jpg,left,golf_course_55.jpg,mountain_57.jpg,playground_222.jpg,bridge_234.jpg,highway_78.jpg,badlands_215.jpg,1.0,left,1.9891,1.0,mountain,mountain_138.jpg,6.0625,2.0571,AAUE4IKTZSXNW
12,AAUE4IKTZSXNW,32,male,bridge_172.jpg,bridge_172.jpg,bridge_17.jpg,left,mountain_34.jpg,highway_101.jpg,bridge_172.jpg,golf_course_253.jpg,playground_74.jpg,badlands_128.jpg,2.0,left,2.0471,0.0,bridge,bridge_17.jpg,2.9375,2.8777,AAUE4IKTZSXNW
13,AAUE4IKTZSXNW,32,male,golf_course_188.jpg,golf_course_188.jpg,golf_course_157.jpg,left,highway_365.jpg,mountain_143.jpg,badlands_219.jpg,golf_course_188.jpg,bridge_173.jpg,playground_235.jpg,3.0,right,2.1922,0.0,golf,golf_course_157.jpg,6.614583333,2.1065,AAUE4IKTZSXNW
14,AAUE4IKTZSXNW,32,male,playground_131.jpg,playground_43.jpg,playground_131.jpg,right,playground_131.jpg,mountain_190.jpg,badlands_26.jpg,golf_course_128.jpg,bridge_133.jpg,highway_15.jpg,0.0,left,15.3745,0.0,playground,playground_43.jpg,3.927083333,2.7037,AAUE4IKTZSXNW
15,AAUE4IKTZSXNW,32,male,playground_144.jpg,playground_144.jpg,playground_137.jpg,left,highway_290.jpg,playground_144.jpg,badlands_216.jpg,bridge_190.jpg,mountain_277.jpg,golf_course_3.jpg,1.0,left,2.2531,0.0,playground,playground_137.jpg,4.895833333,2.6057,AAUE4IKTZSXNW
16,AAUE4IKTZSXNW,32,male,mountain_156.jpg,mountain_156.jpg,mountain_128.jpg,left,badlands_166.jpg,playground_15.jpg,mountain_156.jpg,highway_295.jpg,golf_course_199.jpg,bridge_225.jpg,2.0,left,7.7443,0.0,mountain,mountain_128.jpg,4.947916667,2.0953,AAUE4IKTZSXNW
17,AAUE4IKTZSXNW,32,male,mountain_110.jpg,mountain_157.jpg,mountain_110.jpg,right,highway_90.jpg,playground_191.jpg,bridge_142.jpg,golf_course_164.jpg,mountain_110.jpg,badlands_157.jpg,4.0,right,6.0522,0.0,mountain,mountain_157.jpg,7.010416667,2.618,AAUE4IKTZSXNW
18,AAUE4IKTZSXNW,32,male,playground_219.jpg,playground_205.jpg,playground_219.jpg,right,badlands_106.jpg,highway_268.jpg,playground_219.jpg,golf_course_42.jpg,mountain_89.jpg,bridge_74.jpg,2.0,right,22.9766,1.0,playground,playground_205.jpg,5.90625,3.9167,AAUE4IKTZSXNW
19,AAUE4IKTZSXNW,32,male,playground_10.jpg,playground_10.jpg,playground_12.jpg,left,mountain_249.jpg,bridge_112.jpg,playground_10.jpg,badlands_20.jpg,highway_17.jpg,golf_course_212.jpg,2.0,left,3.632,1.0,playground,playground_12.jpg,5.822916667,4.142,AAUE4IKTZSXNW
20,AAUE4IKTZSXNW,32,male,golf_course_217.jpg,golf_course_217.jpg,golf_course_262.jpg,left,mountain_91.jpg,highway_141.jpg,golf_course_217.jpg,badlands_164.jpg,bridge_266.jpg,playground_249.jpg,2.0,right,7.162,1.0,golf,golf_course_262.jpg,4.125,1.896,AAUE4IKTZSXNW
21,AAUE4IKTZSXNW,32,male,badlands_221.jpg,badlands_221.jpg,badlands_207.jpg,left,golf_course_226.jpg,badlands_221.jpg,mountain_40.jpg,playground_246.jpg,bridge_96.jpg,highway_18.jpg,1.0,left,9.4088,1.0,badlands,badlands_207.jpg,4.916666667,2.2402,AAUE4IKTZSXNW
22,AAUE4IKTZSXNW,32,male,badlands_52.jpg,badlands_63.jpg,badlands_52.jpg,right,highway_36.jpg,golf_course_176.jpg,mountain_146.jpg,badlands_52.jpg,playground_140.jpg,bridge_86.jpg,3.0,right,0.5595,1.0,badlands,badlands_63.jpg,3.6875,2.2729,AAUE4IKTZSXNW
23,AAUE4IKTZSXNW,32,male,highway_273.jpg,highway_273.jpg,highway_384.jpg,left,bridge_126.jpg,golf_course_342.jpg,mountain_19.jpg,playground_16.jpg,highway_273.jpg,badlands_33.jpg,4.0,left,4.4409,0.0,highway,highway_384.jpg,5.84375,1.9664,AAUE4IKTZSXNW
24,AAUE4IKTZSXNW,32,male,golf_course_78.jpg,golf_course_78.jpg,golf_course_101.jpg,left,highway_30.jpg,golf_course_78.jpg,badlands_10.jpg,mountain_212.jpg,playground_30.jpg,bridge_144.jpg,1.0,left,30.1988,1.0,golf,golf_course_101.jpg,4.0,2.335,AAUE4IKTZSXNW
25,AAUE4IKTZSXNW,32,male,bridge_191.jpg,bridge_191.jpg,bridge_75.jpg,left,bridge_191.jpg,highway_354.jpg,playground_83.jpg,golf_course_181.jpg,badlands_88.jpg,mountain_180.jpg,0.0,right,10.8547,1.0,bridge,bridge_75.jpg,4.760416667,2.5338,AAUE4IKTZSXNW
26,AAUE4IKTZSXNW,32,male,highway_394.jpg,highway_204.jpg,highway_394.jpg,right,mountain_88.jpg,bridge_158.jpg,highway_394.jpg,golf_course_61.jpg,playground_50.jpg,badlands_227.jpg,2.0,right,30.5529,0.0,highway,highway_204.jpg,4.90625,2.6983,AAUE4IKTZSXNW
27,AAUE4IKTZSXNW,32,male,highway_156.jpg,highway_156.jpg,highway_160.jpg,left,mountain_199.jpg,playground_36.jpg,highway_156.jpg,golf_course_171.jpg,badlands_170.jpg,bridge_24.jpg,2.0,right,16.3898,0.0,highway,highway_160.jpg,4.833333333,2.475,AAUE4IKTZSXNW
28,AAUE4IKTZSXNW,32,male,badlands_70.jpg,badlands_70.jpg,badlands_102.jpg,left,playground_153.jpg,mountain_45.jpg,bridge_136.jpg,badlands_70.jpg,golf_course_338.jpg,highway_9.jpg,3.0,left,9.2293,0.0,badlands,badlands_102.jpg,5.8125,1.8445,AAUE4IKTZSXNW
29,AAUE4IKTZSXNW,32,male,playground_240.jpg,playground_240.jpg,playground_2.jpg,left,badlands_27.jpg,mountain_32.jpg,bridge_72.jpg,playground_240.jpg,golf_course_71.jpg,highway_313.jpg,3.0,right,8.2123,0.0,playground,playground_2.jpg,5.208333333,2.7663,AAUE4IKTZSXNW
30,AAUE4IKTZSXNW,32,male,bridge_108.jpg,bridge_108.jpg,bridge_116.jpg,left,bridge_108.jpg,playground_47.jpg,golf_course_238.jpg,highway_3.jpg,mountain_228.jpg,badlands_183.jpg,0.0,right,37.4271,0.0,bridge,bridge_116.jpg,5.208333333,1.5221,AAUE4IKTZSXNW
31,AAUE4IKTZSXNW,32,male,badlands_184.jpg,badlands_184.jpg,badlands_103.jpg,left,badlands_184.jpg,golf_course_137.jpg,playground_124.jpg,highway_335.jpg,mountain_43.jpg,bridge_218.jpg,0.0,right,2.1723,1.0,badlands,badlands_103.jpg,6.21875,1.7214,AAUE4IKTZSXNW
32,AAUE4IKTZSXNW,32,male,highway_294.jpg,highway_203.jpg,highway_294.jpg,right,badlands_174.jpg,highway_294.jpg,mountain_169.jpg,golf_course_194.jpg,bridge_140.jpg,playground_258.jpg,1.0,left,3.7919,0.0,highway,highway_203.jpg,7.3125,2.4834,AAUE4IKTZSXNW
33,AAUE4IKTZSXNW,32,male,mountain_293.jpg,mountain_47.jpg,mountain_293.jpg,right,playground_61.jpg,badlands_35.jpg,mountain_293.jpg,highway_287.jpg,golf_course_269.jpg,bridge_180.jpg,2.0,right,7.8985,1.0,mountain,mountain_47.jpg,7.3125,1.7658,AAUE4IKTZSXNW
34,AAUE4IKTZSXNW,32,male,mountain_222.jpg,mountain_222.jpg,mountain_244.jpg,left,mountain_222.jpg,golf_course_252.jpg,bridge_1.jpg,playground_227.jpg,badlands_138.jpg,highway_342.jpg,0.0,left,4.811,0.0,mountain,mountain_244.jpg,5.083333333,2.3958,AAUE4IKTZSXNW
35,AAUE4IKTZSXNW,32,male,highway_359.jpg,highway_379.jpg,highway_359.jpg,right,bridge_76.jpg,highway_359.jpg,golf_course_218.jpg,badlands_97.jpg,mountain_151.jpg,playground_42.jpg,1.0,right,1.8335,1.0,highway,highway_379.jpg,8.322916667,2.7121,AAUE4IKTZSXNW
36,AAUE4IKTZSXNW,32,male,golf_course_214.jpg,golf_course_214.jpg,golf_course_317.jpg,left,mountain_152.jpg,badlands_120.jpg,golf_course_214.jpg,bridge_152.jpg,playground_165.jpg,highway_178.jpg,2.0,left,8.7339,1.0,golf,golf_course_317.jpg,8.166666667,2.4101,AAUE4IKTZSXNW
37,AAUE4IKTZSXNW,32,male,mountain_154.jpg,mountain_95.jpg,mountain_154.jpg,right,playground_98.jpg,highway_399.jpg,mountain_154.jpg,badlands_211.jpg,bridge_117.jpg,golf_course_127.jpg,2.0,right,4.5257,1.0,mountain,mountain_95.jpg,8.645833333,2.1668,AAUE4IKTZSXNW
38,AAUE4IKTZSXNW,32,male,badlands_222.jpg,badlands_222.jpg,badlands_62.jpg,left,badlands_222.jpg,highway_37.jpg,playground_173.jpg,mountain_309.jpg,golf_course_282.jpg,bridge_155.jpg,0.0,left,2.3369,1.0,badlands,badlands_62.jpg,8.59375,2.2347,AAUE4IKTZSXNW
39,AAUE4IKTZSXNW,32,male,golf_course_193.jpg,golf_course_235.jpg,golf_course_193.jpg,right,highway_226.jpg,playground_248.jpg,bridge_63.jpg,badlands_47.jpg,golf_course_193.jpg,mountain_204.jpg,4.0,left,4.2519,0.0,golf,golf_course_235.jpg,3.885416667,2.5172,AAUE4IKTZSXNW
40,AAUE4IKTZSXNW,32,male,playground_76.jpg,playground_76.jpg,playground_22.jpg,left,playground_76.jpg,bridge_238.jpg,mountain_38.jpg,highway_148.jpg,badlands_85.jpg,golf_course_105.jpg,0.0,right,4.2894,0.0,playground,playground_22.jpg,7.239583333,2.5682,AAUE4IKTZSXNW
41,AAUE4IKTZSXNW,32,male,highway_245.jpg,highway_206.jpg,highway_245.jpg,right,bridge_68.jpg,badlands_213.jpg,highway_245.jpg,golf_course_219.jpg,mountain_41.jpg,playground_68.jpg,2.0,left,2.0695,1.0,highway,highway_206.jpg,7.34375,4.0121,AAUE4IKTZSXNW
42,AAUE4IKTZSXNW,32,male,badlands_113.jpg,badlands_203.jpg,badlands_113.jpg,right,bridge_224.jpg,golf_course_23.jpg,mountain_29.jpg,playground_233.jpg,badlands_113.jpg,highway_413.jpg,4.0,left,4.2462,1.0,badlands,badlands_203.jpg,7.34375,1.4857,AAUE4IKTZSXNW
43,AAUE4IKTZSXNW,32,male,golf_course_331.jpg,golf_course_26.jpg,golf_course_331.jpg,right,mountain_126.jpg,playground_120.jpg,highway_269.jpg,golf_course_331.jpg,badlands_105.jpg,bridge_102.jpg,3.0,right,12.6689,1.0,golf,golf_course_26.jpg,7.604166667,2.79,AAUE4IKTZSXNW
44,AAUE4IKTZSXNW,32,male,bridge_128.jpg,bridge_128.jpg,bridge_244.jpg,left,badlands_185.jpg,playground_37.jpg,bridge_128.jpg,highway_319.jpg,mountain_202.jpg,golf_course_196.jpg,2.0,right,3.2104,1.0,bridge,bridge_244.jpg,4.71875,2.5604,AAUE4IKTZSXNW
45,AAUE4IKTZSXNW,32,male,mountain_101.jpg,mountain_101.jpg,mountain_221.jpg,left,golf_course_333.jpg,playground_78.jpg,highway_246.jpg,mountain_101.jpg,badlands_129.jpg,bridge_254.jpg,3.0,left,14.6474,1.0,mountain,mountain_221.jpg,4.875,3.1385,AAUE4IKTZSXNW
46,AAUE4IKTZSXNW,32,male,bridge_256.jpg,bridge_54.jpg,bridge_256.jpg,right,mountain_250.jpg,bridge_256.jpg,golf_course_288.jpg,highway_58.jpg,playground_26.jpg,badlands_80.jpg,1.0,left,6.7037,0.0,bridge,bridge_54.jpg,7.322916667,3.3085,AAUE4IKTZSXNW
47,AAUE4IKTZSXNW,32,male,badlands_23.jpg,badlands_23.jpg,badlands_101.jpg,left,golf_course_0.jpg,playground_176.jpg,badlands_23.jpg,highway_288.jpg,mountain_62.jpg,bridge_179.jpg,2.0,right,13.2135,1.0,badlands,badlands_101.jpg,4.489583333,3.1077,AAUE4IKTZSXNW
48,AAUE4IKTZSXNW,32,male,badlands_137.jpg,badlands_137.jpg,badlands_139.jpg,left,playground_103.jpg,badlands_137.jpg,highway_29.jpg,mountain_35.jpg,bridge_193.jpg,golf_course_313.jpg,1.0,left,13.8143,1.0,badlands,badlands_139.jpg,5.3125,1.9364,AAUE4IKTZSXNW
49,AAUE4IKTZSXNW,32,male,highway_415.jpg,highway_415.jpg,highway_60.jpg,left,badlands_6.jpg,bridge_79.jpg,playground_64.jpg,highway_415.jpg,golf_course_316.jpg,mountain_198.jpg,3.0,right,28.6929,0.0,highway,highway_60.jpg,6.833333333,2.1862,AAUE4IKTZSXNW
50,AAUE4IKTZSXNW,32,male,bridge_202.jpg,bridge_202.jpg,bridge_31.jpg,left,bridge_202.jpg,highway_107.jpg,badlands_200.jpg,playground_256.jpg,mountain_160.jpg,golf_course_291.jpg,0.0,right,183.9637,0.0,bridge,bridge_31.jpg,6.78125,2.5108,AAUE4IKTZSXNW
51,AAUE4IKTZSXNW,32,male,mountain_232.jpg,mountain_232.jpg,mountain_3.jpg,left,bridge_167.jpg,playground_33.jpg,badlands_30.jpg,mountain_232.jpg,golf_course_202.jpg,highway_138.jpg,3.0,left,1.2051,0.0,mountain,mountain_3.jpg,7.322916667,2.4921,AAUE4IKTZSXNW
52,AAUE4IKTZSXNW,32,male,playground_117.jpg,playground_117.jpg,playground_167.jpg,left,badlands_72.jpg,playground_117.jpg,mountain_268.jpg,golf_course_308.jpg,highway_83.jpg,bridge_124.jpg,1.0,left,1.9439,0.0,playground,playground_167.jpg,7.885416667,2.7173,AAUE4IKTZSXNW
53,AAUE4IKTZSXNW,32,male,golf_course_15.jpg,golf_course_97.jpg,golf_course_15.jpg,right,playground_55.jpg,badlands_150.jpg,highway_28.jpg,mountain_102.jpg,golf_course_15.jpg,bridge_45.jpg,4.0,right,2.2248,1.0,golf,golf_course_97.jpg,7.1875,4.6813,AAUE4IKTZSXNW
54,AAUE4IKTZSXNW,32,male,highway_177.jpg,highway_177.jpg,highway_87.jpg,left,playground_6.jpg,mountain_192.jpg,highway_177.jpg,bridge_147.jpg,badlands_175.jpg,golf_course_41.jpg,2.0,right,2.6564,0.0,highway,highway_87.jpg,3.291666667,2.3487,AAUE4IKTZSXNW
55,AAUE4IKTZSXNW,32,male,bridge_91.jpg,bridge_253.jpg,bridge_91.jpg,right,playground_39.jpg,golf_course_67.jpg,badlands_180.jpg,highway_199.jpg,bridge_91.jpg,mountain_137.jpg,4.0,right,86.9668,0.0,bridge,bridge_253.jpg,1.427083333,2.5753,AAUE4IKTZSXNW
56,AAUE4IKTZSXNW,32,male,badlands_24.jpg,badlands_3.jpg,badlands_24.jpg,right,golf_course_120.jpg,playground_85.jpg,badlands_24.jpg,mountain_51.jpg,bridge_110.jpg,highway_247.jpg,2.0,right,3.2581,0.0,badlands,badlands_3.jpg,1.822916667,2.976,AAUE4IKTZSXNW
57,AAUE4IKTZSXNW,32,male,playground_60.jpg,playground_268.jpg,playground_60.jpg,right,highway_31.jpg,golf_course_307.jpg,bridge_52.jpg,badlands_104.jpg,playground_60.jpg,mountain_226.jpg,4.0,right,351.1892,0.0,playground,playground_268.jpg,1.708333333,2.3469,AAUE4IKTZSXNW
58,AAUE4IKTZSXNW,32,male,mountain_230.jpg,mountain_230.jpg,mountain_97.jpg,left,badlands_173.jpg,golf_course_138.jpg,bridge_197.jpg,mountain_230.jpg,playground_181.jpg,highway_191.jpg,3.0,right,1.726,1.0,mountain,mountain_97.jpg,6.385416667,9.9696,AAUE4IKTZSXNW
59,AAUE4IKTZSXNW,32,male,golf_course_309.jpg,golf_course_309.jpg,golf_course_209.jpg,left,golf_course_309.jpg,highway_383.jpg,badlands_125.jpg,playground_84.jpg,bridge_204.jpg,mountain_306.jpg,0.0,left,3.5492,1.0,golf,golf_course_209.jpg,2.489583333,2.8825,AAUE4IKTZSXNW
60,A3BJHUEY6OGLPA,47,femele,golf_course_78.jpg,golf_course_134.jpg,golf_course_78.jpg,right,bridge_143.jpg,badlands_213.jpg,playground_154.jpg,golf_course_78.jpg,highway_265.jpg,mountain_143.jpg,3.0,right,2.3798,0.0,golf,golf_course_134.jpg,7.052083333,4.4189,A3BJHUEY6OGLPA
61,A3BJHUEY6OGLPA,47,femele,highway_394.jpg,highway_394.jpg,highway_406.jpg,left,badlands_54.jpg,golf_course_305.jpg,bridge_124.jpg,mountain_33.jpg,highway_394.jpg,playground_195.jpg,4.0,left,2.1676,1.0,highway,highway_406.jpg,6.989583333,0.741,A3BJHUEY6OGLPA
62,A3BJHUEY6OGLPA,47,femele,mountain_154.jpg,mountain_154.jpg,mountain_131.jpg,left,badlands_55.jpg,mountain_154.jpg,playground_246.jpg,golf_course_219.jpg,bridge_136.jpg,highway_30.jpg,1.0,right,1.308,0.0,mountain,mountain_131.jpg,6.96875,2.1783,A3BJHUEY6OGLPA
63,A3BJHUEY6OGLPA,47,femele,badlands_52.jpg,badlands_52.jpg,badlands_94.jpg,left,golf_course_176.jpg,highway_36.jpg,mountain_187.jpg,playground_222.jpg,badlands_52.jpg,bridge_164.jpg,4.0,right,1.278,0.0,badlands,badlands_94.jpg,8.010416667,12.1042,A3BJHUEY6OGLPA
64,A3BJHUEY6OGLPA,47,femele,golf_course_193.jpg,golf_course_235.jpg,golf_course_193.jpg,right,golf_course_193.jpg,playground_63.jpg,bridge_22.jpg,highway_269.jpg,badlands_46.jpg,mountain_204.jpg,0.0,right,1.4472,0.0,golf,golf_course_235.jpg,7.958333333,1.8254,A3BJHUEY6OGLPA
65,A3BJHUEY6OGLPA,47,femele,playground_219.jpg,playground_21.jpg,playground_219.jpg,right,playground_219.jpg,golf_course_137.jpg,bridge_204.jpg,mountain_92.jpg,highway_365.jpg,badlands_129.jpg,0.0,right,1.1258,0.0,playground,playground_21.jpg,8.0625,0.3779,A3BJHUEY6OGLPA
66,A3BJHUEY6OGLPA,47,femele,bridge_91.jpg,bridge_91.jpg,bridge_253.jpg,left,badlands_10.jpg,playground_47.jpg,mountain_38.jpg,bridge_91.jpg,highway_268.jpg,golf_course_221.jpg,3.0,left,3.3024,0.0,bridge,bridge_253.jpg,8.041666667,0.5042,A3BJHUEY6OGLPA
67,A3BJHUEY6OGLPA,47,femele,badlands_70.jpg,badlands_70.jpg,badlands_119.jpg,left,mountain_228.jpg,golf_course_226.jpg,playground_26.jpg,badlands_70.jpg,highway_42.jpg,bridge_112.jpg,3.0,right,1.4276,1.0,badlands,badlands_119.jpg,8.041666667,0.7137,A3BJHUEY6OGLPA
68,A3BJHUEY6OGLPA,47,femele,golf_course_214.jpg,golf_course_312.jpg,golf_course_214.jpg,right,badlands_171.jpg,golf_course_214.jpg,playground_153.jpg,mountain_45.jpg,bridge_156.jpg,highway_31.jpg,1.0,left,0.8859,0.0,golf,golf_course_312.jpg,7.385416667,1.0439,A3BJHUEY6OGLPA
69,A3BJHUEY6OGLPA,47,femele,golf_course_15.jpg,golf_course_15.jpg,golf_course_97.jpg,left,highway_354.jpg,badlands_59.jpg,playground_98.jpg,golf_course_15.jpg,bridge_45.jpg,mountain_88.jpg,3.0,left,1.0945,1.0,golf,golf_course_97.jpg,6.697916667,0.5118,A3BJHUEY6OGLPA
70,A3BJHUEY6OGLPA,47,femele,golf_course_87.jpg,golf_course_87.jpg,golf_course_130.jpg,left,badlands_104.jpg,playground_33.jpg,mountain_34.jpg,bridge_87.jpg,golf_course_87.jpg,highway_399.jpg,4.0,left,0.8682,0.0,golf,golf_course_130.jpg,7.0,16.2524,A3BJHUEY6OGLPA
71,A3BJHUEY6OGLPA,47,femele,badlands_137.jpg,badlands_137.jpg,badlands_139.jpg,left,playground_110.jpg,mountain_89.jpg,bridge_266.jpg,badlands_137.jpg,golf_course_120.jpg,highway_9.jpg,3.0,left,9.0245,1.0,badlands,badlands_139.jpg,7.010416667,0.9284,A3BJHUEY6OGLPA
72,A3BJHUEY6OGLPA,47,femele,highway_245.jpg,highway_245.jpg,highway_206.jpg,left,highway_245.jpg,golf_course_164.jpg,badlands_216.jpg,mountain_166.jpg,bridge_179.jpg,playground_42.jpg,0.0,left,0.9199,1.0,highway,highway_206.jpg,7.020833333,0.7021,A3BJHUEY6OGLPA
73,A3BJHUEY6OGLPA,47,femele,highway_177.jpg,highway_177.jpg,highway_87.jpg,left,badlands_180.jpg,golf_course_171.jpg,highway_177.jpg,playground_64.jpg,bridge_35.jpg,mountain_62.jpg,2.0,right,2.3027,0.0,highway,highway_87.jpg,7.020833333,0.7623,A3BJHUEY6OGLPA
74,A3BJHUEY6OGLPA,47,femele,bridge_172.jpg,bridge_163.jpg,bridge_172.jpg,right,badlands_9.jpg,bridge_172.jpg,mountain_43.jpg,highway_319.jpg,golf_course_138.jpg,playground_251.jpg,1.0,left,1.296,1.0,bridge,bridge_163.jpg,7.010416667,0.6375,A3BJHUEY6OGLPA
75,A3BJHUEY6OGLPA,47,femele,playground_131.jpg,playground_131.jpg,playground_164.jpg,left,mountain_102.jpg,bridge_20.jpg,golf_course_23.jpg,playground_131.jpg,badlands_185.jpg,highway_247.jpg,3.0,left,0.8747,1.0,playground,playground_164.jpg,7.0,0.6152,A3BJHUEY6OGLPA
76,A3BJHUEY6OGLPA,47,femele,mountain_123.jpg,mountain_189.jpg,mountain_123.jpg,right,golf_course_199.jpg,mountain_123.jpg,badlands_157.jpg,bridge_68.jpg,highway_308.jpg,playground_258.jpg,1.0,right,1.1577,1.0,mountain,mountain_189.jpg,6.28125,0.5209,A3BJHUEY6OGLPA
77,A3BJHUEY6OGLPA,47,femele,bridge_250.jpg,bridge_250.jpg,bridge_205.jpg,left,badlands_175.jpg,golf_course_313.jpg,bridge_250.jpg,highway_53.jpg,playground_54.jpg,mountain_233.jpg,2.0,left,1.318,1.0,bridge,bridge_205.jpg,6.0,0.5318,A3BJHUEY6OGLPA
78,A3BJHUEY6OGLPA,47,femele,mountain_110.jpg,mountain_110.jpg,mountain_223.jpg,left,mountain_110.jpg,bridge_180.jpg,highway_287.jpg,golf_course_144.jpg,badlands_44.jpg,playground_124.jpg,0.0,left,2.3646,1.0,mountain,mountain_223.jpg,6.0,39.734,A3BJHUEY6OGLPA
79,A3BJHUEY6OGLPA,47,femele,badlands_23.jpg,badlands_23.jpg,badlands_101.jpg,left,bridge_64.jpg,golf_course_128.jpg,highway_251.jpg,mountain_190.jpg,badlands_23.jpg,playground_85.jpg,4.0,right,1.982,1.0,badlands,badlands_101.jpg,6.989583333,0.8848,A3BJHUEY6OGLPA
80,A3BJHUEY6OGLPA,47,femele,playground_240.jpg,playground_240.jpg,playground_2.jpg,left,bridge_193.jpg,golf_course_61.jpg,mountain_294.jpg,badlands_164.jpg,playground_240.jpg,highway_257.jpg,4.0,left,1.0746,0.0,playground,playground_2.jpg,7.041666667,0.8413,A3BJHUEY6OGLPA
81,A3BJHUEY6OGLPA,47,femele,playground_76.jpg,playground_76.jpg,playground_22.jpg,left,mountain_135.jpg,bridge_1.jpg,golf_course_238.jpg,highway_191.jpg,playground_76.jpg,badlands_47.jpg,4.0,left,1.2664,0.0,playground,playground_22.jpg,7.0,2.5318,A3BJHUEY6OGLPA
82,A3BJHUEY6OGLPA,47,femele,highway_415.jpg,highway_174.jpg,highway_415.jpg,right,bridge_228.jpg,highway_415.jpg,badlands_138.jpg,golf_course_102.jpg,playground_196.jpg,mountain_169.jpg,1.0,left,1.6669,1.0,highway,highway_174.jpg,6.979166667,40.9488,A3BJHUEY6OGLPA
83,A3BJHUEY6OGLPA,47,femele,mountain_293.jpg,mountain_293.jpg,mountain_47.jpg,left,mountain_293.jpg,golf_course_0.jpg,badlands_227.jpg,playground_30.jpg,highway_50.jpg,bridge_4.jpg,0.0,left,1.0201,1.0,mountain,mountain_47.jpg,7.010416667,0.6528,A3BJHUEY6OGLPA
84,A3BJHUEY6OGLPA,47,femele,mountain_57.jpg,mountain_57.jpg,mountain_193.jpg,left,badlands_30.jpg,golf_course_3.jpg,mountain_57.jpg,bridge_147.jpg,highway_107.jpg,playground_249.jpg,2.0,right,1.0707,0.0,mountain,mountain_193.jpg,6.979166667,0.4969,A3BJHUEY6OGLPA
85,A3BJHUEY6OGLPA,47,femele,highway_273.jpg,highway_273.jpg,highway_384.jpg,left,golf_course_252.jpg,bridge_118.jpg,mountain_249.jpg,badlands_128.jpg,highway_273.jpg,playground_248.jpg,4.0,left,1.3776,0.0,highway,highway_384.jpg,6.979166667,0.6845,A3BJHUEY6OGLPA
86,A3BJHUEY6OGLPA,47,femele,playground_10.jpg,playground_10.jpg,playground_122.jpg,left,highway_17.jpg,badlands_81.jpg,playground_10.jpg,mountain_120.jpg,bridge_212.jpg,golf_course_253.jpg,2.0,left,1.111,0.0,playground,playground_122.jpg,6.979166667,0.4741,A3BJHUEY6OGLPA
87,A3BJHUEY6OGLPA,47,femele,highway_294.jpg,highway_368.jpg,highway_294.jpg,right,playground_181.jpg,highway_294.jpg,badlands_215.jpg,bridge_120.jpg,golf_course_71.jpg,mountain_40.jpg,1.0,right,0.9708,1.0,highway,highway_368.jpg,7.010416667,1.7042,A3BJHUEY6OGLPA
88,A3BJHUEY6OGLPA,47,femele,bridge_191.jpg,bridge_184.jpg,bridge_191.jpg,right,golf_course_282.jpg,playground_141.jpg,bridge_191.jpg,badlands_156.jpg,highway_81.jpg,mountain_146.jpg,2.0,right,0.9376,0.0,bridge,bridge_184.jpg,6.0,1.0764,A3BJHUEY6OGLPA
89,A3BJHUEY6OGLPA,47,femele,badlands_222.jpg,badlands_222.jpg,badlands_62.jpg,left,mountain_180.jpg,golf_course_218.jpg,badlands_222.jpg,playground_191.jpg,bridge_96.jpg,highway_147.jpg,2.0,right,1.1794,1.0,badlands,badlands_62.jpg,6.0,1.0586,A3BJHUEY6OGLPA
90,A3BJHUEY6OGLPA,47,femele,playground_145.jpg,playground_145.jpg,playground_229.jpg,left,playground_145.jpg,golf_course_72.jpg,bridge_62.jpg,highway_335.jpg,mountain_251.jpg,badlands_166.jpg,0.0,left,1.1051,0.0,playground,playground_229.jpg,6.0,0.8936,A3BJHUEY6OGLPA
91,A3BJHUEY6OGLPA,47,femele,golf_course_331.jpg,golf_course_26.jpg,golf_course_331.jpg,right,bridge_218.jpg,golf_course_331.jpg,mountain_250.jpg,badlands_27.jpg,highway_83.jpg,playground_132.jpg,1.0,right,0.8385,1.0,golf,golf_course_26.jpg,6.0,0.4167,A3BJHUEY6OGLPA
92,A3BJHUEY6OGLPA,47,femele,mountain_101.jpg,mountain_101.jpg,mountain_221.jpg,left,badlands_201.jpg,mountain_101.jpg,playground_140.jpg,golf_course_181.jpg,highway_404.jpg,bridge_254.jpg,1.0,left,0.8597,1.0,mountain,mountain_221.jpg,5.020833333,2.9836,A3BJHUEY6OGLPA
93,A3BJHUEY6OGLPA,47,femele,highway_359.jpg,highway_359.jpg,highway_389.jpg,left,bridge_152.jpg,highway_359.jpg,golf_course_342.jpg,mountain_206.jpg,playground_176.jpg,badlands_120.jpg,1.0,left,1.7505,0.0,highway,highway_389.jpg,4.96875,1.4632,A3BJHUEY6OGLPA
94,A3BJHUEY6OGLPA,47,femele,mountain_230.jpg,mountain_230.jpg,mountain_97.jpg,left,highway_172.jpg,playground_84.jpg,golf_course_55.jpg,mountain_230.jpg,bridge_142.jpg,badlands_35.jpg,3.0,left,1.4795,1.0,mountain,mountain_97.jpg,5.0,1.4192,A3BJHUEY6OGLPA
95,A3BJHUEY6OGLPA,47,femele,badlands_221.jpg,badlands_115.jpg,badlands_221.jpg,right,golf_course_269.jpg,bridge_24.jpg,playground_39.jpg,badlands_221.jpg,mountain_307.jpg,highway_18.jpg,3.0,right,0.8456,0.0,badlands,badlands_115.jpg,5.0,3.3351,A3BJHUEY6OGLPA
96,A3BJHUEY6OGLPA,47,femele,mountain_232.jpg,mountain_232.jpg,mountain_3.jpg,left,playground_68.jpg,highway_78.jpg,bridge_238.jpg,mountain_232.jpg,golf_course_33.jpg,badlands_72.jpg,3.0,left,0.8804,0.0,mountain,mountain_3.jpg,5.0,1.4911,A3BJHUEY6OGLPA
97,A3BJHUEY6OGLPA,47,femele,badlands_113.jpg,badlands_113.jpg,badlands_203.jpg,left,highway_138.jpg,bridge_224.jpg,mountain_137.jpg,badlands_113.jpg,playground_103.jpg,golf_course_179.jpg,3.0,right,1.1177,1.0,badlands,badlands_203.jpg,5.0,3.3914,A3BJHUEY6OGLPA
98,A3BJHUEY6OGLPA,47,femele,golf_course_188.jpg,golf_course_188.jpg,golf_course_160.jpg,left,badlands_170.jpg,bridge_106.jpg,highway_28.jpg,golf_course_188.jpg,mountain_51.jpg,playground_241.jpg,3.0,left,0.7611,1.0,golf,golf_course_160.jpg,5.947916667,1.4892,A3BJHUEY6OGLPA
99,A3BJHUEY6OGLPA,47,femele,bridge_146.jpg,bridge_121.jpg,bridge_146.jpg,right,golf_course_241.jpg,badlands_217.jpg,playground_74.jpg,mountain_302.jpg,bridge_146.jpg,highway_313.jpg,4.0,left,1.8023,1.0,bridge,bridge_121.jpg,6.041666667,0.5704,A3BJHUEY6OGLPA
100,A3BJHUEY6OGLPA,47,femele,bridge_202.jpg,bridge_31.jpg,bridge_202.jpg,right,mountain_35.jpg,playground_7.jpg,bridge_202.jpg,highway_288.jpg,golf_course_265.jpg,badlands_6.jpg,2.0,right,1.7125,0.0,bridge,bridge_31.jpg,7.020833333,0.6237,A3BJHUEY6OGLPA
101,A3BJHUEY6OGLPA,47,femele,golf_course_217.jpg,golf_course_217.jpg,golf_course_35.jpg,left,badlands_105.jpg,highway_274.jpg,golf_course_217.jpg,bridge_158.jpg,mountain_202.jpg,playground_165.jpg,2.0,left,2.5253,0.0,golf,golf_course_35.jpg,7.010416667,0.7004,A3BJHUEY6OGLPA
102,A3BJHUEY6OGLPA,47,femele,mountain_222.jpg,mountain_244.jpg,mountain_222.jpg,right,mountain_222.jpg,golf_course_42.jpg,playground_15.jpg,bridge_173.jpg,highway_246.jpg,badlands_97.jpg,0.0,left,2.3256,0.0,mountain,mountain_244.jpg,7.010416667,0.4159,A3BJHUEY6OGLPA
103,A3BJHUEY6OGLPA,47,femele,playground_60.jpg,playground_60.jpg,playground_244.jpg,left,playground_60.jpg,golf_course_127.jpg,highway_102.jpg,bridge_86.jpg,mountain_226.jpg,badlands_200.jpg,0.0,right,1.2411,1.0,playground,playground_244.jpg,8.0,1.4148,A3BJHUEY6OGLPA
104,A3BJHUEY6OGLPA,47,femele,highway_156.jpg,highway_293.jpg,highway_156.jpg,right,golf_course_196.jpg,bridge_74.jpg,badlands_219.jpg,mountain_306.jpg,highway_156.jpg,playground_37.jpg,4.0,left,0.6005,1.0,highway,highway_293.jpg,8.0,0.7911,A3BJHUEY6OGLPA
105,A3BJHUEY6OGLPA,47,femele,playground_257.jpg,playground_257.jpg,playground_214.jpg,left,highway_413.jpg,golf_course_333.jpg,badlands_106.jpg,playground_257.jpg,mountain_277.jpg,bridge_197.jpg,3.0,left,0.9737,0.0,playground,playground_214.jpg,7.0,3.2135,A3BJHUEY6OGLPA
106,A3BJHUEY6OGLPA,47,femele,highway_209.jpg,highway_122.jpg,highway_209.jpg,right,badlands_33.jpg,highway_209.jpg,golf_course_291.jpg,playground_233.jpg,mountain_309.jpg,bridge_76.jpg,1.0,right,4.8077,1.0,highway,highway_122.jpg,6.96875,4.2419,A3BJHUEY6OGLPA
107,A3BJHUEY6OGLPA,47,femele,playground_117.jpg,playground_117.jpg,playground_167.jpg,left,golf_course_56.jpg,highway_3.jpg,bridge_72.jpg,playground_117.jpg,mountain_87.jpg,badlands_88.jpg,3.0,right,1.4431,0.0,playground,playground_167.jpg,7.0,1.7166,A3BJHUEY6OGLPA
108,A3BJHUEY6OGLPA,47,femele,mountain_156.jpg,mountain_156.jpg,mountain_128.jpg,left,bridge_140.jpg,golf_course_338.jpg,mountain_156.jpg,badlands_26.jpg,highway_226.jpg,playground_184.jpg,2.0,right,1.1473,0.0,mountain,mountain_128.jpg,1.96875,4.1734,A3BJHUEY6OGLPA
109,A3BJHUEY6OGLPA,47,femele,bridge_65.jpg,bridge_65.jpg,bridge_60.jpg,left,mountain_39.jpg,bridge_65.jpg,playground_55.jpg,highway_199.jpg,golf_course_174.jpg,badlands_122.jpg,1.0,right,3.1715,1.0,bridge,bridge_60.jpg,1.989583333,0.5934,A3BJHUEY6OGLPA
110,A3BJHUEY6OGLPA,47,femele,bridge_128.jpg,bridge_244.jpg,bridge_128.jpg,right,mountain_29.jpg,bridge_128.jpg,highway_58.jpg,playground_126.jpg,golf_course_328.jpg,badlands_36.jpg,1.0,right,0.9118,1.0,bridge,bridge_244.jpg,6.979166667,2.8826,A3BJHUEY6OGLPA
111,A3BJHUEY6OGLPA,47,femele,badlands_184.jpg,badlands_103.jpg,badlands_184.jpg,right,highway_178.jpg,mountain_290.jpg,bridge_155.jpg,playground_256.jpg,badlands_184.jpg,golf_course_194.jpg,4.0,right,1.723,1.0,badlands,badlands_103.jpg,6.010416667,2.9289,A3BJHUEY6OGLPA
112,A3BJHUEY6OGLPA,47,femele,playground_144.jpg,playground_144.jpg,playground_137.jpg,left,playground_144.jpg,golf_course_307.jpg,mountain_160.jpg,highway_154.jpg,bridge_52.jpg,badlands_214.jpg,0.0,right,1.2869,0.0,playground,playground_137.jpg,7.958333333,4.2221,A3BJHUEY6OGLPA
113,A3BJHUEY6OGLPA,47,femele,badlands_21.jpg,badlands_98.jpg,badlands_21.jpg,right,golf_course_67.jpg,playground_16.jpg,bridge_225.jpg,badlands_21.jpg,highway_342.jpg,mountain_151.jpg,3.0,right,0.4022,1.0,badlands,badlands_98.jpg,7.96875,0.8444,A3BJHUEY6OGLPA
114,A3BJHUEY6OGLPA,47,femele,highway_93.jpg,highway_93.jpg,highway_369.jpg,left,playground_204.jpg,golf_course_59.jpg,mountain_192.jpg,bridge_63.jpg,highway_93.jpg,badlands_125.jpg,4.0,right,2.3123,1.0,highway,highway_369.jpg,7.979166667,0.4818,A3BJHUEY6OGLPA
115,A3BJHUEY6OGLPA,47,femele,golf_course_309.jpg,golf_course_16.jpg,golf_course_309.jpg,right,golf_course_309.jpg,mountain_76.jpg,badlands_80.jpg,highway_101.jpg,playground_227.jpg,bridge_144.jpg,0.0,right,1.7097,0.0,golf,golf_course_16.jpg,7.989583333,1.7661,A3BJHUEY6OGLPA
116,A3BJHUEY6OGLPA,47,femele,badlands_24.jpg,badlands_24.jpg,badlands_53.jpg,left,playground_118.jpg,highway_315.jpg,bridge_167.jpg,badlands_24.jpg,mountain_212.jpg,golf_course_166.jpg,3.0,left,1.169,1.0,badlands,badlands_53.jpg,4.010416667,3.5633,A3BJHUEY6OGLPA
117,A3BJHUEY6OGLPA,47,femele,bridge_256.jpg,bridge_256.jpg,bridge_54.jpg,left,golf_course_105.jpg,highway_76.jpg,mountain_19.jpg,bridge_256.jpg,playground_14.jpg,badlands_211.jpg,3.0,right,0.8617,0.0,bridge,bridge_54.jpg,3.96875,0.6645,A3BJHUEY6OGLPA
118,A3BJHUEY6OGLPA,47,femele,golf_course_195.jpg,golf_course_25.jpg,golf_course_195.jpg,right,playground_120.jpg,bridge_126.jpg,mountain_256.jpg,golf_course_195.jpg,highway_15.jpg,badlands_152.jpg,3.0,left,0.4396,0.0,golf,golf_course_25.jpg,3.96875,0.6698,A3BJHUEY6OGLPA
119,A3BJHUEY6OGLPA,47,femele,bridge_108.jpg,bridge_108.jpg,bridge_116.jpg,left,golf_course_41.jpg,playground_78.jpg,bridge_108.jpg,badlands_174.jpg,highway_33.jpg,mountain_91.jpg,2.0,left,2.0087,0.0,bridge,bridge_116.jpg,4.010416667,0.255,A3BJHUEY6OGLPA
120,A3G8JHYINIOP64,60,Female,playground_240.jpg,playground_240.jpg,playground_40.jpg,left,golf_course_313.jpg,highway_101.jpg,playground_240.jpg,mountain_233.jpg,bridge_180.jpg,badlands_20.jpg,2.0,left,1.879,1.0,playground,playground_40.jpg,8.03125,4.023,A3G8JHYINIOP64
121,A3G8JHYINIOP64,60,Female,badlands_184.jpg,badlands_228.jpg,badlands_184.jpg,right,mountain_45.jpg,badlands_184.jpg,highway_31.jpg,bridge_204.jpg,golf_course_23.jpg,playground_153.jpg,1.0,right,4.016,0.0,badlands,badlands_228.jpg,6.072916667,4.17,A3G8JHYINIOP64
122,A3G8JHYINIOP64,60,Female,golf_course_217.jpg,golf_course_217.jpg,golf_course_262.jpg,left,playground_256.jpg,golf_course_217.jpg,badlands_227.jpg,bridge_45.jpg,mountain_91.jpg,highway_81.jpg,1.0,left,4.123,1.0,golf,golf_course_262.jpg,6.979166667,3.322,A3G8JHYINIOP64
123,A3G8JHYINIOP64,60,Female,badlands_113.jpg,badlands_113.jpg,badlands_225.jpg,left,playground_42.jpg,highway_53.jpg,badlands_113.jpg,golf_course_307.jpg,bridge_102.jpg,mountain_176.jpg,2.0,left,2.56,0.0,badlands,badlands_225.jpg,6.989583333,2.245,A3G8JHYINIOP64
124,A3G8JHYINIOP64,60,Female,playground_257.jpg,playground_257.jpg,playground_214.jpg,left,mountain_29.jpg,playground_257.jpg,highway_247.jpg,bridge_266.jpg,golf_course_61.jpg,badlands_180.jpg,1.0,left,5.246,0.0,playground,playground_214.jpg,7.989583333,4.016,A3G8JHYINIOP64
125,A3G8JHYINIOP64,60,Female,badlands_23.jpg,badlands_101.jpg,badlands_23.jpg,right,mountain_268.jpg,golf_course_127.jpg,highway_313.jpg,badlands_23.jpg,bridge_63.jpg,playground_54.jpg,3.0,right,2.216,1.0,badlands,badlands_101.jpg,7.989583333,2.156,A3G8JHYINIOP64
126,A3G8JHYINIOP64,60,Female,mountain_230.jpg,mountain_184.jpg,mountain_230.jpg,right,badlands_85.jpg,golf_course_42.jpg,highway_178.jpg,mountain_230.jpg,playground_47.jpg,bridge_144.jpg,3.0,left,2.599,0.0,mountain,mountain_184.jpg,2.041666667,3.152,A3G8JHYINIOP64
127,A3G8JHYINIOP64,60,Female,golf_course_193.jpg,golf_course_235.jpg,golf_course_193.jpg,right,playground_61.jpg,mountain_256.jpg,badlands_219.jpg,golf_course_193.jpg,bridge_4.jpg,highway_193.jpg,3.0,right,5.183,0.0,golf,golf_course_235.jpg,3.958333333,3.165,A3G8JHYINIOP64
128,A3G8JHYINIOP64,60,Female,mountain_123.jpg,mountain_123.jpg,mountain_189.jpg,left,badlands_125.jpg,mountain_123.jpg,golf_course_166.jpg,highway_335.jpg,bridge_147.jpg,playground_26.jpg,1.0,left,3.552,1.0,mountain,mountain_189.jpg,8.947916667,3.0,A3G8JHYINIOP64
129,A3G8JHYINIOP64,60,Female,bridge_108.jpg,bridge_116.jpg,bridge_108.jpg,right,badlands_97.jpg,highway_251.jpg,playground_64.jpg,mountain_251.jpg,bridge_108.jpg,golf_course_72.jpg,4.0,right,2.336,0.0,bridge,bridge_116.jpg,5.166666667,5.146,A3G8JHYINIOP64
130,A3G8JHYINIOP64,60,Female,bridge_128.jpg,bridge_128.jpg,bridge_244.jpg,left,highway_3.jpg,playground_55.jpg,bridge_128.jpg,mountain_32.jpg,golf_course_71.jpg,badlands_156.jpg,2.0,left,2.427,1.0,bridge,bridge_244.jpg,7.927083333,5.699,A3G8JHYINIOP64
131,A3G8JHYINIOP64,60,Female,golf_course_78.jpg,golf_course_101.jpg,golf_course_78.jpg,right,golf_course_78.jpg,bridge_120.jpg,badlands_16.jpg,mountain_294.jpg,playground_162.jpg,highway_308.jpg,0.0,right,1.716,1.0,golf,golf_course_101.jpg,3.979166667,3.468,A3G8JHYINIOP64
132,A3G8JHYINIOP64,60,Female,playground_76.jpg,playground_76.jpg,playground_22.jpg,left,highway_37.jpg,badlands_157.jpg,playground_76.jpg,mountain_160.jpg,bridge_76.jpg,golf_course_128.jpg,2.0,right,2.84,0.0,playground,playground_22.jpg,8.916666667,2.398,A3G8JHYINIOP64
133,A3G8JHYINIOP64,60,Female,bridge_146.jpg,bridge_146.jpg,bridge_27.jpg,left,badlands_9.jpg,playground_176.jpg,bridge_146.jpg,highway_138.jpg,mountain_290.jpg,golf_course_162.jpg,2.0,left,2.182,0.0,bridge,bridge_27.jpg,8.916666667,1.457,A3G8JHYINIOP64
134,A3G8JHYINIOP64,60,Female,bridge_202.jpg,bridge_202.jpg,bridge_31.jpg,left,badlands_201.jpg,mountain_135.jpg,bridge_202.jpg,highway_290.jpg,playground_154.jpg,golf_course_144.jpg,2.0,left,3.076,0.0,bridge,bridge_31.jpg,5.979166667,3.315,A3G8JHYINIOP64
135,A3G8JHYINIOP64,60,Female,golf_course_15.jpg,golf_course_15.jpg,golf_course_97.jpg,left,bridge_140.jpg,golf_course_15.jpg,mountain_190.jpg,playground_124.jpg,highway_365.jpg,badlands_30.jpg,1.0,left,3.284,1.0,golf,golf_course_97.jpg,8.916666667,2.687,A3G8JHYINIOP64
136,A3G8JHYINIOP64,60,Female,badlands_24.jpg,badlands_53.jpg,badlands_24.jpg,right,mountain_277.jpg,playground_103.jpg,badlands_24.jpg,golf_course_265.jpg,highway_148.jpg,bridge_74.jpg,2.0,right,1.238,1.0,badlands,badlands_53.jpg,8.916666667,1.382,A3G8JHYINIOP64
137,A3G8JHYINIOP64,60,Female,badlands_137.jpg,badlands_137.jpg,badlands_139.jpg,left,golf_course_133.jpg,bridge_110.jpg,mountain_43.jpg,highway_305.jpg,badlands_137.jpg,playground_85.jpg,4.0,right,6.361,1.0,badlands,badlands_139.jpg,8.916666667,1.767,A3G8JHYINIOP64
138,A3G8JHYINIOP64,60,Female,golf_course_309.jpg,golf_course_16.jpg,golf_course_309.jpg,right,bridge_126.jpg,golf_course_309.jpg,highway_102.jpg,badlands_47.jpg,mountain_206.jpg,playground_15.jpg,1.0,left,4.389,0.0,golf,golf_course_16.jpg,4.010416667,3.604,A3G8JHYINIOP64
139,A3G8JHYINIOP64,60,Female,playground_60.jpg,playground_268.jpg,playground_60.jpg,right,golf_course_137.jpg,playground_60.jpg,badlands_166.jpg,highway_154.jpg,mountain_151.jpg,bridge_79.jpg,1.0,left,1.702,0.0,playground,playground_268.jpg,7.958333333,2.558,A3G8JHYINIOP64
140,A3G8JHYINIOP64,60,Female,badlands_222.jpg,badlands_222.jpg,badlands_62.jpg,left,playground_63.jpg,golf_course_41.jpg,bridge_22.jpg,mountain_226.jpg,badlands_222.jpg,highway_33.jpg,4.0,right,1.896,1.0,badlands,badlands_62.jpg,8.958333333,5.496,A3G8JHYINIOP64
141,A3G8JHYINIOP64,60,Female,bridge_172.jpg,bridge_172.jpg,bridge_163.jpg,left,golf_course_291.jpg,mountain_126.jpg,bridge_172.jpg,highway_288.jpg,badlands_170.jpg,playground_249.jpg,2.0,right,7.37,1.0,bridge,bridge_163.jpg,8.9375,2.246,A3G8JHYINIOP64
142,A3G8JHYINIOP64,60,Female,playground_219.jpg,playground_219.jpg,playground_21.jpg,left,mountain_89.jpg,badlands_211.jpg,golf_course_164.jpg,bridge_164.jpg,playground_219.jpg,highway_265.jpg,4.0,right,1.382,0.0,playground,playground_21.jpg,8.9375,4.178,A3G8JHYINIOP64
143,A3G8JHYINIOP64,60,Female,golf_course_331.jpg,golf_course_331.jpg,golf_course_26.jpg,left,golf_course_331.jpg,mountain_307.jpg,playground_118.jpg,badlands_138.jpg,highway_199.jpg,bridge_224.jpg,0.0,right,2.283,1.0,golf,golf_course_26.jpg,6.0625,2.774,A3G8JHYINIOP64
144,A3G8JHYINIOP64,60,Female,highway_294.jpg,highway_203.jpg,highway_294.jpg,right,highway_294.jpg,bridge_179.jpg,golf_course_179.jpg,playground_140.jpg,badlands_79.jpg,mountain_192.jpg,0.0,right,2.586,0.0,highway,highway_203.jpg,6.958333333,2.542,A3G8JHYINIOP64
145,A3G8JHYINIOP64,60,Female,bridge_91.jpg,bridge_91.jpg,bridge_82.jpg,left,playground_33.jpg,mountain_92.jpg,highway_28.jpg,badlands_152.jpg,bridge_91.jpg,golf_course_238.jpg,4.0,left,1.38,1.0,bridge,bridge_82.jpg,8.979166667,2.238,A3G8JHYINIOP64
146,A3G8JHYINIOP64,60,Female,bridge_191.jpg,bridge_75.jpg,bridge_191.jpg,right,bridge_191.jpg,golf_course_59.jpg,badlands_6.jpg,mountain_35.jpg,playground_50.jpg,highway_295.jpg,0.0,left,2.557,1.0,bridge,bridge_75.jpg,8.979166667,1.363,A3G8JHYINIOP64
147,A3G8JHYINIOP64,60,Female,badlands_21.jpg,badlands_21.jpg,badlands_1.jpg,left,highway_315.jpg,bridge_39.jpg,mountain_34.jpg,badlands_21.jpg,golf_course_269.jpg,playground_83.jpg,3.0,right,1.176,0.0,badlands,badlands_1.jpg,2.020833333,4.37,A3G8JHYINIOP64
148,A3G8JHYINIOP64,60,Female,playground_131.jpg,playground_164.jpg,playground_131.jpg,right,golf_course_316.jpg,bridge_173.jpg,playground_131.jpg,mountain_40.jpg,badlands_80.jpg,highway_76.jpg,2.0,left,1.399,1.0,playground,playground_164.jpg,8.020833333,2.246,A3G8JHYINIOP64
149,A3G8JHYINIOP64,60,Female,playground_117.jpg,playground_127.jpg,playground_117.jpg,right,badlands_26.jpg,golf_course_194.jpg,highway_15.jpg,bridge_156.jpg,playground_117.jpg,mountain_212.jpg,4.0,right,1.568,1.0,playground,playground_127.jpg,8.895833333,1.721,A3G8JHYINIOP64
150,A3G8JHYINIOP64,60,Female,mountain_222.jpg,mountain_93.jpg,mountain_222.jpg,right,mountain_222.jpg,playground_36.jpg,bridge_106.jpg,golf_course_219.jpg,highway_383.jpg,badlands_213.jpg,0.0,left,1.527,1.0,mountain,mountain_93.jpg,8.895833333,1.534,A3G8JHYINIOP64
151,A3G8JHYINIOP64,60,Female,golf_course_87.jpg,golf_course_87.jpg,golf_course_130.jpg,left,badlands_81.jpg,golf_course_87.jpg,mountain_249.jpg,bridge_52.jpg,highway_257.jpg,playground_191.jpg,1.0,left,1.722,0.0,golf,golf_course_130.jpg,7.916666667,2.276,A3G8JHYINIOP64
152,A3G8JHYINIOP64,60,Female,playground_10.jpg,playground_10.jpg,playground_122.jpg,left,golf_course_288.jpg,bridge_1.jpg,highway_147.jpg,playground_10.jpg,mountain_62.jpg,badlands_55.jpg,3.0,right,7.039,0.0,playground,playground_122.jpg,7.916666667,1.909,A3G8JHYINIOP64
153,A3G8JHYINIOP64,60,Female,highway_245.jpg,highway_245.jpg,highway_206.jpg,left,bridge_96.jpg,playground_14.jpg,highway_245.jpg,badlands_183.jpg,mountain_152.jpg,golf_course_218.jpg,2.0,right,2.228,1.0,highway,highway_206.jpg,8.90625,1.577,A3G8JHYINIOP64
154,A3G8JHYINIOP64,60,Female,badlands_70.jpg,badlands_102.jpg,badlands_70.jpg,right,golf_course_252.jpg,playground_258.jpg,badlands_70.jpg,bridge_86.jpg,mountain_146.jpg,highway_17.jpg,2.0,right,1.729,0.0,badlands,badlands_102.jpg,2.0,3.415,A3G8JHYINIOP64
155,A3G8JHYINIOP64,60,Female,highway_156.jpg,highway_156.jpg,highway_160.jpg,left,mountain_169.jpg,bridge_155.jpg,highway_156.jpg,golf_course_253.jpg,playground_251.jpg,badlands_44.jpg,2.0,right,1.683,0.0,highway,highway_160.jpg,3.0,3.884,A3G8JHYINIOP64
156,A3G8JHYINIOP64,60,Female,mountain_57.jpg,mountain_57.jpg,mountain_138.jpg,left,highway_269.jpg,golf_course_241.jpg,bridge_193.jpg,badlands_120.jpg,mountain_57.jpg,playground_30.jpg,4.0,left,1.505,1.0,mountain,mountain_138.jpg,5.041666667,2.842,A3G8JHYINIOP64
157,A3G8JHYINIOP64,60,Female,bridge_256.jpg,bridge_211.jpg,bridge_256.jpg,right,mountain_202.jpg,golf_course_105.jpg,playground_173.jpg,highway_107.jpg,bridge_256.jpg,badlands_150.jpg,4.0,right,1.718,1.0,bridge,bridge_211.jpg,8.958333333,2.391,A3G8JHYINIOP64
158,A3G8JHYINIOP64,60,Female,badlands_52.jpg,badlands_52.jpg,badlands_94.jpg,left,mountain_88.jpg,golf_course_67.jpg,playground_241.jpg,badlands_52.jpg,highway_413.jpg,bridge_225.jpg,3.0,left,2.078,0.0,badlands,badlands_94.jpg,8.947916667,1.614,A3G8JHYINIOP64
159,A3G8JHYINIOP64,60,Female,mountain_156.jpg,mountain_156.jpg,mountain_128.jpg,left,highway_141.jpg,bridge_158.jpg,badlands_200.jpg,golf_course_226.jpg,mountain_156.jpg,playground_16.jpg,4.0,left,2.447,0.0,mountain,mountain_128.jpg,8.947916667,1.238,A3G8JHYINIOP64
160,A3G8JHYINIOP64,60,Female,highway_93.jpg,highway_93.jpg,highway_85.jpg,left,highway_93.jpg,golf_course_3.jpg,badlands_128.jpg,bridge_167.jpg,mountain_199.jpg,playground_248.jpg,0.0,left,1.049,0.0,highway,highway_85.jpg,4.979166667,3.38,A3G8JHYINIOP64
161,A3G8JHYINIOP64,60,Female,golf_course_214.jpg,golf_course_214.jpg,golf_course_317.jpg,left,golf_course_214.jpg,highway_18.jpg,bridge_218.jpg,playground_126.jpg,badlands_105.jpg,mountain_309.jpg,0.0,right,1.424,1.0,golf,golf_course_317.jpg,8.0625,2.104,A3G8JHYINIOP64
162,A3G8JHYINIOP64,60,Female,golf_course_195.jpg,golf_course_195.jpg,golf_course_25.jpg,left,playground_204.jpg,mountain_137.jpg,golf_course_195.jpg,bridge_143.jpg,badlands_185.jpg,highway_50.jpg,2.0,right,1.708,0.0,golf,golf_course_25.jpg,1.947916667,3.01,A3G8JHYINIOP64
163,A3G8JHYINIOP64,60,Female,mountain_232.jpg,mountain_232.jpg,mountain_54.jpg,left,badlands_10.jpg,mountain_232.jpg,playground_49.jpg,highway_9.jpg,bridge_112.jpg,golf_course_196.jpg,1.0,right,1.187,1.0,mountain,mountain_54.jpg,8.03125,2.157,A3G8JHYINIOP64
164,A3G8JHYINIOP64,60,Female,highway_415.jpg,highway_60.jpg,highway_415.jpg,right,badlands_106.jpg,golf_course_212.jpg,highway_415.jpg,mountain_198.jpg,bridge_212.jpg,playground_235.jpg,2.0,right,1.048,0.0,highway,highway_60.jpg,6.03125,2.272,A3G8JHYINIOP64
165,A3G8JHYINIOP64,60,Female,highway_273.jpg,highway_171.jpg,highway_273.jpg,right,bridge_68.jpg,highway_273.jpg,badlands_217.jpg,golf_course_328.jpg,playground_110.jpg,mountain_180.jpg,1.0,left,1.929,1.0,highway,highway_171.jpg,7.96875,2.274,A3G8JHYINIOP64
166,A3G8JHYINIOP64,60,Female,highway_209.jpg,highway_122.jpg,highway_209.jpg,right,highway_209.jpg,golf_course_308.jpg,playground_195.jpg,bridge_66.jpg,badlands_46.jpg,mountain_250.jpg,0.0,right,1.029,1.0,highway,highway_122.jpg,9.0,2.07,A3G8JHYINIOP64
167,A3G8JHYINIOP64,60,Female,mountain_154.jpg,mountain_95.jpg,mountain_154.jpg,right,golf_course_33.jpg,bridge_124.jpg,badlands_175.jpg,playground_246.jpg,mountain_154.jpg,highway_274.jpg,4.0,left,2.422,1.0,mountain,mountain_95.jpg,6.9375,3.623,A3G8JHYINIOP64
168,A3G8JHYINIOP64,60,Female,bridge_250.jpg,bridge_250.jpg,bridge_134.jpg,left,highway_287.jpg,mountain_302.jpg,playground_181.jpg,bridge_250.jpg,golf_course_56.jpg,badlands_173.jpg,3.0,left,36.156,0.0,bridge,bridge_134.jpg,8.927083333,2.945,A3G8JHYINIOP64
169,A3G8JHYINIOP64,60,Female,mountain_101.jpg,mountain_101.jpg,mountain_171.jpg,left,bridge_133.jpg,mountain_101.jpg,golf_course_338.jpg,badlands_164.jpg,highway_78.jpg,playground_132.jpg,1.0,left,8.617,0.0,mountain,mountain_171.jpg,6.0,3.146,A3G8JHYINIOP64
170,A3G8JHYINIOP64,60,Female,highway_177.jpg,highway_177.jpg,highway_278.jpg,left,golf_course_0.jpg,bridge_169.jpg,mountain_33.jpg,highway_177.jpg,badlands_33.jpg,playground_227.jpg,3.0,right,1.223,1.0,highway,highway_278.jpg,8.989583333,2.548,A3G8JHYINIOP64
171,A3G8JHYINIOP64,60,Female,bridge_65.jpg,bridge_60.jpg,bridge_65.jpg,right,badlands_129.jpg,golf_course_333.jpg,highway_342.jpg,mountain_38.jpg,bridge_65.jpg,playground_196.jpg,4.0,left,1.574,1.0,bridge,bridge_60.jpg,8.989583333,1.381,A3G8JHYINIOP64
172,A3G8JHYINIOP64,60,Female,golf_course_188.jpg,golf_course_188.jpg,golf_course_157.jpg,left,golf_course_188.jpg,bridge_118.jpg,playground_184.jpg,mountain_76.jpg,highway_90.jpg,badlands_216.jpg,0.0,right,1.741,0.0,golf,golf_course_157.jpg,4.010416667,2.573,A3G8JHYINIOP64
173,A3G8JHYINIOP64,60,Female,playground_144.jpg,playground_65.jpg,playground_144.jpg,right,badlands_104.jpg,bridge_254.jpg,highway_399.jpg,playground_144.jpg,mountain_87.jpg,golf_course_199.jpg,3.0,right,6.415,1.0,playground,playground_65.jpg,8.03125,2.091,A3G8JHYINIOP64
174,A3G8JHYINIOP64,60,Female,highway_359.jpg,highway_359.jpg,highway_379.jpg,left,badlands_214.jpg,playground_37.jpg,highway_359.jpg,golf_course_300.jpg,mountain_22.jpg,bridge_87.jpg,2.0,left,1.915,1.0,highway,highway_379.jpg,8.979166667,2.061,A3G8JHYINIOP64
175,A3G8JHYINIOP64,60,Female,playground_145.jpg,playground_229.jpg,playground_145.jpg,right,bridge_35.jpg,mountain_253.jpg,golf_course_171.jpg,highway_246.jpg,playground_145.jpg,badlands_27.jpg,4.0,right,2.128,0.0,playground,playground_229.jpg,8.979166667,2.208,A3G8JHYINIOP64
176,A3G8JHYINIOP64,60,Female,mountain_293.jpg,mountain_293.jpg,mountain_72.jpg,left,highway_172.jpg,badlands_88.jpg,playground_6.jpg,mountain_293.jpg,golf_course_55.jpg,bridge_62.jpg,3.0,left,1.407,0.0,mountain,mountain_72.jpg,8.947916667,2.74,A3G8JHYINIOP64
177,A3G8JHYINIOP64,60,Female,highway_394.jpg,highway_394.jpg,highway_204.jpg,left,golf_course_221.jpg,playground_237.jpg,mountain_306.jpg,bridge_117.jpg,highway_394.jpg,badlands_72.jpg,4.0,left,33.298,0.0,highway,highway_204.jpg,6.072916667,2.564,A3G8JHYINIOP64
178,A3G8JHYINIOP64,60,Female,badlands_221.jpg,badlands_221.jpg,badlands_115.jpg,left,mountain_51.jpg,golf_course_181.jpg,highway_30.jpg,badlands_221.jpg,bridge_72.jpg,playground_84.jpg,3.0,right,2.253,0.0,badlands,badlands_115.jpg,7.020833333,3.092,A3G8JHYINIOP64
179,A3G8JHYINIOP64,60,Female,mountain_110.jpg,mountain_110.jpg,mountain_223.jpg,left,bridge_20.jpg,golf_course_176.jpg,highway_354.jpg,mountain_110.jpg,badlands_121.jpg,playground_233.jpg,3.0,right,13.716,1.0,mountain,mountain_223.jpg,8.979166667,2.371,A3G8JHYINIOP64
180,A146QN6EU8LAEI,36,female,bridge_191.jpg,bridge_191.jpg,bridge_75.jpg,left,highway_30.jpg,bridge_191.jpg,mountain_251.jpg,badlands_54.jpg,golf_course_291.jpg,playground_50.jpg,1.0,left,2.4632,1.0,bridge,bridge_75.jpg,6.970370257,5.1756,A146QN6EU8LAEI
181,A146QN6EU8LAEI,36,female,bridge_146.jpg,bridge_146.jpg,bridge_27.jpg,left,playground_153.jpg,bridge_146.jpg,mountain_268.jpg,highway_308.jpg,badlands_20.jpg,golf_course_116.jpg,1.0,left,2.5798,0.0,bridge,bridge_27.jpg,2.0,3.4188,A146QN6EU8LAEI
182,A146QN6EU8LAEI,36,female,mountain_154.jpg,mountain_131.jpg,mountain_154.jpg,right,bridge_225.jpg,playground_78.jpg,golf_course_333.jpg,highway_83.jpg,mountain_154.jpg,badlands_227.jpg,4.0,left,2.6482,0.0,mountain,mountain_131.jpg,3.0,3.1275,A146QN6EU8LAEI
183,A146QN6EU8LAEI,36,female,playground_10.jpg,playground_12.jpg,playground_10.jpg,right,bridge_124.jpg,mountain_88.jpg,badlands_157.jpg,playground_10.jpg,golf_course_328.jpg,highway_404.jpg,3.0,left,5.432,1.0,playground,playground_12.jpg,6.992592706,4.5052,A146QN6EU8LAEI
184,A146QN6EU8LAEI,36,female,badlands_222.jpg,badlands_62.jpg,badlands_222.jpg,right,golf_course_219.jpg,mountain_126.jpg,bridge_133.jpg,highway_101.jpg,badlands_222.jpg,playground_235.jpg,4.0,right,1.9372,1.0,badlands,badlands_62.jpg,8.00740786,3.7843,A146QN6EU8LAEI
185,A146QN6EU8LAEI,36,female,golf_course_78.jpg,golf_course_101.jpg,golf_course_78.jpg,right,highway_413.jpg,playground_36.jpg,badlands_170.jpg,golf_course_78.jpg,bridge_254.jpg,mountain_302.jpg,3.0,left,1.7952,1.0,golf,golf_course_101.jpg,4.0,5.9963,A146QN6EU8LAEI
186,A146QN6EU8LAEI,36,female,golf_course_331.jpg,golf_course_26.jpg,golf_course_331.jpg,right,golf_course_331.jpg,playground_15.jpg,mountain_92.jpg,badlands_201.jpg,bridge_24.jpg,highway_269.jpg,0.0,right,3.2495,1.0,golf,golf_course_26.jpg,5.266666554,5.5951,A146QN6EU8LAEI
187,A146QN6EU8LAEI,36,female,golf_course_309.jpg,golf_course_209.jpg,golf_course_309.jpg,right,highway_15.jpg,playground_204.jpg,golf_course_309.jpg,badlands_128.jpg,mountain_91.jpg,bridge_197.jpg,2.0,right,2.7935,1.0,golf,golf_course_209.jpg,5.029629743,1.1566,A146QN6EU8LAEI
188,A146QN6EU8LAEI,36,female,mountain_156.jpg,mountain_128.jpg,mountain_156.jpg,right,highway_274.jpg,golf_course_0.jpg,mountain_156.jpg,playground_7.jpg,bridge_117.jpg,badlands_211.jpg,2.0,left,2.6875,0.0,mountain,mountain_128.jpg,2.622222335,3.6802,A146QN6EU8LAEI
189,A146QN6EU8LAEI,36,female,bridge_91.jpg,bridge_91.jpg,bridge_253.jpg,left,highway_193.jpg,badlands_26.jpg,playground_33.jpg,golf_course_218.jpg,bridge_91.jpg,mountain_34.jpg,4.0,left,3.7667,0.0,bridge,bridge_253.jpg,3.007407294,1.5008,A146QN6EU8LAEI
190,A146QN6EU8LAEI,36,female,badlands_21.jpg,badlands_21.jpg,badlands_98.jpg,left,badlands_21.jpg,highway_90.jpg,bridge_35.jpg,mountain_176.jpg,golf_course_133.jpg,playground_55.jpg,0.0,left,4.3335,1.0,badlands,badlands_98.jpg,4.992592706,4.1688,A146QN6EU8LAEI
191,A146QN6EU8LAEI,36,female,highway_93.jpg,highway_85.jpg,highway_93.jpg,right,highway_93.jpg,badlands_166.jpg,playground_241.jpg,mountain_39.jpg,bridge_72.jpg,golf_course_41.jpg,0.0,right,3.3401,0.0,highway,highway_85.jpg,4.044444331,4.2236,A146QN6EU8LAEI
192,A146QN6EU8LAEI,36,female,badlands_23.jpg,badlands_23.jpg,badlands_114.jpg,left,highway_313.jpg,playground_258.jpg,golf_course_174.jpg,bridge_74.jpg,badlands_23.jpg,mountain_102.jpg,4.0,left,4.3398,0.0,badlands,badlands_114.jpg,7.014815154,4.262,A146QN6EU8LAEI
193,A146QN6EU8LAEI,36,female,badlands_24.jpg,badlands_3.jpg,badlands_24.jpg,right,golf_course_3.jpg,badlands_24.jpg,playground_47.jpg,highway_42.jpg,mountain_190.jpg,bridge_86.jpg,1.0,right,2.705,0.0,badlands,badlands_3.jpg,3.014815154,3.9182,A146QN6EU8LAEI
194,A146QN6EU8LAEI,36,female,mountain_57.jpg,mountain_57.jpg,mountain_138.jpg,left,highway_81.jpg,golf_course_253.jpg,playground_140.jpg,badlands_105.jpg,mountain_57.jpg,bridge_62.jpg,4.0,left,1.6839,1.0,mountain,mountain_138.jpg,4.525925813,2.5872,A146QN6EU8LAEI
195,A146QN6EU8LAEI,36,female,bridge_250.jpg,bridge_250.jpg,bridge_134.jpg,left,mountain_35.jpg,highway_3.jpg,playground_84.jpg,badlands_88.jpg,bridge_250.jpg,golf_course_138.jpg,4.0,right,5.2471,0.0,bridge,bridge_134.jpg,3.8740743,5.5518,A146QN6EU8LAEI
196,A146QN6EU8LAEI,36,female,golf_course_195.jpg,golf_course_195.jpg,golf_course_2.jpg,left,badlands_97.jpg,playground_49.jpg,highway_36.jpg,bridge_136.jpg,golf_course_195.jpg,mountain_160.jpg,4.0,left,2.4612,1.0,golf,golf_course_2.jpg,7.822222674,3.2434,A146QN6EU8LAEI
197,A146QN6EU8LAEI,36,female,mountain_222.jpg,mountain_244.jpg,mountain_222.jpg,right,bridge_212.jpg,badlands_219.jpg,mountain_222.jpg,highway_399.jpg,playground_74.jpg,golf_course_72.jpg,2.0,right,2.0176,0.0,mountain,mountain_244.jpg,3.155555443,3.8004,A146QN6EU8LAEI
198,A146QN6EU8LAEI,36,female,highway_245.jpg,highway_245.jpg,highway_206.jpg,left,playground_83.jpg,golf_course_179.jpg,badlands_214.jpg,bridge_179.jpg,highway_245.jpg,mountain_120.jpg,4.0,right,4.2414,1.0,highway,highway_206.jpg,5.0,3.0029,A146QN6EU8LAEI
199,A146QN6EU8LAEI,36,female,playground_60.jpg,playground_268.jpg,playground_60.jpg,right,golf_course_181.jpg,mountain_76.jpg,playground_60.jpg,badlands_47.jpg,highway_335.jpg,bridge_118.jpg,2.0,left,2.9088,0.0,playground,playground_268.jpg,6.318518745,3.6778,A146QN6EU8LAEI
200,A146QN6EU8LAEI,36,female,golf_course_193.jpg,golf_course_193.jpg,golf_course_235.jpg,left,mountain_226.jpg,highway_172.jpg,golf_course_193.jpg,playground_120.jpg,bridge_266.jpg,badlands_183.jpg,2.0,right,3.6773,0.0,golf,golf_course_235.jpg,4.666666667,3.3318,A146QN6EU8LAEI
201,A146QN6EU8LAEI,36,female,highway_177.jpg,highway_177.jpg,highway_87.jpg,left,highway_177.jpg,mountain_151.jpg,playground_126.jpg,badlands_152.jpg,bridge_158.jpg,golf_course_226.jpg,0.0,right,1.9723,0.0,highway,highway_87.jpg,4.644444784,2.8358,A146QN6EU8LAEI
202,A146QN6EU8LAEI,36,female,mountain_232.jpg,mountain_54.jpg,mountain_232.jpg,right,golf_course_71.jpg,bridge_144.jpg,playground_26.jpg,badlands_217.jpg,mountain_232.jpg,highway_33.jpg,4.0,left,7.7948,1.0,mountain,mountain_54.jpg,6.881481595,3.0971,A146QN6EU8LAEI
203,A146QN6EU8LAEI,36,female,playground_219.jpg,playground_219.jpg,playground_21.jpg,left,highway_290.jpg,golf_course_313.jpg,mountain_40.jpg,playground_219.jpg,badlands_106.jpg,bridge_102.jpg,3.0,right,4.7941,0.0,playground,playground_21.jpg,7.148148148,5.7002,A146QN6EU8LAEI
204,A146QN6EU8LAEI,36,female,badlands_52.jpg,badlands_52.jpg,badlands_63.jpg,left,bridge_112.jpg,golf_course_297.jpg,badlands_52.jpg,highway_319.jpg,playground_237.jpg,mountain_212.jpg,2.0,left,2.998,1.0,badlands,badlands_63.jpg,4.074074074,3.756,A146QN6EU8LAEI
205,A146QN6EU8LAEI,36,female,bridge_172.jpg,bridge_163.jpg,bridge_172.jpg,right,badlands_175.jpg,mountain_204.jpg,highway_31.jpg,bridge_172.jpg,playground_30.jpg,golf_course_137.jpg,3.0,right,3.8906,1.0,bridge,bridge_163.jpg,5.096296522,4.4732,A146QN6EU8LAEI
206,A146QN6EU8LAEI,36,female,highway_359.jpg,highway_379.jpg,highway_359.jpg,right,playground_184.jpg,bridge_66.jpg,badlands_55.jpg,mountain_306.jpg,highway_359.jpg,golf_course_316.jpg,4.0,left,6.3329,1.0,highway,highway_379.jpg,7.022222448,3.8713,A146QN6EU8LAEI
207,A146QN6EU8LAEI,36,female,playground_145.jpg,playground_145.jpg,playground_242.jpg,left,bridge_68.jpg,highway_268.jpg,golf_course_300.jpg,playground_145.jpg,badlands_27.jpg,mountain_253.jpg,3.0,right,2.8359,1.0,playground,playground_242.jpg,6.007407294,5.9478,A146QN6EU8LAEI
208,A146QN6EU8LAEI,36,female,highway_415.jpg,highway_174.jpg,highway_415.jpg,right,bridge_152.jpg,golf_course_288.jpg,playground_227.jpg,mountain_51.jpg,highway_415.jpg,badlands_125.jpg,4.0,left,5.4835,1.0,highway,highway_174.jpg,6.992592706,4.6058,A146QN6EU8LAEI
209,A146QN6EU8LAEI,36,female,bridge_256.jpg,bridge_54.jpg,bridge_256.jpg,right,mountain_199.jpg,highway_354.jpg,badlands_33.jpg,bridge_256.jpg,playground_54.jpg,golf_course_120.jpg,3.0,right,6.0619,0.0,bridge,bridge_54.jpg,4.481481481,4.1048,A146QN6EU8LAEI
210,A146QN6EU8LAEI,36,female,mountain_101.jpg,mountain_101.jpg,mountain_221.jpg,left,playground_233.jpg,mountain_101.jpg,badlands_104.jpg,highway_154.jpg,golf_course_127.jpg,bridge_120.jpg,1.0,right,3.2601,1.0,mountain,mountain_221.jpg,4.992592706,3.7674,A146QN6EU8LAEI
211,A146QN6EU8LAEI,36,female,playground_257.jpg,playground_257.jpg,playground_215.jpg,left,playground_257.jpg,golf_course_308.jpg,bridge_22.jpg,highway_102.jpg,mountain_309.jpg,badlands_9.jpg,0.0,left,3.327,1.0,playground,playground_215.jpg,4.0,3.7867,A146QN6EU8LAEI
212,A146QN6EU8LAEI,36,female,badlands_113.jpg,badlands_225.jpg,badlands_113.jpg,right,badlands_113.jpg,mountain_187.jpg,playground_181.jpg,golf_course_342.jpg,bridge_96.jpg,highway_342.jpg,0.0,right,1.5967,0.0,badlands,badlands_225.jpg,6.200000339,6.4196,A146QN6EU8LAEI
213,A146QN6EU8LAEI,36,female,playground_240.jpg,playground_240.jpg,playground_40.jpg,left,bridge_20.jpg,badlands_60.jpg,mountain_290.jpg,playground_240.jpg,golf_course_171.jpg,highway_58.jpg,3.0,left,2.0403,1.0,playground,playground_40.jpg,6.785185072,4.1838,A146QN6EU8LAEI
214,A146QN6EU8LAEI,36,female,mountain_123.jpg,mountain_123.jpg,mountain_189.jpg,left,mountain_123.jpg,highway_17.jpg,badlands_35.jpg,golf_course_67.jpg,bridge_110.jpg,playground_98.jpg,0.0,right,3.0957,1.0,mountain,mountain_189.jpg,5.014815154,3.3826,A146QN6EU8LAEI
215,A146QN6EU8LAEI,36,female,badlands_221.jpg,badlands_115.jpg,badlands_221.jpg,right,badlands_221.jpg,playground_118.jpg,mountain_228.jpg,bridge_126.jpg,highway_29.jpg,golf_course_55.jpg,0.0,right,1.62,0.0,badlands,badlands_115.jpg,6.007407294,4.116,A146QN6EU8LAEI
216,A146QN6EU8LAEI,36,female,golf_course_87.jpg,golf_course_130.jpg,golf_course_87.jpg,right,highway_246.jpg,playground_248.jpg,golf_course_87.jpg,mountain_43.jpg,badlands_156.jpg,bridge_193.jpg,2.0,right,2.5051,0.0,golf,golf_course_130.jpg,4.037037037,5.1723,A146QN6EU8LAEI
217,A146QN6EU8LAEI,36,female,badlands_137.jpg,badlands_137.jpg,badlands_139.jpg,left,bridge_87.jpg,golf_course_56.jpg,playground_42.jpg,highway_148.jpg,badlands_137.jpg,mountain_294.jpg,4.0,left,9.6198,1.0,badlands,badlands_139.jpg,3.607407746,15.5549,A146QN6EU8LAEI
218,A146QN6EU8LAEI,36,female,badlands_184.jpg,badlands_228.jpg,badlands_184.jpg,right,badlands_184.jpg,playground_246.jpg,mountain_45.jpg,golf_course_61.jpg,highway_265.jpg,bridge_156.jpg,0.0,right,2.8313,0.0,badlands,badlands_228.jpg,6.222222222,2.5808,A146QN6EU8LAEI
219,A146QN6EU8LAEI,36,female,bridge_202.jpg,bridge_202.jpg,bridge_31.jpg,left,mountain_307.jpg,badlands_138.jpg,highway_251.jpg,golf_course_23.jpg,bridge_202.jpg,playground_124.jpg,4.0,left,3.2025,0.0,bridge,bridge_31.jpg,4.022222448,2.8624,A146QN6EU8LAEI
220,A146QN6EU8LAEI,36,female,highway_294.jpg,highway_203.jpg,highway_294.jpg,right,mountain_62.jpg,bridge_218.jpg,highway_294.jpg,playground_63.jpg,badlands_129.jpg,golf_course_212.jpg,2.0,right,2.3771,0.0,highway,highway_203.jpg,5.31111145,3.8366,A146QN6EU8LAEI
221,A146QN6EU8LAEI,36,female,playground_144.jpg,playground_144.jpg,playground_137.jpg,left,golf_course_269.jpg,highway_76.jpg,playground_144.jpg,badlands_59.jpg,bridge_39.jpg,mountain_33.jpg,2.0,left,5.7256,0.0,playground,playground_137.jpg,4.525925813,4.4133,A146QN6EU8LAEI
222,A146QN6EU8LAEI,36,female,mountain_230.jpg,mountain_230.jpg,mountain_97.jpg,left,badlands_46.jpg,golf_course_338.jpg,playground_154.jpg,highway_141.jpg,mountain_230.jpg,bridge_140.jpg,4.0,left,2.2487,1.0,mountain,mountain_97.jpg,4.56296285,9.056,A146QN6EU8LAEI
223,A146QN6EU8LAEI,36,female,highway_273.jpg,highway_384.jpg,highway_273.jpg,right,highway_273.jpg,mountain_146.jpg,playground_222.jpg,bridge_180.jpg,badlands_164.jpg,golf_course_241.jpg,0.0,left,3.2865,0.0,highway,highway_384.jpg,4.80740752,4.306,A146QN6EU8LAEI
224,A146QN6EU8LAEI,36,female,playground_117.jpg,playground_117.jpg,playground_127.jpg,left,playground_117.jpg,golf_course_282.jpg,bridge_143.jpg,highway_50.jpg,mountain_198.jpg,badlands_213.jpg,0.0,left,1.9344,1.0,playground,playground_127.jpg,6.118518405,3.2768,A146QN6EU8LAEI
225,A146QN6EU8LAEI,36,female,mountain_293.jpg,mountain_72.jpg,mountain_293.jpg,right,mountain_293.jpg,badlands_173.jpg,highway_199.jpg,bridge_204.jpg,playground_141.jpg,golf_course_221.jpg,0.0,right,3.0669,0.0,mountain,mountain_72.jpg,7.474074752,2.8536,A146QN6EU8LAEI
226,A146QN6EU8LAEI,36,female,golf_course_188.jpg,golf_course_188.jpg,golf_course_157.jpg,left,golf_course_188.jpg,playground_14.jpg,highway_78.jpg,mountain_19.jpg,bridge_234.jpg,badlands_171.jpg,0.0,left,2.1281,0.0,golf,golf_course_157.jpg,3.511111224,4.8386,A146QN6EU8LAEI
227,A146QN6EU8LAEI,36,female,mountain_110.jpg,mountain_110.jpg,mountain_223.jpg,left,playground_85.jpg,badlands_180.jpg,mountain_110.jpg,bridge_1.jpg,highway_365.jpg,golf_course_199.jpg,2.0,right,2.873,1.0,mountain,mountain_223.jpg,6.888888889,9.0456,A146QN6EU8LAEI
228,A146QN6EU8LAEI,36,female,playground_131.jpg,playground_131.jpg,playground_43.jpg,left,golf_course_105.jpg,highway_315.jpg,badlands_174.jpg,playground_131.jpg,mountain_250.jpg,bridge_4.jpg,3.0,left,2.9355,0.0,playground,playground_43.jpg,4.31111145,4.5232,A146QN6EU8LAEI
229,A146QN6EU8LAEI,36,female,golf_course_15.jpg,golf_course_113.jpg,golf_course_15.jpg,right,mountain_277.jpg,highway_28.jpg,playground_195.jpg,golf_course_15.jpg,badlands_200.jpg,bridge_45.jpg,3.0,right,4.2033,0.0,golf,golf_course_113.jpg,5.0,5.9287,A146QN6EU8LAEI
230,A146QN6EU8LAEI,36,female,bridge_128.jpg,bridge_244.jpg,bridge_128.jpg,right,highway_288.jpg,badlands_44.jpg,golf_course_252.jpg,bridge_128.jpg,mountain_202.jpg,playground_68.jpg,3.0,left,8.0666,1.0,bridge,bridge_244.jpg,3.962962963,4.3782,A146QN6EU8LAEI
231,A146QN6EU8LAEI,36,female,bridge_65.jpg,bridge_65.jpg,bridge_181.jpg,left,golf_course_238.jpg,playground_16.jpg,bridge_65.jpg,badlands_85.jpg,mountain_169.jpg,highway_383.jpg,2.0,right,2.2604,0.0,bridge,bridge_181.jpg,6.148148148,2.9498,A146QN6EU8LAEI
232,A146QN6EU8LAEI,36,female,golf_course_214.jpg,golf_course_214.jpg,golf_course_317.jpg,left,badlands_16.jpg,playground_191.jpg,golf_course_214.jpg,bridge_169.jpg,highway_257.jpg,mountain_22.jpg,2.0,left,2.1187,1.0,golf,golf_course_317.jpg,7.088889228,2.6091,A146QN6EU8LAEI
233,A146QN6EU8LAEI,36,female,highway_156.jpg,highway_156.jpg,highway_160.jpg,left,bridge_147.jpg,mountain_143.jpg,golf_course_305.jpg,badlands_216.jpg,highway_156.jpg,playground_37.jpg,4.0,left,2.8292,0.0,highway,highway_160.jpg,4.992592706,3.0617,A146QN6EU8LAEI
234,A146QN6EU8LAEI,36,female,golf_course_217.jpg,golf_course_217.jpg,golf_course_262.jpg,left,badlands_79.jpg,mountain_135.jpg,bridge_228.jpg,golf_course_217.jpg,highway_18.jpg,playground_196.jpg,3.0,left,2.2563,1.0,golf,golf_course_262.jpg,5.985185411,5.5781,A146QN6EU8LAEI
235,A146QN6EU8LAEI,36,female,badlands_70.jpg,badlands_70.jpg,badlands_102.jpg,left,mountain_32.jpg,golf_course_202.jpg,bridge_155.jpg,badlands_70.jpg,highway_305.jpg,playground_251.jpg,3.0,left,1.939,0.0,badlands,badlands_102.jpg,4.096296522,2.615,A146QN6EU8LAEI
236,A146QN6EU8LAEI,36,female,highway_209.jpg,highway_209.jpg,highway_122.jpg,left,bridge_190.jpg,golf_course_194.jpg,playground_6.jpg,highway_209.jpg,mountain_256.jpg,badlands_6.jpg,3.0,left,2.9698,1.0,highway,highway_122.jpg,7.474074752,4.1337,A146QN6EU8LAEI
237,A146QN6EU8LAEI,36,female,bridge_108.jpg,bridge_116.jpg,bridge_108.jpg,right,playground_176.jpg,mountain_166.jpg,golf_course_265.jpg,badlands_121.jpg,bridge_108.jpg,highway_138.jpg,4.0,left,4.8925,0.0,bridge,bridge_116.jpg,3.666666667,3.5886,A146QN6EU8LAEI
238,A146QN6EU8LAEI,36,female,highway_394.jpg,highway_406.jpg,highway_394.jpg,right,highway_394.jpg,mountain_192.jpg,bridge_224.jpg,playground_249.jpg,badlands_72.jpg,golf_course_144.jpg,0.0,left,2.6127,1.0,highway,highway_406.jpg,5.829629969,5.6515,A146QN6EU8LAEI
239,A146QN6EU8LAEI,36,female,playground_76.jpg,playground_72.jpg,playground_76.jpg,right,playground_76.jpg,bridge_142.jpg,badlands_67.jpg,mountain_29.jpg,golf_course_102.jpg,highway_107.jpg,0.0,left,2.7316,1.0,playground,playground_72.jpg,5.888888889,0.9531,A146QN6EU8LAEI
240,A2VUGPK6EL1HD2,32,female,playground_257.jpg,playground_257.jpg,playground_215.jpg,left,mountain_249.jpg,playground_257.jpg,badlands_166.jpg,highway_354.jpg,golf_course_194.jpg,bridge_133.jpg,1.0,left,2.8629,1.0,playground,playground_215.jpg,6.020833333,3.0878,A2VUGPK6EL1HD2
241,A2VUGPK6EL1HD2,32,female,bridge_108.jpg,bridge_108.jpg,bridge_148.jpg,left,mountain_251.jpg,playground_154.jpg,highway_90.jpg,bridge_108.jpg,golf_course_120.jpg,badlands_138.jpg,3.0,right,1.7256,1.0,bridge,bridge_148.jpg,5.979166667,2.3667,A2VUGPK6EL1HD2
242,A2VUGPK6EL1HD2,32,female,mountain_57.jpg,mountain_138.jpg,mountain_57.jpg,right,badlands_97.jpg,mountain_57.jpg,highway_31.jpg,bridge_144.jpg,playground_141.jpg,golf_course_174.jpg,1.0,left,1.7039,1.0,mountain,mountain_138.jpg,6.96875,2.1061,A2VUGPK6EL1HD2
243,A2VUGPK6EL1HD2,32,female,highway_273.jpg,highway_384.jpg,highway_273.jpg,right,bridge_124.jpg,mountain_40.jpg,playground_195.jpg,badlands_80.jpg,highway_273.jpg,golf_course_127.jpg,4.0,left,1.8399,0.0,highway,highway_384.jpg,6.96875,1.2287,A2VUGPK6EL1HD2
244,A2VUGPK6EL1HD2,32,female,mountain_293.jpg,mountain_47.jpg,mountain_293.jpg,right,mountain_293.jpg,golf_course_144.jpg,playground_165.jpg,bridge_193.jpg,badlands_120.jpg,highway_29.jpg,0.0,left,1.9422,1.0,mountain,mountain_47.jpg,5.96875,1.1421,A2VUGPK6EL1HD2
245,A2VUGPK6EL1HD2,32,female,playground_60.jpg,playground_268.jpg,playground_60.jpg,right,bridge_20.jpg,golf_course_219.jpg,mountain_302.jpg,badlands_104.jpg,playground_60.jpg,highway_102.jpg,4.0,left,1.6838,0.0,playground,playground_268.jpg,6.927083333,1.0152,A2VUGPK6EL1HD2
246,A2VUGPK6EL1HD2,32,female,highway_93.jpg,highway_93.jpg,highway_85.jpg,left,mountain_34.jpg,badlands_219.jpg,playground_204.jpg,golf_course_218.jpg,highway_93.jpg,bridge_4.jpg,4.0,left,1.4571,0.0,highway,highway_85.jpg,7.010416667,0.9621,A2VUGPK6EL1HD2
247,A2VUGPK6EL1HD2,32,female,highway_245.jpg,highway_206.jpg,highway_245.jpg,right,bridge_156.jpg,badlands_16.jpg,mountain_43.jpg,playground_124.jpg,highway_245.jpg,golf_course_212.jpg,4.0,right,3.5773,1.0,highway,highway_206.jpg,5.927083333,0.9736,A2VUGPK6EL1HD2
248,A2VUGPK6EL1HD2,32,female,golf_course_15.jpg,golf_course_97.jpg,golf_course_15.jpg,right,bridge_179.jpg,golf_course_15.jpg,highway_319.jpg,playground_251.jpg,badlands_44.jpg,mountain_143.jpg,1.0,right,3.9053,1.0,golf,golf_course_97.jpg,6.989583333,1.6146,A2VUGPK6EL1HD2
249,A2VUGPK6EL1HD2,32,female,playground_219.jpg,playground_21.jpg,playground_219.jpg,right,playground_219.jpg,badlands_47.jpg,mountain_206.jpg,highway_81.jpg,golf_course_138.jpg,bridge_204.jpg,0.0,left,2.0557,0.0,playground,playground_21.jpg,8.03125,3.5363,A2VUGPK6EL1HD2
250,A2VUGPK6EL1HD2,32,female,mountain_154.jpg,mountain_95.jpg,mountain_154.jpg,right,mountain_154.jpg,golf_course_252.jpg,bridge_66.jpg,badlands_10.jpg,playground_78.jpg,highway_257.jpg,0.0,right,1.8143,1.0,mountain,mountain_95.jpg,8.03125,1.0417,A2VUGPK6EL1HD2
251,A2VUGPK6EL1HD2,32,female,playground_117.jpg,playground_167.jpg,playground_117.jpg,right,golf_course_41.jpg,mountain_33.jpg,bridge_158.jpg,playground_117.jpg,highway_148.jpg,badlands_150.jpg,3.0,left,1.7425,0.0,playground,playground_167.jpg,7.979166667,0.5626,A2VUGPK6EL1HD2
252,A2VUGPK6EL1HD2,32,female,mountain_156.jpg,mountain_128.jpg,mountain_156.jpg,right,golf_course_61.jpg,mountain_156.jpg,playground_241.jpg,bridge_136.jpg,badlands_85.jpg,highway_404.jpg,1.0,right,2.2791,0.0,mountain,mountain_128.jpg,4.96875,3.1046,A2VUGPK6EL1HD2
253,A2VUGPK6EL1HD2,32,female,highway_359.jpg,highway_389.jpg,highway_359.jpg,right,golf_course_164.jpg,playground_47.jpg,bridge_87.jpg,highway_359.jpg,mountain_126.jpg,badlands_174.jpg,3.0,right,1.8909,0.0,highway,highway_389.jpg,4.979166667,4.6309,A2VUGPK6EL1HD2
254,A2VUGPK6EL1HD2,32,female,badlands_70.jpg,badlands_119.jpg,badlands_70.jpg,right,golf_course_55.jpg,bridge_180.jpg,playground_37.jpg,highway_15.jpg,badlands_70.jpg,mountain_91.jpg,4.0,left,1.9873,1.0,badlands,badlands_119.jpg,5.927083333,3.205,A2VUGPK6EL1HD2
255,A2VUGPK6EL1HD2,32,female,playground_131.jpg,playground_164.jpg,playground_131.jpg,right,mountain_137.jpg,playground_131.jpg,golf_course_297.jpg,badlands_72.jpg,bridge_72.jpg,highway_365.jpg,1.0,right,1.1498,1.0,playground,playground_164.jpg,8.979166667,3.0457,A2VUGPK6EL1HD2
256,A2VUGPK6EL1HD2,32,female,badlands_137.jpg,badlands_137.jpg,badlands_139.jpg,left,highway_154.jpg,golf_course_42.jpg,bridge_24.jpg,playground_85.jpg,badlands_137.jpg,mountain_22.jpg,4.0,left,1.7266,1.0,badlands,badlands_139.jpg,8.072916667,1.7835,A2VUGPK6EL1HD2
257,A2VUGPK6EL1HD2,32,female,bridge_146.jpg,bridge_27.jpg,bridge_146.jpg,right,highway_9.jpg,badlands_27.jpg,golf_course_179.jpg,playground_248.jpg,bridge_146.jpg,mountain_233.jpg,4.0,right,1.5769,0.0,bridge,bridge_27.jpg,6.989583333,1.3029,A2VUGPK6EL1HD2
258,A2VUGPK6EL1HD2,32,female,mountain_101.jpg,mountain_221.jpg,mountain_101.jpg,right,mountain_101.jpg,playground_55.jpg,bridge_112.jpg,golf_course_282.jpg,highway_308.jpg,badlands_213.jpg,0.0,right,1.2634,1.0,mountain,mountain_221.jpg,6.979166667,1.5426,A2VUGPK6EL1HD2
259,A2VUGPK6EL1HD2,32,female,bridge_256.jpg,bridge_256.jpg,bridge_54.jpg,left,bridge_256.jpg,mountain_151.jpg,playground_256.jpg,badlands_46.jpg,highway_295.jpg,golf_course_199.jpg,0.0,left,2.6591,0.0,bridge,bridge_54.jpg,6.9968,3.7023,A2VUGPK6EL1HD2
260,A2VUGPK6EL1HD2,32,female,bridge_250.jpg,bridge_250.jpg,bridge_134.jpg,left,playground_235.jpg,mountain_32.jpg,badlands_156.jpg,bridge_250.jpg,highway_33.jpg,golf_course_23.jpg,3.0,left,3.0441,0.0,bridge,bridge_134.jpg,7.916666667,2.8625,A2VUGPK6EL1HD2
261,A2VUGPK6EL1HD2,32,female,badlands_184.jpg,badlands_103.jpg,badlands_184.jpg,right,badlands_184.jpg,playground_64.jpg,bridge_22.jpg,mountain_290.jpg,highway_147.jpg,golf_course_102.jpg,0.0,left,1.6359,1.0,badlands,badlands_103.jpg,5.90625,2.2146,A2VUGPK6EL1HD2
262,A2VUGPK6EL1HD2,32,female,golf_course_78.jpg,golf_course_78.jpg,golf_course_101.jpg,left,mountain_135.jpg,golf_course_78.jpg,highway_287.jpg,playground_98.jpg,badlands_211.jpg,bridge_212.jpg,1.0,left,3.6093,1.0,golf,golf_course_101.jpg,4.895833333,4.1354,A2VUGPK6EL1HD2
263,A2VUGPK6EL1HD2,32,female,highway_177.jpg,highway_87.jpg,highway_177.jpg,right,bridge_110.jpg,mountain_176.jpg,golf_course_333.jpg,badlands_227.jpg,highway_177.jpg,playground_54.jpg,4.0,right,4.6626,0.0,highway,highway_87.jpg,4.916666667,2.6383,A2VUGPK6EL1HD2
264,A2VUGPK6EL1HD2,32,female,golf_course_309.jpg,golf_course_309.jpg,golf_course_209.jpg,left,bridge_142.jpg,highway_265.jpg,mountain_180.jpg,badlands_122.jpg,golf_course_309.jpg,playground_184.jpg,4.0,left,1.8556,1.0,golf,golf_course_209.jpg,5.010416667,1.0862,A2VUGPK6EL1HD2
265,A2VUGPK6EL1HD2,32,female,golf_course_214.jpg,golf_course_214.jpg,golf_course_312.jpg,left,bridge_45.jpg,playground_120.jpg,badlands_200.jpg,mountain_228.jpg,golf_course_214.jpg,highway_3.jpg,4.0,left,3.1532,0.0,golf,golf_course_312.jpg,6.9375,1.4002,A2VUGPK6EL1HD2
266,A2VUGPK6EL1HD2,32,female,playground_240.jpg,playground_240.jpg,playground_40.jpg,left,playground_240.jpg,badlands_35.jpg,bridge_254.jpg,highway_305.jpg,mountain_102.jpg,golf_course_313.jpg,0.0,right,1.8748,1.0,playground,playground_40.jpg,4.979166667,1.7688,A2VUGPK6EL1HD2
267,A2VUGPK6EL1HD2,32,female,mountain_232.jpg,mountain_54.jpg,mountain_232.jpg,right,mountain_232.jpg,badlands_185.jpg,highway_315.jpg,playground_26.jpg,bridge_76.jpg,golf_course_196.jpg,0.0,left,2.0673,1.0,mountain,mountain_54.jpg,4.979166667,1.1038,A2VUGPK6EL1HD2
268,A2VUGPK6EL1HD2,32,female,golf_course_188.jpg,golf_course_188.jpg,golf_course_157.jpg,left,mountain_212.jpg,highway_383.jpg,golf_course_188.jpg,playground_6.jpg,badlands_125.jpg,bridge_106.jpg,2.0,right,1.2749,0.0,golf,golf_course_157.jpg,3.916666667,2.739,A2VUGPK6EL1HD2
269,A2VUGPK6EL1HD2,32,female,mountain_222.jpg,mountain_244.jpg,mountain_222.jpg,right,highway_269.jpg,mountain_222.jpg,playground_110.jpg,bridge_1.jpg,badlands_164.jpg,golf_course_133.jpg,1.0,left,2.5583,0.0,mountain,mountain_244.jpg,3.958333333,3.9134,A2VUGPK6EL1HD2
270,A2VUGPK6EL1HD2,32,female,highway_415.jpg,highway_174.jpg,highway_415.jpg,right,bridge_102.jpg,badlands_105.jpg,golf_course_137.jpg,mountain_306.jpg,highway_415.jpg,playground_176.jpg,4.0,right,1.2199,1.0,highway,highway_174.jpg,3.958333333,1.3172,A2VUGPK6EL1HD2
271,A2VUGPK6EL1HD2,32,female,playground_76.jpg,playground_76.jpg,playground_72.jpg,left,golf_course_72.jpg,badlands_26.jpg,bridge_155.jpg,highway_290.jpg,playground_76.jpg,mountain_76.jpg,4.0,left,2.2545,1.0,playground,playground_72.jpg,6.010416667,1.8263,A2VUGPK6EL1HD2
272,A2VUGPK6EL1HD2,32,female,playground_144.jpg,playground_65.jpg,playground_144.jpg,right,highway_172.jpg,playground_144.jpg,mountain_92.jpg,badlands_129.jpg,golf_course_176.jpg,bridge_225.jpg,1.0,right,1.9305,1.0,playground,playground_65.jpg,6.010416667,0.8787,A2VUGPK6EL1HD2
273,A2VUGPK6EL1HD2,32,female,highway_394.jpg,highway_394.jpg,highway_406.jpg,left,highway_394.jpg,bridge_39.jpg,badlands_20.jpg,mountain_277.jpg,golf_course_307.jpg,playground_14.jpg,0.0,right,1.6287,1.0,highway,highway_406.jpg,4.947916667,1.4875,A2VUGPK6EL1HD2
274,A2VUGPK6EL1HD2,32,female,badlands_23.jpg,badlands_114.jpg,badlands_23.jpg,right,golf_course_265.jpg,playground_153.jpg,badlands_23.jpg,bridge_86.jpg,highway_83.jpg,mountain_45.jpg,2.0,left,1.457,0.0,badlands,badlands_114.jpg,5.958333333,3.1939,A2VUGPK6EL1HD2
275,A2VUGPK6EL1HD2,32,female,highway_294.jpg,highway_294.jpg,highway_203.jpg,left,playground_84.jpg,highway_294.jpg,mountain_268.jpg,golf_course_171.jpg,bridge_68.jpg,badlands_88.jpg,1.0,right,2.0179,0.0,highway,highway_203.jpg,4.9375,2.7368,A2VUGPK6EL1HD2
276,A2VUGPK6EL1HD2,32,female,bridge_202.jpg,bridge_31.jpg,bridge_202.jpg,right,golf_course_338.jpg,highway_313.jpg,playground_42.jpg,badlands_67.jpg,bridge_202.jpg,mountain_309.jpg,4.0,left,2.1855,0.0,bridge,bridge_31.jpg,4.010416667,1.402,A2VUGPK6EL1HD2
277,A2VUGPK6EL1HD2,32,female,mountain_123.jpg,mountain_189.jpg,mountain_123.jpg,right,highway_37.jpg,bridge_118.jpg,playground_258.jpg,badlands_171.jpg,mountain_123.jpg,golf_course_67.jpg,4.0,left,1.7517,1.0,mountain,mountain_189.jpg,4.010416667,0.5634,A2VUGPK6EL1HD2
278,A2VUGPK6EL1HD2,32,female,playground_10.jpg,playground_12.jpg,playground_10.jpg,right,golf_course_308.jpg,playground_10.jpg,mountain_38.jpg,highway_141.jpg,badlands_55.jpg,bridge_234.jpg,1.0,left,3.0851,1.0,playground,playground_12.jpg,4.010416667,0.568,A2VUGPK6EL1HD2
279,A2VUGPK6EL1HD2,32,female,bridge_191.jpg,bridge_191.jpg,bridge_184.jpg,left,mountain_198.jpg,bridge_191.jpg,badlands_36.jpg,highway_399.jpg,playground_7.jpg,golf_course_221.jpg,1.0,left,1.7823,0.0,bridge,bridge_184.jpg,4.0,4.2937,A2VUGPK6EL1HD2
280,A2VUGPK6EL1HD2,32,female,golf_course_195.jpg,golf_course_2.jpg,golf_course_195.jpg,right,golf_course_195.jpg,highway_78.jpg,bridge_64.jpg,playground_74.jpg,mountain_187.jpg,badlands_9.jpg,0.0,left,1.5078,1.0,golf,golf_course_2.jpg,6.9712,9.5946,A2VUGPK6EL1HD2
281,A2VUGPK6EL1HD2,32,female,golf_course_87.jpg,golf_course_87.jpg,golf_course_130.jpg,left,badlands_128.jpg,playground_233.jpg,bridge_79.jpg,golf_course_87.jpg,mountain_35.jpg,highway_288.jpg,3.0,right,1.5006,0.0,golf,golf_course_130.jpg,5.064,1.7321,A2VUGPK6EL1HD2
282,A2VUGPK6EL1HD2,32,female,bridge_91.jpg,bridge_91.jpg,bridge_253.jpg,left,bridge_91.jpg,golf_course_162.jpg,highway_18.jpg,playground_33.jpg,mountain_202.jpg,badlands_215.jpg,0.0,right,1.8001,0.0,bridge,bridge_253.jpg,6.9328,2.1855,A2VUGPK6EL1HD2
283,A2VUGPK6EL1HD2,32,female,playground_145.jpg,playground_229.jpg,playground_145.jpg,right,bridge_147.jpg,highway_101.jpg,badlands_6.jpg,playground_145.jpg,mountain_29.jpg,golf_course_128.jpg,3.0,right,1.4981,0.0,playground,playground_229.jpg,5.9216,1.853,A2VUGPK6EL1HD2
284,A2VUGPK6EL1HD2,32,female,badlands_113.jpg,badlands_113.jpg,badlands_203.jpg,left,playground_246.jpg,mountain_62.jpg,bridge_190.jpg,badlands_113.jpg,golf_course_305.jpg,highway_138.jpg,3.0,right,0.3639,1.0,badlands,badlands_203.jpg,4.9872,1.7468,A2VUGPK6EL1HD2
285,A2VUGPK6EL1HD2,32,female,badlands_221.jpg,badlands_221.jpg,badlands_115.jpg,left,mountain_190.jpg,bridge_117.jpg,golf_course_253.jpg,badlands_221.jpg,playground_191.jpg,highway_42.jpg,3.0,right,6.4129,0.0,badlands,badlands_115.jpg,5.9472,2.0931,A2VUGPK6EL1HD2
286,A2VUGPK6EL1HD2,32,female,badlands_21.jpg,badlands_21.jpg,badlands_1.jpg,left,golf_course_316.jpg,bridge_63.jpg,mountain_120.jpg,badlands_21.jpg,highway_251.jpg,playground_103.jpg,3.0,right,5.6693,0.0,badlands,badlands_1.jpg,5.7296,5.7222,A2VUGPK6EL1HD2
287,A2VUGPK6EL1HD2,32,female,mountain_230.jpg,mountain_184.jpg,mountain_230.jpg,right,badlands_201.jpg,playground_181.jpg,mountain_230.jpg,golf_course_33.jpg,highway_76.jpg,bridge_224.jpg,2.0,left,5.2096,0.0,mountain,mountain_184.jpg,5.9472,0.4758,A2VUGPK6EL1HD2
288,A2VUGPK6EL1HD2,32,female,bridge_128.jpg,bridge_128.jpg,bridge_244.jpg,left,playground_63.jpg,mountain_41.jpg,badlands_180.jpg,bridge_128.jpg,golf_course_202.jpg,highway_30.jpg,3.0,right,1.8698,1.0,bridge,bridge_244.jpg,6.9584,3.0008,A2VUGPK6EL1HD2
289,A2VUGPK6EL1HD2,32,female,highway_209.jpg,highway_122.jpg,highway_209.jpg,right,highway_209.jpg,golf_course_166.jpg,bridge_35.jpg,mountain_146.jpg,badlands_152.jpg,playground_30.jpg,0.0,right,2.2003,1.0,highway,highway_122.jpg,6.9584,2.084,A2VUGPK6EL1HD2
290,A2VUGPK6EL1HD2,32,female,highway_156.jpg,highway_160.jpg,highway_156.jpg,right,playground_249.jpg,mountain_226.jpg,golf_course_288.jpg,bridge_164.jpg,highway_156.jpg,badlands_216.jpg,4.0,left,1.1398,0.0,highway,highway_160.jpg,6.0112,3.013,A2VUGPK6EL1HD2
291,A2VUGPK6EL1HD2,32,female,mountain_110.jpg,mountain_157.jpg,mountain_110.jpg,right,highway_247.jpg,mountain_110.jpg,golf_course_241.jpg,bridge_173.jpg,badlands_81.jpg,playground_36.jpg,1.0,right,1.6145,0.0,mountain,mountain_157.jpg,7.0096,2.1058,A2VUGPK6EL1HD2
292,A2VUGPK6EL1HD2,32,female,badlands_24.jpg,badlands_53.jpg,badlands_24.jpg,right,highway_342.jpg,badlands_24.jpg,golf_course_56.jpg,bridge_152.jpg,playground_237.jpg,mountain_87.jpg,1.0,left,1.3114,1.0,badlands,badlands_53.jpg,6.1008,1.4929,A2VUGPK6EL1HD2
293,A2VUGPK6EL1HD2,32,female,badlands_222.jpg,badlands_222.jpg,badlands_34.jpg,left,playground_173.jpg,bridge_228.jpg,highway_193.jpg,badlands_222.jpg,golf_course_105.jpg,mountain_169.jpg,3.0,left,1.3859,0.0,badlands,badlands_34.jpg,6.0112,0.4511,A2VUGPK6EL1HD2
294,A2VUGPK6EL1HD2,32,female,bridge_172.jpg,bridge_172.jpg,bridge_163.jpg,left,highway_53.jpg,mountain_294.jpg,golf_course_181.jpg,bridge_172.jpg,badlands_217.jpg,playground_126.jpg,3.0,right,1.7205,1.0,bridge,bridge_163.jpg,7.048,4.651,A2VUGPK6EL1HD2
295,A2VUGPK6EL1HD2,32,female,badlands_52.jpg,badlands_94.jpg,badlands_52.jpg,right,highway_199.jpg,playground_162.jpg,mountain_160.jpg,golf_course_116.jpg,badlands_52.jpg,bridge_218.jpg,4.0,right,12.753,0.0,badlands,badlands_94.jpg,7.9696,10.2219,A2VUGPK6EL1HD2
296,A2VUGPK6EL1HD2,32,female,golf_course_217.jpg,golf_course_217.jpg,golf_course_35.jpg,left,golf_course_217.jpg,mountain_152.jpg,badlands_60.jpg,playground_196.jpg,highway_191.jpg,bridge_96.jpg,0.0,left,1.7887,0.0,golf,golf_course_35.jpg,6.0368,1.9171,A2VUGPK6EL1HD2
297,A2VUGPK6EL1HD2,32,female,golf_course_331.jpg,golf_course_114.jpg,golf_course_331.jpg,right,badlands_79.jpg,golf_course_331.jpg,playground_50.jpg,bridge_126.jpg,mountain_256.jpg,highway_413.jpg,1.0,right,2.3276,0.0,golf,golf_course_114.jpg,5.0768,2.0477,A2VUGPK6EL1HD2
298,A2VUGPK6EL1HD2,32,female,bridge_65.jpg,bridge_60.jpg,bridge_65.jpg,right,bridge_65.jpg,mountain_192.jpg,badlands_30.jpg,playground_61.jpg,golf_course_59.jpg,highway_107.jpg,0.0,right,6.9908,1.0,bridge,bridge_60.jpg,5.9472,1.9136,A2VUGPK6EL1HD2
299,A2VUGPK6EL1HD2,32,female,golf_course_193.jpg,golf_course_193.jpg,golf_course_123.jpg,left,mountain_89.jpg,golf_course_193.jpg,badlands_173.jpg,playground_15.jpg,highway_274.jpg,bridge_143.jpg,1.0,right,1.5728,1.0,golf,golf_course_123.jpg,4.9616,1.4635,A2VUGPK6EL1HD2
300,A1Z494GD5FXO5L,24,male,bridge_91.jpg,bridge_82.jpg,bridge_91.jpg,right,golf_course_297.jpg,playground_249.jpg,mountain_309.jpg,highway_36.jpg,bridge_91.jpg,badlands_30.jpg,4.0,right,10.097,1.0,bridge,bridge_82.jpg,8.270833333,10.231,A1Z494GD5FXO5L
301,A1Z494GD5FXO5L,24,male,golf_course_78.jpg,golf_course_78.jpg,golf_course_101.jpg,left,badlands_80.jpg,bridge_86.jpg,mountain_137.jpg,playground_50.jpg,golf_course_78.jpg,highway_101.jpg,4.0,left,9.025,1.0,golf,golf_course_101.jpg,1.541666667,6.528,A1Z494GD5FXO5L
302,A1Z494GD5FXO5L,24,male,playground_117.jpg,playground_117.jpg,playground_167.jpg,left,badlands_200.jpg,golf_course_305.jpg,playground_117.jpg,bridge_76.jpg,mountain_204.jpg,highway_251.jpg,2.0,right,11.069,0.0,playground,playground_167.jpg,8.729166667,5.451,A1Z494GD5FXO5L
303,A1Z494GD5FXO5L,24,male,golf_course_15.jpg,golf_course_15.jpg,golf_course_113.jpg,left,golf_course_15.jpg,highway_413.jpg,mountain_212.jpg,bridge_118.jpg,playground_85.jpg,badlands_219.jpg,0.0,left,3.457,0.0,golf,golf_course_113.jpg,3.020833333,9.089,A1Z494GD5FXO5L
304,A1Z494GD5FXO5L,24,male,highway_294.jpg,highway_294.jpg,highway_368.jpg,left,bridge_62.jpg,mountain_89.jpg,playground_191.jpg,highway_294.jpg,golf_course_307.jpg,badlands_105.jpg,3.0,left,4.258,1.0,highway,highway_368.jpg,8.729166667,6.29,A1Z494GD5FXO5L
305,A1Z494GD5FXO5L,24,male,golf_course_309.jpg,golf_course_16.jpg,golf_course_309.jpg,right,highway_154.jpg,golf_course_309.jpg,mountain_160.jpg,badlands_171.jpg,playground_162.jpg,bridge_102.jpg,1.0,right,4.6,0.0,golf,golf_course_16.jpg,2.989583333,14.62,A1Z494GD5FXO5L
306,A1Z494GD5FXO5L,24,male,highway_156.jpg,highway_156.jpg,highway_293.jpg,left,golf_course_56.jpg,mountain_253.jpg,highway_156.jpg,badlands_47.jpg,playground_195.jpg,bridge_120.jpg,2.0,right,4.071,1.0,highway,highway_293.jpg,2.677083333,0.925,A1Z494GD5FXO5L
307,A1Z494GD5FXO5L,24,male,golf_course_193.jpg,golf_course_193.jpg,golf_course_235.jpg,left,golf_course_193.jpg,bridge_64.jpg,badlands_128.jpg,playground_64.jpg,mountain_41.jpg,highway_199.jpg,0.0,left,4.952,0.0,golf,golf_course_235.jpg,2.041666667,9.341,A1Z494GD5FXO5L
308,A1Z494GD5FXO5L,24,male,highway_359.jpg,highway_359.jpg,highway_379.jpg,left,bridge_66.jpg,badlands_213.jpg,mountain_250.jpg,playground_14.jpg,highway_359.jpg,golf_course_0.jpg,4.0,left,4.513,1.0,highway,highway_379.jpg,8.854166667,14.024,A1Z494GD5FXO5L
309,A1Z494GD5FXO5L,24,male,bridge_256.jpg,bridge_256.jpg,bridge_54.jpg,left,playground_55.jpg,bridge_256.jpg,mountain_135.jpg,badlands_170.jpg,highway_102.jpg,golf_course_71.jpg,1.0,left,3.383,0.0,bridge,bridge_54.jpg,5.958333333,8.706,A1Z494GD5FXO5L
310,A1Z494GD5FXO5L,24,male,golf_course_214.jpg,golf_course_214.jpg,golf_course_317.jpg,left,playground_36.jpg,bridge_167.jpg,highway_9.jpg,golf_course_214.jpg,mountain_22.jpg,badlands_54.jpg,3.0,left,1.831,1.0,golf,golf_course_317.jpg,8.989583333,14.377,A1Z494GD5FXO5L
311,A1Z494GD5FXO5L,24,male,mountain_110.jpg,mountain_223.jpg,mountain_110.jpg,right,golf_course_269.jpg,highway_90.jpg,playground_49.jpg,mountain_110.jpg,badlands_72.jpg,bridge_79.jpg,3.0,left,3.439,1.0,mountain,mountain_223.jpg,8.822916667,6.53,A1Z494GD5FXO5L
312,A1Z494GD5FXO5L,24,male,playground_219.jpg,playground_205.jpg,playground_219.jpg,right,golf_course_59.jpg,playground_219.jpg,mountain_33.jpg,bridge_143.jpg,highway_290.jpg,badlands_164.jpg,1.0,left,7.327,1.0,playground,playground_205.jpg,9.0,8.034,A1Z494GD5FXO5L
313,A1Z494GD5FXO5L,24,male,playground_240.jpg,playground_2.jpg,playground_240.jpg,right,mountain_92.jpg,golf_course_199.jpg,badlands_180.jpg,highway_313.jpg,playground_240.jpg,bridge_133.jpg,4.0,right,2.292,0.0,playground,playground_2.jpg,8.927083333,18.778,A1Z494GD5FXO5L
314,A1Z494GD5FXO5L,24,male,playground_76.jpg,playground_76.jpg,playground_22.jpg,left,badlands_106.jpg,bridge_155.jpg,golf_course_288.jpg,highway_247.jpg,playground_76.jpg,mountain_169.jpg,4.0,left,2.423,0.0,playground,playground_22.jpg,8.833333333,7.863,A1Z494GD5FXO5L
315,A1Z494GD5FXO5L,24,male,bridge_172.jpg,bridge_172.jpg,bridge_163.jpg,left,bridge_172.jpg,golf_course_116.jpg,playground_204.jpg,highway_141.jpg,badlands_79.jpg,mountain_19.jpg,0.0,left,8.999,1.0,bridge,bridge_163.jpg,8.96875,3.549,A1Z494GD5FXO5L
316,A1Z494GD5FXO5L,24,male,highway_394.jpg,highway_394.jpg,highway_406.jpg,left,bridge_190.jpg,playground_141.jpg,badlands_183.jpg,golf_course_212.jpg,highway_394.jpg,mountain_126.jpg,4.0,left,3.68,1.0,highway,highway_406.jpg,2.010416667,6.93,A1Z494GD5FXO5L
317,A1Z494GD5FXO5L,24,male,bridge_146.jpg,bridge_27.jpg,bridge_146.jpg,right,playground_154.jpg,badlands_120.jpg,bridge_146.jpg,highway_288.jpg,mountain_307.jpg,golf_course_164.jpg,2.0,left,3.266,0.0,bridge,bridge_27.jpg,3.083333333,5.177,A1Z494GD5FXO5L
318,A1Z494GD5FXO5L,24,male,highway_245.jpg,highway_245.jpg,highway_134.jpg,left,highway_245.jpg,bridge_224.jpg,badlands_88.jpg,playground_61.jpg,golf_course_265.jpg,mountain_306.jpg,0.0,right,6.454,0.0,highway,highway_134.jpg,2.020833333,8.117,A1Z494GD5FXO5L
319,A1Z494GD5FXO5L,24,male,bridge_128.jpg,bridge_128.jpg,bridge_244.jpg,left,badlands_211.jpg,playground_196.jpg,golf_course_226.jpg,highway_28.jpg,bridge_128.jpg,mountain_198.jpg,4.0,left,2.662,1.0,bridge,bridge_244.jpg,6.989583333,11.76,A1Z494GD5FXO5L
320,A1Z494GD5FXO5L,24,male,badlands_21.jpg,badlands_21.jpg,badlands_1.jpg,left,golf_course_202.jpg,bridge_254.jpg,mountain_190.jpg,playground_54.jpg,badlands_21.jpg,highway_33.jpg,4.0,left,3.753,0.0,badlands,badlands_1.jpg,1.09375,10.809,A1Z494GD5FXO5L
321,A1Z494GD5FXO5L,24,male,playground_144.jpg,playground_144.jpg,playground_137.jpg,left,mountain_120.jpg,bridge_74.jpg,badlands_174.jpg,playground_144.jpg,golf_course_176.jpg,highway_342.jpg,3.0,left,2.224,0.0,playground,playground_137.jpg,2.020833333,11.386,A1Z494GD5FXO5L
322,A1Z494GD5FXO5L,24,male,bridge_108.jpg,bridge_116.jpg,bridge_108.jpg,right,badlands_85.jpg,highway_269.jpg,mountain_290.jpg,golf_course_174.jpg,bridge_108.jpg,playground_16.jpg,4.0,right,3.709,0.0,bridge,bridge_116.jpg,3.833333333,9.483,A1Z494GD5FXO5L
323,A1Z494GD5FXO5L,24,male,mountain_232.jpg,mountain_232.jpg,mountain_3.jpg,left,golf_course_128.jpg,playground_15.jpg,highway_3.jpg,badlands_173.jpg,mountain_232.jpg,bridge_147.jpg,4.0,left,2.485,0.0,mountain,mountain_3.jpg,1.072916667,9.855,A1Z494GD5FXO5L
324,A1Z494GD5FXO5L,24,male,playground_145.jpg,playground_145.jpg,playground_229.jpg,left,badlands_227.jpg,mountain_152.jpg,highway_37.jpg,playground_145.jpg,bridge_24.jpg,golf_course_162.jpg,3.0,left,5.569,0.0,playground,playground_229.jpg,6.010416667,10.614,A1Z494GD5FXO5L
325,A1Z494GD5FXO5L,24,male,highway_93.jpg,highway_369.jpg,highway_93.jpg,right,badlands_122.jpg,bridge_197.jpg,playground_103.jpg,golf_course_127.jpg,highway_93.jpg,mountain_146.jpg,4.0,left,5.356,1.0,highway,highway_369.jpg,8.927083333,19.445,A1Z494GD5FXO5L
326,A1Z494GD5FXO5L,24,male,badlands_221.jpg,badlands_221.jpg,badlands_115.jpg,left,mountain_91.jpg,highway_18.jpg,bridge_106.jpg,badlands_221.jpg,golf_course_194.jpg,playground_126.jpg,3.0,left,7.819,0.0,badlands,badlands_115.jpg,9.0,4.486,A1Z494GD5FXO5L
327,A1Z494GD5FXO5L,24,male,mountain_230.jpg,mountain_184.jpg,mountain_230.jpg,right,golf_course_33.jpg,badlands_60.jpg,bridge_136.jpg,playground_181.jpg,mountain_230.jpg,highway_15.jpg,4.0,right,2.001,0.0,mountain,mountain_184.jpg,1.010416667,13.126,A1Z494GD5FXO5L
328,A1Z494GD5FXO5L,24,male,badlands_184.jpg,badlands_228.jpg,badlands_184.jpg,right,mountain_233.jpg,bridge_204.jpg,badlands_184.jpg,playground_68.jpg,highway_287.jpg,golf_course_342.jpg,2.0,left,6.544,0.0,badlands,badlands_228.jpg,8.979166667,11.375,A1Z494GD5FXO5L
329,A1Z494GD5FXO5L,24,male,badlands_23.jpg,badlands_114.jpg,badlands_23.jpg,right,playground_84.jpg,badlands_23.jpg,golf_course_221.jpg,bridge_158.jpg,mountain_38.jpg,highway_76.jpg,1.0,left,6.176,0.0,badlands,badlands_114.jpg,9.0,29.713,A1Z494GD5FXO5L
330,A1Z494GD5FXO5L,24,male,playground_131.jpg,playground_131.jpg,playground_164.jpg,left,mountain_268.jpg,playground_131.jpg,bridge_238.jpg,golf_course_282.jpg,badlands_59.jpg,highway_246.jpg,1.0,left,2.816,1.0,playground,playground_164.jpg,8.96875,3.338,A1Z494GD5FXO5L
331,A1Z494GD5FXO5L,24,male,mountain_123.jpg,mountain_123.jpg,mountain_94.jpg,left,highway_50.jpg,bridge_218.jpg,mountain_123.jpg,golf_course_67.jpg,badlands_125.jpg,playground_110.jpg,2.0,left,4.403,0.0,mountain,mountain_94.jpg,1.0625,8.524,A1Z494GD5FXO5L
332,A1Z494GD5FXO5L,24,male,playground_60.jpg,playground_60.jpg,playground_268.jpg,left,highway_83.jpg,badlands_55.jpg,golf_course_300.jpg,mountain_40.jpg,playground_60.jpg,bridge_228.jpg,4.0,right,3.317,0.0,playground,playground_268.jpg,8.96875,18.623,A1Z494GD5FXO5L
333,A1Z494GD5FXO5L,24,male,bridge_65.jpg,bridge_60.jpg,bridge_65.jpg,right,highway_399.jpg,golf_course_171.jpg,mountain_199.jpg,bridge_65.jpg,playground_241.jpg,badlands_97.jpg,3.0,left,6.986,1.0,bridge,bridge_60.jpg,1.145833333,4.527,A1Z494GD5FXO5L
334,A1Z494GD5FXO5L,24,male,badlands_24.jpg,badlands_3.jpg,badlands_24.jpg,right,golf_course_133.jpg,playground_176.jpg,mountain_277.jpg,badlands_24.jpg,bridge_212.jpg,highway_404.jpg,3.0,right,2.266,0.0,badlands,badlands_3.jpg,1.96875,4.558,A1Z494GD5FXO5L
335,A1Z494GD5FXO5L,24,male,bridge_191.jpg,bridge_191.jpg,bridge_75.jpg,left,badlands_138.jpg,golf_course_253.jpg,playground_153.jpg,bridge_191.jpg,mountain_76.jpg,highway_42.jpg,3.0,left,4.518,1.0,bridge,bridge_75.jpg,9.0,9.304,A1Z494GD5FXO5L
336,A1Z494GD5FXO5L,24,male,mountain_101.jpg,mountain_221.jpg,mountain_101.jpg,right,highway_265.jpg,playground_6.jpg,golf_course_219.jpg,mountain_101.jpg,badlands_36.jpg,bridge_180.jpg,3.0,left,22.494,1.0,mountain,mountain_221.jpg,1.083333333,4.697,A1Z494GD5FXO5L
337,A1Z494GD5FXO5L,24,male,golf_course_217.jpg,golf_course_35.jpg,golf_course_217.jpg,right,bridge_152.jpg,highway_58.jpg,golf_course_217.jpg,badlands_9.jpg,playground_173.jpg,mountain_62.jpg,2.0,left,3.087,0.0,golf,golf_course_35.jpg,1.135416667,7.443,A1Z494GD5FXO5L
338,A1Z494GD5FXO5L,24,male,playground_10.jpg,playground_12.jpg,playground_10.jpg,right,badlands_216.jpg,playground_10.jpg,bridge_63.jpg,golf_course_61.jpg,mountain_87.jpg,highway_383.jpg,1.0,left,3.388,1.0,playground,playground_12.jpg,1.03125,2.623,A1Z494GD5FXO5L
339,A1Z494GD5FXO5L,24,male,badlands_222.jpg,badlands_62.jpg,badlands_222.jpg,right,mountain_29.jpg,badlands_222.jpg,playground_30.jpg,highway_53.jpg,bridge_39.jpg,golf_course_120.jpg,1.0,right,2.108,1.0,badlands,badlands_62.jpg,8.947916667,8.0,A1Z494GD5FXO5L
340,A1Z494GD5FXO5L,24,male,golf_course_331.jpg,golf_course_114.jpg,golf_course_331.jpg,right,bridge_144.jpg,highway_191.jpg,badlands_217.jpg,golf_course_331.jpg,playground_83.jpg,mountain_192.jpg,3.0,right,8.571,0.0,golf,golf_course_114.jpg,1.041666667,6.797,A1Z494GD5FXO5L
341,A1Z494GD5FXO5L,24,male,badlands_113.jpg,badlands_113.jpg,badlands_203.jpg,left,mountain_302.jpg,badlands_113.jpg,playground_140.jpg,bridge_20.jpg,golf_course_72.jpg,highway_81.jpg,1.0,left,2.621,1.0,badlands,badlands_203.jpg,8.979166667,6.063,A1Z494GD5FXO5L
342,A1Z494GD5FXO5L,24,male,golf_course_195.jpg,golf_course_195.jpg,golf_course_2.jpg,left,golf_course_195.jpg,badlands_215.jpg,mountain_166.jpg,highway_148.jpg,bridge_1.jpg,playground_165.jpg,0.0,right,3.627,1.0,golf,golf_course_2.jpg,8.9375,5.462,A1Z494GD5FXO5L
343,A1Z494GD5FXO5L,24,male,highway_177.jpg,highway_177.jpg,highway_278.jpg,left,mountain_88.jpg,playground_251.jpg,highway_177.jpg,bridge_124.jpg,golf_course_138.jpg,badlands_152.jpg,2.0,right,4.44,1.0,highway,highway_278.jpg,8.979166667,12.656,A1Z494GD5FXO5L
344,A1Z494GD5FXO5L,24,male,badlands_52.jpg,badlands_52.jpg,badlands_63.jpg,left,bridge_45.jpg,playground_120.jpg,badlands_52.jpg,mountain_256.jpg,highway_172.jpg,golf_course_252.jpg,2.0,right,2.658,1.0,badlands,badlands_63.jpg,8.989583333,14.978,A1Z494GD5FXO5L
345,A1Z494GD5FXO5L,24,male,mountain_222.jpg,mountain_222.jpg,mountain_244.jpg,left,bridge_234.jpg,highway_178.jpg,mountain_222.jpg,golf_course_102.jpg,playground_7.jpg,badlands_16.jpg,2.0,left,3.034,0.0,mountain,mountain_244.jpg,1.114583333,22.39,A1Z494GD5FXO5L
346,A1Z494GD5FXO5L,24,male,golf_course_87.jpg,golf_course_161.jpg,golf_course_87.jpg,right,highway_365.jpg,mountain_180.jpg,playground_98.jpg,golf_course_87.jpg,bridge_225.jpg,badlands_157.jpg,3.0,left,3.197,1.0,golf,golf_course_161.jpg,1.927083333,4.988,A1Z494GD5FXO5L
347,A1Z494GD5FXO5L,24,male,playground_257.jpg,playground_215.jpg,playground_257.jpg,right,highway_315.jpg,mountain_228.jpg,badlands_175.jpg,playground_257.jpg,bridge_52.jpg,golf_course_144.jpg,3.0,right,6.952,1.0,playground,playground_215.jpg,1.020833333,25.042,A1Z494GD5FXO5L
348,A1Z494GD5FXO5L,24,male,highway_209.jpg,highway_209.jpg,highway_314.jpg,left,mountain_226.jpg,badlands_81.jpg,highway_209.jpg,golf_course_42.jpg,playground_235.jpg,bridge_193.jpg,2.0,left,4.945,0.0,highway,highway_314.jpg,1.0625,33.782,A1Z494GD5FXO5L
349,A1Z494GD5FXO5L,24,male,badlands_70.jpg,badlands_70.jpg,badlands_102.jpg,left,golf_course_23.jpg,badlands_70.jpg,bridge_169.jpg,playground_26.jpg,mountain_176.jpg,highway_308.jpg,1.0,left,2.852,0.0,badlands,badlands_102.jpg,2.052083333,10.988,A1Z494GD5FXO5L
350,A1Z494GD5FXO5L,24,male,mountain_154.jpg,mountain_95.jpg,mountain_154.jpg,right,mountain_154.jpg,playground_74.jpg,badlands_214.jpg,bridge_173.jpg,golf_course_166.jpg,highway_305.jpg,0.0,left,3.825,1.0,mountain,mountain_95.jpg,2.822916667,13.005,A1Z494GD5FXO5L
351,A1Z494GD5FXO5L,24,male,badlands_137.jpg,badlands_137.jpg,badlands_139.jpg,left,bridge_142.jpg,mountain_51.jpg,golf_course_179.jpg,playground_118.jpg,badlands_137.jpg,highway_274.jpg,4.0,right,2.396,1.0,badlands,badlands_139.jpg,3.0625,3.681,A1Z494GD5FXO5L
352,A1Z494GD5FXO5L,24,male,mountain_156.jpg,mountain_128.jpg,mountain_156.jpg,right,golf_course_218.jpg,playground_37.jpg,badlands_27.jpg,mountain_156.jpg,bridge_110.jpg,highway_147.jpg,3.0,left,3.809,0.0,mountain,mountain_128.jpg,7.895833333,6.327,A1Z494GD5FXO5L
353,A1Z494GD5FXO5L,24,male,golf_course_188.jpg,golf_course_160.jpg,golf_course_188.jpg,right,playground_256.jpg,badlands_46.jpg,golf_course_188.jpg,mountain_102.jpg,highway_30.jpg,bridge_4.jpg,2.0,left,4.283,1.0,golf,golf_course_160.jpg,8.041666667,8.19,A1Z494GD5FXO5L
354,A1Z494GD5FXO5L,24,male,bridge_202.jpg,bridge_31.jpg,bridge_202.jpg,right,bridge_202.jpg,golf_course_55.jpg,mountain_34.jpg,badlands_33.jpg,highway_226.jpg,playground_184.jpg,0.0,right,4.314,0.0,bridge,bridge_31.jpg,2.916666667,12.394,A1Z494GD5FXO5L
355,A1Z494GD5FXO5L,24,male,highway_415.jpg,highway_415.jpg,highway_174.jpg,left,bridge_126.jpg,badlands_26.jpg,mountain_294.jpg,playground_227.jpg,highway_415.jpg,golf_course_241.jpg,4.0,left,5.73,1.0,highway,highway_174.jpg,8.927083333,3.667,A1Z494GD5FXO5L
356,A1Z494GD5FXO5L,24,male,highway_273.jpg,highway_171.jpg,highway_273.jpg,right,badlands_185.jpg,golf_course_181.jpg,bridge_72.jpg,highway_273.jpg,playground_258.jpg,mountain_202.jpg,3.0,left,7.283,1.0,highway,highway_171.jpg,8.90625,14.381,A1Z494GD5FXO5L
357,A1Z494GD5FXO5L,24,male,bridge_250.jpg,bridge_250.jpg,bridge_134.jpg,left,golf_course_308.jpg,mountain_249.jpg,highway_193.jpg,bridge_250.jpg,playground_222.jpg,badlands_104.jpg,3.0,right,4.319,0.0,bridge,bridge_134.jpg,8.90625,8.031,A1Z494GD5FXO5L
358,A1Z494GD5FXO5L,24,male,mountain_57.jpg,mountain_57.jpg,mountain_193.jpg,left,badlands_35.jpg,bridge_87.jpg,mountain_57.jpg,highway_354.jpg,golf_course_137.jpg,playground_78.jpg,2.0,left,2.815,0.0,mountain,mountain_193.jpg,1.96875,3.639,A1Z494GD5FXO5L
359,A1Z494GD5FXO5L,24,male,mountain_293.jpg,mountain_47.jpg,mountain_293.jpg,right,bridge_164.jpg,highway_107.jpg,mountain_293.jpg,badlands_10.jpg,playground_233.jpg,golf_course_105.jpg,2.0,right,3.935,1.0,mountain,mountain_47.jpg,8.947916667,15.761,A1Z494GD5FXO5L
360,A29PB3QJJ1YA6T,25,Female,mountain_101.jpg,mountain_171.jpg,mountain_101.jpg,right,golf_course_67.jpg,mountain_101.jpg,playground_36.jpg,bridge_35.jpg,highway_18.jpg,badlands_156.jpg,1.0,right,2.1936,0.0,mountain,mountain_171.jpg,6.9712,5.077,A29PB3QJJ1YA6T
361,A29PB3QJJ1YA6T,25,Female,highway_359.jpg,highway_379.jpg,highway_359.jpg,right,playground_54.jpg,highway_359.jpg,mountain_169.jpg,bridge_152.jpg,badlands_216.jpg,golf_course_218.jpg,1.0,right,4.0622,1.0,highway,highway_379.jpg,6.9584,8.7789,A29PB3QJJ1YA6T
362,A29PB3QJJ1YA6T,25,Female,playground_219.jpg,playground_21.jpg,playground_219.jpg,right,highway_76.jpg,golf_course_194.jpg,playground_219.jpg,bridge_225.jpg,badlands_10.jpg,mountain_120.jpg,2.0,right,2.812,0.0,playground,playground_21.jpg,7.9056,10.2388,A29PB3QJJ1YA6T
363,A29PB3QJJ1YA6T,25,Female,highway_177.jpg,highway_177.jpg,highway_87.jpg,left,golf_course_282.jpg,mountain_206.jpg,playground_256.jpg,badlands_164.jpg,highway_177.jpg,bridge_66.jpg,4.0,left,1.273,0.0,highway,highway_87.jpg,5.9984,6.5861,A29PB3QJJ1YA6T
364,A29PB3QJJ1YA6T,25,Female,highway_245.jpg,highway_134.jpg,highway_245.jpg,right,mountain_192.jpg,bridge_147.jpg,highway_245.jpg,golf_course_171.jpg,playground_33.jpg,badlands_6.jpg,2.0,right,1.2858,0.0,highway,highway_134.jpg,5.0768,3.2752,A29PB3QJJ1YA6T
365,A29PB3QJJ1YA6T,25,Female,golf_course_15.jpg,golf_course_15.jpg,golf_course_97.jpg,left,highway_288.jpg,playground_49.jpg,mountain_290.jpg,badlands_157.jpg,golf_course_15.jpg,bridge_118.jpg,4.0,left,1.1399,1.0,golf,golf_course_97.jpg,9.0,8.8422,A29PB3QJJ1YA6T
366,A29PB3QJJ1YA6T,25,Female,badlands_21.jpg,badlands_21.jpg,badlands_98.jpg,left,bridge_218.jpg,badlands_21.jpg,golf_course_338.jpg,mountain_176.jpg,playground_165.jpg,highway_313.jpg,1.0,left,2.2724,1.0,badlands,badlands_98.jpg,6.9712,2.5809,A29PB3QJJ1YA6T
367,A29PB3QJJ1YA6T,25,Female,mountain_293.jpg,mountain_47.jpg,mountain_293.jpg,right,mountain_293.jpg,playground_195.jpg,badlands_67.jpg,golf_course_23.jpg,highway_154.jpg,bridge_169.jpg,0.0,right,1.4244,1.0,mountain,mountain_47.jpg,6.9968,1.4494,A29PB3QJJ1YA6T
368,A29PB3QJJ1YA6T,25,Female,badlands_52.jpg,badlands_63.jpg,badlands_52.jpg,right,bridge_68.jpg,golf_course_41.jpg,badlands_52.jpg,playground_241.jpg,mountain_91.jpg,highway_193.jpg,2.0,right,2.3717,1.0,badlands,badlands_63.jpg,5.9728,1.9613,A29PB3QJJ1YA6T
369,A29PB3QJJ1YA6T,25,Female,mountain_222.jpg,mountain_222.jpg,mountain_244.jpg,left,playground_26.jpg,mountain_222.jpg,golf_course_105.jpg,bridge_238.jpg,badlands_200.jpg,highway_265.jpg,1.0,left,1.1754,0.0,mountain,mountain_244.jpg,4.2192,2.4976,A29PB3QJJ1YA6T
370,A29PB3QJJ1YA6T,25,Female,highway_294.jpg,highway_203.jpg,highway_294.jpg,right,mountain_307.jpg,golf_course_252.jpg,bridge_79.jpg,playground_7.jpg,highway_294.jpg,badlands_55.jpg,4.0,left,2.0718,0.0,highway,highway_203.jpg,7.9568,9.2257,A29PB3QJJ1YA6T
371,A29PB3QJJ1YA6T,25,Female,highway_209.jpg,highway_122.jpg,highway_209.jpg,right,mountain_204.jpg,badlands_173.jpg,bridge_117.jpg,highway_209.jpg,golf_course_61.jpg,playground_68.jpg,3.0,right,2.7935,1.0,highway,highway_122.jpg,7.944,4.1966,A29PB3QJJ1YA6T
372,A29PB3QJJ1YA6T,25,Female,badlands_221.jpg,badlands_207.jpg,badlands_221.jpg,right,badlands_221.jpg,mountain_22.jpg,golf_course_120.jpg,highway_9.jpg,playground_227.jpg,bridge_164.jpg,0.0,right,1.1542,1.0,badlands,badlands_207.jpg,4.1808,3.8321,A29PB3QJJ1YA6T
373,A29PB3QJJ1YA6T,25,Female,playground_60.jpg,playground_268.jpg,playground_60.jpg,right,badlands_125.jpg,playground_60.jpg,mountain_166.jpg,highway_15.jpg,bridge_180.jpg,golf_course_127.jpg,1.0,left,21.7151,0.0,playground,playground_268.jpg,5.32,2.7949,A29PB3QJJ1YA6T
374,A29PB3QJJ1YA6T,25,Female,playground_117.jpg,playground_127.jpg,playground_117.jpg,right,playground_117.jpg,bridge_87.jpg,highway_30.jpg,mountain_62.jpg,golf_course_333.jpg,badlands_217.jpg,0.0,right,1.7756,1.0,playground,playground_127.jpg,5.192,5.7807,A29PB3QJJ1YA6T
375,A29PB3QJJ1YA6T,25,Female,golf_course_309.jpg,golf_course_209.jpg,golf_course_309.jpg,right,golf_course_309.jpg,highway_90.jpg,bridge_62.jpg,badlands_150.jpg,mountain_87.jpg,playground_235.jpg,0.0,right,3.2483,1.0,golf,golf_course_209.jpg,7.9056,3.8713,A29PB3QJJ1YA6T
376,A29PB3QJJ1YA6T,25,Female,bridge_146.jpg,bridge_146.jpg,bridge_27.jpg,left,badlands_88.jpg,mountain_92.jpg,golf_course_133.jpg,bridge_146.jpg,playground_258.jpg,highway_37.jpg,3.0,left,1.6208,0.0,bridge,bridge_27.jpg,7.0224,3.3539,A29PB3QJJ1YA6T
377,A29PB3QJJ1YA6T,25,Female,badlands_113.jpg,badlands_113.jpg,badlands_203.jpg,left,highway_148.jpg,mountain_45.jpg,bridge_20.jpg,badlands_113.jpg,playground_47.jpg,golf_course_226.jpg,3.0,right,1.6514,1.0,badlands,badlands_203.jpg,9.0,2.515,A29PB3QJJ1YA6T
378,A29PB3QJJ1YA6T,25,Female,badlands_23.jpg,badlands_23.jpg,badlands_101.jpg,left,playground_184.jpg,mountain_88.jpg,badlands_23.jpg,bridge_179.jpg,golf_course_307.jpg,highway_247.jpg,2.0,left,1.4205,1.0,badlands,badlands_101.jpg,5.0128,3.156,A29PB3QJJ1YA6T
