,layer,correct,test_test_response.keys,test_test_response.corr,test_test_response.rt,trials_2.thisRepN,trials_2.thisTrialN,trials_2.thisN,trials_2.thisIndex,trials_2.ran,image1,image2,subject
0,3.0,left,right,0.0,2.104799999,0.0,0.0,0.0,0.0,1.0,2994405328-74628.jpg,2883273443-68192.jpg,A10AKR84P1WXHL
1,1.0,right,right,1.0,0.105799999,0.0,1.0,1.0,1.0,1.0,2592380255-205552.jpg,2238375302-311538.jpg,A10AKR84P1WXHL
2,3.0,left,right,0.0,0.105700001,0.0,2.0,2.0,2.0,1.0,2274829821-263682.jpg,2862687442-360837.jpg,A10AKR84P1WXHL
3,1.0,left,left,1.0,0.007700001,0.0,3.0,3.0,3.0,1.0,2238429999-90218.jpg,2986448334-147157.jpg,A10AKR84P1WXHL
4,2.0,left,left,1.0,0.2049,0.0,4.0,4.0,4.0,1.0,2238584869-113153.jpg,2981241419-145844.jpg,A10AKR84P1WXHL
5,1.0,right,left,0.0,0.4024,0.0,5.0,5.0,5.0,1.0,2804906319-133082.jpg,2238480434-93829.jpg,A10AKR84P1WXHL
6,2.0,right,right,1.0,0.185299999,0.0,6.0,6.0,6.0,1.0,2592380177-354626.jpg,2238561223-33794.jpg,A10AKR84P1WXHL
7,1.0,right,left,0.0,0.4051,0.0,7.0,7.0,7.0,1.0,2579432708-56394.jpg,2901938432-367627.jpg,A10AKR84P1WXHL
8,1.0,right,right,1.0,0.0079,0.0,8.0,8.0,8.0,1.0,2986397365-221133.jpg,2864906345-212360.jpg,A10AKR84P1WXHL
9,2.0,right,right,1.0,0.107200001,0.0,9.0,9.0,9.0,1.0,2452380832-348593.jpg,2238499155-170911.jpg,A10AKR84P1WXHL
10,2.0,left,left,1.0,0.116799999,0.0,10.0,10.0,10.0,1.0,2964213381-294060.jpg,2238520921-248323.jpg,A10AKR84P1WXHL
11,1.0,left,right,0.0,0.5996,0.0,11.0,11.0,11.0,1.0,2964218374-144968.jpg,2238411877-313125.jpg,A10AKR84P1WXHL
12,2.0,left,right,0.0,0.105099998,0.0,12.0,12.0,12.0,1.0,2238126735-154721.jpg,2575122854-130480.jpg,A10AKR84P1WXHL
13,2.0,right,right,1.0,0.106599998,0.0,13.0,13.0,13.0,1.0,2446759580-197801.jpg,2986408352-371293.jpg,A10AKR84P1WXHL
14,3.0,left,left,1.0,0.105800001,0.0,14.0,14.0,14.0,1.0,2898632385-217137.jpg,2864904453-63932.jpg,A10AKR84P1WXHL
15,2.0,left,left,1.0,0.3096,0.0,15.0,15.0,15.0,1.0,2981231446-294731.jpg,2238568685-183597.jpg,A10AKR84P1WXHL
16,2.0,right,right,1.0,0.4055,0.0,16.0,16.0,16.0,1.0,2898631429-142736.jpg,2964209380-218956.jpg,A10AKR84P1WXHL
17,1.0,right,right,1.0,0.7979,0.0,17.0,17.0,17.0,1.0,2460547477-349426.jpg,2238129579-80916.jpg,A10AKR84P1WXHL
18,1.0,right,right,1.0,0.112699999,0.0,18.0,18.0,18.0,1.0,2238481610-168214.jpg,2449442529-124446.jpg,A10AKR84P1WXHL
19,2.0,right,left,0.0,0.106800001,0.0,19.0,19.0,19.0,1.0,2449442365-198476.jpg,2898626385-216899.jpg,A10AKR84P1WXHL
20,2.0,left,right,0.0,0.1059,0.0,20.0,20.0,20.0,1.0,2898617468-68274.jpg,2238585512-336576.jpg,A10AKR84P1WXHL
21,2.0,right,left,0.0,0.108299999,0.0,21.0,21.0,21.0,1.0,2238510189-98616.jpg,2901941426-292805.jpg,A10AKR84P1WXHL
22,3.0,left,right,0.0,0.0081,0.0,22.0,22.0,22.0,1.0,2901934573-69337.jpg,2901936407-367476.jpg,A10AKR84P1WXHL
23,1.0,left,left,1.0,0.1056,0.0,23.0,23.0,23.0,1.0,2512876023-52283.jpg,2864908323-64106.jpg,A10AKR84P1WXHL
24,3.0,left,right,0.0,0.1099,0.0,24.0,24.0,24.0,1.0,2868485396-288511.jpg,2238380314-88261.jpg,A10AKR84P1WXHL
25,2.0,left,left,1.0,0.007700001,0.0,25.0,25.0,25.0,1.0,2883272438-68133.jpg,2901936369-143233.jpg,A10AKR84P1WXHL
26,3.0,left,right,0.0,0.1075,0.0,26.0,26.0,26.0,1.0,2446758985-197609.jpg,2984618344-146295.jpg,A10AKR84P1WXHL
27,3.0,left,left,1.0,0.0076,0.0,27.0,27.0,27.0,1.0,2238550049-105691.jpg,2964219468-71238.jpg,A10AKR84P1WXHL
28,3.0,left,right,0.0,0.105800001,0.0,28.0,28.0,28.0,1.0,2964213381-294061.jpg,2989721347-371917.jpg,A10AKR84P1WXHL
29,1.0,right,left,0.0,0.008400002,0.0,29.0,29.0,29.0,1.0,2986402377-371266.jpg,2898624426-291546.jpg,A10AKR84P1WXHL
30,1.0,right,right,1.0,0.107400002,0.0,30.0,30.0,30.0,1.0,2989727350-222011.jpg,2986400320-221190.jpg,A10AKR84P1WXHL
31,1.0,left,left,1.0,0.007699999,0.0,31.0,31.0,31.0,1.0,2592380138-56727.jpg,2986419351-296471.jpg,A10AKR84P1WXHL
32,1.0,left,right,0.0,0.007800001,0.0,32.0,32.0,32.0,1.0,2898632385-217138.jpg,2575120738-55529.jpg,A10AKR84P1WXHL
33,3.0,left,right,0.0,0.2056,0.0,33.0,33.0,33.0,1.0,2883254439-140940.jpg,2812983311-281946.jpg,A10AKR84P1WXHL
34,2.0,left,right,0.0,0.406799999,0.0,34.0,34.0,34.0,1.0,2901939379-143479.jpg,2449443292-348022.jpg,A10AKR84P1WXHL
35,1.0,left,right,0.0,0.204700001,0.0,35.0,35.0,35.0,1.0,2238521193-26286.jpg,2825712309-134957.jpg,A10AKR84P1WXHL
36,2.0,right,left,0.0,0.0076,0.0,36.0,36.0,36.0,1.0,2592380188-56743.jpg,2446760940-198145.jpg,A10AKR84P1WXHL
37,1.0,left,right,0.0,0.1066,0.0,37.0,37.0,37.0,1.0,2446760524-123999.jpg,2446760621-272102.jpg,A10AKR84P1WXHL
38,3.0,right,left,0.0,0.104700001,0.0,38.0,38.0,38.0,1.0,2237858043-1434.jpg,2898633480-217190.jpg,A10AKR84P1WXHL
39,3.0,right,right,1.0,0.0079,0.0,39.0,39.0,39.0,1.0,2238498786-244797.jpg,2446759803-49249.jpg,A10AKR84P1WXHL
40,2.0,right,left,0.0,0.1071,0.0,40.0,40.0,40.0,1.0,2237965109-79314.jpg,2883254439-140941.jpg,A10AKR84P1WXHL
41,2.0,left,right,0.0,0.302,0.0,41.0,41.0,41.0,1.0,2964216465-219242.jpg,2512875796-274856.jpg,A10AKR84P1WXHL
42,3.0,left,right,0.0,0.211,0.0,42.0,42.0,42.0,1.0,2331570830-189984.jpg,2458348012-349114.jpg,A10AKR84P1WXHL
43,2.0,right,left,0.0,0.0081,0.0,43.0,43.0,43.0,1.0,2238470079-92499.jpg,2460547467-349421.jpg,A10AKR84P1WXHL
44,1.0,right,right,1.0,0.1059,0.0,44.0,44.0,44.0,1.0,2238481575-168208.jpg,2883255450-215311.jpg,A10AKR84P1WXHL
45,3.0,left,left,1.0,0.104799999,0.0,45.0,45.0,45.0,1.0,2898635427-367120.jpg,2901936309-143207.jpg,A10AKR84P1WXHL
46,2.0,left,right,0.0,0.106799999,0.0,46.0,46.0,46.0,1.0,2862691449-137104.jpg,2986455341-296758.jpg,A10AKR84P1WXHL
47,1.0,left,left,1.0,0.007700001,0.0,47.0,47.0,47.0,1.0,2238471391-240918.jpg,2868470400-212889.jpg,A10AKR84P1WXHL
48,3.0,right,right,1.0,0.108800001,0.0,48.0,48.0,48.0,1.0,2458348144-125787.jpg,2579432576-279079.jpg,A10AKR84P1WXHL
49,1.0,right,left,0.0,0.007700001,0.0,49.0,49.0,49.0,1.0,2592380285-205564.jpg,2238575092-334269.jpg,A10AKR84P1WXHL
50,1.0,left,right,0.0,0.105400002,0.0,50.0,50.0,50.0,1.0,2238496457-319749.jpg,2238570142-333223.jpg,A10AKR84P1WXHL
51,3.0,left,left,1.0,0.0079,0.0,51.0,51.0,51.0,1.0,2575964140-205050.jpg,2446760226-272005.jpg,A10AKR84P1WXHL
52,3.0,right,left,0.0,0.406200001,0.0,52.0,52.0,52.0,1.0,2598726160-205998.jpg,2625337302-355866.jpg,A10AKR84P1WXHL
53,3.0,left,right,0.0,0.007799999,0.0,53.0,53.0,53.0,1.0,2238516618-25604.jpg,2238470979-92618.jpg,A10AKR84P1WXHL
54,3.0,right,right,1.0,0.106200001,0.0,54.0,54.0,54.0,1.0,2238380901-236499.jpg,2452380166-273109.jpg,A10AKR84P1WXHL
55,2.0,left,left,1.0,0.007800001,0.0,55.0,55.0,55.0,1.0,2238584018-38513.jpg,2898633321-291943.jpg,A10AKR84P1WXHL
56,2.0,left,right,0.0,0.008099998,0.0,56.0,56.0,56.0,1.0,2964224310-219527.jpg,2964213441-294073.jpg,A10AKR84P1WXHL
57,3.0,right,left,0.0,0.081200001,0.0,57.0,57.0,57.0,1.0,2238562336-256366.jpg,2883255450-215309.jpg,A10AKR84P1WXHL
58,3.0,right,right,1.0,0.107,0.0,58.0,58.0,58.0,1.0,2238436851-238821.jpg,2868475410-213219.jpg,A10AKR84P1WXHL
59,1.0,left,left,1.0,0.008200001,0.0,59.0,59.0,59.0,1.0,2864909447-362146.jpg,2874316384-140749.jpg,A10AKR84P1WXHL
60,3.0,left,right,0.0,4.1249,0.0,0.0,0.0,0.0,1.0,2868475410-213219.jpg,2238436851-238821.jpg,A14OQ52EFQAN2W
61,1.0,left,right,0.0,1.722,0.0,1.0,1.0,1.0,1.0,2512876023-52283.jpg,2864908323-64106.jpg,A14OQ52EFQAN2W
62,2.0,right,right,1.0,1.2696,0.0,2.0,2.0,2.0,1.0,2446760226-272006.jpg,2579432576-279079.jpg,A14OQ52EFQAN2W
63,3.0,left,right,0.0,1.1492,0.0,3.0,3.0,3.0,1.0,2625337302-355866.jpg,2598726160-205998.jpg,A14OQ52EFQAN2W
64,1.0,left,right,0.0,1.7328,0.0,4.0,4.0,4.0,1.0,2901941426-292805.jpg,2868488422-363715.jpg,A14OQ52EFQAN2W
65,3.0,right,left,0.0,1.9345,0.0,5.0,5.0,5.0,1.0,2238161924-82646.jpg,2238129579-80916.jpg,A14OQ52EFQAN2W
66,1.0,left,left,1.0,1.3656,0.0,6.0,6.0,6.0,1.0,2898624426-291546.jpg,2986402377-371266.jpg,A14OQ52EFQAN2W
67,3.0,right,left,0.0,1.3849,0.0,7.0,7.0,7.0,1.0,2964222378-71332.jpg,2238429999-90218.jpg,A14OQ52EFQAN2W
68,2.0,right,left,0.0,1.0991,0.0,8.0,8.0,8.0,1.0,2901936369-143233.jpg,2883272438-68133.jpg,A14OQ52EFQAN2W
69,2.0,right,right,1.0,1.1992,0.0,9.0,9.0,9.0,1.0,2964213441-294073.jpg,2964224310-219527.jpg,A14OQ52EFQAN2W
70,2.0,left,left,1.0,1.6017,0.0,10.0,10.0,10.0,1.0,2446760524-123999.jpg,2238552469-106359.jpg,A14OQ52EFQAN2W
71,3.0,right,right,1.0,0.9665,0.0,11.0,11.0,11.0,1.0,2238537701-251772.jpg,2592380138-56727.jpg,A14OQ52EFQAN2W
72,2.0,right,left,0.0,2.0833,0.0,12.0,12.0,12.0,1.0,2238521157-323782.jpg,2964218374-144968.jpg,A14OQ52EFQAN2W
73,3.0,right,right,1.0,0.9348,0.0,13.0,13.0,13.0,1.0,2864904453-63932.jpg,2898632385-217137.jpg,A14OQ52EFQAN2W
74,1.0,left,left,1.0,1.2823,0.0,14.0,14.0,14.0,1.0,2981231446-294731.jpg,2986450330-221526.jpg,A14OQ52EFQAN2W
75,2.0,left,left,1.0,1.6176,0.0,15.0,15.0,15.0,1.0,2986400320-221190.jpg,2238470979-92615.jpg,A14OQ52EFQAN2W
76,2.0,right,left,0.0,1.5005,0.0,16.0,16.0,16.0,1.0,2446758985-197610.jpg,2274829821-263682.jpg,A14OQ52EFQAN2W
77,3.0,right,left,0.0,1.0191,0.0,17.0,17.0,17.0,1.0,2446760917-347439.jpg,2964216465-219242.jpg,A14OQ52EFQAN2W
78,3.0,left,left,1.0,1.5437,0.0,18.0,18.0,18.0,1.0,2446758985-197609.jpg,2984618344-146295.jpg,A14OQ52EFQAN2W
79,2.0,left,left,1.0,1.6646,0.0,19.0,19.0,19.0,1.0,2238584869-113153.jpg,2981241419-145844.jpg,A14OQ52EFQAN2W
80,1.0,right,left,0.0,1.9527,0.0,20.0,20.0,20.0,1.0,2238481575-168208.jpg,2883255450-215311.jpg,A14OQ52EFQAN2W
81,1.0,left,left,1.0,0.8991,0.0,21.0,21.0,21.0,1.0,2883254439-140941.jpg,2989724308-73928.jpg,A14OQ52EFQAN2W
82,2.0,left,left,1.0,1.2305,0.0,22.0,22.0,22.0,1.0,2883255450-215309.jpg,2868476439-138927.jpg,A14OQ52EFQAN2W
83,1.0,left,right,0.0,1.9756,0.0,23.0,23.0,23.0,1.0,2986408352-371293.jpg,2868488422-363713.jpg,A14OQ52EFQAN2W
84,3.0,left,right,0.0,1.5655,0.0,24.0,24.0,24.0,1.0,2238499155-170911.jpg,2238373603-13733.jpg,A14OQ52EFQAN2W
85,2.0,left,right,0.0,1.2482,0.0,25.0,25.0,25.0,1.0,2446760940-198145.jpg,2592380188-56743.jpg,A14OQ52EFQAN2W
86,2.0,right,right,1.0,0.8862,0.0,26.0,26.0,26.0,1.0,2449443292-348022.jpg,2901939379-143479.jpg,A14OQ52EFQAN2W
87,3.0,left,right,0.0,1.0177,0.0,27.0,27.0,27.0,1.0,2898617468-68274.jpg,2862684406-285700.jpg,A14OQ52EFQAN2W
88,2.0,right,right,1.0,0.8689,0.0,28.0,28.0,28.0,1.0,2592380049-131077.jpg,2238375302-311538.jpg,A14OQ52EFQAN2W
89,1.0,right,right,1.0,1.1998,0.0,29.0,29.0,29.0,1.0,2452380166-273110.jpg,2883254439-140940.jpg,A14OQ52EFQAN2W
90,3.0,right,right,1.0,1.266,0.0,30.0,30.0,30.0,1.0,2446760226-272005.jpg,2575964140-205050.jpg,A14OQ52EFQAN2W
91,3.0,left,right,0.0,0.8657,0.0,31.0,31.0,31.0,1.0,2238126735-154721.jpg,2901951430-218724.jpg,A14OQ52EFQAN2W
92,2.0,right,left,0.0,1.2426,0.0,32.0,32.0,32.0,1.0,2986455341-296758.jpg,2862691449-137104.jpg,A14OQ52EFQAN2W
93,1.0,left,left,1.0,1.0173,0.0,33.0,33.0,33.0,1.0,2452380166-273109.jpg,2452380171-273112.jpg,A14OQ52EFQAN2W
94,3.0,left,right,0.0,1.1689,0.0,34.0,34.0,34.0,1.0,2238575092-334269.jpg,2964218374-144967.jpg,A14OQ52EFQAN2W
95,1.0,right,left,0.0,1.6515,0.0,35.0,35.0,35.0,1.0,2238436632-314069.jpg,2898635427-367120.jpg,A14OQ52EFQAN2W
96,1.0,right,right,1.0,1.4016,0.0,36.0,36.0,36.0,1.0,2446760483-49429.jpg,2331570830-189984.jpg,A14OQ52EFQAN2W
97,1.0,left,right,0.0,1.1009,0.0,37.0,37.0,37.0,1.0,2864909447-362146.jpg,2874316384-140749.jpg,A14OQ52EFQAN2W
98,1.0,left,right,0.0,1.3004,0.0,38.0,38.0,38.0,1.0,2898626385-216899.jpg,2989715328-73658.jpg,A14OQ52EFQAN2W
99,1.0,left,left,1.0,0.9455,0.0,39.0,39.0,39.0,1.0,2460547467-349421.jpg,2901934573-69336.jpg,A14OQ52EFQAN2W
100,2.0,right,right,1.0,1.3835,0.0,40.0,40.0,40.0,1.0,2898633321-291943.jpg,2238584018-38513.jpg,A14OQ52EFQAN2W
101,1.0,left,right,0.0,1.6179,0.0,41.0,41.0,41.0,1.0,2964213381-294060.jpg,2898631359-142720.jpg,A14OQ52EFQAN2W
102,3.0,left,right,0.0,1.9512,0.0,42.0,42.0,42.0,1.0,2864906345-212360.jpg,2994403305-222559.jpg,A14OQ52EFQAN2W
103,3.0,right,right,1.0,1.6161,0.0,43.0,43.0,43.0,1.0,2898617396-291219.jpg,2964209380-218956.jpg,A14OQ52EFQAN2W
104,1.0,right,left,0.0,1.8135,0.0,44.0,44.0,44.0,1.0,2238570142-333223.jpg,2238496457-319749.jpg,A14OQ52EFQAN2W
105,3.0,right,right,1.0,1.4183,0.0,45.0,45.0,45.0,1.0,2864911339-138231.jpg,2449442529-124446.jpg,A14OQ52EFQAN2W
106,2.0,left,right,0.0,2.2005,0.0,46.0,46.0,46.0,1.0,2898632385-217138.jpg,2273188118-40829.jpg,A14OQ52EFQAN2W
107,3.0,left,right,0.0,1.3,0.0,47.0,47.0,47.0,1.0,2898633480-217190.jpg,2237858043-1434.jpg,A14OQ52EFQAN2W
108,1.0,right,right,1.0,0.9519,0.0,48.0,48.0,48.0,1.0,2238573549-110485.jpg,2238516618-25604.jpg,A14OQ52EFQAN2W
109,2.0,right,right,1.0,1.3839,0.0,49.0,49.0,49.0,1.0,2825702353-60662.jpg,2994405328-74628.jpg,A14OQ52EFQAN2W
110,3.0,left,right,0.0,0.936,0.0,50.0,50.0,50.0,1.0,2868485396-288511.jpg,2238380314-88261.jpg,A14OQ52EFQAN2W
111,3.0,right,left,0.0,1.0144,0.0,51.0,51.0,51.0,1.0,2446760306-272024.jpg,2238521193-26286.jpg,A14OQ52EFQAN2W
112,1.0,left,left,1.0,0.8006,0.0,52.0,52.0,52.0,1.0,2238550049-105691.jpg,2238482972-317759.jpg,A14OQ52EFQAN2W
113,2.0,right,left,0.0,1.0844,0.0,53.0,53.0,53.0,1.0,2592380177-354626.jpg,2238561223-33794.jpg,A14OQ52EFQAN2W
114,2.0,left,left,1.0,1.2682,0.0,54.0,54.0,54.0,1.0,2238471391-240918.jpg,2901943388-69995.jpg,A14OQ52EFQAN2W
115,1.0,left,left,1.0,1.0673,0.0,55.0,55.0,55.0,1.0,2446759803-49249.jpg,2592380177-354629.jpg,A14OQ52EFQAN2W
116,2.0,left,left,1.0,1.1075,0.0,56.0,56.0,56.0,1.0,2901938432-367627.jpg,2856919327-359675.jpg,A14OQ52EFQAN2W
117,1.0,right,left,0.0,1.3502,0.0,57.0,57.0,57.0,1.0,2804906319-133082.jpg,2238480434-93829.jpg,A14OQ52EFQAN2W
118,3.0,right,left,0.0,0.9518,0.0,58.0,58.0,58.0,1.0,2901936407-367476.jpg,2901934573-69337.jpg,A14OQ52EFQAN2W
119,2.0,left,left,1.0,1.1353,0.0,59.0,59.0,59.0,1.0,2964213381-294061.jpg,2981234334-145491.jpg,A14OQ52EFQAN2W
120,1.0,right,right,1.0,2.688,0.0,0.0,0.0,0.0,1.0,2238540598-30035.jpg,2862691449-137104.jpg,A15V2JYNSMUREO
121,1.0,left,left,1.0,1.342,0.0,1.0,1.0,1.0,1.0,2446760940-198145.jpg,2449443300-198739.jpg,A15V2JYNSMUREO
122,3.0,right,right,1.0,1.158,0.0,2.0,2.0,2.0,1.0,2238539138-29878.jpg,2446760524-123999.jpg,A15V2JYNSMUREO
123,1.0,right,right,1.0,1.466,0.0,3.0,3.0,3.0,1.0,2898633421-291973.jpg,2446758985-197609.jpg,A15V2JYNSMUREO
124,2.0,right,right,1.0,1.869,0.0,4.0,4.0,4.0,1.0,2860304305-210777.jpg,2238575092-334269.jpg,A15V2JYNSMUREO
125,1.0,left,left,1.0,1.084,0.0,5.0,5.0,5.0,1.0,2898633480-217190.jpg,2446760147-347245.jpg,A15V2JYNSMUREO
126,1.0,left,right,0.0,1.157,0.0,6.0,6.0,6.0,1.0,2512876023-52283.jpg,2864908323-64106.jpg,A15V2JYNSMUREO
127,2.0,left,left,1.0,1.45,0.0,7.0,7.0,7.0,1.0,2883254439-140940.jpg,2575121890-204630.jpg,A15V2JYNSMUREO
128,2.0,left,right,0.0,1.285,0.0,8.0,8.0,8.0,1.0,2883255450-215311.jpg,2868485399-139476.jpg,A15V2JYNSMUREO
129,3.0,right,right,1.0,1.091,0.0,9.0,9.0,9.0,1.0,2864909422-362141.jpg,2901939379-143479.jpg,A15V2JYNSMUREO
130,2.0,left,left,1.0,1.159,0.0,10.0,10.0,10.0,1.0,2868475410-213219.jpg,2575964140-205051.jpg,A15V2JYNSMUREO
131,2.0,left,left,1.0,1.435,0.0,11.0,11.0,11.0,1.0,2625337302-355866.jpg,2238478760-167789.jpg,A15V2JYNSMUREO
132,1.0,right,right,1.0,0.924,0.0,12.0,12.0,12.0,1.0,2575120738-55529.jpg,2898632385-217138.jpg,A15V2JYNSMUREO
133,1.0,left,right,0.0,0.947,0.0,13.0,13.0,13.0,1.0,2238584869-113153.jpg,2864901420-212147.jpg,A15V2JYNSMUREO
134,3.0,left,right,0.0,1.172,0.0,14.0,14.0,14.0,1.0,2238550049-105691.jpg,2964219468-71238.jpg,A15V2JYNSMUREO
135,1.0,left,left,1.0,1.22,0.0,15.0,15.0,15.0,1.0,2238516618-25604.jpg,2238573549-110485.jpg,A15V2JYNSMUREO
136,3.0,left,right,0.0,0.954,0.0,16.0,16.0,16.0,1.0,2964216465-219242.jpg,2446760917-347439.jpg,A15V2JYNSMUREO
137,2.0,right,left,0.0,1.182,0.0,17.0,17.0,17.0,1.0,2238470979-92615.jpg,2986400320-221190.jpg,A15V2JYNSMUREO
138,2.0,right,right,1.0,1.196,0.0,18.0,18.0,18.0,1.0,2238520921-248323.jpg,2964213381-294060.jpg,A15V2JYNSMUREO
139,3.0,left,left,1.0,1.714,0.0,19.0,19.0,19.0,1.0,2238129579-80916.jpg,2238161924-82646.jpg,A15V2JYNSMUREO
140,1.0,left,right,0.0,1.076,0.0,20.0,20.0,20.0,1.0,2238584018-38513.jpg,2449443163-50093.jpg,A15V2JYNSMUREO
141,1.0,left,left,1.0,1.646,0.0,21.0,21.0,21.0,1.0,2238480434-93829.jpg,2804906319-133082.jpg,A15V2JYNSMUREO
142,3.0,left,right,0.0,1.117,0.0,22.0,22.0,22.0,1.0,2238521193-26286.jpg,2446760306-272024.jpg,A15V2JYNSMUREO
143,2.0,left,left,1.0,1.432,0.0,23.0,23.0,23.0,1.0,2238126735-154721.jpg,2575122854-130480.jpg,A15V2JYNSMUREO
144,2.0,left,right,0.0,1.293,0.0,24.0,24.0,24.0,1.0,2238471391-240918.jpg,2901943388-69995.jpg,A15V2JYNSMUREO
145,2.0,right,right,1.0,1.826,0.0,25.0,25.0,25.0,1.0,2901951459-144433.jpg,2238429999-90218.jpg,A15V2JYNSMUREO
146,3.0,right,right,1.0,1.309,0.0,26.0,26.0,26.0,1.0,2864911339-138231.jpg,2449442529-124446.jpg,A15V2JYNSMUREO
147,3.0,left,right,0.0,3.31,0.0,27.0,27.0,27.0,1.0,2964224310-219527.jpg,2238490590-169598.jpg,A15V2JYNSMUREO
148,2.0,left,left,1.0,1.052,0.0,28.0,28.0,28.0,1.0,2452380166-273109.jpg,2592379781-279345.jpg,A15V2JYNSMUREO
149,1.0,right,right,1.0,1.26,0.0,29.0,29.0,29.0,1.0,2986402377-371266.jpg,2898624426-291546.jpg,A15V2JYNSMUREO
150,3.0,right,left,0.0,1.125,0.0,30.0,30.0,30.0,1.0,2898618440-216545.jpg,2898626385-216899.jpg,A15V2JYNSMUREO
151,2.0,left,left,1.0,1.032,0.0,31.0,31.0,31.0,1.0,2446759803-49249.jpg,2238468265-166556.jpg,A15V2JYNSMUREO
152,3.0,left,left,1.0,1.318,0.0,32.0,32.0,32.0,1.0,2964218374-144968.jpg,2238525773-27014.jpg,A15V2JYNSMUREO
153,3.0,right,right,1.0,1.342,0.0,33.0,33.0,33.0,1.0,2424122568-45517.jpg,2901938432-367627.jpg,A15V2JYNSMUREO
154,1.0,right,right,1.0,1.172,0.0,34.0,34.0,34.0,1.0,2986401333-73218.jpg,2901934573-69337.jpg,A15V2JYNSMUREO
155,3.0,right,right,1.0,1.081,0.0,35.0,35.0,35.0,1.0,2417207297-342139.jpg,2981231446-294731.jpg,A15V2JYNSMUREO
156,1.0,right,left,0.0,1.248,0.0,36.0,36.0,36.0,1.0,2874316384-140749.jpg,2864909447-362146.jpg,A15V2JYNSMUREO
157,3.0,left,right,0.0,0.978,0.0,37.0,37.0,37.0,1.0,2575964140-205050.jpg,2446760226-272005.jpg,A15V2JYNSMUREO
158,3.0,right,right,1.0,0.859,0.0,38.0,38.0,38.0,1.0,2864904453-63932.jpg,2898632385-217137.jpg,A15V2JYNSMUREO
159,3.0,right,right,1.0,1.086,0.0,39.0,39.0,39.0,1.0,2898617396-291219.jpg,2964209380-218956.jpg,A15V2JYNSMUREO
160,3.0,left,left,1.0,1.087,0.0,40.0,40.0,40.0,1.0,2864906345-212360.jpg,2994403305-222559.jpg,A15V2JYNSMUREO
161,1.0,right,right,1.0,1.004,0.0,41.0,41.0,41.0,1.0,2901934573-69336.jpg,2460547467-349421.jpg,A15V2JYNSMUREO
162,2.0,left,left,1.0,0.865,0.0,42.0,42.0,42.0,1.0,2898617468-68274.jpg,2238585512-336576.jpg,A15V2JYNSMUREO
163,3.0,right,right,1.0,0.951,0.0,43.0,43.0,43.0,1.0,2238562336-256366.jpg,2883255450-215309.jpg,A15V2JYNSMUREO
164,3.0,left,left,1.0,1.0,0.0,44.0,44.0,44.0,1.0,2994405328-74628.jpg,2883273443-68192.jpg,A15V2JYNSMUREO
165,2.0,right,left,0.0,1.272,0.0,45.0,45.0,45.0,1.0,2901936369-143233.jpg,2883272438-68133.jpg,A15V2JYNSMUREO
166,1.0,right,left,0.0,1.263,0.0,46.0,46.0,46.0,1.0,2238436632-314069.jpg,2898635427-367120.jpg,A15V2JYNSMUREO
167,3.0,left,left,1.0,1.287,0.0,47.0,47.0,47.0,1.0,2579432576-279079.jpg,2458348144-125787.jpg,A15V2JYNSMUREO
168,2.0,left,right,0.0,1.318,0.0,48.0,48.0,48.0,1.0,2592380138-56727.jpg,2430664847-345753.jpg,A15V2JYNSMUREO
169,2.0,left,left,1.0,1.715,0.0,49.0,49.0,49.0,1.0,2986408352-371293.jpg,2446759580-197801.jpg,A15V2JYNSMUREO
170,2.0,right,left,0.0,1.197,0.0,50.0,50.0,50.0,1.0,2446758985-197610.jpg,2274829821-263682.jpg,A15V2JYNSMUREO
171,2.0,left,right,0.0,0.994,0.0,51.0,51.0,51.0,1.0,2238561223-33794.jpg,2592380177-354626.jpg,A15V2JYNSMUREO
172,2.0,left,right,0.0,1.002,0.0,52.0,52.0,52.0,1.0,2868485396-288511.jpg,2868472420-213024.jpg,A15V2JYNSMUREO
173,1.0,left,right,0.0,1.32,0.0,53.0,53.0,53.0,1.0,2238496457-319749.jpg,2238570142-333223.jpg,A15V2JYNSMUREO
174,1.0,right,left,0.0,0.938,0.0,54.0,54.0,54.0,1.0,2989724308-73928.jpg,2883254439-140941.jpg,A15V2JYNSMUREO
175,1.0,right,right,1.0,1.528,0.0,55.0,55.0,55.0,1.0,2238433340-164524.jpg,2964213381-294061.jpg,A15V2JYNSMUREO
176,1.0,right,right,1.0,0.996,0.0,56.0,56.0,56.0,1.0,2592380255-205552.jpg,2238375302-311538.jpg,A15V2JYNSMUREO
177,1.0,left,right,0.0,1.38,0.0,57.0,57.0,57.0,1.0,2331570830-189984.jpg,2446760483-49429.jpg,A15V2JYNSMUREO
178,3.0,right,left,0.0,1.137,0.0,58.0,58.0,58.0,1.0,2238373603-13733.jpg,2238499155-170911.jpg,A15V2JYNSMUREO
179,2.0,right,right,1.0,0.992,0.0,59.0,59.0,59.0,1.0,2238510189-98616.jpg,2901941426-292805.jpg,A15V2JYNSMUREO
180,1.0,left,left,1.0,3.466,0.0,0.0,0.0,0.0,1.0,2238516618-25604.jpg,2238573549-110485.jpg,A1BM11Y4W27OUR
181,1.0,left,left,1.0,3.183,0.0,1.0,1.0,1.0,1.0,2898632385-217137.jpg,2238360884-87525.jpg,A1BM11Y4W27OUR
182,3.0,right,right,1.0,2.966,0.0,2.0,2.0,2.0,1.0,2417207511-266975.jpg,2883254439-140941.jpg,A1BM11Y4W27OUR
183,3.0,left,left,1.0,8.669,0.0,3.0,3.0,3.0,1.0,2446758985-197609.jpg,2984618344-146295.jpg,A1BM11Y4W27OUR
184,1.0,left,left,1.0,6.356,0.0,4.0,4.0,4.0,1.0,2625337302-355866.jpg,2425492472-343825.jpg,A1BM11Y4W27OUR
185,1.0,left,left,1.0,6.037,0.0,5.0,5.0,5.0,1.0,2446760940-198145.jpg,2449443300-198739.jpg,A1BM11Y4W27OUR
186,1.0,left,left,1.0,2.424,0.0,6.0,6.0,6.0,1.0,2964218374-144968.jpg,2238411877-313125.jpg,A1BM11Y4W27OUR
187,3.0,left,right,0.0,4.585,0.0,7.0,7.0,7.0,1.0,2238499155-170911.jpg,2238373603-13733.jpg,A1BM11Y4W27OUR
188,2.0,left,left,1.0,4.937,0.0,8.0,8.0,8.0,1.0,2238550049-105691.jpg,2449443271-272729.jpg,A1BM11Y4W27OUR
189,3.0,left,left,1.0,3.021,0.0,9.0,9.0,9.0,1.0,2898632385-217138.jpg,2460547992-349586.jpg,A1BM11Y4W27OUR
190,3.0,right,right,1.0,2.128,0.0,10.0,10.0,10.0,1.0,2862687442-360837.jpg,2274829821-263682.jpg,A1BM11Y4W27OUR
191,1.0,right,right,1.0,2.544,0.0,11.0,11.0,11.0,1.0,2868470400-212889.jpg,2238471391-240918.jpg,A1BM11Y4W27OUR
192,1.0,left,left,1.0,2.322,0.0,12.0,12.0,12.0,1.0,2868485396-288511.jpg,2868470456-287597.jpg,A1BM11Y4W27OUR
193,2.0,right,right,1.0,3.756,0.0,13.0,13.0,13.0,1.0,2874301437-363905.jpg,2238521193-26286.jpg,A1BM11Y4W27OUR
194,2.0,left,left,1.0,2.7,0.0,14.0,14.0,14.0,1.0,2238584018-38513.jpg,2898633321-291943.jpg,A1BM11Y4W27OUR
195,1.0,left,left,1.0,2.24,0.0,15.0,15.0,15.0,1.0,2901938432-367627.jpg,2579432708-56394.jpg,A1BM11Y4W27OUR
196,1.0,left,right,0.0,4.208,0.0,16.0,16.0,16.0,1.0,2331570830-189984.jpg,2446760483-49429.jpg,A1BM11Y4W27OUR
197,3.0,left,left,1.0,2.765,0.0,17.0,17.0,17.0,1.0,2964224310-219527.jpg,2238490590-169598.jpg,A1BM11Y4W27OUR
198,3.0,right,right,1.0,5.398,0.0,18.0,18.0,18.0,1.0,2864909422-362141.jpg,2901939379-143479.jpg,A1BM11Y4W27OUR
199,2.0,left,right,0.0,3.169,0.0,19.0,19.0,19.0,1.0,2512876023-52283.jpg,2898636443-69154.jpg,A1BM11Y4W27OUR
200,3.0,right,right,1.0,2.75,0.0,20.0,20.0,20.0,1.0,2238554179-106663.jpg,2460547467-349421.jpg,A1BM11Y4W27OUR
201,2.0,left,left,1.0,2.099,0.0,21.0,21.0,21.0,1.0,2238126735-154721.jpg,2575122854-130480.jpg,A1BM11Y4W27OUR
202,3.0,right,left,0.0,2.594,0.0,22.0,22.0,22.0,1.0,2446760917-347439.jpg,2964216465-219242.jpg,A1BM11Y4W27OUR
203,3.0,right,right,1.0,2.557,0.0,23.0,23.0,23.0,1.0,2901936309-143207.jpg,2898635427-367120.jpg,A1BM11Y4W27OUR
204,2.0,right,right,1.0,2.831,0.0,24.0,24.0,24.0,1.0,2238547522-328488.jpg,2575964140-205050.jpg,A1BM11Y4W27OUR
205,2.0,right,right,1.0,3.721,0.0,25.0,25.0,25.0,1.0,2868485399-139476.jpg,2883255450-215311.jpg,A1BM11Y4W27OUR
206,1.0,right,left,0.0,3.135,0.0,26.0,26.0,26.0,1.0,2868488422-363715.jpg,2901941426-292805.jpg,A1BM11Y4W27OUR
207,2.0,right,right,1.0,2.638,0.0,27.0,27.0,27.0,1.0,2430664847-345753.jpg,2592380138-56727.jpg,A1BM11Y4W27OUR
208,2.0,right,right,1.0,4.02,0.0,28.0,28.0,28.0,1.0,2860304305-210777.jpg,2238575092-334269.jpg,A1BM11Y4W27OUR
209,1.0,left,left,1.0,2.857,0.0,29.0,29.0,29.0,1.0,2868475410-213219.jpg,2238216693-10721.jpg,A1BM11Y4W27OUR
210,3.0,left,right,0.0,2.649,0.0,30.0,30.0,30.0,1.0,2994405328-74628.jpg,2883273443-68192.jpg,A1BM11Y4W27OUR
211,1.0,right,right,1.0,2.53,0.0,31.0,31.0,31.0,1.0,2592380255-205552.jpg,2238375302-311538.jpg,A1BM11Y4W27OUR
212,1.0,right,right,1.0,2.53,0.0,32.0,32.0,32.0,1.0,2238540598-30035.jpg,2862691449-137104.jpg,A1BM11Y4W27OUR
213,3.0,left,left,1.0,2.866,0.0,33.0,33.0,33.0,1.0,2981231446-294731.jpg,2417207297-342139.jpg,A1BM11Y4W27OUR
214,1.0,left,left,1.0,3.334,0.0,34.0,34.0,34.0,1.0,2452380166-273109.jpg,2452380171-273112.jpg,A1BM11Y4W27OUR
215,3.0,right,right,1.0,3.132,0.0,35.0,35.0,35.0,1.0,2901936407-367476.jpg,2901934573-69337.jpg,A1BM11Y4W27OUR
216,1.0,right,right,1.0,3.333,0.0,36.0,36.0,36.0,1.0,2868488456-288710.jpg,2964209380-218956.jpg,A1BM11Y4W27OUR
217,3.0,right,right,1.0,7.021,0.0,37.0,37.0,37.0,1.0,2874303453-66056.jpg,2864909447-362146.jpg,A1BM11Y4W27OUR
218,2.0,right,right,1.0,7.83,0.0,38.0,38.0,38.0,1.0,2449442365-198476.jpg,2898626385-216899.jpg,A1BM11Y4W27OUR
219,3.0,right,right,1.0,3.575,0.0,39.0,39.0,39.0,1.0,2812983311-281946.jpg,2883254439-140940.jpg,A1BM11Y4W27OUR
220,2.0,right,right,1.0,4.245,0.0,40.0,40.0,40.0,1.0,2901951459-144433.jpg,2238429999-90218.jpg,A1BM11Y4W27OUR
221,1.0,right,right,1.0,3.49,0.0,41.0,41.0,41.0,1.0,2592380177-354629.jpg,2446759803-49249.jpg,A1BM11Y4W27OUR
222,3.0,left,left,1.0,2.736,0.0,42.0,42.0,42.0,1.0,2898624426-291546.jpg,2864902304-137862.jpg,A1BM11Y4W27OUR
223,3.0,left,left,1.0,2.349,0.0,43.0,43.0,43.0,1.0,2449442529-124446.jpg,2864911339-138231.jpg,A1BM11Y4W27OUR
224,3.0,left,right,0.0,3.645,0.0,44.0,44.0,44.0,1.0,2238496457-319749.jpg,2460547467-349422.jpg,A1BM11Y4W27OUR
225,2.0,left,left,1.0,2.197,0.0,45.0,45.0,45.0,1.0,2964213381-294060.jpg,2238520921-248323.jpg,A1BM11Y4W27OUR
226,2.0,right,right,1.0,2.656,0.0,46.0,46.0,46.0,1.0,2238585512-336576.jpg,2898617468-68274.jpg,A1BM11Y4W27OUR
227,2.0,right,right,1.0,4.15,0.0,47.0,47.0,47.0,1.0,2446760226-272006.jpg,2579432576-279079.jpg,A1BM11Y4W27OUR
228,2.0,left,left,1.0,3.492,0.0,48.0,48.0,48.0,1.0,2898633480-217190.jpg,2986450334-147216.jpg,A1BM11Y4W27OUR
229,2.0,right,right,1.0,2.752,0.0,49.0,49.0,49.0,1.0,2981234334-145491.jpg,2964213381-294061.jpg,A1BM11Y4W27OUR
230,2.0,right,right,1.0,3.634,0.0,50.0,50.0,50.0,1.0,2981241419-145844.jpg,2238584869-113153.jpg,A1BM11Y4W27OUR
231,3.0,left,left,1.0,3.769,0.0,51.0,51.0,51.0,1.0,2238480434-93829.jpg,2238479903-19596.jpg,A1BM11Y4W27OUR
232,1.0,left,left,1.0,4.097,0.0,52.0,52.0,52.0,1.0,2238129579-80916.jpg,2460547477-349426.jpg,A1BM11Y4W27OUR
233,1.0,right,right,1.0,10.189,0.0,53.0,53.0,53.0,1.0,2238506233-23904.jpg,2238561223-33794.jpg,A1BM11Y4W27OUR
234,2.0,right,right,1.0,3.415,0.0,54.0,54.0,54.0,1.0,2901936369-143233.jpg,2883272438-68133.jpg,A1BM11Y4W27OUR
235,3.0,right,right,1.0,2.894,0.0,55.0,55.0,55.0,1.0,2238538133-29662.jpg,2986400320-221190.jpg,A1BM11Y4W27OUR
236,1.0,right,right,1.0,2.878,0.0,56.0,56.0,56.0,1.0,2986397365-221133.jpg,2864906345-212360.jpg,A1BM11Y4W27OUR
237,2.0,right,left,0.0,2.976,0.0,57.0,57.0,57.0,1.0,2446759580-197801.jpg,2986408352-371293.jpg,A1BM11Y4W27OUR
238,1.0,left,left,1.0,2.231,0.0,58.0,58.0,58.0,1.0,2446760524-123999.jpg,2446760621-272102.jpg,A1BM11Y4W27OUR
239,2.0,left,left,1.0,2.332,0.0,59.0,59.0,59.0,1.0,2883255450-215309.jpg,2868476439-138927.jpg,A1BM11Y4W27OUR
240,2.0,left,left,1.0,7.839,0.0,0.0,0.0,0.0,1.0,2901934573-69337.jpg,2238345946-235007.jpg,A1C3IJCMZ66VD2
241,2.0,right,left,0.0,2.548,0.0,1.0,1.0,1.0,1.0,2592380177-354626.jpg,2238561223-33794.jpg,A1C3IJCMZ66VD2
242,1.0,right,right,1.0,2.362,0.0,2.0,2.0,2.0,1.0,2898633421-291973.jpg,2446758985-197609.jpg,A1C3IJCMZ66VD2
243,1.0,left,left,1.0,2.219,0.0,3.0,3.0,3.0,1.0,2964218374-144968.jpg,2238411877-313125.jpg,A1C3IJCMZ66VD2
244,2.0,right,right,1.0,2.659,0.0,4.0,4.0,4.0,1.0,2238568685-183597.jpg,2981231446-294731.jpg,A1C3IJCMZ66VD2
245,2.0,right,left,0.0,4.627,0.0,5.0,5.0,5.0,1.0,2592380234-131135.jpg,2238496457-319749.jpg,A1C3IJCMZ66VD2
246,2.0,right,right,1.0,2.006,0.0,6.0,6.0,6.0,1.0,2273188118-40829.jpg,2898632385-217138.jpg,A1C3IJCMZ66VD2
247,1.0,right,right,1.0,2.849,0.0,7.0,7.0,7.0,1.0,2825712309-134957.jpg,2238521193-26286.jpg,A1C3IJCMZ66VD2
248,2.0,left,left,1.0,2.411,0.0,8.0,8.0,8.0,1.0,2898624426-291546.jpg,2549106844-127878.jpg,A1C3IJCMZ66VD2
249,3.0,right,left,0.0,1.775,0.0,9.0,9.0,9.0,1.0,2238436851-238821.jpg,2868475410-213219.jpg,A1C3IJCMZ66VD2
250,3.0,right,left,0.0,1.969,0.0,10.0,10.0,10.0,1.0,2238539138-29878.jpg,2446760524-123999.jpg,A1C3IJCMZ66VD2
251,3.0,left,left,1.0,2.897,0.0,11.0,11.0,11.0,1.0,2986400320-221190.jpg,2238538133-29662.jpg,A1C3IJCMZ66VD2
252,3.0,right,left,0.0,3.869,0.0,12.0,12.0,12.0,1.0,2446760917-347439.jpg,2964216465-219242.jpg,A1C3IJCMZ66VD2
253,3.0,left,left,1.0,2.519,0.0,13.0,13.0,13.0,1.0,2238499155-170911.jpg,2238373603-13733.jpg,A1C3IJCMZ66VD2
254,1.0,left,left,1.0,2.269,0.0,14.0,14.0,14.0,1.0,2898626385-216899.jpg,2989715328-73658.jpg,A1C3IJCMZ66VD2
255,2.0,right,right,1.0,2.939,0.0,15.0,15.0,15.0,1.0,2901951459-144433.jpg,2238429999-90218.jpg,A1C3IJCMZ66VD2
256,2.0,left,left,1.0,1.604,0.0,16.0,16.0,16.0,1.0,2901939379-143479.jpg,2449443292-348022.jpg,A1C3IJCMZ66VD2
257,1.0,right,right,1.0,1.674,0.0,17.0,17.0,17.0,1.0,2452380166-273110.jpg,2883254439-140940.jpg,A1C3IJCMZ66VD2
258,1.0,right,right,1.0,1.601,0.0,18.0,18.0,18.0,1.0,2238481610-168214.jpg,2449442529-124446.jpg,A1C3IJCMZ66VD2
259,3.0,right,left,0.0,1.771,0.0,19.0,19.0,19.0,1.0,2862687442-360837.jpg,2274829821-263682.jpg,A1C3IJCMZ66VD2
260,2.0,left,left,1.0,1.637,0.0,20.0,20.0,20.0,1.0,2898635427-367120.jpg,2237941457-301342.jpg,A1C3IJCMZ66VD2
261,1.0,right,left,0.0,2.042,0.0,21.0,21.0,21.0,1.0,2868488422-363713.jpg,2986408352-371293.jpg,A1C3IJCMZ66VD2
262,3.0,right,right,1.0,2.241,0.0,22.0,22.0,22.0,1.0,2446760692-347392.jpg,2446760940-198145.jpg,A1C3IJCMZ66VD2
263,3.0,right,right,1.0,1.937,0.0,23.0,23.0,23.0,1.0,2460547508-51571.jpg,2238375302-311538.jpg,A1C3IJCMZ66VD2
264,1.0,right,left,0.0,1.526,0.0,24.0,24.0,24.0,1.0,2864908323-64106.jpg,2512876023-52283.jpg,A1C3IJCMZ66VD2
265,2.0,right,right,1.0,1.574,0.0,25.0,25.0,25.0,1.0,2898633321-291943.jpg,2238584018-38513.jpg,A1C3IJCMZ66VD2
266,3.0,left,left,1.0,2.383,0.0,26.0,26.0,26.0,1.0,2238550049-105691.jpg,2964219468-71238.jpg,A1C3IJCMZ66VD2
267,2.0,left,left,1.0,1.695,0.0,27.0,27.0,27.0,1.0,2898617468-68274.jpg,2238585512-336576.jpg,A1C3IJCMZ66VD2
268,1.0,left,left,1.0,2.322,0.0,28.0,28.0,28.0,1.0,2964213381-294061.jpg,2238433340-164524.jpg,A1C3IJCMZ66VD2
269,2.0,left,left,1.0,2.017,0.0,29.0,29.0,29.0,1.0,2579432576-279079.jpg,2446760226-272006.jpg,A1C3IJCMZ66VD2
270,3.0,right,right,1.0,1.553,0.0,30.0,30.0,30.0,1.0,2874303453-66056.jpg,2864909447-362146.jpg,A1C3IJCMZ66VD2
271,1.0,left,left,1.0,2.5,0.0,31.0,31.0,31.0,1.0,2331570830-189984.jpg,2446760483-49429.jpg,A1C3IJCMZ66VD2
272,3.0,left,right,0.0,1.667,0.0,32.0,32.0,32.0,1.0,2238126735-154721.jpg,2901951430-218724.jpg,A1C3IJCMZ66VD2
273,1.0,left,left,1.0,1.675,0.0,33.0,33.0,33.0,1.0,2238516618-25604.jpg,2238573549-110485.jpg,A1C3IJCMZ66VD2
274,3.0,left,left,1.0,1.647,0.0,34.0,34.0,34.0,1.0,2446759803-49249.jpg,2238498786-244797.jpg,A1C3IJCMZ66VD2
275,1.0,right,right,1.0,1.331,0.0,35.0,35.0,35.0,1.0,2425492472-343825.jpg,2625337302-355866.jpg,A1C3IJCMZ66VD2
276,2.0,right,right,1.0,1.73,0.0,36.0,36.0,36.0,1.0,2238520921-248323.jpg,2964213381-294060.jpg,A1C3IJCMZ66VD2
277,1.0,right,left,0.0,1.854,0.0,37.0,37.0,37.0,1.0,2986419351-296471.jpg,2592380138-56727.jpg,A1C3IJCMZ66VD2
278,3.0,left,left,1.0,2.012,0.0,38.0,38.0,38.0,1.0,2883255450-215311.jpg,2575964014-130589.jpg,A1C3IJCMZ66VD2
279,3.0,left,left,1.0,2.786,0.0,39.0,39.0,39.0,1.0,2238471391-240918.jpg,2986399339-146857.jpg,A1C3IJCMZ66VD2
280,1.0,right,right,1.0,1.791,0.0,40.0,40.0,40.0,1.0,2986397365-221133.jpg,2864906345-212360.jpg,A1C3IJCMZ66VD2
281,2.0,left,left,1.0,1.794,0.0,41.0,41.0,41.0,1.0,2238480434-93829.jpg,2592380255-205551.jpg,A1C3IJCMZ66VD2
282,3.0,right,right,1.0,1.606,0.0,42.0,42.0,42.0,1.0,2238328478-11678.jpg,2862691449-137104.jpg,A1C3IJCMZ66VD2
283,2.0,left,left,1.0,2.086,0.0,43.0,43.0,43.0,1.0,2575964140-205050.jpg,2238547522-328488.jpg,A1C3IJCMZ66VD2
284,2.0,left,left,1.0,2.887,0.0,44.0,44.0,44.0,1.0,2238575092-334269.jpg,2860304305-210777.jpg,A1C3IJCMZ66VD2
285,2.0,right,left,0.0,2.413,0.0,45.0,45.0,45.0,1.0,2901936369-143233.jpg,2883272438-68133.jpg,A1C3IJCMZ66VD2
286,3.0,right,right,1.0,1.473,0.0,46.0,46.0,46.0,1.0,2238380901-236499.jpg,2452380166-273109.jpg,A1C3IJCMZ66VD2
287,1.0,left,right,0.0,1.839,0.0,47.0,47.0,47.0,1.0,2964224310-219527.jpg,2238380178-14011.jpg,A1C3IJCMZ66VD2
288,3.0,right,left,0.0,2.201,0.0,48.0,48.0,48.0,1.0,2237858043-1434.jpg,2898633480-217190.jpg,A1C3IJCMZ66VD2
289,1.0,right,left,0.0,1.988,0.0,49.0,49.0,49.0,1.0,2864901420-212147.jpg,2238584869-113153.jpg,A1C3IJCMZ66VD2
290,1.0,right,right,1.0,1.593,0.0,50.0,50.0,50.0,1.0,2901934573-69336.jpg,2460547467-349421.jpg,A1C3IJCMZ66VD2
291,1.0,right,left,0.0,1.648,0.0,51.0,51.0,51.0,1.0,2868488422-363715.jpg,2901941426-292805.jpg,A1C3IJCMZ66VD2
292,1.0,right,left,0.0,1.593,0.0,52.0,52.0,52.0,1.0,2460547477-349426.jpg,2238129579-80916.jpg,A1C3IJCMZ66VD2
293,2.0,right,right,1.0,2.668,0.0,53.0,53.0,53.0,1.0,2825702353-60662.jpg,2994405328-74628.jpg,A1C3IJCMZ66VD2
294,1.0,right,right,1.0,1.769,0.0,54.0,54.0,54.0,1.0,2868488456-288710.jpg,2964209380-218956.jpg,A1C3IJCMZ66VD2
295,2.0,left,left,1.0,1.941,0.0,55.0,55.0,55.0,1.0,2883254439-140941.jpg,2237965109-79314.jpg,A1C3IJCMZ66VD2
296,3.0,left,left,1.0,1.845,0.0,56.0,56.0,56.0,1.0,2901938432-367627.jpg,2424122568-45517.jpg,A1C3IJCMZ66VD2
297,2.0,right,right,1.0,1.611,0.0,57.0,57.0,57.0,1.0,2868472420-213024.jpg,2868485396-288511.jpg,A1C3IJCMZ66VD2
298,3.0,right,right,1.0,1.635,0.0,58.0,58.0,58.0,1.0,2864904453-63932.jpg,2898632385-217137.jpg,A1C3IJCMZ66VD2
299,3.0,right,right,1.0,1.404,0.0,59.0,59.0,59.0,1.0,2238562336-256366.jpg,2883255450-215309.jpg,A1C3IJCMZ66VD2
300,3.0,right,right,1.0,3.208200001,0.0,0.0,0.0,0.0,1.0,2238490590-169598.jpg,2964224310-219527.jpg,A1C4TOGS0NS8K9
301,2.0,left,left,1.0,2.6485,0.0,1.0,1.0,1.0,1.0,2981231446-294731.jpg,2238568685-183597.jpg,A1C4TOGS0NS8K9
302,3.0,left,left,1.0,2.176699999,0.0,2.0,2.0,2.0,1.0,2238496457-319749.jpg,2460547467-349422.jpg,A1C4TOGS0NS8K9
303,1.0,left,left,1.0,3.265400002,0.0,3.0,3.0,3.0,1.0,2446760524-123999.jpg,2446760621-272102.jpg,A1C4TOGS0NS8K9
304,3.0,right,left,0.0,1.8589,0.0,4.0,4.0,4.0,1.0,2446760692-347392.jpg,2446760940-198145.jpg,A1C4TOGS0NS8K9
305,2.0,left,right,0.0,1.609800001,0.0,5.0,5.0,5.0,1.0,2883255450-215309.jpg,2868476439-138927.jpg,A1C4TOGS0NS8K9
306,1.0,right,right,1.0,2.0159,0.0,6.0,6.0,6.0,1.0,2986419351-296471.jpg,2592380138-56727.jpg,A1C4TOGS0NS8K9
307,1.0,right,right,1.0,1.766300001,0.0,7.0,7.0,7.0,1.0,2446760621-272103.jpg,2238499155-170911.jpg,A1C4TOGS0NS8K9
308,3.0,right,right,1.0,2.6616,0.0,8.0,8.0,8.0,1.0,2446760306-272024.jpg,2238521193-26286.jpg,A1C4TOGS0NS8K9
309,1.0,right,right,1.0,1.920800001,0.0,9.0,9.0,9.0,1.0,2452380171-273112.jpg,2452380166-273109.jpg,A1C4TOGS0NS8K9
310,3.0,left,left,1.0,2.665799999,0.0,10.0,10.0,10.0,1.0,2964218374-144968.jpg,2238525773-27014.jpg,A1C4TOGS0NS8K9
311,3.0,right,right,1.0,2.483300001,0.0,11.0,11.0,11.0,1.0,2864909422-362141.jpg,2901939379-143479.jpg,A1C4TOGS0NS8K9
312,1.0,left,left,1.0,2.791700001,0.0,12.0,12.0,12.0,1.0,2868485396-288511.jpg,2868470456-287597.jpg,A1C4TOGS0NS8K9
313,1.0,right,right,1.0,3.495699999,0.0,13.0,13.0,13.0,1.0,2446760147-347245.jpg,2898633480-217190.jpg,A1C4TOGS0NS8K9
314,1.0,left,left,1.0,2.25,0.0,14.0,14.0,14.0,1.0,2964213381-294060.jpg,2898631359-142720.jpg,A1C4TOGS0NS8K9
315,3.0,right,right,1.0,2.843900002,0.0,15.0,15.0,15.0,1.0,2864911339-138231.jpg,2449442529-124446.jpg,A1C4TOGS0NS8K9
316,3.0,right,left,0.0,2.5566,0.0,16.0,16.0,16.0,1.0,2964222378-71332.jpg,2238429999-90218.jpg,A1C4TOGS0NS8K9
317,2.0,left,left,1.0,2.552299999,0.0,17.0,17.0,17.0,1.0,2964216465-219242.jpg,2512875796-274856.jpg,A1C4TOGS0NS8K9
318,3.0,left,right,0.0,3.781799999,0.0,18.0,18.0,18.0,1.0,2238480434-93829.jpg,2238479903-19596.jpg,A1C4TOGS0NS8K9
319,3.0,right,right,1.0,2.744800001,0.0,19.0,19.0,19.0,1.0,2856916345-210056.jpg,2986408352-371293.jpg,A1C4TOGS0NS8K9
320,1.0,left,left,1.0,1.8375,0.0,20.0,20.0,20.0,1.0,2579432576-279079.jpg,2901934574-143126.jpg,A1C4TOGS0NS8K9
321,1.0,right,right,1.0,2.7195,0.0,21.0,21.0,21.0,1.0,2579432708-56394.jpg,2901938432-367627.jpg,A1C4TOGS0NS8K9
322,2.0,left,left,1.0,2.088800001,0.0,22.0,22.0,22.0,1.0,2898632385-217137.jpg,2238480803-19739.jpg,A1C4TOGS0NS8K9
323,3.0,left,left,1.0,1.5889,0.0,23.0,23.0,23.0,1.0,2238584869-113153.jpg,2986455373-73646.jpg,A1C4TOGS0NS8K9
324,2.0,right,right,1.0,1.2985,0.0,24.0,24.0,24.0,1.0,2862686459-136888.jpg,2238516618-25604.jpg,A1C4TOGS0NS8K9
325,1.0,right,right,1.0,3.297200001,0.0,25.0,25.0,25.0,1.0,2238570526-257884.jpg,2274829821-263682.jpg,A1C4TOGS0NS8K9
326,1.0,left,left,1.0,2.324,0.0,26.0,26.0,26.0,1.0,2864906345-212360.jpg,2986397365-221133.jpg,A1C4TOGS0NS8K9
327,2.0,left,left,1.0,1.9589,0.0,27.0,27.0,27.0,1.0,2898632385-217138.jpg,2273188118-40829.jpg,A1C4TOGS0NS8K9
328,2.0,right,right,1.0,2.1391,0.0,28.0,28.0,28.0,1.0,2825702353-60662.jpg,2994405328-74628.jpg,A1C4TOGS0NS8K9
329,2.0,right,right,1.0,3.798299999,0.0,29.0,29.0,29.0,1.0,2575122854-130480.jpg,2238126735-154721.jpg,A1C4TOGS0NS8K9
330,2.0,left,left,1.0,1.944200001,0.0,30.0,30.0,30.0,1.0,2238584018-38513.jpg,2898633321-291943.jpg,A1C4TOGS0NS8K9
331,1.0,right,right,1.0,2.274799999,0.0,31.0,31.0,31.0,1.0,2868488456-288710.jpg,2964209380-218956.jpg,A1C4TOGS0NS8K9
332,1.0,right,right,1.0,2.632,0.0,32.0,32.0,32.0,1.0,2592380177-354629.jpg,2446759803-49249.jpg,A1C4TOGS0NS8K9
333,1.0,right,right,1.0,2.069,0.0,33.0,33.0,33.0,1.0,2986402377-371266.jpg,2898624426-291546.jpg,A1C4TOGS0NS8K9
334,3.0,right,right,1.0,4.417700001,0.0,34.0,34.0,34.0,1.0,2598726160-205998.jpg,2625337302-355866.jpg,A1C4TOGS0NS8K9
335,1.0,left,left,1.0,2.6241,0.0,35.0,35.0,35.0,1.0,2883254439-140941.jpg,2989724308-73928.jpg,A1C4TOGS0NS8K9
336,1.0,left,left,1.0,1.452,0.0,36.0,36.0,36.0,1.0,2575964140-205050.jpg,2238482920-168428.jpg,A1C4TOGS0NS8K9
337,1.0,right,right,1.0,2.354699999,0.0,37.0,37.0,37.0,1.0,2238433340-164524.jpg,2964213381-294061.jpg,A1C4TOGS0NS8K9
338,2.0,left,left,1.0,1.728200001,0.0,38.0,38.0,38.0,1.0,2898617468-68274.jpg,2238585512-336576.jpg,A1C4TOGS0NS8K9
339,2.0,left,left,1.0,1.8759,0.0,39.0,39.0,39.0,1.0,2238129579-80916.jpg,2898618444-142233.jpg,A1C4TOGS0NS8K9
340,3.0,left,left,1.0,4.139300001,0.0,40.0,40.0,40.0,1.0,2238550049-105691.jpg,2964219468-71238.jpg,A1C4TOGS0NS8K9
341,1.0,right,right,1.0,2.970800001,0.0,41.0,41.0,41.0,1.0,2874316384-140749.jpg,2864909447-362146.jpg,A1C4TOGS0NS8K9
342,3.0,right,right,1.0,3.164700001,0.0,42.0,42.0,42.0,1.0,2898618440-216545.jpg,2898626385-216899.jpg,A1C4TOGS0NS8K9
343,3.0,left,left,1.0,1.7881,0.0,43.0,43.0,43.0,1.0,2901941426-292805.jpg,2901945303-70125.jpg,A1C4TOGS0NS8K9
344,1.0,right,right,1.0,1.9505,0.0,44.0,44.0,44.0,1.0,2237949408-4018.jpg,2883272438-68133.jpg,A1C4TOGS0NS8K9
345,3.0,left,left,1.0,1.932200001,0.0,45.0,45.0,45.0,1.0,2512876023-52283.jpg,2238576267-334532.jpg,A1C4TOGS0NS8K9
346,2.0,right,right,1.0,1.8801,0.0,46.0,46.0,46.0,1.0,2592380049-131077.jpg,2238375302-311538.jpg,A1C4TOGS0NS8K9
347,2.0,right,right,1.0,1.956599998,0.0,47.0,47.0,47.0,1.0,2575121890-204630.jpg,2883254439-140940.jpg,A1C4TOGS0NS8K9
348,2.0,left,left,1.0,2.776700001,0.0,48.0,48.0,48.0,1.0,2238575092-334269.jpg,2860304305-210777.jpg,A1C4TOGS0NS8K9
349,3.0,left,left,1.0,2.570699999,0.0,49.0,49.0,49.0,1.0,2868475410-213219.jpg,2238436851-238821.jpg,A1C4TOGS0NS8K9
350,2.0,right,left,0.0,2.821,0.0,50.0,50.0,50.0,1.0,2238345946-235007.jpg,2901934573-69337.jpg,A1C4TOGS0NS8K9
351,2.0,right,left,0.0,1.523,0.0,51.0,51.0,51.0,1.0,2449442529-124445.jpg,2331570830-189984.jpg,A1C4TOGS0NS8K9
352,2.0,left,left,1.0,2.575699999,0.0,52.0,52.0,52.0,1.0,2898635427-367120.jpg,2237941457-301342.jpg,A1C4TOGS0NS8K9
353,2.0,right,right,1.0,1.7215,0.0,53.0,53.0,53.0,1.0,2986455341-296758.jpg,2862691449-137104.jpg,A1C4TOGS0NS8K9
354,3.0,left,left,1.0,1.391900002,0.0,54.0,54.0,54.0,1.0,2238471391-240918.jpg,2986399339-146857.jpg,A1C4TOGS0NS8K9
355,2.0,right,right,1.0,3.116599998,0.0,55.0,55.0,55.0,1.0,2238470979-92615.jpg,2986400320-221190.jpg,A1C4TOGS0NS8K9
356,1.0,right,right,1.0,1.4615,0.0,56.0,56.0,56.0,1.0,2901934573-69336.jpg,2460547467-349421.jpg,A1C4TOGS0NS8K9
357,2.0,right,left,0.0,1.8065,0.0,57.0,57.0,57.0,1.0,2868485399-139476.jpg,2883255450-215311.jpg,A1C4TOGS0NS8K9
358,3.0,left,left,1.0,2.691300001,0.0,58.0,58.0,58.0,1.0,2446758985-197609.jpg,2984618344-146295.jpg,A1C4TOGS0NS8K9
359,3.0,right,right,1.0,2.9659,0.0,59.0,59.0,59.0,1.0,2883271323-68049.jpg,2238561223-33794.jpg,A1C4TOGS0NS8K9
360,3.0,left,left,1.0,3.8125,0.0,0.0,0.0,0.0,1.0,2238584869-113153.jpg,2986455373-73646.jpg,A1FJGB5JLZ81XB
361,1.0,left,left,1.0,3.5768,0.0,1.0,1.0,1.0,1.0,2901934573-69337.jpg,2986401333-73218.jpg,A1FJGB5JLZ81XB
362,2.0,right,right,1.0,1.7921,0.0,2.0,2.0,2.0,1.0,2237941457-301342.jpg,2898635427-367120.jpg,A1FJGB5JLZ81XB
363,2.0,right,right,1.0,2.2187,0.0,3.0,3.0,3.0,1.0,2238478760-167789.jpg,2625337302-355866.jpg,A1FJGB5JLZ81XB
364,3.0,right,right,1.0,2.9836,0.0,4.0,4.0,4.0,1.0,2238373603-13733.jpg,2238499155-170911.jpg,A1FJGB5JLZ81XB
365,1.0,right,right,1.0,2.7317,0.0,5.0,5.0,5.0,1.0,2460547477-349426.jpg,2238129579-80916.jpg,A1FJGB5JLZ81XB
366,2.0,left,left,1.0,2.1078,0.0,6.0,6.0,6.0,1.0,2994405328-74628.jpg,2825702353-60662.jpg,A1FJGB5JLZ81XB
367,2.0,right,right,1.0,2.2718,0.0,7.0,7.0,7.0,1.0,2446759580-197801.jpg,2986408352-371293.jpg,A1FJGB5JLZ81XB
368,3.0,right,right,1.0,3.0933,0.0,8.0,8.0,8.0,1.0,2984618344-146295.jpg,2446758985-197609.jpg,A1FJGB5JLZ81XB
369,3.0,left,left,1.0,1.9549,0.0,9.0,9.0,9.0,1.0,2964209380-218956.jpg,2898617396-291219.jpg,A1FJGB5JLZ81XB
370,1.0,left,left,1.0,2.6102,0.0,10.0,10.0,10.0,1.0,2864909447-362146.jpg,2874316384-140749.jpg,A1FJGB5JLZ81XB
371,1.0,right,right,1.0,2.3197,0.0,11.0,11.0,11.0,1.0,2989724308-73928.jpg,2883254439-140941.jpg,A1FJGB5JLZ81XB
372,2.0,left,left,1.0,3.6784,0.0,12.0,12.0,12.0,1.0,2446760524-123999.jpg,2238552469-106359.jpg,A1FJGB5JLZ81XB
373,1.0,right,right,1.0,1.8564,0.0,13.0,13.0,13.0,1.0,2856919327-359676.jpg,2238126735-154721.jpg,A1FJGB5JLZ81XB
374,3.0,left,left,1.0,1.5161,0.0,14.0,14.0,14.0,1.0,2964218374-144968.jpg,2238525773-27014.jpg,A1FJGB5JLZ81XB
375,3.0,left,left,1.0,2.0507,0.0,15.0,15.0,15.0,1.0,2238375302-311538.jpg,2460547508-51571.jpg,A1FJGB5JLZ81XB
376,1.0,right,right,1.0,1.9479,0.0,16.0,16.0,16.0,1.0,2864908323-64106.jpg,2512876023-52283.jpg,A1FJGB5JLZ81XB
377,1.0,left,left,1.0,2.8838,0.0,17.0,17.0,17.0,1.0,2964216465-219242.jpg,2592380049-131079.jpg,A1FJGB5JLZ81XB
378,3.0,right,right,1.0,1.6895,0.0,18.0,18.0,18.0,1.0,2238380314-88261.jpg,2868485396-288511.jpg,A1FJGB5JLZ81XB
379,3.0,right,right,1.0,4.4416,0.0,19.0,19.0,19.0,1.0,2898618440-216545.jpg,2898626385-216899.jpg,A1FJGB5JLZ81XB
380,3.0,right,right,1.0,2.4307,0.0,20.0,20.0,20.0,1.0,2237858043-1434.jpg,2898633480-217190.jpg,A1FJGB5JLZ81XB
381,2.0,right,left,0.0,2.2217,0.0,21.0,21.0,21.0,1.0,2868485399-139476.jpg,2883255450-215311.jpg,A1FJGB5JLZ81XB
382,2.0,right,right,1.0,2.752,0.0,22.0,22.0,22.0,1.0,2901936369-143233.jpg,2883272438-68133.jpg,A1FJGB5JLZ81XB
383,1.0,right,right,1.0,2.0952,0.0,23.0,23.0,23.0,1.0,2986397365-221133.jpg,2864906345-212360.jpg,A1FJGB5JLZ81XB
384,2.0,right,right,1.0,1.5069,0.0,24.0,24.0,24.0,1.0,2446760226-272006.jpg,2579432576-279079.jpg,A1FJGB5JLZ81XB
385,2.0,left,left,1.0,2.3093,0.0,25.0,25.0,25.0,1.0,2883254439-140940.jpg,2575121890-204630.jpg,A1FJGB5JLZ81XB
386,1.0,right,right,1.0,1.6224,0.0,26.0,26.0,26.0,1.0,2868470400-212889.jpg,2238471391-240918.jpg,A1FJGB5JLZ81XB
387,2.0,left,left,1.0,2.108,0.0,27.0,27.0,27.0,1.0,2460547467-349421.jpg,2238470079-92499.jpg,A1FJGB5JLZ81XB
388,1.0,left,left,1.0,1.8386,0.0,28.0,28.0,28.0,1.0,2592380138-56727.jpg,2986419351-296471.jpg,A1FJGB5JLZ81XB
389,3.0,left,left,1.0,1.2419,0.0,29.0,29.0,29.0,1.0,2238584018-38513.jpg,2452381442-348755.jpg,A1FJGB5JLZ81XB
390,3.0,right,right,1.0,1.8892,0.0,30.0,30.0,30.0,1.0,2864904453-63932.jpg,2898632385-217137.jpg,A1FJGB5JLZ81XB
391,1.0,right,right,1.0,2.0262,0.0,31.0,31.0,31.0,1.0,2575120738-55529.jpg,2898632385-217138.jpg,A1FJGB5JLZ81XB
392,2.0,left,left,1.0,1.2407,0.0,32.0,32.0,32.0,1.0,2964213381-294061.jpg,2981234334-145491.jpg,A1FJGB5JLZ81XB
393,1.0,right,right,1.0,3.5113,0.0,33.0,33.0,33.0,1.0,2898631359-142720.jpg,2964213381-294060.jpg,A1FJGB5JLZ81XB
394,1.0,left,left,1.0,3.1615,0.0,34.0,34.0,34.0,1.0,2981231446-294731.jpg,2986450330-221526.jpg,A1FJGB5JLZ81XB
395,2.0,right,right,1.0,3.3919,0.0,35.0,35.0,35.0,1.0,2592380177-354626.jpg,2238561223-33794.jpg,A1FJGB5JLZ81XB
396,1.0,left,right,0.0,2.0986,0.0,36.0,36.0,36.0,1.0,2238521193-26286.jpg,2825712309-134957.jpg,A1FJGB5JLZ81XB
397,3.0,left,left,1.0,1.8393,0.0,37.0,37.0,37.0,1.0,2331570830-189984.jpg,2458348012-349114.jpg,A1FJGB5JLZ81XB
398,2.0,right,right,1.0,3.175,0.0,38.0,38.0,38.0,1.0,2592380234-131135.jpg,2238496457-319749.jpg,A1FJGB5JLZ81XB
399,3.0,right,right,1.0,3.3071,0.0,39.0,39.0,39.0,1.0,2964218374-144967.jpg,2238575092-334269.jpg,A1FJGB5JLZ81XB
400,3.0,left,left,1.0,3.6966,0.0,40.0,40.0,40.0,1.0,2274829821-263682.jpg,2862687442-360837.jpg,A1FJGB5JLZ81XB
401,1.0,right,right,1.0,1.5146,0.0,41.0,41.0,41.0,1.0,2452380171-273112.jpg,2452380166-273109.jpg,A1FJGB5JLZ81XB
402,2.0,right,left,0.0,2.199,0.0,42.0,42.0,42.0,1.0,2238510189-98616.jpg,2901941426-292805.jpg,A1FJGB5JLZ81XB
403,3.0,right,right,1.0,2.2045,0.0,43.0,43.0,43.0,1.0,2964219468-71238.jpg,2238550049-105691.jpg,A1FJGB5JLZ81XB
404,1.0,right,right,1.0,2.1619,0.0,44.0,44.0,44.0,1.0,2986450334-147215.jpg,2901939379-143479.jpg,A1FJGB5JLZ81XB
405,1.0,left,left,1.0,2.8994,0.0,45.0,45.0,45.0,1.0,2901938432-367627.jpg,2579432708-56394.jpg,A1FJGB5JLZ81XB
406,2.0,left,right,0.0,2.5959,0.0,46.0,46.0,46.0,1.0,2964224310-219527.jpg,2964213441-294073.jpg,A1FJGB5JLZ81XB
407,1.0,right,right,1.0,2.0483,0.0,47.0,47.0,47.0,1.0,2592380177-354629.jpg,2446759803-49249.jpg,A1FJGB5JLZ81XB
408,3.0,right,right,1.0,2.2537,0.0,48.0,48.0,48.0,1.0,2446760692-347392.jpg,2446760940-198145.jpg,A1FJGB5JLZ81XB
409,3.0,right,right,1.0,2.4282,0.0,49.0,49.0,49.0,1.0,2446760226-272005.jpg,2575964140-205050.jpg,A1FJGB5JLZ81XB
410,3.0,right,right,1.0,2.0973,0.0,50.0,50.0,50.0,1.0,2238328478-11678.jpg,2862691449-137104.jpg,A1FJGB5JLZ81XB
411,2.0,left,left,1.0,2.4314,0.0,51.0,51.0,51.0,1.0,2868475410-213219.jpg,2575964140-205051.jpg,A1FJGB5JLZ81XB
412,2.0,right,right,1.0,2.1927,0.0,52.0,52.0,52.0,1.0,2868476439-138927.jpg,2883255450-215309.jpg,A1FJGB5JLZ81XB
413,2.0,left,left,1.0,1.5652,0.0,53.0,53.0,53.0,1.0,2898624426-291546.jpg,2549106844-127878.jpg,A1FJGB5JLZ81XB
414,1.0,left,left,1.0,1.7789,0.0,54.0,54.0,54.0,1.0,2898617468-68274.jpg,2512875899-126682.jpg,A1FJGB5JLZ81XB
415,1.0,right,right,1.0,3.0769,0.0,55.0,55.0,55.0,1.0,2238573549-110485.jpg,2238516618-25604.jpg,A1FJGB5JLZ81XB
416,3.0,left,left,1.0,2.9136,0.0,56.0,56.0,56.0,1.0,2986400320-221190.jpg,2238538133-29662.jpg,A1FJGB5JLZ81XB
417,2.0,right,right,1.0,1.677,0.0,57.0,57.0,57.0,1.0,2868469458-64561.jpg,2449442529-124446.jpg,A1FJGB5JLZ81XB
418,2.0,left,left,1.0,1.8385,0.0,58.0,58.0,58.0,1.0,2238480434-93829.jpg,2592380255-205551.jpg,A1FJGB5JLZ81XB
419,3.0,right,left,0.0,2.4265,0.0,59.0,59.0,59.0,1.0,2964222378-71332.jpg,2238429999-90218.jpg,A1FJGB5JLZ81XB
420,3.0,right,left,0.0,2.008,0.0,0.0,0.0,0.0,1.0,2989721347-371917.jpg,2964213381-294061.jpg,A1O7XFRTZ46PN5
421,1.0,right,left,0.0,3.426,0.0,1.0,1.0,1.0,1.0,2989724308-73928.jpg,2883254439-140941.jpg,A1O7XFRTZ46PN5
422,3.0,left,right,0.0,1.442,0.0,2.0,2.0,2.0,1.0,2238584869-113153.jpg,2986455373-73646.jpg,A1O7XFRTZ46PN5
423,3.0,left,left,1.0,1.104,0.0,3.0,3.0,3.0,1.0,2238471391-240918.jpg,2986399339-146857.jpg,A1O7XFRTZ46PN5
424,2.0,right,left,0.0,1.659,0.0,4.0,4.0,4.0,1.0,2592380177-354626.jpg,2238561223-33794.jpg,A1O7XFRTZ46PN5
425,1.0,right,right,1.0,1.186,0.0,5.0,5.0,5.0,1.0,2238481610-168214.jpg,2449442529-124446.jpg,A1O7XFRTZ46PN5
426,3.0,right,right,1.0,1.297,0.0,6.0,6.0,6.0,1.0,2238328478-11678.jpg,2862691449-137104.jpg,A1O7XFRTZ46PN5
427,2.0,left,left,1.0,1.093,0.0,7.0,7.0,7.0,1.0,2238375302-311538.jpg,2592380049-131077.jpg,A1O7XFRTZ46PN5
428,2.0,left,right,0.0,1.169,0.0,8.0,8.0,8.0,1.0,2986400320-221190.jpg,2238470979-92615.jpg,A1O7XFRTZ46PN5
429,3.0,left,left,1.0,1.185,0.0,9.0,9.0,9.0,1.0,2579432576-279079.jpg,2458348144-125787.jpg,A1O7XFRTZ46PN5
430,1.0,left,right,0.0,1.503,0.0,10.0,10.0,10.0,1.0,2898632385-217138.jpg,2575120738-55529.jpg,A1O7XFRTZ46PN5
431,1.0,right,right,1.0,1.191,0.0,11.0,11.0,11.0,1.0,2868488422-363713.jpg,2986408352-371293.jpg,A1O7XFRTZ46PN5
432,2.0,left,left,1.0,1.179,0.0,12.0,12.0,12.0,1.0,2964216465-219242.jpg,2512875796-274856.jpg,A1O7XFRTZ46PN5
433,2.0,right,right,1.0,1.003,0.0,13.0,13.0,13.0,1.0,2238480803-19739.jpg,2898632385-217137.jpg,A1O7XFRTZ46PN5
434,2.0,left,right,0.0,1.11,0.0,14.0,14.0,14.0,1.0,2625337302-355866.jpg,2238478760-167789.jpg,A1O7XFRTZ46PN5
435,2.0,left,left,1.0,0.826,0.0,15.0,15.0,15.0,1.0,2883255450-215311.jpg,2868485399-139476.jpg,A1O7XFRTZ46PN5
436,1.0,left,right,0.0,1.062,0.0,16.0,16.0,16.0,1.0,2868485396-288511.jpg,2868470456-287597.jpg,A1O7XFRTZ46PN5
437,3.0,left,left,1.0,0.676,0.0,17.0,17.0,17.0,1.0,2864909447-362146.jpg,2874303453-66056.jpg,A1O7XFRTZ46PN5
438,1.0,left,right,0.0,1.513,0.0,18.0,18.0,18.0,1.0,2575964140-205050.jpg,2238482920-168428.jpg,A1O7XFRTZ46PN5
439,2.0,right,right,1.0,0.783,0.0,19.0,19.0,19.0,1.0,2449443292-348022.jpg,2901939379-143479.jpg,A1O7XFRTZ46PN5
440,2.0,left,right,0.0,1.085,0.0,20.0,20.0,20.0,1.0,2964224310-219527.jpg,2964213441-294073.jpg,A1O7XFRTZ46PN5
441,2.0,right,left,0.0,1.568,0.0,21.0,21.0,21.0,1.0,2446758985-197610.jpg,2274829821-263682.jpg,A1O7XFRTZ46PN5
442,3.0,right,right,1.0,1.241,0.0,22.0,22.0,22.0,1.0,2994403305-222559.jpg,2864906345-212360.jpg,A1O7XFRTZ46PN5
443,1.0,right,right,1.0,1.012,0.0,23.0,23.0,23.0,1.0,2898633421-291973.jpg,2446758985-197609.jpg,A1O7XFRTZ46PN5
444,3.0,right,right,1.0,1.547,0.0,24.0,24.0,24.0,1.0,2883273443-68192.jpg,2994405328-74628.jpg,A1O7XFRTZ46PN5
445,3.0,right,left,0.0,1.87,0.0,25.0,25.0,25.0,1.0,2238161924-82646.jpg,2238129579-80916.jpg,A1O7XFRTZ46PN5
446,2.0,right,left,0.0,1.135,0.0,26.0,26.0,26.0,1.0,2430664847-345753.jpg,2592380138-56727.jpg,A1O7XFRTZ46PN5
447,2.0,right,right,1.0,1.898,0.0,27.0,27.0,27.0,1.0,2449442365-198476.jpg,2898626385-216899.jpg,A1O7XFRTZ46PN5
448,1.0,right,right,1.0,1.467,0.0,28.0,28.0,28.0,1.0,2446760147-347245.jpg,2898633480-217190.jpg,A1O7XFRTZ46PN5
449,2.0,left,left,1.0,1.144,0.0,29.0,29.0,29.0,1.0,2964218374-144968.jpg,2238521157-323782.jpg,A1O7XFRTZ46PN5
450,3.0,right,right,1.0,1.385,0.0,30.0,30.0,30.0,1.0,2238554179-106663.jpg,2460547467-349421.jpg,A1O7XFRTZ46PN5
451,1.0,right,right,1.0,0.985,0.0,31.0,31.0,31.0,1.0,2238429999-90216.jpg,2883255450-215309.jpg,A1O7XFRTZ46PN5
452,1.0,left,left,1.0,1.4,0.0,32.0,32.0,32.0,1.0,2898624426-291546.jpg,2986402377-371266.jpg,A1O7XFRTZ46PN5
453,3.0,left,left,1.0,2.168,0.0,33.0,33.0,33.0,1.0,2901941426-292805.jpg,2901945303-70125.jpg,A1O7XFRTZ46PN5
454,1.0,left,right,0.0,1.939,0.0,34.0,34.0,34.0,1.0,2964213381-294060.jpg,2898631359-142720.jpg,A1O7XFRTZ46PN5
455,2.0,left,left,1.0,1.409,0.0,35.0,35.0,35.0,1.0,2898635427-367120.jpg,2237941457-301342.jpg,A1O7XFRTZ46PN5
456,1.0,right,left,0.0,1.412,0.0,36.0,36.0,36.0,1.0,2238482972-317759.jpg,2238550049-105691.jpg,A1O7XFRTZ46PN5
457,3.0,right,right,1.0,1.225,0.0,37.0,37.0,37.0,1.0,2238498786-244797.jpg,2446759803-49249.jpg,A1O7XFRTZ46PN5
458,1.0,left,right,0.0,1.312,0.0,38.0,38.0,38.0,1.0,2452380166-273109.jpg,2452380171-273112.jpg,A1O7XFRTZ46PN5
459,3.0,right,left,0.0,2.095,0.0,39.0,39.0,39.0,1.0,2238470979-92618.jpg,2238516618-25604.jpg,A1O7XFRTZ46PN5
460,2.0,left,left,1.0,1.958,0.0,40.0,40.0,40.0,1.0,2898617468-68274.jpg,2238585512-336576.jpg,A1O7XFRTZ46PN5
461,2.0,left,left,1.0,1.66,0.0,41.0,41.0,41.0,1.0,2238496457-319749.jpg,2592380234-131135.jpg,A1O7XFRTZ46PN5
462,2.0,left,left,1.0,1.894,0.0,42.0,42.0,42.0,1.0,2238499155-170911.jpg,2452380832-348593.jpg,A1O7XFRTZ46PN5
463,1.0,right,left,0.0,2.868,0.0,43.0,43.0,43.0,1.0,2449443300-198739.jpg,2446760940-198145.jpg,A1O7XFRTZ46PN5
464,3.0,left,left,1.0,1.452,0.0,44.0,44.0,44.0,1.0,2238429999-90218.jpg,2964222378-71332.jpg,A1O7XFRTZ46PN5
465,1.0,right,right,1.0,1.29,0.0,45.0,45.0,45.0,1.0,2238216693-10721.jpg,2868475410-213219.jpg,A1O7XFRTZ46PN5
466,1.0,left,left,1.0,1.453,0.0,46.0,46.0,46.0,1.0,2964209380-218956.jpg,2868488456-288710.jpg,A1O7XFRTZ46PN5
467,2.0,right,right,1.0,1.483,0.0,47.0,47.0,47.0,1.0,2238345946-235007.jpg,2901934573-69337.jpg,A1O7XFRTZ46PN5
468,3.0,right,right,1.0,1.437,0.0,48.0,48.0,48.0,1.0,2424122568-45517.jpg,2901938432-367627.jpg,A1O7XFRTZ46PN5
469,3.0,right,left,0.0,1.492,0.0,49.0,49.0,49.0,1.0,2458348012-349114.jpg,2331570830-189984.jpg,A1O7XFRTZ46PN5
470,3.0,left,left,1.0,1.434,0.0,50.0,50.0,50.0,1.0,2883272438-68133.jpg,2592380136-279476.jpg,A1O7XFRTZ46PN5
471,1.0,left,left,1.0,1.057,0.0,51.0,51.0,51.0,1.0,2981231446-294731.jpg,2986450330-221526.jpg,A1O7XFRTZ46PN5
472,2.0,right,right,1.0,1.601,0.0,52.0,52.0,52.0,1.0,2238552469-106359.jpg,2446760524-123999.jpg,A1O7XFRTZ46PN5
473,3.0,left,right,0.0,1.406,0.0,53.0,53.0,53.0,1.0,2238126735-154721.jpg,2901951430-218724.jpg,A1O7XFRTZ46PN5
474,3.0,left,left,1.0,1.325,0.0,54.0,54.0,54.0,1.0,2238584018-38513.jpg,2452381442-348755.jpg,A1O7XFRTZ46PN5
475,1.0,right,left,0.0,1.341,0.0,55.0,55.0,55.0,1.0,2864908323-64106.jpg,2512876023-52283.jpg,A1O7XFRTZ46PN5
476,2.0,right,left,0.0,1.097,0.0,56.0,56.0,56.0,1.0,2874301437-363905.jpg,2238521193-26286.jpg,A1O7XFRTZ46PN5
477,1.0,left,left,1.0,1.23,0.0,57.0,57.0,57.0,1.0,2238480434-93829.jpg,2804906319-133082.jpg,A1O7XFRTZ46PN5
478,3.0,right,left,0.0,1.292,0.0,58.0,58.0,58.0,1.0,2964218374-144967.jpg,2238575092-334269.jpg,A1O7XFRTZ46PN5
479,1.0,left,left,1.0,1.089,0.0,59.0,59.0,59.0,1.0,2883254439-140940.jpg,2452380166-273110.jpg,A1O7XFRTZ46PN5
480,2.0,left,left,1.0,9.345,0.0,0.0,0.0,0.0,1.0,2898632385-217138.jpg,2273188118-40829.jpg,A1OK06ZUFSY1C
481,1.0,right,left,0.0,4.782,0.0,1.0,1.0,1.0,1.0,2864901420-212147.jpg,2238584869-113153.jpg,A1OK06ZUFSY1C
482,1.0,left,left,1.0,1.338,0.0,2.0,2.0,2.0,1.0,2898626385-216899.jpg,2989715328-73658.jpg,A1OK06ZUFSY1C
483,2.0,left,left,1.0,2.05,0.0,3.0,3.0,3.0,1.0,2452380166-273109.jpg,2592379781-279345.jpg,A1OK06ZUFSY1C
484,2.0,right,left,0.0,1.242,0.0,4.0,4.0,4.0,1.0,2898636443-69154.jpg,2512876023-52283.jpg,A1OK06ZUFSY1C
485,2.0,left,left,1.0,1.395,0.0,5.0,5.0,5.0,1.0,2964218374-144968.jpg,2238521157-323782.jpg,A1OK06ZUFSY1C
486,2.0,right,right,1.0,1.17,0.0,6.0,6.0,6.0,1.0,2238345946-235007.jpg,2901934573-69337.jpg,A1OK06ZUFSY1C
487,3.0,left,left,1.0,3.475,0.0,7.0,7.0,7.0,1.0,2274829821-263682.jpg,2862687442-360837.jpg,A1OK06ZUFSY1C
488,3.0,right,left,0.0,3.594,0.0,8.0,8.0,8.0,1.0,2446760306-272024.jpg,2238521193-26286.jpg,A1OK06ZUFSY1C
489,2.0,right,right,1.0,1.358,0.0,9.0,9.0,9.0,1.0,2986450334-147216.jpg,2898633480-217190.jpg,A1OK06ZUFSY1C
490,1.0,left,left,1.0,1.53,0.0,10.0,10.0,10.0,1.0,2898632385-217137.jpg,2238360884-87525.jpg,A1OK06ZUFSY1C
491,3.0,left,right,0.0,1.264,0.0,11.0,11.0,11.0,1.0,2238516618-25604.jpg,2238470979-92618.jpg,A1OK06ZUFSY1C
492,2.0,left,left,1.0,1.132,0.0,12.0,12.0,12.0,1.0,2901938432-367627.jpg,2856919327-359675.jpg,A1OK06ZUFSY1C
493,1.0,right,left,0.0,1.96,0.0,13.0,13.0,13.0,1.0,2446760621-272102.jpg,2446760524-123999.jpg,A1OK06ZUFSY1C
494,3.0,right,left,0.0,1.578,0.0,14.0,14.0,14.0,1.0,2458348144-125787.jpg,2579432576-279079.jpg,A1OK06ZUFSY1C
495,1.0,right,right,1.0,1.302,0.0,15.0,15.0,15.0,1.0,2238216693-10721.jpg,2868475410-213219.jpg,A1OK06ZUFSY1C
496,2.0,right,left,0.0,3.531,0.0,16.0,16.0,16.0,1.0,2449442529-124445.jpg,2331570830-189984.jpg,A1OK06ZUFSY1C
497,2.0,left,left,1.0,1.631,0.0,17.0,17.0,17.0,1.0,2981231446-294731.jpg,2238568685-183597.jpg,A1OK06ZUFSY1C
498,1.0,left,left,1.0,1.531,0.0,18.0,18.0,18.0,1.0,2238575092-334269.jpg,2592380285-205564.jpg,A1OK06ZUFSY1C
499,3.0,left,right,0.0,1.81,0.0,19.0,19.0,19.0,1.0,2964209380-218956.jpg,2898617396-291219.jpg,A1OK06ZUFSY1C
500,3.0,left,left,1.0,1.628,0.0,20.0,20.0,20.0,1.0,2238126735-154721.jpg,2901951430-218724.jpg,A1OK06ZUFSY1C
501,2.0,left,right,0.0,1.035,0.0,21.0,21.0,21.0,1.0,2238471391-240918.jpg,2901943388-69995.jpg,A1OK06ZUFSY1C
502,3.0,left,left,1.0,2.646,0.0,22.0,22.0,22.0,1.0,2238429999-90218.jpg,2964222378-71332.jpg,A1OK06ZUFSY1C
503,3.0,left,right,0.0,2.081,0.0,23.0,23.0,23.0,1.0,2883254439-140940.jpg,2812983311-281946.jpg,A1OK06ZUFSY1C
504,2.0,right,right,1.0,1.347,0.0,24.0,24.0,24.0,1.0,2986455341-296758.jpg,2862691449-137104.jpg,A1OK06ZUFSY1C
505,1.0,right,left,0.0,1.158,0.0,25.0,25.0,25.0,1.0,2446760621-272103.jpg,2238499155-170911.jpg,A1OK06ZUFSY1C
506,1.0,right,left,0.0,1.604,0.0,26.0,26.0,26.0,1.0,2238436632-314069.jpg,2898635427-367120.jpg,A1OK06ZUFSY1C
507,3.0,left,right,0.0,1.57,0.0,27.0,27.0,27.0,1.0,2994405328-74628.jpg,2883273443-68192.jpg,A1OK06ZUFSY1C
508,3.0,right,right,1.0,1.14,0.0,28.0,28.0,28.0,1.0,2238554179-106663.jpg,2460547467-349421.jpg,A1OK06ZUFSY1C
509,3.0,left,left,1.0,2.885,0.0,29.0,29.0,29.0,1.0,2883272438-68133.jpg,2592380136-279476.jpg,A1OK06ZUFSY1C
510,1.0,left,right,0.0,1.508,0.0,30.0,30.0,30.0,1.0,2625337302-355866.jpg,2425492472-343825.jpg,A1OK06ZUFSY1C
511,1.0,right,left,0.0,4.501,0.0,31.0,31.0,31.0,1.0,2449443163-50093.jpg,2238584018-38513.jpg,A1OK06ZUFSY1C
512,3.0,left,right,0.0,1.234,0.0,32.0,32.0,32.0,1.0,2575964140-205050.jpg,2446760226-272005.jpg,A1OK06ZUFSY1C
513,1.0,left,right,0.0,1.519,0.0,33.0,33.0,33.0,1.0,2964224310-219527.jpg,2238380178-14011.jpg,A1OK06ZUFSY1C
514,3.0,left,left,1.0,2.288,0.0,34.0,34.0,34.0,1.0,2883254439-140941.jpg,2417207511-266975.jpg,A1OK06ZUFSY1C
515,1.0,right,right,1.0,1.434,0.0,35.0,35.0,35.0,1.0,2986450334-147215.jpg,2901939379-143479.jpg,A1OK06ZUFSY1C
516,3.0,left,right,0.0,1.809,0.0,36.0,36.0,36.0,1.0,2964213381-294060.jpg,2989724308-73930.jpg,A1OK06ZUFSY1C
517,1.0,right,right,1.0,1.238,0.0,37.0,37.0,37.0,1.0,2238433340-164524.jpg,2964213381-294061.jpg,A1OK06ZUFSY1C
518,3.0,right,right,1.0,1.852,0.0,38.0,38.0,38.0,1.0,2864911339-138231.jpg,2449442529-124446.jpg,A1OK06ZUFSY1C
519,2.0,left,left,1.0,2.401,0.0,39.0,39.0,39.0,1.0,2898617468-68274.jpg,2238585512-336576.jpg,A1OK06ZUFSY1C
520,2.0,left,right,0.0,2.832,0.0,40.0,40.0,40.0,1.0,2883255450-215311.jpg,2868485399-139476.jpg,A1OK06ZUFSY1C
521,3.0,right,right,1.0,4.601,0.0,41.0,41.0,41.0,1.0,2864902304-137862.jpg,2898624426-291546.jpg,A1OK06ZUFSY1C
522,1.0,right,right,1.0,1.714,0.0,42.0,42.0,42.0,1.0,2592380049-131079.jpg,2964216465-219242.jpg,A1OK06ZUFSY1C
523,1.0,left,left,1.0,1.463,0.0,43.0,43.0,43.0,1.0,2446760940-198145.jpg,2449443300-198739.jpg,A1OK06ZUFSY1C
524,1.0,left,left,1.0,2.092,0.0,44.0,44.0,44.0,1.0,2864909447-362146.jpg,2874316384-140749.jpg,A1OK06ZUFSY1C
525,3.0,right,right,1.0,1.671,0.0,45.0,45.0,45.0,1.0,2964219468-71238.jpg,2238550049-105691.jpg,A1OK06ZUFSY1C
526,1.0,right,right,1.0,1.628,0.0,46.0,46.0,46.0,1.0,2592380255-205552.jpg,2238375302-311538.jpg,A1OK06ZUFSY1C
527,1.0,right,left,0.0,1.535,0.0,47.0,47.0,47.0,1.0,2989727350-222011.jpg,2986400320-221190.jpg,A1OK06ZUFSY1C
528,2.0,right,left,0.0,1.276,0.0,48.0,48.0,48.0,1.0,2238087237-303447.jpg,2864906345-212360.jpg,A1OK06ZUFSY1C
529,2.0,right,left,0.0,1.199,0.0,49.0,49.0,49.0,1.0,2238468265-166556.jpg,2446759803-49249.jpg,A1OK06ZUFSY1C
530,2.0,right,left,0.0,2.393,0.0,50.0,50.0,50.0,1.0,2238510189-98616.jpg,2901941426-292805.jpg,A1OK06ZUFSY1C
531,3.0,right,right,1.0,1.283,0.0,51.0,51.0,51.0,1.0,2238537701-251772.jpg,2592380138-56727.jpg,A1OK06ZUFSY1C
532,1.0,right,right,1.0,1.435,0.0,52.0,52.0,52.0,1.0,2898633421-291973.jpg,2446758985-197609.jpg,A1OK06ZUFSY1C
533,1.0,right,right,1.0,2.047,0.0,53.0,53.0,53.0,1.0,2238570142-333223.jpg,2238496457-319749.jpg,A1OK06ZUFSY1C
534,2.0,left,left,1.0,2.728,0.0,54.0,54.0,54.0,1.0,2238561223-33794.jpg,2592380177-354626.jpg,A1OK06ZUFSY1C
535,3.0,left,right,0.0,1.615,0.0,55.0,55.0,55.0,1.0,2868485396-288511.jpg,2238380314-88261.jpg,A1OK06ZUFSY1C
536,2.0,right,left,0.0,1.701,0.0,56.0,56.0,56.0,1.0,2868476439-138927.jpg,2883255450-215309.jpg,A1OK06ZUFSY1C
537,3.0,left,right,0.0,1.252,0.0,57.0,57.0,57.0,1.0,2986408352-371293.jpg,2856916345-210056.jpg,A1OK06ZUFSY1C
538,2.0,right,right,1.0,1.572,0.0,58.0,58.0,58.0,1.0,2898618444-142233.jpg,2238129579-80916.jpg,A1OK06ZUFSY1C
539,2.0,left,left,1.0,1.2,0.0,59.0,59.0,59.0,1.0,2238480434-93829.jpg,2592380255-205551.jpg,A1OK06ZUFSY1C
540,2.0,left,left,1.0,3.0257,0.0,0.0,0.0,0.0,1.0,2898633480-217190.jpg,2986450334-147216.jpg,A1OZPLHNIU1519
541,3.0,right,right,1.0,1.2559,0.0,1.0,1.0,1.0,1.0,2989721347-371917.jpg,2964213381-294061.jpg,A1OZPLHNIU1519
542,1.0,right,right,1.0,4.5572,0.0,2.0,2.0,2.0,1.0,2238570526-257884.jpg,2274829821-263682.jpg,A1OZPLHNIU1519
543,1.0,left,left,1.0,2.4696,0.0,3.0,3.0,3.0,1.0,2883255450-215309.jpg,2238429999-90216.jpg,A1OZPLHNIU1519
544,1.0,left,left,1.0,1.6181,0.0,4.0,4.0,4.0,1.0,2883254439-140941.jpg,2989724308-73928.jpg,A1OZPLHNIU1519
545,3.0,left,right,0.0,3.2712,0.0,5.0,5.0,5.0,1.0,2238471391-240918.jpg,2986399339-146857.jpg,A1OZPLHNIU1519
546,3.0,left,left,1.0,1.2849,0.0,6.0,6.0,6.0,1.0,2981231446-294731.jpg,2417207297-342139.jpg,A1OZPLHNIU1519
547,1.0,right,right,1.0,2.2551,0.0,7.0,7.0,7.0,1.0,2989727350-222011.jpg,2986400320-221190.jpg,A1OZPLHNIU1519
548,2.0,left,left,1.0,1.5556,0.0,8.0,8.0,8.0,1.0,2238584869-113153.jpg,2981241419-145844.jpg,A1OZPLHNIU1519
549,2.0,right,right,1.0,1.4752,0.0,9.0,9.0,9.0,1.0,2898633321-291943.jpg,2238584018-38513.jpg,A1OZPLHNIU1519
550,2.0,right,right,1.0,2.1752,0.0,10.0,10.0,10.0,1.0,2592380255-205551.jpg,2238480434-93829.jpg,A1OZPLHNIU1519
551,2.0,left,left,1.0,4.2716,0.0,11.0,11.0,11.0,1.0,2331570830-189984.jpg,2449442529-124445.jpg,A1OZPLHNIU1519
552,1.0,right,right,1.0,3.0919,0.0,12.0,12.0,12.0,1.0,2868488456-288710.jpg,2964209380-218956.jpg,A1OZPLHNIU1519
553,2.0,right,right,1.0,1.8374,0.0,13.0,13.0,13.0,1.0,2237941457-301342.jpg,2898635427-367120.jpg,A1OZPLHNIU1519
554,2.0,right,right,1.0,2.4112,0.0,14.0,14.0,14.0,1.0,2238552469-106359.jpg,2446760524-123999.jpg,A1OZPLHNIU1519
555,2.0,right,left,0.0,1.9135,0.0,15.0,15.0,15.0,1.0,2592379781-279345.jpg,2452380166-273109.jpg,A1OZPLHNIU1519
556,3.0,left,right,0.0,3.2365,0.0,16.0,16.0,16.0,1.0,2238496457-319749.jpg,2460547467-349422.jpg,A1OZPLHNIU1519
557,1.0,right,left,0.0,3.5457,0.0,17.0,17.0,17.0,1.0,2460547477-349426.jpg,2238129579-80916.jpg,A1OZPLHNIU1519
558,2.0,right,right,1.0,2.1303,0.0,18.0,18.0,18.0,1.0,2238555799-106905.jpg,2864909447-362146.jpg,A1OZPLHNIU1519
559,1.0,right,left,0.0,3.4843,0.0,19.0,19.0,19.0,1.0,2986448334-147157.jpg,2238429999-90218.jpg,A1OZPLHNIU1519
560,1.0,right,left,0.0,2.2238,0.0,20.0,20.0,20.0,1.0,2986401333-73218.jpg,2901934573-69337.jpg,A1OZPLHNIU1519
561,3.0,right,right,1.0,2.375,0.0,21.0,21.0,21.0,1.0,2864909422-362141.jpg,2901939379-143479.jpg,A1OZPLHNIU1519
562,2.0,right,right,1.0,1.9676,0.0,22.0,22.0,22.0,1.0,2862686459-136888.jpg,2238516618-25604.jpg,A1OZPLHNIU1519
563,1.0,left,left,1.0,2.2137,0.0,23.0,23.0,23.0,1.0,2898632385-217138.jpg,2575120738-55529.jpg,A1OZPLHNIU1519
564,3.0,left,left,1.0,2.5481,0.0,24.0,24.0,24.0,1.0,2964216465-219242.jpg,2446760917-347439.jpg,A1OZPLHNIU1519
565,1.0,right,left,0.0,3.3256,0.0,25.0,25.0,25.0,1.0,2986402377-371266.jpg,2898624426-291546.jpg,A1OZPLHNIU1519
566,1.0,left,left,1.0,1.1908,0.0,26.0,26.0,26.0,1.0,2625337302-355866.jpg,2425492472-343825.jpg,A1OZPLHNIU1519
567,3.0,right,right,1.0,2.1174,0.0,27.0,27.0,27.0,1.0,2238498786-244797.jpg,2446759803-49249.jpg,A1OZPLHNIU1519
568,3.0,right,right,1.0,3.9531,0.0,28.0,28.0,28.0,1.0,2458348144-125787.jpg,2579432576-279079.jpg,A1OZPLHNIU1519
569,2.0,right,left,0.0,2.7933,0.0,29.0,29.0,29.0,1.0,2592380188-56743.jpg,2446760940-198145.jpg,A1OZPLHNIU1519
570,1.0,left,right,0.0,3.4726,0.0,30.0,30.0,30.0,1.0,2964218374-144968.jpg,2238411877-313125.jpg,A1OZPLHNIU1519
571,1.0,left,left,1.0,3.7172,0.0,31.0,31.0,31.0,1.0,2883272438-68133.jpg,2237949408-4018.jpg,A1OZPLHNIU1519
572,2.0,left,left,1.0,1.2377,0.0,32.0,32.0,32.0,1.0,2238499155-170911.jpg,2452380832-348593.jpg,A1OZPLHNIU1519
573,3.0,left,left,1.0,2.9238,0.0,33.0,33.0,33.0,1.0,2986408352-371293.jpg,2856916345-210056.jpg,A1OZPLHNIU1519
574,3.0,left,left,1.0,2.7812,0.0,34.0,34.0,34.0,1.0,2868485396-288511.jpg,2238380314-88261.jpg,A1OZPLHNIU1519
575,3.0,left,left,1.0,2.7651,0.0,35.0,35.0,35.0,1.0,2238375302-311538.jpg,2460547508-51571.jpg,A1OZPLHNIU1519
576,2.0,right,right,1.0,2.7814,0.0,36.0,36.0,36.0,1.0,2575964140-205051.jpg,2868475410-213219.jpg,A1OZPLHNIU1519
577,2.0,left,left,1.0,1.9016,0.0,37.0,37.0,37.0,1.0,2449442529-124446.jpg,2868469458-64561.jpg,A1OZPLHNIU1519
578,2.0,right,right,1.0,2.2172,0.0,38.0,38.0,38.0,1.0,2449443271-272729.jpg,2238550049-105691.jpg,A1OZPLHNIU1519
579,3.0,right,right,1.0,2.8066,0.0,39.0,39.0,39.0,1.0,2446760306-272024.jpg,2238521193-26286.jpg,A1OZPLHNIU1519
580,2.0,left,left,1.0,1.9731,0.0,40.0,40.0,40.0,1.0,2460547467-349421.jpg,2238470079-92499.jpg,A1OZPLHNIU1519
581,2.0,left,left,1.0,1.7241,0.0,41.0,41.0,41.0,1.0,2864906345-212360.jpg,2238087237-303447.jpg,A1OZPLHNIU1519
582,3.0,right,right,1.0,1.5275,0.0,42.0,42.0,42.0,1.0,2238328478-11678.jpg,2862691449-137104.jpg,A1OZPLHNIU1519
583,1.0,right,left,0.0,3.7204,0.0,43.0,43.0,43.0,1.0,2238481575-168208.jpg,2883255450-215311.jpg,A1OZPLHNIU1519
584,1.0,left,left,1.0,2.715,0.0,44.0,44.0,44.0,1.0,2901938432-367627.jpg,2579432708-56394.jpg,A1OZPLHNIU1519
585,3.0,right,right,1.0,2.5346,0.0,45.0,45.0,45.0,1.0,2238576267-334532.jpg,2512876023-52283.jpg,A1OZPLHNIU1519
586,3.0,right,right,1.0,2.9504,0.0,46.0,46.0,46.0,1.0,2446760226-272005.jpg,2575964140-205050.jpg,A1OZPLHNIU1519
587,3.0,left,left,1.0,1.5504,0.0,47.0,47.0,47.0,1.0,2592380138-56727.jpg,2238537701-251772.jpg,A1OZPLHNIU1519
588,3.0,left,left,1.0,2.4391,0.0,48.0,48.0,48.0,1.0,2446758985-197609.jpg,2984618344-146295.jpg,A1OZPLHNIU1519
589,2.0,right,right,1.0,1.5813,0.0,49.0,49.0,49.0,1.0,2825702353-60662.jpg,2994405328-74628.jpg,A1OZPLHNIU1519
590,2.0,right,left,0.0,3.5804,0.0,50.0,50.0,50.0,1.0,2575122854-130480.jpg,2238126735-154721.jpg,A1OZPLHNIU1519
591,1.0,right,right,1.0,2.7251,0.0,51.0,51.0,51.0,1.0,2238360884-87525.jpg,2898632385-217137.jpg,A1OZPLHNIU1519
592,2.0,right,right,1.0,1.878,0.0,52.0,52.0,52.0,1.0,2592380177-354626.jpg,2238561223-33794.jpg,A1OZPLHNIU1519
593,1.0,right,left,0.0,3.1217,0.0,53.0,53.0,53.0,1.0,2592380285-205564.jpg,2238575092-334269.jpg,A1OZPLHNIU1519
594,1.0,right,left,0.0,1.934,0.0,54.0,54.0,54.0,1.0,2868488422-363715.jpg,2901941426-292805.jpg,A1OZPLHNIU1519
595,1.0,left,left,1.0,2.2208,0.0,55.0,55.0,55.0,1.0,2964213381-294060.jpg,2898631359-142720.jpg,A1OZPLHNIU1519
596,3.0,left,right,0.0,4.2913,0.0,56.0,56.0,56.0,1.0,2898626385-216899.jpg,2898618440-216545.jpg,A1OZPLHNIU1519
597,1.0,left,left,1.0,2.614,0.0,57.0,57.0,57.0,1.0,2964224310-219527.jpg,2238380178-14011.jpg,A1OZPLHNIU1519
598,3.0,right,right,1.0,2.412,0.0,58.0,58.0,58.0,1.0,2862684406-285700.jpg,2898617468-68274.jpg,A1OZPLHNIU1519
599,3.0,left,left,1.0,2.2755,0.0,59.0,59.0,59.0,1.0,2883254439-140940.jpg,2812983311-281946.jpg,A1OZPLHNIU1519
600,2.0,left,right,0.0,59.1128,0.0,0.0,0.0,0.0,1.0,2883254439-140940.jpg,2575121890-204630.jpg,A1Q1JSFKBUIYJD
601,3.0,left,right,0.0,3.048,0.0,1.0,1.0,1.0,1.0,2446760524-123999.jpg,2238539138-29878.jpg,A1Q1JSFKBUIYJD
602,1.0,right,right,1.0,3.8495,0.0,2.0,2.0,2.0,1.0,2238482920-168428.jpg,2575964140-205050.jpg,A1Q1JSFKBUIYJD
603,3.0,left,left,1.0,2.6725,0.0,3.0,3.0,3.0,1.0,2238499155-170911.jpg,2238373603-13733.jpg,A1Q1JSFKBUIYJD
604,1.0,right,right,1.0,2.5586,0.0,4.0,4.0,4.0,1.0,2592380255-205552.jpg,2238375302-311538.jpg,A1Q1JSFKBUIYJD
605,3.0,right,right,1.0,1.5808,0.0,5.0,5.0,5.0,1.0,2901945303-70125.jpg,2901941426-292805.jpg,A1Q1JSFKBUIYJD
606,3.0,left,left,1.0,2.9457,0.0,6.0,6.0,6.0,1.0,2274829821-263682.jpg,2862687442-360837.jpg,A1Q1JSFKBUIYJD
607,3.0,right,left,0.0,1.3848,0.0,7.0,7.0,7.0,1.0,2238380901-236499.jpg,2452380166-273109.jpg,A1Q1JSFKBUIYJD
608,2.0,left,right,0.0,5.6807,0.0,8.0,8.0,8.0,1.0,2238516618-25604.jpg,2862686459-136888.jpg,A1Q1JSFKBUIYJD
609,3.0,right,left,0.0,2.2655,0.0,9.0,9.0,9.0,1.0,2883271323-68049.jpg,2238561223-33794.jpg,A1Q1JSFKBUIYJD
610,2.0,right,right,1.0,2.1108,0.0,10.0,10.0,10.0,1.0,2238521157-323782.jpg,2964218374-144968.jpg,A1Q1JSFKBUIYJD
611,2.0,right,right,1.0,0.8815,0.0,11.0,11.0,11.0,1.0,2575122854-130480.jpg,2238126735-154721.jpg,A1Q1JSFKBUIYJD
612,3.0,left,right,0.0,0.8987,0.0,12.0,12.0,12.0,1.0,2964213381-294060.jpg,2989724308-73930.jpg,A1Q1JSFKBUIYJD
613,2.0,left,left,1.0,4.0587,0.0,13.0,13.0,13.0,1.0,2238521193-26286.jpg,2874301437-363905.jpg,A1Q1JSFKBUIYJD
614,1.0,right,right,1.0,1.4555,0.0,14.0,14.0,14.0,1.0,2579432708-56394.jpg,2901938432-367627.jpg,A1Q1JSFKBUIYJD
615,3.0,left,right,0.0,4.315,0.0,15.0,15.0,15.0,1.0,2512876023-52283.jpg,2238576267-334532.jpg,A1Q1JSFKBUIYJD
616,1.0,left,left,1.0,0.712,0.0,16.0,16.0,16.0,1.0,2994405328-74628.jpg,2417206274-118542.jpg,A1Q1JSFKBUIYJD
617,1.0,right,left,0.0,1.5607,0.0,17.0,17.0,17.0,1.0,2874316384-140749.jpg,2864909447-362146.jpg,A1Q1JSFKBUIYJD
618,2.0,left,right,0.0,0.7232,0.0,18.0,18.0,18.0,1.0,2446759803-49249.jpg,2238468265-166556.jpg,A1Q1JSFKBUIYJD
619,2.0,right,right,1.0,0.6966,0.0,19.0,19.0,19.0,1.0,2592380188-56743.jpg,2446760940-198145.jpg,A1Q1JSFKBUIYJD
620,3.0,left,right,0.0,3.3965,0.0,20.0,20.0,20.0,1.0,2964224310-219527.jpg,2238490590-169598.jpg,A1Q1JSFKBUIYJD
621,2.0,left,left,1.0,0.6181,0.0,21.0,21.0,21.0,1.0,2446758985-197609.jpg,2635396318-58409.jpg,A1Q1JSFKBUIYJD
622,3.0,right,right,1.0,2.9872,0.0,22.0,22.0,22.0,1.0,2864902304-137862.jpg,2898624426-291546.jpg,A1Q1JSFKBUIYJD
623,1.0,right,right,1.0,0.6764,0.0,23.0,23.0,23.0,1.0,2986450334-147215.jpg,2901939379-143479.jpg,A1Q1JSFKBUIYJD
624,3.0,right,left,0.0,1.4119,0.0,24.0,24.0,24.0,1.0,2460547992-349586.jpg,2898632385-217138.jpg,A1Q1JSFKBUIYJD
625,3.0,right,right,1.0,1.5242,0.0,25.0,25.0,25.0,1.0,2238538133-29662.jpg,2986400320-221190.jpg,A1Q1JSFKBUIYJD
626,2.0,right,right,1.0,0.9477,0.0,26.0,26.0,26.0,1.0,2238345946-235007.jpg,2901934573-69337.jpg,A1Q1JSFKBUIYJD
627,1.0,right,left,0.0,1.0353,0.0,27.0,27.0,27.0,1.0,2868470456-287597.jpg,2868485396-288511.jpg,A1Q1JSFKBUIYJD
628,1.0,right,left,0.0,0.8275,0.0,28.0,28.0,28.0,1.0,2868470400-212889.jpg,2238471391-240918.jpg,A1Q1JSFKBUIYJD
629,1.0,left,left,1.0,4.3658,0.0,29.0,29.0,29.0,1.0,2238584018-38513.jpg,2449443163-50093.jpg,A1Q1JSFKBUIYJD
630,1.0,left,left,1.0,0.5828,0.0,30.0,30.0,30.0,1.0,2981231446-294731.jpg,2986450330-221526.jpg,A1Q1JSFKBUIYJD
631,3.0,right,left,0.0,2.173,0.0,31.0,31.0,31.0,1.0,2986455373-73646.jpg,2238584869-113153.jpg,A1Q1JSFKBUIYJD
632,1.0,left,right,0.0,1.0895,0.0,32.0,32.0,32.0,1.0,2592380138-56727.jpg,2986419351-296471.jpg,A1Q1JSFKBUIYJD
633,1.0,left,left,1.0,0.6028,0.0,33.0,33.0,33.0,1.0,2238550049-105691.jpg,2238482972-317759.jpg,A1Q1JSFKBUIYJD
634,1.0,left,left,1.0,0.7417,0.0,34.0,34.0,34.0,1.0,2883272438-68133.jpg,2237949408-4018.jpg,A1Q1JSFKBUIYJD
635,2.0,left,right,0.0,1.1652,0.0,35.0,35.0,35.0,1.0,2449442529-124446.jpg,2868469458-64561.jpg,A1Q1JSFKBUIYJD
636,2.0,right,right,1.0,0.7105,0.0,36.0,36.0,36.0,1.0,2592380255-205551.jpg,2238480434-93829.jpg,A1Q1JSFKBUIYJD
637,2.0,left,right,0.0,1.5551,0.0,37.0,37.0,37.0,1.0,2625337302-355866.jpg,2238478760-167789.jpg,A1Q1JSFKBUIYJD
638,2.0,left,left,1.0,0.766,0.0,38.0,38.0,38.0,1.0,2238496457-319749.jpg,2592380234-131135.jpg,A1Q1JSFKBUIYJD
639,1.0,right,left,0.0,1.6772,0.0,39.0,39.0,39.0,1.0,2989724308-73928.jpg,2883254439-140941.jpg,A1Q1JSFKBUIYJD
640,3.0,left,right,0.0,1.7835,0.0,40.0,40.0,40.0,1.0,2862691449-137104.jpg,2238328478-11678.jpg,A1Q1JSFKBUIYJD
641,3.0,left,right,0.0,1.3307,0.0,41.0,41.0,41.0,1.0,2964209380-218956.jpg,2898617396-291219.jpg,A1Q1JSFKBUIYJD
642,2.0,left,left,1.0,1.1421,0.0,42.0,42.0,42.0,1.0,2964216465-219242.jpg,2512875796-274856.jpg,A1Q1JSFKBUIYJD
643,2.0,right,left,0.0,0.8553,0.0,43.0,43.0,43.0,1.0,2446760226-272006.jpg,2579432576-279079.jpg,A1Q1JSFKBUIYJD
644,3.0,left,right,0.0,4.2806,0.0,44.0,44.0,44.0,1.0,2986408352-371293.jpg,2856916345-210056.jpg,A1Q1JSFKBUIYJD
645,3.0,right,left,0.0,1.2665,0.0,45.0,45.0,45.0,1.0,2862684406-285700.jpg,2898617468-68274.jpg,A1Q1JSFKBUIYJD
646,2.0,left,left,1.0,0.6719,0.0,46.0,46.0,46.0,1.0,2898633480-217190.jpg,2986450334-147216.jpg,A1Q1JSFKBUIYJD
647,2.0,left,left,1.0,0.9645,0.0,47.0,47.0,47.0,1.0,2883255450-215309.jpg,2868476439-138927.jpg,A1Q1JSFKBUIYJD
648,1.0,right,left,0.0,1.1137,0.0,48.0,48.0,48.0,1.0,2460547477-349426.jpg,2238129579-80916.jpg,A1Q1JSFKBUIYJD
649,2.0,left,right,0.0,0.93,0.0,49.0,49.0,49.0,1.0,2898632385-217137.jpg,2238480803-19739.jpg,A1Q1JSFKBUIYJD
650,1.0,right,left,0.0,2.0615,0.0,50.0,50.0,50.0,1.0,2238433340-164524.jpg,2964213381-294061.jpg,A1Q1JSFKBUIYJD
651,1.0,left,left,1.0,0.6124,0.0,51.0,51.0,51.0,1.0,2898626385-216899.jpg,2989715328-73658.jpg,A1Q1JSFKBUIYJD
652,3.0,right,left,0.0,3.4305,0.0,52.0,52.0,52.0,1.0,2238436851-238821.jpg,2868475410-213219.jpg,A1Q1JSFKBUIYJD
653,1.0,left,left,1.0,0.7299,0.0,53.0,53.0,53.0,1.0,2883255450-215311.jpg,2238481575-168208.jpg,A1Q1JSFKBUIYJD
654,1.0,left,right,0.0,1.5977,0.0,54.0,54.0,54.0,1.0,2898635427-367120.jpg,2238436632-314069.jpg,A1Q1JSFKBUIYJD
655,3.0,right,right,1.0,1.5764,0.0,55.0,55.0,55.0,1.0,2458348012-349114.jpg,2331570830-189984.jpg,A1Q1JSFKBUIYJD
656,3.0,right,right,1.0,0.8651,0.0,56.0,56.0,56.0,1.0,2238554179-106663.jpg,2460547467-349421.jpg,A1Q1JSFKBUIYJD
657,2.0,left,right,0.0,1.93,0.0,57.0,57.0,57.0,1.0,2238575092-334269.jpg,2860304305-210777.jpg,A1Q1JSFKBUIYJD
658,1.0,right,right,1.0,0.6672,0.0,58.0,58.0,58.0,1.0,2986448334-147157.jpg,2238429999-90218.jpg,A1Q1JSFKBUIYJD
659,2.0,right,left,0.0,0.5973,0.0,59.0,59.0,59.0,1.0,2238087237-303447.jpg,2864906345-212360.jpg,A1Q1JSFKBUIYJD
660,1.0,left,left,1.0,6.324,0.0,0.0,0.0,0.0,1.0,2898635427-367120.jpg,2238436632-314069.jpg,A1QSX79P1W1058
661,3.0,right,right,1.0,2.856,0.0,1.0,1.0,1.0,1.0,2986455373-73646.jpg,2238584869-113153.jpg,A1QSX79P1W1058
662,2.0,left,left,1.0,2.973,0.0,2.0,2.0,2.0,1.0,2452380166-273109.jpg,2592379781-279345.jpg,A1QSX79P1W1058
663,1.0,left,left,1.0,1.887,0.0,3.0,3.0,3.0,1.0,2964213381-294061.jpg,2238433340-164524.jpg,A1QSX79P1W1058
664,3.0,left,left,1.0,1.873,0.0,4.0,4.0,4.0,1.0,2964224310-219527.jpg,2238490590-169598.jpg,A1QSX79P1W1058
665,3.0,left,right,0.0,2.519,0.0,5.0,5.0,5.0,1.0,2238429999-90218.jpg,2964222378-71332.jpg,A1QSX79P1W1058
666,2.0,left,left,1.0,2.934,0.0,6.0,6.0,6.0,1.0,2625337302-355866.jpg,2238478760-167789.jpg,A1QSX79P1W1058
667,1.0,right,right,1.0,2.801,0.0,7.0,7.0,7.0,1.0,2986450330-221526.jpg,2981231446-294731.jpg,A1QSX79P1W1058
668,3.0,left,left,1.0,2.805,0.0,8.0,8.0,8.0,1.0,2898624426-291546.jpg,2864902304-137862.jpg,A1QSX79P1W1058
669,2.0,right,right,1.0,2.532,0.0,9.0,9.0,9.0,1.0,2273188118-40829.jpg,2898632385-217138.jpg,A1QSX79P1W1058
670,3.0,left,left,1.0,3.357,0.0,10.0,10.0,10.0,1.0,2446759803-49249.jpg,2238498786-244797.jpg,A1QSX79P1W1058
671,3.0,right,right,1.0,3.158,0.0,11.0,11.0,11.0,1.0,2856916345-210056.jpg,2986408352-371293.jpg,A1QSX79P1W1058
672,3.0,right,left,0.0,3.12,0.0,12.0,12.0,12.0,1.0,2994403305-222559.jpg,2864906345-212360.jpg,A1QSX79P1W1058
673,2.0,left,left,1.0,3.035,0.0,13.0,13.0,13.0,1.0,2994405328-74628.jpg,2825702353-60662.jpg,A1QSX79P1W1058
674,1.0,right,right,1.0,2.419,0.0,14.0,14.0,14.0,1.0,2986450334-147215.jpg,2901939379-143479.jpg,A1QSX79P1W1058
675,1.0,right,left,0.0,2.347,0.0,15.0,15.0,15.0,1.0,2446760483-49429.jpg,2331570830-189984.jpg,A1QSX79P1W1058
676,1.0,left,left,1.0,2.587,0.0,16.0,16.0,16.0,1.0,2898626385-216899.jpg,2989715328-73658.jpg,A1QSX79P1W1058
677,2.0,right,right,1.0,2.617,0.0,17.0,17.0,17.0,1.0,2575122854-130480.jpg,2238126735-154721.jpg,A1QSX79P1W1058
678,3.0,left,right,0.0,3.116,0.0,18.0,18.0,18.0,1.0,2238550049-105691.jpg,2964219468-71238.jpg,A1QSX79P1W1058
679,1.0,right,right,1.0,2.636,0.0,19.0,19.0,19.0,1.0,2238570142-333223.jpg,2238496457-319749.jpg,A1QSX79P1W1058
680,1.0,left,left,1.0,3.593,0.0,20.0,20.0,20.0,1.0,2592380138-56727.jpg,2986419351-296471.jpg,A1QSX79P1W1058
681,2.0,right,right,1.0,1.98,0.0,21.0,21.0,21.0,1.0,2898618444-142233.jpg,2238129579-80916.jpg,A1QSX79P1W1058
682,3.0,left,left,1.0,3.012,0.0,22.0,22.0,22.0,1.0,2868475410-213219.jpg,2238436851-238821.jpg,A1QSX79P1W1058
683,3.0,right,right,1.0,2.133,0.0,23.0,23.0,23.0,1.0,2452381442-348755.jpg,2238584018-38513.jpg,A1QSX79P1W1058
684,2.0,left,left,1.0,2.575,0.0,24.0,24.0,24.0,1.0,2446760940-198145.jpg,2592380188-56743.jpg,A1QSX79P1W1058
685,3.0,left,left,1.0,3.642,0.0,25.0,25.0,25.0,1.0,2986400320-221190.jpg,2238538133-29662.jpg,A1QSX79P1W1058
686,2.0,left,left,1.0,2.438,0.0,26.0,26.0,26.0,1.0,2446758985-197609.jpg,2635396318-58409.jpg,A1QSX79P1W1058
687,2.0,right,right,1.0,2.293,0.0,27.0,27.0,27.0,1.0,2446758985-197610.jpg,2274829821-263682.jpg,A1QSX79P1W1058
688,1.0,left,left,1.0,2.945,0.0,28.0,28.0,28.0,1.0,2883255450-215309.jpg,2238429999-90216.jpg,A1QSX79P1W1058
689,2.0,right,right,1.0,2.515,0.0,29.0,29.0,29.0,1.0,2238547522-328488.jpg,2575964140-205050.jpg,A1QSX79P1W1058
690,1.0,left,right,0.0,2.13,0.0,30.0,30.0,30.0,1.0,2238499155-170911.jpg,2446760621-272103.jpg,A1QSX79P1W1058
691,1.0,left,left,1.0,2.346,0.0,31.0,31.0,31.0,1.0,2901934573-69337.jpg,2986401333-73218.jpg,A1QSX79P1W1058
692,1.0,right,right,1.0,2.429,0.0,32.0,32.0,32.0,1.0,2238540598-30035.jpg,2862691449-137104.jpg,A1QSX79P1W1058
693,1.0,right,right,1.0,2.803,0.0,33.0,33.0,33.0,1.0,2804906319-133082.jpg,2238480434-93829.jpg,A1QSX79P1W1058
694,2.0,left,left,1.0,2.309,0.0,34.0,34.0,34.0,1.0,2238561223-33794.jpg,2592380177-354626.jpg,A1QSX79P1W1058
695,1.0,left,left,1.0,2.577,0.0,35.0,35.0,35.0,1.0,2964218374-144968.jpg,2238411877-313125.jpg,A1QSX79P1W1058
696,3.0,left,left,1.0,2.025,0.0,36.0,36.0,36.0,1.0,2883255450-215311.jpg,2575964014-130589.jpg,A1QSX79P1W1058
697,1.0,left,right,0.0,2.3,0.0,37.0,37.0,37.0,1.0,2883254439-140940.jpg,2452380166-273110.jpg,A1QSX79P1W1058
698,3.0,left,left,1.0,2.284,0.0,38.0,38.0,38.0,1.0,2449442529-124446.jpg,2864911339-138231.jpg,A1QSX79P1W1058
699,2.0,left,right,0.0,2.684,0.0,39.0,39.0,39.0,1.0,2883272438-68133.jpg,2901936369-143233.jpg,A1QSX79P1W1058
700,2.0,left,left,1.0,2.304,0.0,40.0,40.0,40.0,1.0,2901941426-292805.jpg,2238510189-98616.jpg,A1QSX79P1W1058
701,2.0,right,right,1.0,2.279,0.0,41.0,41.0,41.0,1.0,2986450334-147216.jpg,2898633480-217190.jpg,A1QSX79P1W1058
702,3.0,left,left,1.0,2.529,0.0,42.0,42.0,42.0,1.0,2901938432-367627.jpg,2424122568-45517.jpg,A1QSX79P1W1058
703,3.0,left,left,1.0,2.672,0.0,43.0,43.0,43.0,1.0,2964213381-294060.jpg,2989724308-73930.jpg,A1QSX79P1W1058
704,2.0,right,right,1.0,2.282,0.0,44.0,44.0,44.0,1.0,2868472420-213024.jpg,2868485396-288511.jpg,A1QSX79P1W1058
705,1.0,right,right,1.0,2.551,0.0,45.0,45.0,45.0,1.0,2901934573-69336.jpg,2460547467-349421.jpg,A1QSX79P1W1058
706,2.0,left,left,1.0,2.726,0.0,46.0,46.0,46.0,1.0,2898632385-217137.jpg,2238480803-19739.jpg,A1QSX79P1W1058
707,3.0,left,right,0.0,1.721,0.0,47.0,47.0,47.0,1.0,2238575092-334269.jpg,2964218374-144967.jpg,A1QSX79P1W1058
708,3.0,left,left,1.0,2.109,0.0,48.0,48.0,48.0,1.0,2964216465-219242.jpg,2446760917-347439.jpg,A1QSX79P1W1058
709,2.0,left,left,1.0,2.003,0.0,49.0,49.0,49.0,1.0,2883254439-140941.jpg,2237965109-79314.jpg,A1QSX79P1W1058
710,1.0,right,right,1.0,2.679,0.0,50.0,50.0,50.0,1.0,2874316384-140749.jpg,2864909447-362146.jpg,A1QSX79P1W1058
711,1.0,right,left,0.0,2.417,0.0,51.0,51.0,51.0,1.0,2825712309-134957.jpg,2238521193-26286.jpg,A1QSX79P1W1058
712,2.0,right,left,0.0,2.709,0.0,52.0,52.0,52.0,1.0,2898636443-69154.jpg,2512876023-52283.jpg,A1QSX79P1W1058
713,1.0,left,left,1.0,2.71,0.0,53.0,53.0,53.0,1.0,2898617468-68274.jpg,2512875899-126682.jpg,A1QSX79P1W1058
714,2.0,left,right,0.0,4.922,0.0,54.0,54.0,54.0,1.0,2579432576-279079.jpg,2446760226-272006.jpg,A1QSX79P1W1058
715,1.0,right,right,1.0,7.38,0.0,55.0,55.0,55.0,1.0,2868470400-212889.jpg,2238471391-240918.jpg,A1QSX79P1W1058
716,2.0,right,right,1.0,2.982,0.0,56.0,56.0,56.0,1.0,2862686459-136888.jpg,2238516618-25604.jpg,A1QSX79P1W1058
717,3.0,left,left,1.0,3.57,0.0,57.0,57.0,57.0,1.0,2964209380-218956.jpg,2898617396-291219.jpg,A1QSX79P1W1058
718,3.0,right,right,1.0,2.255,0.0,58.0,58.0,58.0,1.0,2238539138-29878.jpg,2446760524-123999.jpg,A1QSX79P1W1058
719,3.0,right,left,0.0,2.358,0.0,59.0,59.0,59.0,1.0,2460547508-51571.jpg,2238375302-311538.jpg,A1QSX79P1W1058
720,3.0,right,left,0.0,12.9068,0.0,0.0,0.0,0.0,1.0,2238373603-13733.jpg,2238499155-170911.jpg,A1TKQJUFNN40MJ
721,3.0,right,right,1.0,27.0661,0.0,1.0,1.0,1.0,1.0,2812983311-281946.jpg,2883254439-140940.jpg,A1TKQJUFNN40MJ
722,1.0,right,left,0.0,6.1002,0.0,2.0,2.0,2.0,1.0,2986448334-147157.jpg,2238429999-90218.jpg,A1TKQJUFNN40MJ
723,1.0,right,right,1.0,10.9617,0.0,3.0,3.0,3.0,1.0,2238360884-87525.jpg,2898632385-217137.jpg,A1TKQJUFNN40MJ
724,2.0,left,left,1.0,8.4364,0.0,4.0,4.0,4.0,1.0,2460547467-349421.jpg,2238470079-92499.jpg,A1TKQJUFNN40MJ
725,3.0,right,right,1.0,15.7828,0.0,5.0,5.0,5.0,1.0,2238436851-238821.jpg,2868475410-213219.jpg,A1TKQJUFNN40MJ
726,2.0,left,left,1.0,5.8119,0.0,6.0,6.0,6.0,1.0,2898617468-68274.jpg,2238585512-336576.jpg,A1TKQJUFNN40MJ
727,3.0,left,left,1.0,31.867,0.0,7.0,7.0,7.0,1.0,2883255450-215311.jpg,2575964014-130589.jpg,A1TKQJUFNN40MJ
728,2.0,right,right,1.0,5.8161,0.0,8.0,8.0,8.0,1.0,2898631429-142736.jpg,2964209380-218956.jpg,A1TKQJUFNN40MJ
729,2.0,left,left,1.0,2.6448,0.0,9.0,9.0,9.0,1.0,2449442529-124446.jpg,2868469458-64561.jpg,A1TKQJUFNN40MJ
730,1.0,right,right,1.0,4.2909,0.0,10.0,10.0,10.0,1.0,2986401333-73218.jpg,2901934573-69337.jpg,A1TKQJUFNN40MJ
731,1.0,left,left,1.0,4.4464,0.0,11.0,11.0,11.0,1.0,2964216465-219242.jpg,2592380049-131079.jpg,A1TKQJUFNN40MJ
732,3.0,left,left,1.0,2.7988,0.0,12.0,12.0,12.0,1.0,2238575092-334269.jpg,2964218374-144967.jpg,A1TKQJUFNN40MJ
733,2.0,left,left,1.0,3.8637,0.0,13.0,13.0,13.0,1.0,2238126735-154721.jpg,2575122854-130480.jpg,A1TKQJUFNN40MJ
734,1.0,right,left,0.0,2.9665,0.0,14.0,14.0,14.0,1.0,2868470400-212889.jpg,2238471391-240918.jpg,A1TKQJUFNN40MJ
735,1.0,left,left,1.0,7.5624,0.0,15.0,15.0,15.0,1.0,2994405328-74628.jpg,2417206274-118542.jpg,A1TKQJUFNN40MJ
736,2.0,right,right,1.0,6.4324,0.0,16.0,16.0,16.0,1.0,2986450334-147216.jpg,2898633480-217190.jpg,A1TKQJUFNN40MJ
737,1.0,left,left,1.0,2.8002,0.0,17.0,17.0,17.0,1.0,2446758985-197609.jpg,2898633421-291973.jpg,A1TKQJUFNN40MJ
738,3.0,left,left,1.0,3.7611,0.0,18.0,18.0,18.0,1.0,2625337302-355866.jpg,2598726160-205998.jpg,A1TKQJUFNN40MJ
739,2.0,right,right,1.0,6.6316,0.0,19.0,19.0,19.0,1.0,2238552469-106359.jpg,2446760524-123999.jpg,A1TKQJUFNN40MJ
740,1.0,left,right,0.0,3.4425,0.0,20.0,20.0,20.0,1.0,2238521193-26286.jpg,2825712309-134957.jpg,A1TKQJUFNN40MJ
741,3.0,right,right,1.0,2.6354,0.0,21.0,21.0,21.0,1.0,2901936309-143207.jpg,2898635427-367120.jpg,A1TKQJUFNN40MJ
742,3.0,left,left,1.0,3.6126,0.0,22.0,22.0,22.0,1.0,2592380138-56727.jpg,2238537701-251772.jpg,A1TKQJUFNN40MJ
743,3.0,left,left,1.0,3.452,0.0,23.0,23.0,23.0,1.0,2964218374-144968.jpg,2238525773-27014.jpg,A1TKQJUFNN40MJ
744,2.0,right,right,1.0,7.6082,0.0,24.0,24.0,24.0,1.0,2238510189-98616.jpg,2901941426-292805.jpg,A1TKQJUFNN40MJ
745,3.0,right,right,1.0,7.9522,0.0,25.0,25.0,25.0,1.0,2458348144-125787.jpg,2579432576-279079.jpg,A1TKQJUFNN40MJ
746,1.0,left,left,1.0,5.9313,0.0,26.0,26.0,26.0,1.0,2238496457-319749.jpg,2238570142-333223.jpg,A1TKQJUFNN40MJ
747,1.0,right,right,1.0,4.157,0.0,27.0,27.0,27.0,1.0,2874316384-140749.jpg,2864909447-362146.jpg,A1TKQJUFNN40MJ
748,1.0,right,right,1.0,2.6992,0.0,28.0,28.0,28.0,1.0,2986450334-147215.jpg,2901939379-143479.jpg,A1TKQJUFNN40MJ
749,2.0,left,left,1.0,2.8208,0.0,29.0,29.0,29.0,1.0,2862691449-137104.jpg,2986455341-296758.jpg,A1TKQJUFNN40MJ
750,3.0,left,left,1.0,4.1628,0.0,30.0,30.0,30.0,1.0,2512876023-52283.jpg,2238576267-334532.jpg,A1TKQJUFNN40MJ
751,3.0,left,left,1.0,3.4652,0.0,31.0,31.0,31.0,1.0,2238516618-25604.jpg,2238470979-92618.jpg,A1TKQJUFNN40MJ
752,2.0,left,left,1.0,3.2123,0.0,32.0,32.0,32.0,1.0,2898632385-217138.jpg,2273188118-40829.jpg,A1TKQJUFNN40MJ
753,2.0,right,right,1.0,3.4686,0.0,33.0,33.0,33.0,1.0,2592379781-279345.jpg,2452380166-273109.jpg,A1TKQJUFNN40MJ
754,1.0,left,left,1.0,2.9873,0.0,34.0,34.0,34.0,1.0,2238584018-38513.jpg,2449443163-50093.jpg,A1TKQJUFNN40MJ
755,2.0,right,right,1.0,6.0232,0.0,35.0,35.0,35.0,1.0,2449442365-198476.jpg,2898626385-216899.jpg,A1TKQJUFNN40MJ
756,3.0,right,right,1.0,3.0131,0.0,36.0,36.0,36.0,1.0,2238490590-169598.jpg,2964224310-219527.jpg,A1TKQJUFNN40MJ
757,3.0,right,right,1.0,5.9864,0.0,37.0,37.0,37.0,1.0,2862687442-360837.jpg,2274829821-263682.jpg,A1TKQJUFNN40MJ
758,2.0,left,right,0.0,6.0667,0.0,38.0,38.0,38.0,1.0,2446760940-198145.jpg,2592380188-56743.jpg,A1TKQJUFNN40MJ
759,1.0,left,left,1.0,2.6812,0.0,39.0,39.0,39.0,1.0,2901938432-367627.jpg,2579432708-56394.jpg,A1TKQJUFNN40MJ
760,2.0,right,left,0.0,3.2147,0.0,40.0,40.0,40.0,1.0,2592380255-205551.jpg,2238480434-93829.jpg,A1TKQJUFNN40MJ
761,1.0,right,left,0.0,3.7687,0.0,41.0,41.0,41.0,1.0,2238506233-23904.jpg,2238561223-33794.jpg,A1TKQJUFNN40MJ
762,3.0,right,right,1.0,4.3611,0.0,42.0,42.0,42.0,1.0,2592380136-279476.jpg,2883272438-68133.jpg,A1TKQJUFNN40MJ
763,3.0,right,right,1.0,3.1071,0.0,43.0,43.0,43.0,1.0,2460547508-51571.jpg,2238375302-311538.jpg,A1TKQJUFNN40MJ
764,1.0,left,left,1.0,2.8987,0.0,44.0,44.0,44.0,1.0,2883255450-215309.jpg,2238429999-90216.jpg,A1TKQJUFNN40MJ
765,2.0,left,right,0.0,3.5455,0.0,45.0,45.0,45.0,1.0,2981231446-294731.jpg,2238568685-183597.jpg,A1TKQJUFNN40MJ
766,3.0,right,right,1.0,2.9591,0.0,46.0,46.0,46.0,1.0,2417207511-266975.jpg,2883254439-140941.jpg,A1TKQJUFNN40MJ
767,1.0,left,left,1.0,4.0744,0.0,47.0,47.0,47.0,1.0,2986400320-221190.jpg,2989727350-222011.jpg,A1TKQJUFNN40MJ
768,2.0,right,right,1.0,3.6974,0.0,48.0,48.0,48.0,1.0,2238547522-328488.jpg,2575964140-205050.jpg,A1TKQJUFNN40MJ
769,2.0,left,left,1.0,3.7228,0.0,49.0,49.0,49.0,1.0,2238550049-105691.jpg,2449443271-272729.jpg,A1TKQJUFNN40MJ
770,1.0,right,right,1.0,2.3151,0.0,50.0,50.0,50.0,1.0,2592380177-354629.jpg,2446759803-49249.jpg,A1TKQJUFNN40MJ
771,1.0,right,right,1.0,2.1513,0.0,51.0,51.0,51.0,1.0,2238433340-164524.jpg,2964213381-294061.jpg,A1TKQJUFNN40MJ
772,3.0,right,right,1.0,3.9568,0.0,52.0,52.0,52.0,1.0,2856916345-210056.jpg,2986408352-371293.jpg,A1TKQJUFNN40MJ
773,3.0,right,right,1.0,2.8508,0.0,53.0,53.0,53.0,1.0,2986455373-73646.jpg,2238584869-113153.jpg,A1TKQJUFNN40MJ
774,2.0,left,left,1.0,10.7264,0.0,54.0,54.0,54.0,1.0,2238129579-80916.jpg,2898618444-142233.jpg,A1TKQJUFNN40MJ
775,1.0,left,left,1.0,5.3623,0.0,55.0,55.0,55.0,1.0,2898624426-291546.jpg,2986402377-371266.jpg,A1TKQJUFNN40MJ
776,2.0,right,right,1.0,3.3551,0.0,56.0,56.0,56.0,1.0,2238087237-303447.jpg,2864906345-212360.jpg,A1TKQJUFNN40MJ
777,1.0,right,right,1.0,3.7511,0.0,57.0,57.0,57.0,1.0,2868470456-287597.jpg,2868485396-288511.jpg,A1TKQJUFNN40MJ
778,3.0,right,left,0.0,3.2691,0.0,58.0,58.0,58.0,1.0,2458348012-349114.jpg,2331570830-189984.jpg,A1TKQJUFNN40MJ
779,2.0,right,right,1.0,2.7951,0.0,59.0,59.0,59.0,1.0,2238520921-248323.jpg,2964213381-294060.jpg,A1TKQJUFNN40MJ
780,3.0,right,right,1.0,1.7259,0.0,0.0,0.0,0.0,1.0,2898618440-216545.jpg,2898626385-216899.jpg,A1UEMMSI1XUBSW
781,3.0,right,right,1.0,0.8843,0.0,1.0,1.0,1.0,1.0,2238554179-106663.jpg,2460547467-349421.jpg,A1UEMMSI1XUBSW
782,2.0,right,right,1.0,1.3339,0.0,2.0,2.0,2.0,1.0,2512875796-274856.jpg,2964216465-219242.jpg,A1UEMMSI1XUBSW
783,3.0,right,left,0.0,1.5372,0.0,3.0,3.0,3.0,1.0,2598726160-205998.jpg,2625337302-355866.jpg,A1UEMMSI1XUBSW
784,1.0,right,right,1.0,3.3782,0.0,4.0,4.0,4.0,1.0,2238429999-90216.jpg,2883255450-215309.jpg,A1UEMMSI1XUBSW
785,3.0,left,left,1.0,1.3497,0.0,5.0,5.0,5.0,1.0,2994405328-74628.jpg,2883273443-68192.jpg,A1UEMMSI1XUBSW
786,3.0,right,right,1.0,1.1458,0.0,6.0,6.0,6.0,1.0,2460547992-349586.jpg,2898632385-217138.jpg,A1UEMMSI1XUBSW
787,1.0,left,left,1.0,1.0386,0.0,7.0,7.0,7.0,1.0,2964213381-294060.jpg,2898631359-142720.jpg,A1UEMMSI1XUBSW
788,1.0,left,left,1.0,1.4134,0.0,8.0,8.0,8.0,1.0,2446760940-198145.jpg,2449443300-198739.jpg,A1UEMMSI1XUBSW
789,1.0,left,left,1.0,1.4152,0.0,9.0,9.0,9.0,1.0,2446758985-197609.jpg,2898633421-291973.jpg,A1UEMMSI1XUBSW
790,3.0,left,left,1.0,2.1176,0.0,10.0,10.0,10.0,1.0,2579432576-279079.jpg,2458348144-125787.jpg,A1UEMMSI1XUBSW
791,3.0,right,right,1.0,2.3028,0.0,11.0,11.0,11.0,1.0,2237858043-1434.jpg,2898633480-217190.jpg,A1UEMMSI1XUBSW
792,1.0,right,right,1.0,1.143,0.0,12.0,12.0,12.0,1.0,2864908323-64106.jpg,2512876023-52283.jpg,A1UEMMSI1XUBSW
793,3.0,left,right,0.0,1.4978,0.0,13.0,13.0,13.0,1.0,2238480434-93829.jpg,2238479903-19596.jpg,A1UEMMSI1XUBSW
794,1.0,right,left,0.0,1.7872,0.0,14.0,14.0,14.0,1.0,2864901420-212147.jpg,2238584869-113153.jpg,A1UEMMSI1XUBSW
795,2.0,left,left,1.0,1.2607,0.0,15.0,15.0,15.0,1.0,2238496457-319749.jpg,2592380234-131135.jpg,A1UEMMSI1XUBSW
796,2.0,left,right,0.0,1.0896,0.0,16.0,16.0,16.0,1.0,2238550049-105691.jpg,2449443271-272729.jpg,A1UEMMSI1XUBSW
797,3.0,left,right,0.0,2.6477,0.0,17.0,17.0,17.0,1.0,2238561223-33794.jpg,2883271323-68049.jpg,A1UEMMSI1XUBSW
798,2.0,left,left,1.0,1.1422,0.0,18.0,18.0,18.0,1.0,2898632385-217137.jpg,2238480803-19739.jpg,A1UEMMSI1XUBSW
799,2.0,right,right,1.0,1.9575,0.0,19.0,19.0,19.0,1.0,2868472420-213024.jpg,2868485396-288511.jpg,A1UEMMSI1XUBSW
800,1.0,right,right,1.0,0.873,0.0,20.0,20.0,20.0,1.0,2986450334-147215.jpg,2901939379-143479.jpg,A1UEMMSI1XUBSW
801,3.0,left,right,0.0,2.1167,0.0,21.0,21.0,21.0,1.0,2238471391-240918.jpg,2986399339-146857.jpg,A1UEMMSI1XUBSW
802,1.0,left,right,0.0,1.0644,0.0,22.0,22.0,22.0,1.0,2452380166-273109.jpg,2452380171-273112.jpg,A1UEMMSI1XUBSW
803,3.0,left,right,0.0,2.4532,0.0,23.0,23.0,23.0,1.0,2964224310-219527.jpg,2238490590-169598.jpg,A1UEMMSI1XUBSW
804,2.0,right,right,1.0,1.1154,0.0,24.0,24.0,24.0,1.0,2898631429-142736.jpg,2964209380-218956.jpg,A1UEMMSI1XUBSW
805,3.0,right,right,1.0,1.1665,0.0,25.0,25.0,25.0,1.0,2901936309-143207.jpg,2898635427-367120.jpg,A1UEMMSI1XUBSW
806,2.0,left,left,1.0,1.9651,0.0,26.0,26.0,26.0,1.0,2238429999-90218.jpg,2901951459-144433.jpg,A1UEMMSI1XUBSW
807,1.0,right,right,1.0,2.1767,0.0,27.0,27.0,27.0,1.0,2237949408-4018.jpg,2883272438-68133.jpg,A1UEMMSI1XUBSW
808,2.0,left,left,1.0,1.2438,0.0,28.0,28.0,28.0,1.0,2901934573-69337.jpg,2238345946-235007.jpg,A1UEMMSI1XUBSW
809,2.0,right,left,0.0,1.1252,0.0,29.0,29.0,29.0,1.0,2874301437-363905.jpg,2238521193-26286.jpg,A1UEMMSI1XUBSW
810,1.0,right,left,0.0,1.4886,0.0,30.0,30.0,30.0,1.0,2238573549-110485.jpg,2238516618-25604.jpg,A1UEMMSI1XUBSW
811,1.0,left,right,0.0,1.122,0.0,31.0,31.0,31.0,1.0,2238584018-38513.jpg,2449443163-50093.jpg,A1UEMMSI1XUBSW
812,1.0,right,right,1.0,0.9475,0.0,32.0,32.0,32.0,1.0,2868488422-363715.jpg,2901941426-292805.jpg,A1UEMMSI1XUBSW
813,2.0,left,left,1.0,1.0981,0.0,33.0,33.0,33.0,1.0,2883255450-215311.jpg,2868485399-139476.jpg,A1UEMMSI1XUBSW
814,3.0,left,left,1.0,1.3619,0.0,34.0,34.0,34.0,1.0,2964218374-144968.jpg,2238525773-27014.jpg,A1UEMMSI1XUBSW
815,3.0,left,left,1.0,1.3677,0.0,35.0,35.0,35.0,1.0,2238375302-311538.jpg,2460547508-51571.jpg,A1UEMMSI1XUBSW
816,2.0,left,right,0.0,0.9526,0.0,36.0,36.0,36.0,1.0,2981231446-294731.jpg,2238568685-183597.jpg,A1UEMMSI1XUBSW
817,3.0,left,left,1.0,1.1321,0.0,37.0,37.0,37.0,1.0,2964213381-294061.jpg,2989721347-371917.jpg,A1UEMMSI1XUBSW
818,3.0,right,left,0.0,1.0262,0.0,38.0,38.0,38.0,1.0,2901951430-218724.jpg,2238126735-154721.jpg,A1UEMMSI1XUBSW
819,2.0,left,right,0.0,1.8076,0.0,39.0,39.0,39.0,1.0,2238575092-334269.jpg,2860304305-210777.jpg,A1UEMMSI1XUBSW
820,1.0,right,right,1.0,2.1827,0.0,40.0,40.0,40.0,1.0,2989727350-222011.jpg,2986400320-221190.jpg,A1UEMMSI1XUBSW
821,1.0,left,left,1.0,1.6045,0.0,41.0,41.0,41.0,1.0,2862691449-137104.jpg,2238540598-30035.jpg,A1UEMMSI1XUBSW
822,1.0,left,left,1.0,0.7341,0.0,42.0,42.0,42.0,1.0,2449442529-124446.jpg,2238481610-168214.jpg,A1UEMMSI1XUBSW
823,2.0,right,right,1.0,0.7816,0.0,43.0,43.0,43.0,1.0,2238552469-106359.jpg,2446760524-123999.jpg,A1UEMMSI1XUBSW
824,3.0,right,right,1.0,0.771,0.0,44.0,44.0,44.0,1.0,2424122568-45517.jpg,2901938432-367627.jpg,A1UEMMSI1XUBSW
825,1.0,right,right,1.0,2.3118,0.0,45.0,45.0,45.0,1.0,2592380177-354629.jpg,2446759803-49249.jpg,A1UEMMSI1XUBSW
826,2.0,left,right,0.0,1.4997,0.0,46.0,46.0,46.0,1.0,2238129579-80916.jpg,2898618444-142233.jpg,A1UEMMSI1XUBSW
827,1.0,left,left,1.0,0.7417,0.0,47.0,47.0,47.0,1.0,2898624426-291546.jpg,2986402377-371266.jpg,A1UEMMSI1XUBSW
828,1.0,right,left,0.0,0.9212,0.0,48.0,48.0,48.0,1.0,2868488422-363713.jpg,2986408352-371293.jpg,A1UEMMSI1XUBSW
829,2.0,right,right,1.0,1.4766,0.0,49.0,49.0,49.0,1.0,2237965109-79314.jpg,2883254439-140941.jpg,A1UEMMSI1XUBSW
830,3.0,left,right,0.0,1.0759,0.0,50.0,50.0,50.0,1.0,2898617468-68274.jpg,2862684406-285700.jpg,A1UEMMSI1XUBSW
831,2.0,right,left,0.0,0.8448,0.0,51.0,51.0,51.0,1.0,2446758985-197610.jpg,2274829821-263682.jpg,A1UEMMSI1XUBSW
832,1.0,right,right,1.0,0.9476,0.0,52.0,52.0,52.0,1.0,2986419351-296471.jpg,2592380138-56727.jpg,A1UEMMSI1XUBSW
833,2.0,right,left,0.0,3.0261,0.0,53.0,53.0,53.0,1.0,2452380832-348593.jpg,2238499155-170911.jpg,A1UEMMSI1XUBSW
834,1.0,left,right,0.0,0.7825,0.0,54.0,54.0,54.0,1.0,2883254439-140940.jpg,2452380166-273110.jpg,A1UEMMSI1XUBSW
835,2.0,right,left,0.0,0.9617,0.0,55.0,55.0,55.0,1.0,2238087237-303447.jpg,2864906345-212360.jpg,A1UEMMSI1XUBSW
836,2.0,left,left,1.0,1.3588,0.0,56.0,56.0,56.0,1.0,2868475410-213219.jpg,2575964140-205051.jpg,A1UEMMSI1XUBSW
837,2.0,right,left,0.0,1.3528,0.0,57.0,57.0,57.0,1.0,2238547522-328488.jpg,2575964140-205050.jpg,A1UEMMSI1XUBSW
838,3.0,right,left,0.0,0.8518,0.0,58.0,58.0,58.0,1.0,2458348012-349114.jpg,2331570830-189984.jpg,A1UEMMSI1XUBSW
839,3.0,right,right,1.0,1.1723,0.0,59.0,59.0,59.0,1.0,2874303453-66056.jpg,2864909447-362146.jpg,A1UEMMSI1XUBSW
840,3.0,right,right,1.0,1.4632,0.0,0.0,0.0,0.0,1.0,2883271323-68049.jpg,2238561223-33794.jpg,A1XI05JJT3GPRG
841,2.0,left,left,1.0,1.097,0.0,1.0,1.0,1.0,1.0,2898635427-367120.jpg,2237941457-301342.jpg,A1XI05JJT3GPRG
842,1.0,left,right,0.0,1.1214,0.0,2.0,2.0,2.0,1.0,2446760524-123999.jpg,2446760621-272102.jpg,A1XI05JJT3GPRG
843,3.0,left,right,0.0,0.9877,0.0,3.0,3.0,3.0,1.0,2964213381-294061.jpg,2989721347-371917.jpg,A1XI05JJT3GPRG
844,3.0,right,left,0.0,1.4711,0.0,4.0,4.0,4.0,1.0,2989724308-73930.jpg,2964213381-294060.jpg,A1XI05JJT3GPRG
845,2.0,right,right,1.0,1.1032,0.0,5.0,5.0,5.0,1.0,2592380188-56743.jpg,2446760940-198145.jpg,A1XI05JJT3GPRG
846,1.0,left,right,0.0,1.0924,0.0,6.0,6.0,6.0,1.0,2238480434-93829.jpg,2804906319-133082.jpg,A1XI05JJT3GPRG
847,2.0,right,right,1.0,1.3456,0.0,7.0,7.0,7.0,1.0,2592380234-131135.jpg,2238496457-319749.jpg,A1XI05JJT3GPRG
848,2.0,right,left,0.0,1.3516,0.0,8.0,8.0,8.0,1.0,2449443292-348022.jpg,2901939379-143479.jpg,A1XI05JJT3GPRG
849,1.0,right,right,1.0,1.7126,0.0,9.0,9.0,9.0,1.0,2238481610-168214.jpg,2449442529-124446.jpg,A1XI05JJT3GPRG
850,2.0,left,left,1.0,1.7124,0.0,10.0,10.0,10.0,1.0,2964216465-219242.jpg,2512875796-274856.jpg,A1XI05JJT3GPRG
851,3.0,right,left,0.0,1.3509,0.0,11.0,11.0,11.0,1.0,2238490590-169598.jpg,2964224310-219527.jpg,A1XI05JJT3GPRG
852,2.0,right,right,1.0,0.9937,0.0,12.0,12.0,12.0,1.0,2868485399-139476.jpg,2883255450-215311.jpg,A1XI05JJT3GPRG
853,1.0,right,left,0.0,1.3397,0.0,13.0,13.0,13.0,1.0,2452380166-273110.jpg,2883254439-140940.jpg,A1XI05JJT3GPRG
854,3.0,right,right,1.0,1.24,0.0,14.0,14.0,14.0,1.0,2238538133-29662.jpg,2986400320-221190.jpg,A1XI05JJT3GPRG
855,3.0,left,right,0.0,1.2251,0.0,15.0,15.0,15.0,1.0,2592380138-56727.jpg,2238537701-251772.jpg,A1XI05JJT3GPRG
856,3.0,right,right,1.0,1.7207,0.0,16.0,16.0,16.0,1.0,2864904453-63932.jpg,2898632385-217137.jpg,A1XI05JJT3GPRG
857,2.0,right,right,1.0,1.136,0.0,17.0,17.0,17.0,1.0,2238547522-328488.jpg,2575964140-205050.jpg,A1XI05JJT3GPRG
858,3.0,right,left,0.0,1.2193,0.0,18.0,18.0,18.0,1.0,2417207297-342139.jpg,2981231446-294731.jpg,A1XI05JJT3GPRG
859,2.0,right,left,0.0,1.2593,0.0,19.0,19.0,19.0,1.0,2446758985-197610.jpg,2274829821-263682.jpg,A1XI05JJT3GPRG
860,3.0,right,left,0.0,1.5399,0.0,20.0,20.0,20.0,1.0,2458348012-349114.jpg,2331570830-189984.jpg,A1XI05JJT3GPRG
861,3.0,left,right,0.0,1.2658,0.0,21.0,21.0,21.0,1.0,2446758985-197609.jpg,2984618344-146295.jpg,A1XI05JJT3GPRG
862,1.0,left,right,0.0,1.8722,0.0,22.0,22.0,22.0,1.0,2864909447-362146.jpg,2874316384-140749.jpg,A1XI05JJT3GPRG
863,1.0,right,left,0.0,1.3432,0.0,23.0,23.0,23.0,1.0,2989724308-73928.jpg,2883254439-140941.jpg,A1XI05JJT3GPRG
864,1.0,right,right,1.0,1.2278,0.0,24.0,24.0,24.0,1.0,2238482972-317759.jpg,2238550049-105691.jpg,A1XI05JJT3GPRG
865,2.0,left,left,1.0,1.458,0.0,25.0,25.0,25.0,1.0,2868485396-288511.jpg,2868472420-213024.jpg,A1XI05JJT3GPRG
866,2.0,right,right,1.0,1.3531,0.0,26.0,26.0,26.0,1.0,2446760226-272006.jpg,2579432576-279079.jpg,A1XI05JJT3GPRG
867,1.0,right,right,1.0,1.3592,0.0,27.0,27.0,27.0,1.0,2446760621-272103.jpg,2238499155-170911.jpg,A1XI05JJT3GPRG
868,2.0,left,left,1.0,1.2337,0.0,28.0,28.0,28.0,1.0,2625337302-355866.jpg,2238478760-167789.jpg,A1XI05JJT3GPRG
869,3.0,left,right,0.0,0.8501,0.0,29.0,29.0,29.0,1.0,2994405328-74628.jpg,2883273443-68192.jpg,A1XI05JJT3GPRG
870,3.0,left,left,1.0,0.7405,0.0,30.0,30.0,30.0,1.0,2898633480-217190.jpg,2237858043-1434.jpg,A1XI05JJT3GPRG
871,1.0,right,right,1.0,1.0981,0.0,31.0,31.0,31.0,1.0,2579432708-56394.jpg,2901938432-367627.jpg,A1XI05JJT3GPRG
872,2.0,left,left,1.0,1.0962,0.0,32.0,32.0,32.0,1.0,2452380166-273109.jpg,2592379781-279345.jpg,A1XI05JJT3GPRG
873,2.0,right,right,1.0,0.857,0.0,33.0,33.0,33.0,1.0,2575964140-205051.jpg,2868475410-213219.jpg,A1XI05JJT3GPRG
874,1.0,right,right,1.0,1.3397,0.0,34.0,34.0,34.0,1.0,2986401333-73218.jpg,2901934573-69337.jpg,A1XI05JJT3GPRG
875,3.0,left,right,0.0,1.3575,0.0,35.0,35.0,35.0,1.0,2883272438-68133.jpg,2592380136-279476.jpg,A1XI05JJT3GPRG
876,1.0,right,left,0.0,1.1103,0.0,36.0,36.0,36.0,1.0,2592380177-354629.jpg,2446759803-49249.jpg,A1XI05JJT3GPRG
877,1.0,left,right,0.0,0.9741,0.0,37.0,37.0,37.0,1.0,2986408352-371293.jpg,2868488422-363713.jpg,A1XI05JJT3GPRG
878,1.0,right,right,1.0,2.3219,0.0,38.0,38.0,38.0,1.0,2864901420-212147.jpg,2238584869-113153.jpg,A1XI05JJT3GPRG
879,2.0,left,left,1.0,1.0979,0.0,39.0,39.0,39.0,1.0,2238375302-311538.jpg,2592380049-131077.jpg,A1XI05JJT3GPRG
880,1.0,left,left,1.0,1.0973,0.0,40.0,40.0,40.0,1.0,2862691449-137104.jpg,2238540598-30035.jpg,A1XI05JJT3GPRG
881,2.0,left,left,1.0,1.217,0.0,41.0,41.0,41.0,1.0,2238516618-25604.jpg,2862686459-136888.jpg,A1XI05JJT3GPRG
882,3.0,right,right,1.0,1.0868,0.0,42.0,42.0,42.0,1.0,2238562336-256366.jpg,2883255450-215309.jpg,A1XI05JJT3GPRG
883,1.0,left,right,0.0,0.8527,0.0,43.0,43.0,43.0,1.0,2512876023-52283.jpg,2864908323-64106.jpg,A1XI05JJT3GPRG
884,3.0,right,right,1.0,0.9886,0.0,44.0,44.0,44.0,1.0,2994403305-222559.jpg,2864906345-212360.jpg,A1XI05JJT3GPRG
885,3.0,right,right,1.0,1.0924,0.0,45.0,45.0,45.0,1.0,2460547992-349586.jpg,2898632385-217138.jpg,A1XI05JJT3GPRG
886,2.0,left,right,0.0,1.2265,0.0,46.0,46.0,46.0,1.0,2238129579-80916.jpg,2898618444-142233.jpg,A1XI05JJT3GPRG
887,1.0,right,left,0.0,0.9792,0.0,47.0,47.0,47.0,1.0,2449443163-50093.jpg,2238584018-38513.jpg,A1XI05JJT3GPRG
888,3.0,left,right,0.0,0.9763,0.0,48.0,48.0,48.0,1.0,2238126735-154721.jpg,2901951430-218724.jpg,A1XI05JJT3GPRG
889,2.0,right,left,0.0,1.1061,0.0,49.0,49.0,49.0,1.0,2549106844-127878.jpg,2898624426-291546.jpg,A1XI05JJT3GPRG
890,3.0,right,right,1.0,1.1012,0.0,50.0,50.0,50.0,1.0,2901945303-70125.jpg,2901941426-292805.jpg,A1XI05JJT3GPRG
891,2.0,left,right,0.0,0.9871,0.0,51.0,51.0,51.0,1.0,2238521193-26286.jpg,2874301437-363905.jpg,A1XI05JJT3GPRG
892,1.0,left,left,1.0,1.2498,0.0,52.0,52.0,52.0,1.0,2898626385-216899.jpg,2989715328-73658.jpg,A1XI05JJT3GPRG
893,1.0,right,right,1.0,1.0959,0.0,53.0,53.0,53.0,1.0,2986448334-147157.jpg,2238429999-90218.jpg,A1XI05JJT3GPRG
894,2.0,left,left,1.0,1.0996,0.0,54.0,54.0,54.0,1.0,2964218374-144968.jpg,2238521157-323782.jpg,A1XI05JJT3GPRG
895,3.0,left,left,1.0,1.1103,0.0,55.0,55.0,55.0,1.0,2898617468-68274.jpg,2862684406-285700.jpg,A1XI05JJT3GPRG
896,1.0,right,right,1.0,0.8563,0.0,56.0,56.0,56.0,1.0,2868470400-212889.jpg,2238471391-240918.jpg,A1XI05JJT3GPRG
897,2.0,left,left,1.0,0.8563,0.0,57.0,57.0,57.0,1.0,2238575092-334269.jpg,2860304305-210777.jpg,A1XI05JJT3GPRG
898,1.0,left,left,1.0,0.8583,0.0,58.0,58.0,58.0,1.0,2460547467-349421.jpg,2901934573-69336.jpg,A1XI05JJT3GPRG
899,3.0,right,right,1.0,1.2382,0.0,59.0,59.0,59.0,1.0,2898617396-291219.jpg,2964209380-218956.jpg,A1XI05JJT3GPRG
900,1.0,right,right,1.0,2.8036,0.0,0.0,0.0,0.0,1.0,2238481575-168208.jpg,2883255450-215311.jpg,A2CXF9V4KEA8AW
