,index,demo_encoding_loop.thisTrialN,DemoImage,DemoCorrect,demo_encoding_response.rt,demo_encoding_response.keys,index,demo_test_response.keys,demo_test_response.corr,demo_test_response.rt,demo_test_loop.thisTrialN,DemoImage1,DemoImage2,DemoCorrectTest,subject
0,4,0.0,flower1.jpg,,,,12.0,right,0.0,3.546400002,0.0,flower1.jpg,flower1_pair.jpg,left,A10AKR84P1WXHL
1,5,1.0,flower2.jpg,,,,13.0,right,1.0,2.4324,1.0,flower2_pair.jpg,flower2.jpg,right,A10AKR84P1WXHL
2,6,2.0,left.jpg,left,2.7489,left,14.0,right,0.0,1.505,2.0,flower3.jpg,flower3_pair.jpg,left,A10AKR84P1WXHL
3,7,3.0,flower3.jpg,,,,15.0,right,0.0,1.1259,3.0,flower4.jpg,flower4_pair.jpg,left,A10AKR84P1WXHL
4,8,4.0,flower4.jpg,,,,16.0,right,1.0,1.2276,4.0,flower5_pair.jpg,flower5.jpg,right,A10AKR84P1WXHL
5,9,5.0,flower5.jpg,,,,17.0,right,0.0,1.1264,5.0,flower6.jpg,flower6_pair.jpg,left,A10AKR84P1WXHL
6,10,6.0,flower6.jpg,,,,,,,,,,,,A10AKR84P1WXHL
7,4,0.0,flower1.jpg,,,,12.0,left,1.0,1.5194,0.0,flower1.jpg,flower1_pair.jpg,left,A14OQ52EFQAN2W
8,5,1.0,flower2.jpg,,,,13.0,left,0.0,1.3293,1.0,flower2_pair.jpg,flower2.jpg,right,A14OQ52EFQAN2W
9,6,2.0,left.jpg,left,0.5228,left,14.0,left,1.0,1.3018,2.0,flower3.jpg,flower3_pair.jpg,left,A14OQ52EFQAN2W
10,7,3.0,flower3.jpg,,,,15.0,right,0.0,1.2079,3.0,flower4.jpg,flower4_pair.jpg,left,A14OQ52EFQAN2W
11,8,4.0,flower4.jpg,,,,16.0,left,0.0,1.1679,4.0,flower5_pair.jpg,flower5.jpg,right,A14OQ52EFQAN2W
12,9,5.0,flower5.jpg,,,,17.0,left,1.0,1.0059,5.0,flower6.jpg,flower6_pair.jpg,left,A14OQ52EFQAN2W
13,10,6.0,flower6.jpg,,,,,,,,,,,,A14OQ52EFQAN2W
14,4,0.0,flower1.jpg,,,,12.0,left,1.0,3.277,0.0,flower1.jpg,flower1_pair.jpg,left,A15V2JYNSMUREO
15,5,1.0,flower2.jpg,,,,13.0,right,1.0,3.293,1.0,flower2_pair.jpg,flower2.jpg,right,A15V2JYNSMUREO
16,6,2.0,left.jpg,left,1.055,left,14.0,left,1.0,1.474,2.0,flower3.jpg,flower3_pair.jpg,left,A15V2JYNSMUREO
17,7,3.0,flower3.jpg,,,,15.0,left,1.0,2.123,3.0,flower4.jpg,flower4_pair.jpg,left,A15V2JYNSMUREO
18,8,4.0,flower4.jpg,,,,16.0,right,1.0,2.176,4.0,flower5_pair.jpg,flower5.jpg,right,A15V2JYNSMUREO
19,9,5.0,flower5.jpg,,,,17.0,left,1.0,1.669,5.0,flower6.jpg,flower6_pair.jpg,left,A15V2JYNSMUREO
20,10,6.0,flower6.jpg,,,,,,,,,,,,A15V2JYNSMUREO
21,4,0.0,flower1.jpg,,,,12.0,left,1.0,3.542,0.0,flower1.jpg,flower1_pair.jpg,left,A1BM11Y4W27OUR
22,5,1.0,flower2.jpg,,,,13.0,right,1.0,2.667,1.0,flower2_pair.jpg,flower2.jpg,right,A1BM11Y4W27OUR
23,6,2.0,left.jpg,left,0.959,left,14.0,left,1.0,2.836,2.0,flower3.jpg,flower3_pair.jpg,left,A1BM11Y4W27OUR
24,7,3.0,flower3.jpg,,,,15.0,left,1.0,2.208,3.0,flower4.jpg,flower4_pair.jpg,left,A1BM11Y4W27OUR
25,8,4.0,flower4.jpg,,,,16.0,right,1.0,2.395,4.0,flower5_pair.jpg,flower5.jpg,right,A1BM11Y4W27OUR
26,9,5.0,flower5.jpg,,,,17.0,left,1.0,2.587,5.0,flower6.jpg,flower6_pair.jpg,left,A1BM11Y4W27OUR
27,10,6.0,flower6.jpg,,,,,,,,,,,,A1BM11Y4W27OUR
28,4,0.0,flower1.jpg,,,,12.0,left,1.0,3.453,0.0,flower1.jpg,flower1_pair.jpg,left,A1C3IJCMZ66VD2
29,5,1.0,flower2.jpg,,,,13.0,right,1.0,3.973,1.0,flower2_pair.jpg,flower2.jpg,right,A1C3IJCMZ66VD2
30,6,2.0,left.jpg,left,1.553,left,14.0,left,1.0,2.605,2.0,flower3.jpg,flower3_pair.jpg,left,A1C3IJCMZ66VD2
31,7,3.0,flower3.jpg,,,,15.0,left,1.0,2.241,3.0,flower4.jpg,flower4_pair.jpg,left,A1C3IJCMZ66VD2
32,8,4.0,flower4.jpg,,,,16.0,right,1.0,2.877,4.0,flower5_pair.jpg,flower5.jpg,right,A1C3IJCMZ66VD2
33,9,5.0,flower5.jpg,,,,17.0,left,1.0,1.994,5.0,flower6.jpg,flower6_pair.jpg,left,A1C3IJCMZ66VD2
34,10,6.0,flower6.jpg,,,,,,,,,,,,A1C3IJCMZ66VD2
35,4,0.0,flower1.jpg,,,,12.0,left,1.0,7.1601,0.0,flower1.jpg,flower1_pair.jpg,left,A1C4TOGS0NS8K9
36,5,1.0,flower2.jpg,,,,13.0,right,1.0,3.182599998,1.0,flower2_pair.jpg,flower2.jpg,right,A1C4TOGS0NS8K9
37,6,2.0,left.jpg,left,1.649200001,left,14.0,left,1.0,2.3505,2.0,flower3.jpg,flower3_pair.jpg,left,A1C4TOGS0NS8K9
38,7,3.0,flower3.jpg,,,,15.0,left,1.0,2.124199999,3.0,flower4.jpg,flower4_pair.jpg,left,A1C4TOGS0NS8K9
39,8,4.0,flower4.jpg,,,,16.0,right,1.0,1.9731,4.0,flower5_pair.jpg,flower5.jpg,right,A1C4TOGS0NS8K9
40,9,5.0,flower5.jpg,,,,17.0,left,1.0,1.899700001,5.0,flower6.jpg,flower6_pair.jpg,left,A1C4TOGS0NS8K9
41,10,6.0,flower6.jpg,,,,,,,,,,,,A1C4TOGS0NS8K9
42,4,0.0,flower1.jpg,,,,12.0,left,1.0,3.9021,0.0,flower1.jpg,flower1_pair.jpg,left,A1FJGB5JLZ81XB
43,5,1.0,flower2.jpg,,,,13.0,right,1.0,5.4149,1.0,flower2_pair.jpg,flower2.jpg,right,A1FJGB5JLZ81XB
44,6,2.0,left.jpg,left,1.8979,left,14.0,left,1.0,2.0315,2.0,flower3.jpg,flower3_pair.jpg,left,A1FJGB5JLZ81XB
45,7,3.0,flower3.jpg,,,,15.0,right,0.0,1.4572,3.0,flower4.jpg,flower4_pair.jpg,left,A1FJGB5JLZ81XB
46,8,4.0,flower4.jpg,,,,16.0,right,1.0,3.3666,4.0,flower5_pair.jpg,flower5.jpg,right,A1FJGB5JLZ81XB
47,9,5.0,flower5.jpg,,,,17.0,right,0.0,1.5089,5.0,flower6.jpg,flower6_pair.jpg,left,A1FJGB5JLZ81XB
48,10,6.0,flower6.jpg,,,,,,,,,,,,A1FJGB5JLZ81XB
49,4,0.0,flower1.jpg,,,,12.0,left,1.0,2.615,0.0,flower1.jpg,flower1_pair.jpg,left,A1O7XFRTZ46PN5
50,5,1.0,flower2.jpg,,,,13.0,right,1.0,2.635,1.0,flower2_pair.jpg,flower2.jpg,right,A1O7XFRTZ46PN5
51,6,2.0,left.jpg,left,1.565,left,14.0,left,1.0,1.697,2.0,flower3.jpg,flower3_pair.jpg,left,A1O7XFRTZ46PN5
52,7,3.0,flower3.jpg,,,,15.0,left,1.0,1.98,3.0,flower4.jpg,flower4_pair.jpg,left,A1O7XFRTZ46PN5
53,8,4.0,flower4.jpg,,,,16.0,right,1.0,2.602,4.0,flower5_pair.jpg,flower5.jpg,right,A1O7XFRTZ46PN5
54,9,5.0,flower5.jpg,,,,17.0,left,1.0,2.747,5.0,flower6.jpg,flower6_pair.jpg,left,A1O7XFRTZ46PN5
55,10,6.0,flower6.jpg,,,,,,,,,,,,A1O7XFRTZ46PN5
56,4,0.0,flower1.jpg,,,,12.0,left,1.0,2.295,0.0,flower1.jpg,flower1_pair.jpg,left,A1OK06ZUFSY1C
57,5,1.0,flower2.jpg,,,,13.0,right,1.0,2.62,1.0,flower2_pair.jpg,flower2.jpg,right,A1OK06ZUFSY1C
58,6,2.0,left.jpg,left,1.107,left,14.0,left,1.0,2.501,2.0,flower3.jpg,flower3_pair.jpg,left,A1OK06ZUFSY1C
59,7,3.0,flower3.jpg,,,,15.0,left,1.0,4.106,3.0,flower4.jpg,flower4_pair.jpg,left,A1OK06ZUFSY1C
60,8,4.0,flower4.jpg,,,,16.0,right,1.0,1.73,4.0,flower5_pair.jpg,flower5.jpg,right,A1OK06ZUFSY1C
61,9,5.0,flower5.jpg,,,,17.0,left,1.0,2.36,5.0,flower6.jpg,flower6_pair.jpg,left,A1OK06ZUFSY1C
62,10,6.0,flower6.jpg,,,,,,,,,,,,A1OK06ZUFSY1C
63,4,0.0,flower1.jpg,,,,12.0,left,1.0,3.6784,0.0,flower1.jpg,flower1_pair.jpg,left,A1OZPLHNIU1519
64,5,1.0,flower2.jpg,,,,13.0,right,1.0,3.0905,1.0,flower2_pair.jpg,flower2.jpg,right,A1OZPLHNIU1519
65,6,2.0,left.jpg,left,0.6512,left,14.0,left,1.0,1.4118,2.0,flower3.jpg,flower3_pair.jpg,left,A1OZPLHNIU1519
66,7,3.0,flower3.jpg,,,,15.0,left,1.0,4.091,3.0,flower4.jpg,flower4_pair.jpg,left,A1OZPLHNIU1519
67,8,4.0,flower4.jpg,,,,16.0,right,1.0,3.0187,4.0,flower5_pair.jpg,flower5.jpg,right,A1OZPLHNIU1519
68,9,5.0,flower5.jpg,,,,17.0,left,1.0,1.8267,5.0,flower6.jpg,flower6_pair.jpg,left,A1OZPLHNIU1519
69,10,6.0,flower6.jpg,,,,,,,,,,,,A1OZPLHNIU1519
70,4,0.0,flower1.jpg,,,,12.0,left,1.0,3.6169,0.0,flower1.jpg,flower1_pair.jpg,left,A1Q1JSFKBUIYJD
71,5,1.0,flower2.jpg,,,,13.0,right,1.0,3.7158,1.0,flower2_pair.jpg,flower2.jpg,right,A1Q1JSFKBUIYJD
72,6,2.0,left.jpg,left,1.7456,left,14.0,left,1.0,1.2764,2.0,flower3.jpg,flower3_pair.jpg,left,A1Q1JSFKBUIYJD
73,7,3.0,flower3.jpg,,,,15.0,right,0.0,4.6378,3.0,flower4.jpg,flower4_pair.jpg,left,A1Q1JSFKBUIYJD
74,8,4.0,flower4.jpg,,,,16.0,right,1.0,1.8626,4.0,flower5_pair.jpg,flower5.jpg,right,A1Q1JSFKBUIYJD
75,9,5.0,flower5.jpg,,,,17.0,right,0.0,1.7413,5.0,flower6.jpg,flower6_pair.jpg,left,A1Q1JSFKBUIYJD
76,10,6.0,flower6.jpg,,,,,,,,,,,,A1Q1JSFKBUIYJD
77,4,0.0,flower1.jpg,,,,12.0,left,1.0,11.211,0.0,flower1.jpg,flower1_pair.jpg,left,A1QSX79P1W1058
78,5,1.0,flower2.jpg,,,,13.0,right,1.0,5.012,1.0,flower2_pair.jpg,flower2.jpg,right,A1QSX79P1W1058
79,6,2.0,left.jpg,left,1.49,left,14.0,left,1.0,11.668,2.0,flower3.jpg,flower3_pair.jpg,left,A1QSX79P1W1058
80,7,3.0,flower3.jpg,,,,15.0,left,1.0,8.22,3.0,flower4.jpg,flower4_pair.jpg,left,A1QSX79P1W1058
81,8,4.0,flower4.jpg,,,,16.0,right,1.0,4.431,4.0,flower5_pair.jpg,flower5.jpg,right,A1QSX79P1W1058
82,9,5.0,flower5.jpg,,,,17.0,right,0.0,9.562,5.0,flower6.jpg,flower6_pair.jpg,left,A1QSX79P1W1058
83,10,6.0,flower6.jpg,,,,,,,,,,,,A1QSX79P1W1058
84,4,0.0,flower1.jpg,,,,12.0,left,1.0,3.9392,0.0,flower1.jpg,flower1_pair.jpg,left,A1TKQJUFNN40MJ
85,5,1.0,flower2.jpg,,,,13.0,right,1.0,3.669,1.0,flower2_pair.jpg,flower2.jpg,right,A1TKQJUFNN40MJ
86,6,2.0,left.jpg,left,2.6437,left,14.0,left,1.0,2.1908,2.0,flower3.jpg,flower3_pair.jpg,left,A1TKQJUFNN40MJ
87,7,3.0,flower3.jpg,,,,15.0,left,1.0,2.4645,3.0,flower4.jpg,flower4_pair.jpg,left,A1TKQJUFNN40MJ
88,8,4.0,flower4.jpg,,,,16.0,right,1.0,2.599,4.0,flower5_pair.jpg,flower5.jpg,right,A1TKQJUFNN40MJ
89,9,5.0,flower5.jpg,,,,17.0,left,1.0,2.1992,5.0,flower6.jpg,flower6_pair.jpg,left,A1TKQJUFNN40MJ
90,10,6.0,flower6.jpg,,,,,,,,,,,,A1TKQJUFNN40MJ
91,4,0.0,flower1.jpg,,,,12.0,left,1.0,2.7645,0.0,flower1.jpg,flower1_pair.jpg,left,A1UEMMSI1XUBSW
92,5,1.0,flower2.jpg,,,,13.0,left,0.0,2.018,1.0,flower2_pair.jpg,flower2.jpg,right,A1UEMMSI1XUBSW
93,6,2.0,left.jpg,left,0.5615,left,14.0,left,1.0,1.3956,2.0,flower3.jpg,flower3_pair.jpg,left,A1UEMMSI1XUBSW
94,7,3.0,flower3.jpg,,,,15.0,left,1.0,1.793,3.0,flower4.jpg,flower4_pair.jpg,left,A1UEMMSI1XUBSW
95,8,4.0,flower4.jpg,,,,16.0,right,1.0,1.9043,4.0,flower5_pair.jpg,flower5.jpg,right,A1UEMMSI1XUBSW
96,9,5.0,flower5.jpg,,,,17.0,left,1.0,1.7084,5.0,flower6.jpg,flower6_pair.jpg,left,A1UEMMSI1XUBSW
97,10,6.0,flower6.jpg,,,,,,,,,,,,A1UEMMSI1XUBSW
98,4,0.0,flower1.jpg,,,,12.0,left,1.0,2.0106,0.0,flower1.jpg,flower1_pair.jpg,left,A1XI05JJT3GPRG
99,5,1.0,flower2.jpg,,,,13.0,right,1.0,1.5386,1.0,flower2_pair.jpg,flower2.jpg,right,A1XI05JJT3GPRG
100,6,2.0,left.jpg,left,1.0086,left,14.0,right,0.0,2.8231,2.0,flower3.jpg,flower3_pair.jpg,left,A1XI05JJT3GPRG
101,7,3.0,flower3.jpg,,,,15.0,right,0.0,2.0082,3.0,flower4.jpg,flower4_pair.jpg,left,A1XI05JJT3GPRG
102,8,4.0,flower4.jpg,,,,16.0,left,0.0,1.3046,4.0,flower5_pair.jpg,flower5.jpg,right,A1XI05JJT3GPRG
103,9,5.0,flower5.jpg,,,,17.0,left,1.0,1.8867,5.0,flower6.jpg,flower6_pair.jpg,left,A1XI05JJT3GPRG
104,10,6.0,flower6.jpg,,,,,,,,,,,,A1XI05JJT3GPRG
105,4,0.0,flower1.jpg,,,,12.0,left,1.0,2.1309,0.0,flower1.jpg,flower1_pair.jpg,left,A2CXF9V4KEA8AW
106,5,1.0,flower2.jpg,,,,13.0,left,0.0,2.6005,1.0,flower2_pair.jpg,flower2.jpg,right,A2CXF9V4KEA8AW
107,6,2.0,left.jpg,left,1.4117,left,14.0,left,1.0,2.4872,2.0,flower3.jpg,flower3_pair.jpg,left,A2CXF9V4KEA8AW
108,7,3.0,flower3.jpg,,,,15.0,left,1.0,2.9802,3.0,flower4.jpg,flower4_pair.jpg,left,A2CXF9V4KEA8AW
109,8,4.0,flower4.jpg,,,,16.0,right,1.0,2.0696,4.0,flower5_pair.jpg,flower5.jpg,right,A2CXF9V4KEA8AW
110,9,5.0,flower5.jpg,,,,17.0,left,1.0,2.7331,5.0,flower6.jpg,flower6_pair.jpg,left,A2CXF9V4KEA8AW
111,10,6.0,flower6.jpg,,,,,,,,,,,,A2CXF9V4KEA8AW
112,4,0.0,flower1.jpg,,,,12.0,right,0.0,10.744,0.0,flower1.jpg,flower1_pair.jpg,left,A2S95C6RJJBD29
113,5,1.0,flower2.jpg,,,,13.0,right,1.0,2.2658,1.0,flower2_pair.jpg,flower2.jpg,right,A2S95C6RJJBD29
114,6,2.0,left.jpg,left,1.3359,left,14.0,left,1.0,1.5659,2.0,flower3.jpg,flower3_pair.jpg,left,A2S95C6RJJBD29
115,7,3.0,flower3.jpg,,,,15.0,right,0.0,1.0754,3.0,flower4.jpg,flower4_pair.jpg,left,A2S95C6RJJBD29
116,8,4.0,flower4.jpg,,,,16.0,right,1.0,1.3457,4.0,flower5_pair.jpg,flower5.jpg,right,A2S95C6RJJBD29
117,9,5.0,flower5.jpg,,,,17.0,right,0.0,0.845,5.0,flower6.jpg,flower6_pair.jpg,left,A2S95C6RJJBD29
118,10,6.0,flower6.jpg,,,,,,,,,,,,A2S95C6RJJBD29
119,4,0.0,flower1.jpg,,,,12.0,left,1.0,2.1338,0.0,flower1.jpg,flower1_pair.jpg,left,A2TCX20FIMNWSS
120,5,1.0,flower2.jpg,,,,13.0,right,1.0,2.1753,1.0,flower2_pair.jpg,flower2.jpg,right,A2TCX20FIMNWSS
121,6,2.0,left.jpg,left,0.7957,left,14.0,left,1.0,1.7583,2.0,flower3.jpg,flower3_pair.jpg,left,A2TCX20FIMNWSS
122,7,3.0,flower3.jpg,,,,15.0,left,1.0,2.1904,3.0,flower4.jpg,flower4_pair.jpg,left,A2TCX20FIMNWSS
123,8,4.0,flower4.jpg,,,,16.0,right,1.0,2.0234,4.0,flower5_pair.jpg,flower5.jpg,right,A2TCX20FIMNWSS
124,9,5.0,flower5.jpg,,,,17.0,left,1.0,1.7747,5.0,flower6.jpg,flower6_pair.jpg,left,A2TCX20FIMNWSS
125,10,6.0,flower6.jpg,,,,,,,,,,,,A2TCX20FIMNWSS
126,4,0.0,flower1.jpg,,,,12.0,left,1.0,6.7296,0.0,flower1.jpg,flower1_pair.jpg,left,A2VO0CD0Z21DE4
127,5,1.0,flower2.jpg,,,,13.0,left,0.0,3.0228,1.0,flower2_pair.jpg,flower2.jpg,right,A2VO0CD0Z21DE4
128,6,2.0,left.jpg,left,1.5828,left,14.0,left,1.0,2.0545,2.0,flower3.jpg,flower3_pair.jpg,left,A2VO0CD0Z21DE4
129,7,3.0,flower3.jpg,,,,15.0,right,0.0,1.2978,3.0,flower4.jpg,flower4_pair.jpg,left,A2VO0CD0Z21DE4
130,8,4.0,flower4.jpg,,,,16.0,left,0.0,1.4668,4.0,flower5_pair.jpg,flower5.jpg,right,A2VO0CD0Z21DE4
131,9,5.0,flower5.jpg,,,,17.0,right,0.0,2.3528,5.0,flower6.jpg,flower6_pair.jpg,left,A2VO0CD0Z21DE4
132,10,6.0,flower6.jpg,,,,,,,,,,,,A2VO0CD0Z21DE4
133,4,0.0,flower1.jpg,,,,12.0,left,1.0,43.4435,0.0,flower1.jpg,flower1_pair.jpg,left,A2WJMGV0HKQG3Z
134,5,1.0,flower2.jpg,,,,13.0,left,0.0,2.1947,1.0,flower2_pair.jpg,flower2.jpg,right,A2WJMGV0HKQG3Z
135,6,2.0,left.jpg,left,1.9946,left,14.0,left,1.0,1.4649,2.0,flower3.jpg,flower3_pair.jpg,left,A2WJMGV0HKQG3Z
136,7,3.0,flower3.jpg,,,,15.0,left,1.0,1.8565,3.0,flower4.jpg,flower4_pair.jpg,left,A2WJMGV0HKQG3Z
137,8,4.0,flower4.jpg,,,,16.0,right,1.0,4.154,4.0,flower5_pair.jpg,flower5.jpg,right,A2WJMGV0HKQG3Z
138,9,5.0,flower5.jpg,,,,17.0,left,1.0,2.8803,5.0,flower6.jpg,flower6_pair.jpg,left,A2WJMGV0HKQG3Z
139,10,6.0,flower6.jpg,,,,,,,,,,,,A2WJMGV0HKQG3Z
140,4,0.0,flower1.jpg,,,,12.0,left,1.0,3.4642,0.0,flower1.jpg,flower1_pair.jpg,left,A306SRE7WZDAZS
141,5,1.0,flower2.jpg,,,,13.0,right,1.0,2.0321,1.0,flower2_pair.jpg,flower2.jpg,right,A306SRE7WZDAZS
142,6,2.0,left.jpg,left,1.7497,left,14.0,left,1.0,3.3518,2.0,flower3.jpg,flower3_pair.jpg,left,A306SRE7WZDAZS
143,7,3.0,flower3.jpg,,,,15.0,left,1.0,5.3132,3.0,flower4.jpg,flower4_pair.jpg,left,A306SRE7WZDAZS
144,8,4.0,flower4.jpg,,,,16.0,right,1.0,1.7977,4.0,flower5_pair.jpg,flower5.jpg,right,A306SRE7WZDAZS
145,9,5.0,flower5.jpg,,,,17.0,right,0.0,3.1147,5.0,flower6.jpg,flower6_pair.jpg,left,A306SRE7WZDAZS
146,10,6.0,flower6.jpg,,,,,,,,,,,,A306SRE7WZDAZS
147,4,0.0,flower1.jpg,,,,12.0,left,1.0,3.9287,0.0,flower1.jpg,flower1_pair.jpg,left,A3A7ZQXHKZQ71I
148,5,1.0,flower2.jpg,,,,13.0,right,1.0,3.3851,1.0,flower2_pair.jpg,flower2.jpg,right,A3A7ZQXHKZQ71I
149,6,2.0,left.jpg,left,1.4377,left,14.0,left,1.0,2.8271,2.0,flower3.jpg,flower3_pair.jpg,left,A3A7ZQXHKZQ71I
150,7,3.0,flower3.jpg,,,,15.0,left,1.0,2.6981,3.0,flower4.jpg,flower4_pair.jpg,left,A3A7ZQXHKZQ71I
151,8,4.0,flower4.jpg,,,,16.0,right,1.0,2.8944,4.0,flower5_pair.jpg,flower5.jpg,right,A3A7ZQXHKZQ71I
152,9,5.0,flower5.jpg,,,,17.0,right,0.0,3.2242,5.0,flower6.jpg,flower6_pair.jpg,left,A3A7ZQXHKZQ71I
153,10,6.0,flower6.jpg,,,,,,,,,,,,A3A7ZQXHKZQ71I
154,4,0.0,flower1.jpg,,,,12.0,left,1.0,2.387,0.0,flower1.jpg,flower1_pair.jpg,left,A3L95FSCN74FIF
155,5,1.0,flower2.jpg,,,,13.0,left,0.0,2.736,1.0,flower2_pair.jpg,flower2.jpg,right,A3L95FSCN74FIF
156,6,2.0,left.jpg,left,0.987,left,14.0,right,0.0,4.173,2.0,flower3.jpg,flower3_pair.jpg,left,A3L95FSCN74FIF
157,7,3.0,flower3.jpg,,,,15.0,right,0.0,1.696,3.0,flower4.jpg,flower4_pair.jpg,left,A3L95FSCN74FIF
158,8,4.0,flower4.jpg,,,,16.0,left,0.0,1.263,4.0,flower5_pair.jpg,flower5.jpg,right,A3L95FSCN74FIF
159,9,5.0,flower5.jpg,,,,17.0,left,1.0,1.255,5.0,flower6.jpg,flower6_pair.jpg,left,A3L95FSCN74FIF
160,10,6.0,flower6.jpg,,,,,,,,,,,,A3L95FSCN74FIF
161,4,0.0,flower1.jpg,,,,12.0,right,0.0,3.1053,0.0,flower1.jpg,flower1_pair.jpg,left,A3V2XCDF45VN9X
162,5,1.0,flower2.jpg,,,,13.0,left,0.0,2.1569,1.0,flower2_pair.jpg,flower2.jpg,right,A3V2XCDF45VN9X
163,6,2.0,left.jpg,left,0.6877,left,14.0,left,1.0,1.1937,2.0,flower3.jpg,flower3_pair.jpg,left,A3V2XCDF45VN9X
164,7,3.0,flower3.jpg,,,,15.0,left,1.0,1.4288,3.0,flower4.jpg,flower4_pair.jpg,left,A3V2XCDF45VN9X
165,8,4.0,flower4.jpg,,,,16.0,right,1.0,1.4375,4.0,flower5_pair.jpg,flower5.jpg,right,A3V2XCDF45VN9X
166,9,5.0,flower5.jpg,,,,17.0,left,1.0,1.6939,5.0,flower6.jpg,flower6_pair.jpg,left,A3V2XCDF45VN9X
167,10,6.0,flower6.jpg,,,,,,,,,,,,A3V2XCDF45VN9X
168,4,0.0,flower1.jpg,,,,12.0,left,1.0,2.6403,0.0,flower1.jpg,flower1_pair.jpg,left,A9IP3T3T4GUH1
169,5,1.0,flower2.jpg,,,,13.0,right,1.0,3.0409,1.0,flower2_pair.jpg,flower2.jpg,right,A9IP3T3T4GUH1
170,6,2.0,left.jpg,left,1.3782,left,14.0,left,1.0,3.3011,2.0,flower3.jpg,flower3_pair.jpg,left,A9IP3T3T4GUH1
171,7,3.0,flower3.jpg,,,,15.0,left,1.0,2.3887,3.0,flower4.jpg,flower4_pair.jpg,left,A9IP3T3T4GUH1
172,8,4.0,flower4.jpg,,,,16.0,right,1.0,2.2328,4.0,flower5_pair.jpg,flower5.jpg,right,A9IP3T3T4GUH1
173,9,5.0,flower5.jpg,,,,17.0,left,1.0,1.816,5.0,flower6.jpg,flower6_pair.jpg,left,A9IP3T3T4GUH1
174,10,6.0,flower6.jpg,,,,,,,,,,,,A9IP3T3T4GUH1
175,4,0.0,flower1.jpg,,,,12.0,left,1.0,3.067,0.0,flower1.jpg,flower1_pair.jpg,left,AM2Q3FXQAY0S7
176,5,1.0,flower2.jpg,,,,13.0,left,0.0,0.003,1.0,flower2_pair.jpg,flower2.jpg,right,AM2Q3FXQAY0S7
177,6,2.0,left.jpg,left,0.393,left,14.0,left,1.0,2.648,2.0,flower3.jpg,flower3_pair.jpg,left,AM2Q3FXQAY0S7
178,7,3.0,flower3.jpg,,,,15.0,right,0.0,2.218,3.0,flower4.jpg,flower4_pair.jpg,left,AM2Q3FXQAY0S7
179,8,4.0,flower4.jpg,,,,16.0,right,1.0,2.404,4.0,flower5_pair.jpg,flower5.jpg,right,AM2Q3FXQAY0S7
180,9,5.0,flower5.jpg,,,,17.0,right,0.0,2.991,5.0,flower6.jpg,flower6_pair.jpg,left,AM2Q3FXQAY0S7
181,10,6.0,flower6.jpg,,,,,,,,,,,,AM2Q3FXQAY0S7
182,4,0.0,flower1.jpg,,,,12.0,left,1.0,2.9431,0.0,flower1.jpg,flower1_pair.jpg,left,AUBKB2XCGMMGQ
183,5,1.0,flower2.jpg,,,,13.0,left,0.0,3.7839,1.0,flower2_pair.jpg,flower2.jpg,right,AUBKB2XCGMMGQ
184,6,2.0,left.jpg,left,1.737,left,14.0,left,1.0,2.5311,2.0,flower3.jpg,flower3_pair.jpg,left,AUBKB2XCGMMGQ
185,7,3.0,flower3.jpg,,,,15.0,right,0.0,7.6012,3.0,flower4.jpg,flower4_pair.jpg,left,AUBKB2XCGMMGQ
186,8,4.0,flower4.jpg,,,,16.0,right,1.0,2.639,4.0,flower5_pair.jpg,flower5.jpg,right,AUBKB2XCGMMGQ
187,9,5.0,flower5.jpg,,,,17.0,left,1.0,1.6985,5.0,flower6.jpg,flower6_pair.jpg,left,AUBKB2XCGMMGQ
188,10,6.0,flower6.jpg,,,,,,,,,,,,AUBKB2XCGMMGQ
189,4,0.0,flower1.jpg,,,,12.0,left,1.0,8.528,0.0,flower1.jpg,flower1_pair.jpg,left,AWSG11RH1PY2I
190,5,1.0,flower2.jpg,,,,13.0,right,1.0,3.334,1.0,flower2_pair.jpg,flower2.jpg,right,AWSG11RH1PY2I
191,6,2.0,left.jpg,left,1.639,left,14.0,left,1.0,3.449,2.0,flower3.jpg,flower3_pair.jpg,left,AWSG11RH1PY2I
192,7,3.0,flower3.jpg,,,,15.0,right,0.0,5.857,3.0,flower4.jpg,flower4_pair.jpg,left,AWSG11RH1PY2I
193,8,4.0,flower4.jpg,,,,16.0,right,1.0,2.614,4.0,flower5_pair.jpg,flower5.jpg,right,AWSG11RH1PY2I
194,9,5.0,flower5.jpg,,,,17.0,left,1.0,4.445,5.0,flower6.jpg,flower6_pair.jpg,left,AWSG11RH1PY2I
195,10,6.0,flower6.jpg,,,,,,,,,,,,AWSG11RH1PY2I
