,index,test_encoding_response.keys,test_encoding_response.corr,trials.thisTrialN,target_image,pair,layer,correct,test_encoding_response.rt,key_resp_end.keys,subject
0,20,,1.0,0.0,2575964140-205050.jpg,2446760226-272005.jpg,3.0,,,,A10AKR84P1WXHL
1,21,,1.0,1.0,2238584869-113153.jpg,2981241419-145844.jpg,2.0,,,,A10AKR84P1WXHL
2,22,,1.0,2.0,2901939379-143479.jpg,2449443292-348022.jpg,2.0,,,,A10AKR84P1WXHL
3,23,,1.0,3.0,2452380166-273109.jpg,2238380901-236499.jpg,3.0,,,,A10AKR84P1WXHL
4,24,,1.0,4.0,2331570830-189984.jpg,2458348012-349114.jpg,3.0,,,,A10AKR84P1WXHL
5,25,,1.0,5.0,2898635427-367120.jpg,2901936309-143207.jpg,3.0,,,,A10AKR84P1WXHL
6,26,right,1.0,6.0,right.jpg,,,right,0.8689,,A10AKR84P1WXHL
7,27,,1.0,7.0,2964216465-219242.jpg,2512875796-274856.jpg,2.0,,,,A10AKR84P1WXHL
8,28,,1.0,8.0,2592380138-56727.jpg,2986419351-296471.jpg,1.0,,,,A10AKR84P1WXHL
9,29,,1.0,9.0,2238375302-311538.jpg,2592380255-205552.jpg,1.0,,,,A10AKR84P1WXHL
10,30,,1.0,10.0,2238429999-90218.jpg,2986448334-147157.jpg,1.0,,,,A10AKR84P1WXHL
11,31,,1.0,11.0,2274829821-263682.jpg,2862687442-360837.jpg,3.0,,,,A10AKR84P1WXHL
12,32,,1.0,12.0,2864906345-212360.jpg,2986397365-221133.jpg,1.0,,,,A10AKR84P1WXHL
13,33,,1.0,13.0,2446759803-49249.jpg,2238498786-244797.jpg,3.0,,,,A10AKR84P1WXHL
14,34,,1.0,14.0,2579432576-279079.jpg,2458348144-125787.jpg,3.0,,,,A10AKR84P1WXHL
15,35,,1.0,15.0,2238496457-319749.jpg,2238570142-333223.jpg,1.0,,,,A10AKR84P1WXHL
16,36,,1.0,16.0,2901938432-367627.jpg,2579432708-56394.jpg,1.0,,,,A10AKR84P1WXHL
17,37,,1.0,17.0,2238575092-334269.jpg,2592380285-205564.jpg,1.0,,,,A10AKR84P1WXHL
18,38,,1.0,18.0,2238129579-80916.jpg,2460547477-349426.jpg,1.0,,,,A10AKR84P1WXHL
19,39,,1.0,19.0,2238471391-240918.jpg,2868470400-212889.jpg,1.0,,,,A10AKR84P1WXHL
20,40,,1.0,20.0,2964224310-219527.jpg,2964213441-294073.jpg,2.0,,,,A10AKR84P1WXHL
21,41,,1.0,21.0,2883255450-215309.jpg,2238562336-256366.jpg,3.0,,,,A10AKR84P1WXHL
22,42,,1.0,22.0,2868485396-288511.jpg,2238380314-88261.jpg,3.0,,,,A10AKR84P1WXHL
23,43,,1.0,23.0,2238584018-38513.jpg,2898633321-291943.jpg,2.0,,,,A10AKR84P1WXHL
24,44,left,0.0,24.0,right.jpg,,,right,0.6106,,A10AKR84P1WXHL
25,45,,1.0,25.0,2883272438-68133.jpg,2901936369-143233.jpg,2.0,,,,A10AKR84P1WXHL
26,46,,1.0,26.0,2883254439-140940.jpg,2812983311-281946.jpg,3.0,,,,A10AKR84P1WXHL
27,47,left,1.0,27.0,left.jpg,,,left,1.127200001,,A10AKR84P1WXHL
28,48,,1.0,28.0,2446758985-197609.jpg,2984618344-146295.jpg,3.0,,,,A10AKR84P1WXHL
29,49,,1.0,29.0,2446760940-198145.jpg,2592380188-56743.jpg,2.0,,,,A10AKR84P1WXHL
30,50,,1.0,30.0,2986408352-371293.jpg,2446759580-197801.jpg,2.0,,,,A10AKR84P1WXHL
31,51,,1.0,31.0,2238499155-170911.jpg,2452380832-348593.jpg,2.0,,,,A10AKR84P1WXHL
32,52,,1.0,32.0,2449442529-124446.jpg,2238481610-168214.jpg,1.0,,,,A10AKR84P1WXHL
33,53,,1.0,33.0,2964218374-144968.jpg,2238411877-313125.jpg,1.0,,,,A10AKR84P1WXHL
34,54,,1.0,34.0,2898626385-216899.jpg,2449442365-198476.jpg,2.0,,,,A10AKR84P1WXHL
35,55,,1.0,35.0,2883254439-140941.jpg,2237965109-79314.jpg,2.0,,,,A10AKR84P1WXHL
36,56,,1.0,36.0,2862691449-137104.jpg,2986455341-296758.jpg,2.0,,,,A10AKR84P1WXHL
37,57,right,1.0,37.0,right.jpg,,,right,0.179700001,,A10AKR84P1WXHL
38,58,,1.0,38.0,2238126735-154721.jpg,2575122854-130480.jpg,2.0,,,,A10AKR84P1WXHL
39,59,,1.0,39.0,2964213381-294060.jpg,2238520921-248323.jpg,2.0,,,,A10AKR84P1WXHL
40,60,,1.0,40.0,2898617468-68274.jpg,2238585512-336576.jpg,2.0,,,,A10AKR84P1WXHL
41,61,,1.0,41.0,2898624426-291546.jpg,2986402377-371266.jpg,1.0,,,,A10AKR84P1WXHL
42,62,,1.0,42.0,2981231446-294731.jpg,2238568685-183597.jpg,2.0,,,,A10AKR84P1WXHL
43,63,,1.0,43.0,2446760524-123999.jpg,2446760621-272102.jpg,1.0,,,,A10AKR84P1WXHL
44,64,,1.0,44.0,2898632385-217138.jpg,2575120738-55529.jpg,1.0,,,,A10AKR84P1WXHL
45,65,,1.0,45.0,2238521193-26286.jpg,2825712309-134957.jpg,1.0,,,,A10AKR84P1WXHL
46,66,,1.0,46.0,2238550049-105691.jpg,2964219468-71238.jpg,3.0,,,,A10AKR84P1WXHL
47,67,,1.0,47.0,2901934573-69337.jpg,2901936407-367476.jpg,3.0,,,,A10AKR84P1WXHL
48,68,,1.0,48.0,2883255450-215311.jpg,2238481575-168208.jpg,1.0,,,,A10AKR84P1WXHL
49,69,,1.0,49.0,2460547467-349421.jpg,2238470079-92499.jpg,2.0,,,,A10AKR84P1WXHL
50,70,right,1.0,50.0,right.jpg,,,right,0.007299999,,A10AKR84P1WXHL
51,71,,1.0,51.0,2868475410-213219.jpg,2238436851-238821.jpg,3.0,,,,A10AKR84P1WXHL
52,72,,1.0,52.0,2898632385-217137.jpg,2864904453-63932.jpg,3.0,,,,A10AKR84P1WXHL
53,73,,1.0,53.0,2964213381-294061.jpg,2989721347-371917.jpg,3.0,,,,A10AKR84P1WXHL
54,74,,1.0,54.0,2986400320-221190.jpg,2989727350-222011.jpg,1.0,,,,A10AKR84P1WXHL
55,75,,1.0,55.0,2238480434-93829.jpg,2804906319-133082.jpg,1.0,,,,A10AKR84P1WXHL
56,76,,1.0,56.0,2898633480-217190.jpg,2237858043-1434.jpg,3.0,,,,A10AKR84P1WXHL
57,77,,1.0,57.0,2238561223-33794.jpg,2592380177-354626.jpg,2.0,,,,A10AKR84P1WXHL
58,78,,1.0,58.0,2864909447-362146.jpg,2874316384-140749.jpg,1.0,,,,A10AKR84P1WXHL
59,79,,1.0,59.0,2964209380-218956.jpg,2898631429-142736.jpg,2.0,,,,A10AKR84P1WXHL
60,80,,1.0,60.0,2512876023-52283.jpg,2864908323-64106.jpg,1.0,,,,A10AKR84P1WXHL
61,81,,1.0,61.0,2994405328-74628.jpg,2883273443-68192.jpg,3.0,,,,A10AKR84P1WXHL
62,82,,1.0,62.0,2238516618-25604.jpg,2238470979-92618.jpg,3.0,,,,A10AKR84P1WXHL
63,83,,1.0,63.0,2901941426-292805.jpg,2238510189-98616.jpg,2.0,,,,A10AKR84P1WXHL
64,84,,1.0,64.0,2625337302-355866.jpg,2598726160-205998.jpg,3.0,,,,A10AKR84P1WXHL
65,20,,1.0,0.0,2238471391-240918.jpg,2901943388-69995.jpg,2.0,,,,A14OQ52EFQAN2W
66,21,,1.0,1.0,2274829821-263682.jpg,2446758985-197610.jpg,2.0,,,,A14OQ52EFQAN2W
67,22,,1.0,2.0,2238561223-33794.jpg,2592380177-354626.jpg,2.0,,,,A14OQ52EFQAN2W
68,23,,1.0,3.0,2964218374-144968.jpg,2238521157-323782.jpg,2.0,,,,A14OQ52EFQAN2W
69,24,,1.0,4.0,2238584018-38513.jpg,2898633321-291943.jpg,2.0,,,,A14OQ52EFQAN2W
70,25,,1.0,5.0,2986408352-371293.jpg,2868488422-363713.jpg,1.0,,,,A14OQ52EFQAN2W
71,26,,1.0,6.0,2981231446-294731.jpg,2986450330-221526.jpg,1.0,,,,A14OQ52EFQAN2W
72,27,,1.0,7.0,2864909447-362146.jpg,2874316384-140749.jpg,1.0,,,,A14OQ52EFQAN2W
73,28,,1.0,8.0,2864906345-212360.jpg,2994403305-222559.jpg,3.0,,,,A14OQ52EFQAN2W
74,29,,1.0,9.0,2868485396-288511.jpg,2238380314-88261.jpg,3.0,,,,A14OQ52EFQAN2W
75,30,,1.0,10.0,2238499155-170911.jpg,2238373603-13733.jpg,3.0,,,,A14OQ52EFQAN2W
76,31,,1.0,11.0,2238575092-334269.jpg,2964218374-144967.jpg,3.0,,,,A14OQ52EFQAN2W
77,32,right,1.0,12.0,right.jpg,,,right,0.609,,A14OQ52EFQAN2W
78,33,,1.0,13.0,2238584869-113153.jpg,2981241419-145844.jpg,2.0,,,,A14OQ52EFQAN2W
79,34,,1.0,14.0,2449442529-124446.jpg,2864911339-138231.jpg,3.0,,,,A14OQ52EFQAN2W
80,35,,1.0,15.0,2238550049-105691.jpg,2238482972-317759.jpg,1.0,,,,A14OQ52EFQAN2W
81,36,,1.0,16.0,2238126735-154721.jpg,2901951430-218724.jpg,3.0,,,,A14OQ52EFQAN2W
82,37,,1.0,17.0,2625337302-355866.jpg,2598726160-205998.jpg,3.0,,,,A14OQ52EFQAN2W
83,38,,1.0,18.0,2986400320-221190.jpg,2238470979-92615.jpg,2.0,,,,A14OQ52EFQAN2W
84,39,,1.0,19.0,2446760940-198145.jpg,2592380188-56743.jpg,2.0,,,,A14OQ52EFQAN2W
85,40,left,1.0,20.0,left.jpg,,,left,1.1381,,A14OQ52EFQAN2W
86,41,,1.0,21.0,2964224310-219527.jpg,2964213441-294073.jpg,2.0,,,,A14OQ52EFQAN2W
87,42,,1.0,22.0,2994405328-74628.jpg,2825702353-60662.jpg,2.0,,,,A14OQ52EFQAN2W
88,43,,1.0,23.0,2331570830-189984.jpg,2446760483-49429.jpg,1.0,,,,A14OQ52EFQAN2W
89,44,,1.0,24.0,2898632385-217138.jpg,2273188118-40829.jpg,2.0,,,,A14OQ52EFQAN2W
90,45,,1.0,25.0,2883255450-215309.jpg,2868476439-138927.jpg,2.0,,,,A14OQ52EFQAN2W
91,46,,1.0,26.0,2460547467-349421.jpg,2901934573-69336.jpg,1.0,,,,A14OQ52EFQAN2W
92,47,,1.0,27.0,2898626385-216899.jpg,2989715328-73658.jpg,1.0,,,,A14OQ52EFQAN2W
93,48,,1.0,28.0,2901939379-143479.jpg,2449443292-348022.jpg,2.0,,,,A14OQ52EFQAN2W
94,49,,1.0,29.0,2901934573-69337.jpg,2901936407-367476.jpg,3.0,,,,A14OQ52EFQAN2W
95,50,left,1.0,30.0,left.jpg,,,left,1.1329,,A14OQ52EFQAN2W
96,51,,1.0,31.0,2512876023-52283.jpg,2864908323-64106.jpg,1.0,,,,A14OQ52EFQAN2W
97,52,,1.0,32.0,2901941426-292805.jpg,2868488422-363715.jpg,1.0,,,,A14OQ52EFQAN2W
98,53,,1.0,33.0,2883272438-68133.jpg,2901936369-143233.jpg,2.0,,,,A14OQ52EFQAN2W
99,54,,1.0,34.0,2579432576-279079.jpg,2446760226-272006.jpg,2.0,,,,A14OQ52EFQAN2W
100,55,,1.0,35.0,2575964140-205050.jpg,2446760226-272005.jpg,3.0,,,,A14OQ52EFQAN2W
101,56,,1.0,36.0,2883254439-140940.jpg,2452380166-273110.jpg,1.0,,,,A14OQ52EFQAN2W
102,57,,1.0,37.0,2898632385-217137.jpg,2864904453-63932.jpg,3.0,,,,A14OQ52EFQAN2W
103,58,,1.0,38.0,2238429999-90218.jpg,2964222378-71332.jpg,3.0,,,,A14OQ52EFQAN2W
104,59,,1.0,39.0,2238516618-25604.jpg,2238573549-110485.jpg,1.0,,,,A14OQ52EFQAN2W
105,60,right,1.0,40.0,right.jpg,,,right,1.0103,,A14OQ52EFQAN2W
106,61,,1.0,41.0,2446760524-123999.jpg,2238552469-106359.jpg,2.0,,,,A14OQ52EFQAN2W
107,62,,1.0,42.0,2964213381-294060.jpg,2898631359-142720.jpg,1.0,,,,A14OQ52EFQAN2W
108,63,,1.0,43.0,2898635427-367120.jpg,2238436632-314069.jpg,1.0,,,,A14OQ52EFQAN2W
109,64,,1.0,44.0,2446758985-197609.jpg,2984618344-146295.jpg,3.0,,,,A14OQ52EFQAN2W
110,65,,1.0,45.0,2238375302-311538.jpg,2592380049-131077.jpg,2.0,,,,A14OQ52EFQAN2W
111,66,,1.0,46.0,2452380166-273109.jpg,2452380171-273112.jpg,1.0,,,,A14OQ52EFQAN2W
112,67,,1.0,47.0,2862691449-137104.jpg,2986455341-296758.jpg,2.0,,,,A14OQ52EFQAN2W
113,68,right,1.0,48.0,right.jpg,,,right,0.4497,,A14OQ52EFQAN2W
114,69,,1.0,49.0,2883254439-140941.jpg,2989724308-73928.jpg,1.0,,,,A14OQ52EFQAN2W
115,70,,1.0,50.0,2964216465-219242.jpg,2446760917-347439.jpg,3.0,,,,A14OQ52EFQAN2W
116,71,,1.0,51.0,2868475410-213219.jpg,2238436851-238821.jpg,3.0,,,,A14OQ52EFQAN2W
117,72,,1.0,52.0,2964213381-294061.jpg,2981234334-145491.jpg,2.0,,,,A14OQ52EFQAN2W
118,73,,1.0,53.0,2883255450-215311.jpg,2238481575-168208.jpg,1.0,,,,A14OQ52EFQAN2W
119,74,,1.0,54.0,2238480434-93829.jpg,2804906319-133082.jpg,1.0,,,,A14OQ52EFQAN2W
120,75,,1.0,55.0,2964209380-218956.jpg,2898617396-291219.jpg,3.0,,,,A14OQ52EFQAN2W
121,76,,1.0,56.0,2901938432-367627.jpg,2856919327-359675.jpg,2.0,,,,A14OQ52EFQAN2W
122,77,,1.0,57.0,2898633480-217190.jpg,2237858043-1434.jpg,3.0,,,,A14OQ52EFQAN2W
123,78,,1.0,58.0,2898617468-68274.jpg,2862684406-285700.jpg,3.0,,,,A14OQ52EFQAN2W
124,79,,1.0,59.0,2898624426-291546.jpg,2986402377-371266.jpg,1.0,,,,A14OQ52EFQAN2W
125,80,,1.0,60.0,2238129579-80916.jpg,2238161924-82646.jpg,3.0,,,,A14OQ52EFQAN2W
126,81,,1.0,61.0,2238521193-26286.jpg,2446760306-272024.jpg,3.0,,,,A14OQ52EFQAN2W
127,82,,1.0,62.0,2446759803-49249.jpg,2592380177-354629.jpg,1.0,,,,A14OQ52EFQAN2W
128,83,,1.0,63.0,2592380138-56727.jpg,2238537701-251772.jpg,3.0,,,,A14OQ52EFQAN2W
129,84,,1.0,64.0,2238496457-319749.jpg,2238570142-333223.jpg,1.0,,,,A14OQ52EFQAN2W
130,20,,1.0,0.0,2238126735-154721.jpg,2575122854-130480.jpg,2.0,,,,A15V2JYNSMUREO
131,21,,1.0,1.0,2986408352-371293.jpg,2446759580-197801.jpg,2.0,,,,A15V2JYNSMUREO
132,22,,1.0,2.0,2964218374-144968.jpg,2238525773-27014.jpg,3.0,,,,A15V2JYNSMUREO
133,23,,1.0,3.0,2981231446-294731.jpg,2417207297-342139.jpg,3.0,,,,A15V2JYNSMUREO
134,24,,1.0,4.0,2238375302-311538.jpg,2592380255-205552.jpg,1.0,,,,A15V2JYNSMUREO
135,25,,1.0,5.0,2274829821-263682.jpg,2446758985-197610.jpg,2.0,,,,A15V2JYNSMUREO
136,26,,1.0,6.0,2883254439-140941.jpg,2989724308-73928.jpg,1.0,,,,A15V2JYNSMUREO
137,27,,1.0,7.0,2898632385-217138.jpg,2575120738-55529.jpg,1.0,,,,A15V2JYNSMUREO
138,28,,1.0,8.0,2901938432-367627.jpg,2424122568-45517.jpg,3.0,,,,A15V2JYNSMUREO
139,29,,1.0,9.0,2964213381-294060.jpg,2238520921-248323.jpg,2.0,,,,A15V2JYNSMUREO
140,30,left,1.0,10.0,left.jpg,,,left,1.27,,A15V2JYNSMUREO
141,31,,1.0,11.0,2898635427-367120.jpg,2238436632-314069.jpg,1.0,,,,A15V2JYNSMUREO
142,32,,1.0,12.0,2986400320-221190.jpg,2238470979-92615.jpg,2.0,,,,A15V2JYNSMUREO
143,33,,1.0,13.0,2592380138-56727.jpg,2430664847-345753.jpg,2.0,,,,A15V2JYNSMUREO
144,34,,1.0,14.0,2575964140-205050.jpg,2446760226-272005.jpg,3.0,,,,A15V2JYNSMUREO
145,35,,1.0,15.0,2901939379-143479.jpg,2864909422-362141.jpg,3.0,,,,A15V2JYNSMUREO
146,36,,1.0,16.0,2964209380-218956.jpg,2898617396-291219.jpg,3.0,,,,A15V2JYNSMUREO
147,37,,1.0,17.0,2864906345-212360.jpg,2994403305-222559.jpg,3.0,,,,A15V2JYNSMUREO
148,38,,1.0,18.0,2868485396-288511.jpg,2868472420-213024.jpg,2.0,,,,A15V2JYNSMUREO
149,39,,1.0,19.0,2964224310-219527.jpg,2238490590-169598.jpg,3.0,,,,A15V2JYNSMUREO
150,40,left,1.0,20.0,left.jpg,,,left,0.975,,A15V2JYNSMUREO
151,41,,1.0,21.0,2460547467-349421.jpg,2901934573-69336.jpg,1.0,,,,A15V2JYNSMUREO
152,42,,1.0,22.0,2994405328-74628.jpg,2883273443-68192.jpg,3.0,,,,A15V2JYNSMUREO
153,43,,1.0,23.0,2883255450-215311.jpg,2868485399-139476.jpg,2.0,,,,A15V2JYNSMUREO
154,44,,1.0,24.0,2446759803-49249.jpg,2238468265-166556.jpg,2.0,,,,A15V2JYNSMUREO
155,45,,1.0,25.0,2864909447-362146.jpg,2874316384-140749.jpg,1.0,,,,A15V2JYNSMUREO
156,46,,1.0,26.0,2446760940-198145.jpg,2449443300-198739.jpg,1.0,,,,A15V2JYNSMUREO
157,47,,1.0,27.0,2883272438-68133.jpg,2901936369-143233.jpg,2.0,,,,A15V2JYNSMUREO
158,48,left,1.0,28.0,left.jpg,,,left,0.961,,A15V2JYNSMUREO
159,49,,1.0,29.0,2331570830-189984.jpg,2446760483-49429.jpg,1.0,,,,A15V2JYNSMUREO
160,50,,1.0,30.0,2238584018-38513.jpg,2449443163-50093.jpg,1.0,,,,A15V2JYNSMUREO
161,51,,1.0,31.0,2238429999-90218.jpg,2901951459-144433.jpg,2.0,,,,A15V2JYNSMUREO
162,52,,1.0,32.0,2512876023-52283.jpg,2864908323-64106.jpg,1.0,,,,A15V2JYNSMUREO
163,53,,1.0,33.0,2238561223-33794.jpg,2592380177-354626.jpg,2.0,,,,A15V2JYNSMUREO
164,54,,1.0,34.0,2625337302-355866.jpg,2238478760-167789.jpg,2.0,,,,A15V2JYNSMUREO
165,55,,1.0,35.0,2238499155-170911.jpg,2238373603-13733.jpg,3.0,,,,A15V2JYNSMUREO
166,56,,1.0,36.0,2898626385-216899.jpg,2898618440-216545.jpg,3.0,,,,A15V2JYNSMUREO
167,57,,1.0,37.0,2449442529-124446.jpg,2864911339-138231.jpg,3.0,,,,A15V2JYNSMUREO
168,58,,1.0,38.0,2452380166-273109.jpg,2592379781-279345.jpg,2.0,,,,A15V2JYNSMUREO
169,59,,1.0,39.0,2964213381-294061.jpg,2238433340-164524.jpg,1.0,,,,A15V2JYNSMUREO
170,60,right,1.0,40.0,right.jpg,,,right,0.969,,A15V2JYNSMUREO
171,61,,1.0,41.0,2964216465-219242.jpg,2446760917-347439.jpg,3.0,,,,A15V2JYNSMUREO
172,62,,1.0,42.0,2898633480-217190.jpg,2446760147-347245.jpg,1.0,,,,A15V2JYNSMUREO
173,63,,1.0,43.0,2898617468-68274.jpg,2238585512-336576.jpg,2.0,,,,A15V2JYNSMUREO
174,64,,1.0,44.0,2883254439-140940.jpg,2575121890-204630.jpg,2.0,,,,A15V2JYNSMUREO
175,65,,1.0,45.0,2579432576-279079.jpg,2458348144-125787.jpg,3.0,,,,A15V2JYNSMUREO
176,66,,1.0,46.0,2238550049-105691.jpg,2964219468-71238.jpg,3.0,,,,A15V2JYNSMUREO
177,67,,1.0,47.0,2238584869-113153.jpg,2864901420-212147.jpg,1.0,,,,A15V2JYNSMUREO
178,68,,1.0,48.0,2238516618-25604.jpg,2238573549-110485.jpg,1.0,,,,A15V2JYNSMUREO
179,69,left,1.0,49.0,left.jpg,,,left,1.003,,A15V2JYNSMUREO
180,70,,1.0,50.0,2862691449-137104.jpg,2238540598-30035.jpg,1.0,,,,A15V2JYNSMUREO
181,71,,1.0,51.0,2446760524-123999.jpg,2238539138-29878.jpg,3.0,,,,A15V2JYNSMUREO
182,72,,1.0,52.0,2238496457-319749.jpg,2238570142-333223.jpg,1.0,,,,A15V2JYNSMUREO
183,73,,1.0,53.0,2901941426-292805.jpg,2238510189-98616.jpg,2.0,,,,A15V2JYNSMUREO
184,74,,1.0,54.0,2883255450-215309.jpg,2238562336-256366.jpg,3.0,,,,A15V2JYNSMUREO
185,75,,1.0,55.0,2238575092-334269.jpg,2860304305-210777.jpg,2.0,,,,A15V2JYNSMUREO
186,76,,1.0,56.0,2238471391-240918.jpg,2901943388-69995.jpg,2.0,,,,A15V2JYNSMUREO
187,77,,1.0,57.0,2898624426-291546.jpg,2986402377-371266.jpg,1.0,,,,A15V2JYNSMUREO
188,78,,1.0,58.0,2238480434-93829.jpg,2804906319-133082.jpg,1.0,,,,A15V2JYNSMUREO
189,79,,1.0,59.0,2446758985-197609.jpg,2898633421-291973.jpg,1.0,,,,A15V2JYNSMUREO
190,80,,1.0,60.0,2901934573-69337.jpg,2986401333-73218.jpg,1.0,,,,A15V2JYNSMUREO
191,81,,1.0,61.0,2898632385-217137.jpg,2864904453-63932.jpg,3.0,,,,A15V2JYNSMUREO
192,82,,1.0,62.0,2238521193-26286.jpg,2446760306-272024.jpg,3.0,,,,A15V2JYNSMUREO
193,83,,1.0,63.0,2238129579-80916.jpg,2238161924-82646.jpg,3.0,,,,A15V2JYNSMUREO
194,84,,1.0,64.0,2868475410-213219.jpg,2575964140-205051.jpg,2.0,,,,A15V2JYNSMUREO
195,20,,1.0,0.0,2625337302-355866.jpg,2425492472-343825.jpg,1.0,,,,A1BM11Y4W27OUR
196,21,,1.0,1.0,2898624426-291546.jpg,2864902304-137862.jpg,3.0,,,,A1BM11Y4W27OUR
197,22,,1.0,2.0,2238516618-25604.jpg,2238573549-110485.jpg,1.0,,,,A1BM11Y4W27OUR
198,23,,1.0,3.0,2238429999-90218.jpg,2901951459-144433.jpg,2.0,,,,A1BM11Y4W27OUR
199,24,,1.0,4.0,2238480434-93829.jpg,2238479903-19596.jpg,3.0,,,,A1BM11Y4W27OUR
200,25,,1.0,5.0,2883255450-215311.jpg,2868485399-139476.jpg,2.0,,,,A1BM11Y4W27OUR
201,26,,1.0,6.0,2238584869-113153.jpg,2981241419-145844.jpg,2.0,,,,A1BM11Y4W27OUR
202,27,,1.0,7.0,2862691449-137104.jpg,2238540598-30035.jpg,1.0,,,,A1BM11Y4W27OUR
203,28,left,1.0,8.0,left.jpg,,,left,1.478,,A1BM11Y4W27OUR
204,29,,1.0,9.0,2868475410-213219.jpg,2238216693-10721.jpg,1.0,,,,A1BM11Y4W27OUR
205,30,,1.0,10.0,2460547467-349421.jpg,2238554179-106663.jpg,3.0,,,,A1BM11Y4W27OUR
206,31,,1.0,11.0,2898633480-217190.jpg,2986450334-147216.jpg,2.0,,,,A1BM11Y4W27OUR
207,32,,1.0,12.0,2964224310-219527.jpg,2238490590-169598.jpg,3.0,,,,A1BM11Y4W27OUR
208,33,,1.0,13.0,2883255450-215309.jpg,2868476439-138927.jpg,2.0,,,,A1BM11Y4W27OUR
209,34,,1.0,14.0,2446758985-197609.jpg,2984618344-146295.jpg,3.0,,,,A1BM11Y4W27OUR
210,35,,1.0,15.0,2238561223-33794.jpg,2238506233-23904.jpg,1.0,,,,A1BM11Y4W27OUR
211,36,,1.0,16.0,2274829821-263682.jpg,2862687442-360837.jpg,3.0,,,,A1BM11Y4W27OUR
212,37,right,1.0,17.0,right.jpg,,,right,1.372,,A1BM11Y4W27OUR
213,38,,1.0,18.0,2986400320-221190.jpg,2238538133-29662.jpg,3.0,,,,A1BM11Y4W27OUR
214,39,,1.0,19.0,2964213381-294061.jpg,2981234334-145491.jpg,2.0,,,,A1BM11Y4W27OUR
215,40,,1.0,20.0,2446760940-198145.jpg,2449443300-198739.jpg,1.0,,,,A1BM11Y4W27OUR
216,41,,1.0,21.0,2238129579-80916.jpg,2460547477-349426.jpg,1.0,,,,A1BM11Y4W27OUR
217,42,,1.0,22.0,2512876023-52283.jpg,2898636443-69154.jpg,2.0,,,,A1BM11Y4W27OUR
218,43,,1.0,23.0,2868485396-288511.jpg,2868470456-287597.jpg,1.0,,,,A1BM11Y4W27OUR
219,44,,1.0,24.0,2592380138-56727.jpg,2430664847-345753.jpg,2.0,,,,A1BM11Y4W27OUR
220,45,,1.0,25.0,2898626385-216899.jpg,2449442365-198476.jpg,2.0,,,,A1BM11Y4W27OUR
221,46,,1.0,26.0,2898632385-217138.jpg,2460547992-349586.jpg,3.0,,,,A1BM11Y4W27OUR
222,47,,1.0,27.0,2964213381-294060.jpg,2238520921-248323.jpg,2.0,,,,A1BM11Y4W27OUR
223,48,,1.0,28.0,2446760524-123999.jpg,2446760621-272102.jpg,1.0,,,,A1BM11Y4W27OUR
224,49,,1.0,29.0,2449442529-124446.jpg,2864911339-138231.jpg,3.0,,,,A1BM11Y4W27OUR
225,50,,1.0,30.0,2964209380-218956.jpg,2868488456-288710.jpg,1.0,,,,A1BM11Y4W27OUR
226,51,right,1.0,31.0,right.jpg,,,right,1.207,,A1BM11Y4W27OUR
227,52,,1.0,32.0,2238499155-170911.jpg,2238373603-13733.jpg,3.0,,,,A1BM11Y4W27OUR
228,53,,1.0,33.0,2883272438-68133.jpg,2901936369-143233.jpg,2.0,,,,A1BM11Y4W27OUR
229,54,,1.0,34.0,2579432576-279079.jpg,2446760226-272006.jpg,2.0,,,,A1BM11Y4W27OUR
230,55,,1.0,35.0,2898632385-217137.jpg,2238360884-87525.jpg,1.0,,,,A1BM11Y4W27OUR
231,56,,1.0,36.0,2238126735-154721.jpg,2575122854-130480.jpg,2.0,,,,A1BM11Y4W27OUR
232,57,,1.0,37.0,2901941426-292805.jpg,2868488422-363715.jpg,1.0,,,,A1BM11Y4W27OUR
233,58,,1.0,38.0,2901934573-69337.jpg,2901936407-367476.jpg,3.0,,,,A1BM11Y4W27OUR
234,59,,1.0,39.0,2238496457-319749.jpg,2460547467-349422.jpg,3.0,,,,A1BM11Y4W27OUR
235,60,,1.0,40.0,2864909447-362146.jpg,2874303453-66056.jpg,3.0,,,,A1BM11Y4W27OUR
236,61,,1.0,41.0,2331570830-189984.jpg,2446760483-49429.jpg,1.0,,,,A1BM11Y4W27OUR
237,62,left,1.0,42.0,left.jpg,,,left,1.154,,A1BM11Y4W27OUR
238,63,,1.0,43.0,2238584018-38513.jpg,2898633321-291943.jpg,2.0,,,,A1BM11Y4W27OUR
239,64,,1.0,44.0,2238521193-26286.jpg,2874301437-363905.jpg,2.0,,,,A1BM11Y4W27OUR
240,65,,1.0,45.0,2238471391-240918.jpg,2868470400-212889.jpg,1.0,,,,A1BM11Y4W27OUR
241,66,,1.0,46.0,2452380166-273109.jpg,2452380171-273112.jpg,1.0,,,,A1BM11Y4W27OUR
242,67,,1.0,47.0,2238550049-105691.jpg,2449443271-272729.jpg,2.0,,,,A1BM11Y4W27OUR
243,68,,1.0,48.0,2898635427-367120.jpg,2901936309-143207.jpg,3.0,,,,A1BM11Y4W27OUR
244,69,,1.0,49.0,2238375302-311538.jpg,2592380255-205552.jpg,1.0,,,,A1BM11Y4W27OUR
245,70,,1.0,50.0,2964216465-219242.jpg,2446760917-347439.jpg,3.0,,,,A1BM11Y4W27OUR
246,71,,1.0,51.0,2901939379-143479.jpg,2864909422-362141.jpg,3.0,,,,A1BM11Y4W27OUR
247,72,left,1.0,52.0,left.jpg,,,left,1.336,,A1BM11Y4W27OUR
248,73,,1.0,53.0,2901938432-367627.jpg,2579432708-56394.jpg,1.0,,,,A1BM11Y4W27OUR
249,74,,1.0,54.0,2981231446-294731.jpg,2417207297-342139.jpg,3.0,,,,A1BM11Y4W27OUR
250,75,,1.0,55.0,2964218374-144968.jpg,2238411877-313125.jpg,1.0,,,,A1BM11Y4W27OUR
251,76,,1.0,56.0,2864906345-212360.jpg,2986397365-221133.jpg,1.0,,,,A1BM11Y4W27OUR
252,77,,1.0,57.0,2986408352-371293.jpg,2446759580-197801.jpg,2.0,,,,A1BM11Y4W27OUR
253,78,,1.0,58.0,2994405328-74628.jpg,2883273443-68192.jpg,3.0,,,,A1BM11Y4W27OUR
254,79,,1.0,59.0,2883254439-140941.jpg,2417207511-266975.jpg,3.0,,,,A1BM11Y4W27OUR
255,80,,1.0,60.0,2238575092-334269.jpg,2860304305-210777.jpg,2.0,,,,A1BM11Y4W27OUR
256,81,,1.0,61.0,2575964140-205050.jpg,2238547522-328488.jpg,2.0,,,,A1BM11Y4W27OUR
257,82,,1.0,62.0,2446759803-49249.jpg,2592380177-354629.jpg,1.0,,,,A1BM11Y4W27OUR
258,83,,1.0,63.0,2898617468-68274.jpg,2238585512-336576.jpg,2.0,,,,A1BM11Y4W27OUR
259,84,,1.0,64.0,2883254439-140940.jpg,2812983311-281946.jpg,3.0,,,,A1BM11Y4W27OUR
260,20,,1.0,0.0,2898635427-367120.jpg,2237941457-301342.jpg,2.0,,,,A1C3IJCMZ66VD2
261,21,,1.0,1.0,2625337302-355866.jpg,2425492472-343825.jpg,1.0,,,,A1C3IJCMZ66VD2
262,22,,1.0,2.0,2238516618-25604.jpg,2238573549-110485.jpg,1.0,,,,A1C3IJCMZ66VD2
263,23,,1.0,3.0,2238584869-113153.jpg,2864901420-212147.jpg,1.0,,,,A1C3IJCMZ66VD2
264,24,,1.0,4.0,2898626385-216899.jpg,2989715328-73658.jpg,1.0,,,,A1C3IJCMZ66VD2
265,25,,1.0,5.0,2981231446-294731.jpg,2238568685-183597.jpg,2.0,,,,A1C3IJCMZ66VD2
266,26,right,1.0,6.0,right.jpg,,,right,2.168,,A1C3IJCMZ66VD2
267,27,,1.0,7.0,2994405328-74628.jpg,2825702353-60662.jpg,2.0,,,,A1C3IJCMZ66VD2
268,28,,1.0,8.0,2238129579-80916.jpg,2460547477-349426.jpg,1.0,,,,A1C3IJCMZ66VD2
269,29,,1.0,9.0,2898624426-291546.jpg,2549106844-127878.jpg,2.0,,,,A1C3IJCMZ66VD2
270,30,,1.0,10.0,2452380166-273109.jpg,2238380901-236499.jpg,3.0,,,,A1C3IJCMZ66VD2
271,31,,1.0,11.0,2238480434-93829.jpg,2592380255-205551.jpg,2.0,,,,A1C3IJCMZ66VD2
272,32,,1.0,12.0,2238521193-26286.jpg,2825712309-134957.jpg,1.0,,,,A1C3IJCMZ66VD2
273,33,,1.0,13.0,2883255450-215309.jpg,2238562336-256366.jpg,3.0,,,,A1C3IJCMZ66VD2
274,34,,1.0,14.0,2460547467-349421.jpg,2901934573-69336.jpg,1.0,,,,A1C3IJCMZ66VD2
275,35,,1.0,15.0,2986408352-371293.jpg,2868488422-363713.jpg,1.0,,,,A1C3IJCMZ66VD2
276,36,,1.0,16.0,2862691449-137104.jpg,2238328478-11678.jpg,3.0,,,,A1C3IJCMZ66VD2
277,37,,1.0,17.0,2238429999-90218.jpg,2901951459-144433.jpg,2.0,,,,A1C3IJCMZ66VD2
278,38,,1.0,18.0,2331570830-189984.jpg,2446760483-49429.jpg,1.0,,,,A1C3IJCMZ66VD2
279,39,left,1.0,19.0,left.jpg,,,left,1.705,,A1C3IJCMZ66VD2
280,40,,1.0,20.0,2238550049-105691.jpg,2964219468-71238.jpg,3.0,,,,A1C3IJCMZ66VD2
281,41,,1.0,21.0,2883254439-140940.jpg,2452380166-273110.jpg,1.0,,,,A1C3IJCMZ66VD2
282,42,,1.0,22.0,2898633480-217190.jpg,2237858043-1434.jpg,3.0,,,,A1C3IJCMZ66VD2
283,43,,1.0,23.0,2883272438-68133.jpg,2901936369-143233.jpg,2.0,,,,A1C3IJCMZ66VD2
284,44,,1.0,24.0,2901941426-292805.jpg,2868488422-363715.jpg,1.0,,,,A1C3IJCMZ66VD2
285,45,,1.0,25.0,2868485396-288511.jpg,2868472420-213024.jpg,2.0,,,,A1C3IJCMZ66VD2
286,46,,1.0,26.0,2883255450-215311.jpg,2575964014-130589.jpg,3.0,,,,A1C3IJCMZ66VD2
287,47,,1.0,27.0,2274829821-263682.jpg,2862687442-360837.jpg,3.0,,,,A1C3IJCMZ66VD2
288,48,,1.0,28.0,2238375302-311538.jpg,2460547508-51571.jpg,3.0,,,,A1C3IJCMZ66VD2
289,49,,1.0,29.0,2901939379-143479.jpg,2449443292-348022.jpg,2.0,,,,A1C3IJCMZ66VD2
290,50,,1.0,30.0,2238471391-240918.jpg,2986399339-146857.jpg,3.0,,,,A1C3IJCMZ66VD2
291,51,,1.0,31.0,2238575092-334269.jpg,2860304305-210777.jpg,2.0,,,,A1C3IJCMZ66VD2
292,52,left,1.0,32.0,left.jpg,,,left,1.836,,A1C3IJCMZ66VD2
293,53,,1.0,33.0,2449442529-124446.jpg,2238481610-168214.jpg,1.0,,,,A1C3IJCMZ66VD2
294,54,,1.0,34.0,2238561223-33794.jpg,2592380177-354626.jpg,2.0,,,,A1C3IJCMZ66VD2
295,55,,1.0,35.0,2512876023-52283.jpg,2864908323-64106.jpg,1.0,,,,A1C3IJCMZ66VD2
296,56,,1.0,36.0,2446758985-197609.jpg,2898633421-291973.jpg,1.0,,,,A1C3IJCMZ66VD2
297,57,,1.0,37.0,2238496457-319749.jpg,2592380234-131135.jpg,2.0,,,,A1C3IJCMZ66VD2
298,58,,1.0,38.0,2964218374-144968.jpg,2238411877-313125.jpg,1.0,,,,A1C3IJCMZ66VD2
299,59,,1.0,39.0,2964209380-218956.jpg,2868488456-288710.jpg,1.0,,,,A1C3IJCMZ66VD2
300,60,,1.0,40.0,2964213381-294060.jpg,2238520921-248323.jpg,2.0,,,,A1C3IJCMZ66VD2
301,61,,1.0,41.0,2868475410-213219.jpg,2238436851-238821.jpg,3.0,,,,A1C3IJCMZ66VD2
302,62,,1.0,42.0,2898617468-68274.jpg,2238585512-336576.jpg,2.0,,,,A1C3IJCMZ66VD2
303,63,,1.0,43.0,2864909447-362146.jpg,2874303453-66056.jpg,3.0,,,,A1C3IJCMZ66VD2
304,64,left,1.0,44.0,left.jpg,,,left,1.596,,A1C3IJCMZ66VD2
305,65,,1.0,45.0,2898632385-217138.jpg,2273188118-40829.jpg,2.0,,,,A1C3IJCMZ66VD2
306,66,,1.0,46.0,2238584018-38513.jpg,2898633321-291943.jpg,2.0,,,,A1C3IJCMZ66VD2
307,67,,1.0,47.0,2898632385-217137.jpg,2864904453-63932.jpg,3.0,,,,A1C3IJCMZ66VD2
308,68,,1.0,48.0,2575964140-205050.jpg,2238547522-328488.jpg,2.0,,,,A1C3IJCMZ66VD2
309,69,,1.0,49.0,2964224310-219527.jpg,2238380178-14011.jpg,1.0,,,,A1C3IJCMZ66VD2
310,70,,1.0,50.0,2883254439-140941.jpg,2237965109-79314.jpg,2.0,,,,A1C3IJCMZ66VD2
311,71,,1.0,51.0,2864906345-212360.jpg,2986397365-221133.jpg,1.0,,,,A1C3IJCMZ66VD2
312,72,,1.0,52.0,2964213381-294061.jpg,2238433340-164524.jpg,1.0,,,,A1C3IJCMZ66VD2
313,73,,1.0,53.0,2579432576-279079.jpg,2446760226-272006.jpg,2.0,,,,A1C3IJCMZ66VD2
314,74,right,1.0,54.0,right.jpg,,,right,1.673,,A1C3IJCMZ66VD2
315,75,,1.0,55.0,2592380138-56727.jpg,2986419351-296471.jpg,1.0,,,,A1C3IJCMZ66VD2
316,76,,1.0,56.0,2446760940-198145.jpg,2446760692-347392.jpg,3.0,,,,A1C3IJCMZ66VD2
317,77,,1.0,57.0,2901934573-69337.jpg,2238345946-235007.jpg,2.0,,,,A1C3IJCMZ66VD2
318,78,,1.0,58.0,2901938432-367627.jpg,2424122568-45517.jpg,3.0,,,,A1C3IJCMZ66VD2
319,79,,1.0,59.0,2238499155-170911.jpg,2238373603-13733.jpg,3.0,,,,A1C3IJCMZ66VD2
320,80,,1.0,60.0,2986400320-221190.jpg,2238538133-29662.jpg,3.0,,,,A1C3IJCMZ66VD2
321,81,,1.0,61.0,2446760524-123999.jpg,2238539138-29878.jpg,3.0,,,,A1C3IJCMZ66VD2
322,82,,1.0,62.0,2964216465-219242.jpg,2446760917-347439.jpg,3.0,,,,A1C3IJCMZ66VD2
323,83,,1.0,63.0,2238126735-154721.jpg,2901951430-218724.jpg,3.0,,,,A1C3IJCMZ66VD2
324,84,,1.0,64.0,2446759803-49249.jpg,2238498786-244797.jpg,3.0,,,,A1C3IJCMZ66VD2
325,20,,1.0,0.0,2898633480-217190.jpg,2446760147-347245.jpg,1.0,,,,A1C4TOGS0NS8K9
326,21,,1.0,1.0,2964213381-294061.jpg,2238433340-164524.jpg,1.0,,,,A1C4TOGS0NS8K9
327,22,,1.0,2.0,2964224310-219527.jpg,2238490590-169598.jpg,3.0,,,,A1C4TOGS0NS8K9
328,23,,1.0,3.0,2446760524-123999.jpg,2446760621-272102.jpg,1.0,,,,A1C4TOGS0NS8K9
329,24,,1.0,4.0,2994405328-74628.jpg,2825702353-60662.jpg,2.0,,,,A1C4TOGS0NS8K9
330,25,,1.0,5.0,2864906345-212360.jpg,2986397365-221133.jpg,1.0,,,,A1C4TOGS0NS8K9
331,26,,1.0,6.0,2883272438-68133.jpg,2237949408-4018.jpg,1.0,,,,A1C4TOGS0NS8K9
332,27,,1.0,7.0,2862691449-137104.jpg,2986455341-296758.jpg,2.0,,,,A1C4TOGS0NS8K9
333,28,left,1.0,8.0,left.jpg,,,left,1.580799999,,A1C4TOGS0NS8K9
334,29,,1.0,9.0,2898632385-217137.jpg,2238480803-19739.jpg,2.0,,,,A1C4TOGS0NS8K9
335,30,,1.0,10.0,2579432576-279079.jpg,2901934574-143126.jpg,1.0,,,,A1C4TOGS0NS8K9
336,31,,1.0,11.0,2238550049-105691.jpg,2964219468-71238.jpg,3.0,,,,A1C4TOGS0NS8K9
337,32,,1.0,12.0,2898632385-217138.jpg,2273188118-40829.jpg,2.0,,,,A1C4TOGS0NS8K9
338,33,,1.0,13.0,2901941426-292805.jpg,2901945303-70125.jpg,3.0,,,,A1C4TOGS0NS8K9
339,34,,1.0,14.0,2238575092-334269.jpg,2860304305-210777.jpg,2.0,,,,A1C4TOGS0NS8K9
340,35,,1.0,15.0,2901938432-367627.jpg,2579432708-56394.jpg,1.0,,,,A1C4TOGS0NS8K9
341,36,,1.0,16.0,2868485396-288511.jpg,2868470456-287597.jpg,1.0,,,,A1C4TOGS0NS8K9
342,37,,1.0,17.0,2883254439-140941.jpg,2989724308-73928.jpg,1.0,,,,A1C4TOGS0NS8K9
343,38,,1.0,18.0,2274829821-263682.jpg,2238570526-257884.jpg,1.0,,,,A1C4TOGS0NS8K9
344,39,left,1.0,19.0,left.jpg,,,left,1.440800001,,A1C4TOGS0NS8K9
345,40,,1.0,20.0,2238480434-93829.jpg,2238479903-19596.jpg,3.0,,,,A1C4TOGS0NS8K9
346,41,,1.0,21.0,2883255450-215309.jpg,2868476439-138927.jpg,2.0,,,,A1C4TOGS0NS8K9
347,42,,1.0,22.0,2898626385-216899.jpg,2898618440-216545.jpg,3.0,,,,A1C4TOGS0NS8K9
348,43,,1.0,23.0,2449442529-124446.jpg,2864911339-138231.jpg,3.0,,,,A1C4TOGS0NS8K9
349,44,,1.0,24.0,2238429999-90218.jpg,2964222378-71332.jpg,3.0,,,,A1C4TOGS0NS8K9
350,45,,1.0,25.0,2238584018-38513.jpg,2898633321-291943.jpg,2.0,,,,A1C4TOGS0NS8K9
351,46,,1.0,26.0,2898624426-291546.jpg,2986402377-371266.jpg,1.0,,,,A1C4TOGS0NS8K9
352,47,left,1.0,27.0,left.jpg,,,left,1.441199999,,A1C4TOGS0NS8K9
353,48,,1.0,28.0,2981231446-294731.jpg,2238568685-183597.jpg,2.0,,,,A1C4TOGS0NS8K9
354,49,,1.0,29.0,2446759803-49249.jpg,2592380177-354629.jpg,1.0,,,,A1C4TOGS0NS8K9
355,50,,1.0,30.0,2964216465-219242.jpg,2512875796-274856.jpg,2.0,,,,A1C4TOGS0NS8K9
356,51,,1.0,31.0,2238516618-25604.jpg,2862686459-136888.jpg,2.0,,,,A1C4TOGS0NS8K9
357,52,,1.0,32.0,2986408352-371293.jpg,2856916345-210056.jpg,3.0,,,,A1C4TOGS0NS8K9
358,53,,1.0,33.0,2238521193-26286.jpg,2446760306-272024.jpg,3.0,,,,A1C4TOGS0NS8K9
359,54,,1.0,34.0,2898635427-367120.jpg,2237941457-301342.jpg,2.0,,,,A1C4TOGS0NS8K9
360,55,,1.0,35.0,2238471391-240918.jpg,2986399339-146857.jpg,3.0,,,,A1C4TOGS0NS8K9
361,56,,1.0,36.0,2238561223-33794.jpg,2883271323-68049.jpg,3.0,,,,A1C4TOGS0NS8K9
362,57,,1.0,37.0,2883255450-215311.jpg,2868485399-139476.jpg,2.0,,,,A1C4TOGS0NS8K9
363,58,,1.0,38.0,2238126735-154721.jpg,2575122854-130480.jpg,2.0,,,,A1C4TOGS0NS8K9
364,59,,1.0,39.0,2452380166-273109.jpg,2452380171-273112.jpg,1.0,,,,A1C4TOGS0NS8K9
365,60,,1.0,40.0,2238496457-319749.jpg,2460547467-349422.jpg,3.0,,,,A1C4TOGS0NS8K9
366,61,,1.0,41.0,2460547467-349421.jpg,2901934573-69336.jpg,1.0,,,,A1C4TOGS0NS8K9
367,62,,1.0,42.0,2625337302-355866.jpg,2598726160-205998.jpg,3.0,,,,A1C4TOGS0NS8K9
368,63,,1.0,43.0,2898617468-68274.jpg,2238585512-336576.jpg,2.0,,,,A1C4TOGS0NS8K9
369,64,right,1.0,44.0,right.jpg,,,right,1.5086,,A1C4TOGS0NS8K9
370,65,,1.0,45.0,2446758985-197609.jpg,2984618344-146295.jpg,3.0,,,,A1C4TOGS0NS8K9
371,66,,1.0,46.0,2238499155-170911.jpg,2446760621-272103.jpg,1.0,,,,A1C4TOGS0NS8K9
372,67,,1.0,47.0,2901939379-143479.jpg,2864909422-362141.jpg,3.0,,,,A1C4TOGS0NS8K9
373,68,,1.0,48.0,2964218374-144968.jpg,2238525773-27014.jpg,3.0,,,,A1C4TOGS0NS8K9
374,69,,1.0,49.0,2868475410-213219.jpg,2238436851-238821.jpg,3.0,,,,A1C4TOGS0NS8K9
375,70,,1.0,50.0,2964209380-218956.jpg,2868488456-288710.jpg,1.0,,,,A1C4TOGS0NS8K9
376,71,,1.0,51.0,2575964140-205050.jpg,2238482920-168428.jpg,1.0,,,,A1C4TOGS0NS8K9
377,72,,1.0,52.0,2238129579-80916.jpg,2898618444-142233.jpg,2.0,,,,A1C4TOGS0NS8K9
378,73,,1.0,53.0,2446760940-198145.jpg,2446760692-347392.jpg,3.0,,,,A1C4TOGS0NS8K9
379,74,left,1.0,54.0,left.jpg,,,left,1.709700001,,A1C4TOGS0NS8K9
380,75,,1.0,55.0,2238375302-311538.jpg,2592380049-131077.jpg,2.0,,,,A1C4TOGS0NS8K9
381,76,,1.0,56.0,2238584869-113153.jpg,2986455373-73646.jpg,3.0,,,,A1C4TOGS0NS8K9
382,77,,1.0,57.0,2864909447-362146.jpg,2874316384-140749.jpg,1.0,,,,A1C4TOGS0NS8K9
383,78,,1.0,58.0,2901934573-69337.jpg,2238345946-235007.jpg,2.0,,,,A1C4TOGS0NS8K9
384,79,,1.0,59.0,2331570830-189984.jpg,2449442529-124445.jpg,2.0,,,,A1C4TOGS0NS8K9
385,80,,1.0,60.0,2592380138-56727.jpg,2986419351-296471.jpg,1.0,,,,A1C4TOGS0NS8K9
386,81,,1.0,61.0,2986400320-221190.jpg,2238470979-92615.jpg,2.0,,,,A1C4TOGS0NS8K9
387,82,,1.0,62.0,2964213381-294060.jpg,2898631359-142720.jpg,1.0,,,,A1C4TOGS0NS8K9
388,83,,1.0,63.0,2512876023-52283.jpg,2238576267-334532.jpg,3.0,,,,A1C4TOGS0NS8K9
389,84,,1.0,64.0,2883254439-140940.jpg,2575121890-204630.jpg,2.0,,,,A1C4TOGS0NS8K9
390,20,,1.0,0.0,2883272438-68133.jpg,2901936369-143233.jpg,2.0,,,,A1FJGB5JLZ81XB
391,21,,1.0,1.0,2579432576-279079.jpg,2446760226-272006.jpg,2.0,,,,A1FJGB5JLZ81XB
392,22,,1.0,2.0,2986400320-221190.jpg,2238538133-29662.jpg,3.0,,,,A1FJGB5JLZ81XB
393,23,,1.0,3.0,2964224310-219527.jpg,2964213441-294073.jpg,2.0,,,,A1FJGB5JLZ81XB
394,24,,1.0,4.0,2864909447-362146.jpg,2874316384-140749.jpg,1.0,,,,A1FJGB5JLZ81XB
395,25,,1.0,5.0,2868485396-288511.jpg,2238380314-88261.jpg,3.0,,,,A1FJGB5JLZ81XB
396,26,,1.0,6.0,2964216465-219242.jpg,2592380049-131079.jpg,1.0,,,,A1FJGB5JLZ81XB
397,27,,1.0,7.0,2868475410-213219.jpg,2575964140-205051.jpg,2.0,,,,A1FJGB5JLZ81XB
398,28,right,1.0,8.0,right.jpg,,,right,1.8899,,A1FJGB5JLZ81XB
399,29,,1.0,9.0,2862691449-137104.jpg,2238328478-11678.jpg,3.0,,,,A1FJGB5JLZ81XB
400,30,,1.0,10.0,2981231446-294731.jpg,2986450330-221526.jpg,1.0,,,,A1FJGB5JLZ81XB
401,31,,1.0,11.0,2238516618-25604.jpg,2238573549-110485.jpg,1.0,,,,A1FJGB5JLZ81XB
402,32,,1.0,12.0,2460547467-349421.jpg,2238470079-92499.jpg,2.0,,,,A1FJGB5JLZ81XB
403,33,,1.0,13.0,2901939379-143479.jpg,2986450334-147215.jpg,1.0,,,,A1FJGB5JLZ81XB
404,34,,1.0,14.0,2994405328-74628.jpg,2825702353-60662.jpg,2.0,,,,A1FJGB5JLZ81XB
405,35,,1.0,15.0,2575964140-205050.jpg,2446760226-272005.jpg,3.0,,,,A1FJGB5JLZ81XB
406,36,,1.0,16.0,2901934573-69337.jpg,2986401333-73218.jpg,1.0,,,,A1FJGB5JLZ81XB
407,37,left,1.0,17.0,left.jpg,,,left,1.0894,,A1FJGB5JLZ81XB
408,38,,1.0,18.0,2512876023-52283.jpg,2864908323-64106.jpg,1.0,,,,A1FJGB5JLZ81XB
409,39,,1.0,19.0,2964213381-294060.jpg,2898631359-142720.jpg,1.0,,,,A1FJGB5JLZ81XB
410,40,,1.0,20.0,2274829821-263682.jpg,2862687442-360837.jpg,3.0,,,,A1FJGB5JLZ81XB
411,41,,1.0,21.0,2331570830-189984.jpg,2458348012-349114.jpg,3.0,,,,A1FJGB5JLZ81XB
412,42,,1.0,22.0,2901941426-292805.jpg,2238510189-98616.jpg,2.0,,,,A1FJGB5JLZ81XB
413,43,,1.0,23.0,2238480434-93829.jpg,2592380255-205551.jpg,2.0,,,,A1FJGB5JLZ81XB
414,44,,1.0,24.0,2864906345-212360.jpg,2986397365-221133.jpg,1.0,,,,A1FJGB5JLZ81XB
415,45,,1.0,25.0,2898626385-216899.jpg,2898618440-216545.jpg,3.0,,,,A1FJGB5JLZ81XB
416,46,right,1.0,26.0,right.jpg,,,right,1.0426,,A1FJGB5JLZ81XB
417,47,,1.0,27.0,2898617468-68274.jpg,2512875899-126682.jpg,1.0,,,,A1FJGB5JLZ81XB
418,48,,1.0,28.0,2883254439-140940.jpg,2575121890-204630.jpg,2.0,,,,A1FJGB5JLZ81XB
419,49,,1.0,29.0,2592380138-56727.jpg,2986419351-296471.jpg,1.0,,,,A1FJGB5JLZ81XB
420,50,,1.0,30.0,2625337302-355866.jpg,2238478760-167789.jpg,2.0,,,,A1FJGB5JLZ81XB
421,51,,1.0,31.0,2238126735-154721.jpg,2856919327-359676.jpg,1.0,,,,A1FJGB5JLZ81XB
422,52,,1.0,32.0,2901938432-367627.jpg,2579432708-56394.jpg,1.0,,,,A1FJGB5JLZ81XB
423,53,,1.0,33.0,2238561223-33794.jpg,2592380177-354626.jpg,2.0,,,,A1FJGB5JLZ81XB
424,54,,1.0,34.0,2446760940-198145.jpg,2446760692-347392.jpg,3.0,,,,A1FJGB5JLZ81XB
425,55,,1.0,35.0,2446760524-123999.jpg,2238552469-106359.jpg,2.0,,,,A1FJGB5JLZ81XB
426,56,,1.0,36.0,2898632385-217138.jpg,2575120738-55529.jpg,1.0,,,,A1FJGB5JLZ81XB
427,57,,1.0,37.0,2883255450-215311.jpg,2868485399-139476.jpg,2.0,,,,A1FJGB5JLZ81XB
428,58,,1.0,38.0,2898635427-367120.jpg,2237941457-301342.jpg,2.0,,,,A1FJGB5JLZ81XB
429,59,,1.0,39.0,2238521193-26286.jpg,2825712309-134957.jpg,1.0,,,,A1FJGB5JLZ81XB
430,60,right,1.0,40.0,right.jpg,,,right,1.1343,,A1FJGB5JLZ81XB
431,61,,1.0,41.0,2964213381-294061.jpg,2981234334-145491.jpg,2.0,,,,A1FJGB5JLZ81XB
432,62,,1.0,42.0,2238575092-334269.jpg,2964218374-144967.jpg,3.0,,,,A1FJGB5JLZ81XB
433,63,,1.0,43.0,2238584018-38513.jpg,2452381442-348755.jpg,3.0,,,,A1FJGB5JLZ81XB
434,64,,1.0,44.0,2452380166-273109.jpg,2452380171-273112.jpg,1.0,,,,A1FJGB5JLZ81XB
435,65,,1.0,45.0,2898624426-291546.jpg,2549106844-127878.jpg,2.0,,,,A1FJGB5JLZ81XB
436,66,,1.0,46.0,2898633480-217190.jpg,2237858043-1434.jpg,3.0,,,,A1FJGB5JLZ81XB
437,67,,1.0,47.0,2238550049-105691.jpg,2964219468-71238.jpg,3.0,,,,A1FJGB5JLZ81XB
438,68,,1.0,48.0,2238129579-80916.jpg,2460547477-349426.jpg,1.0,,,,A1FJGB5JLZ81XB
439,69,,1.0,49.0,2238499155-170911.jpg,2238373603-13733.jpg,3.0,,,,A1FJGB5JLZ81XB
440,70,right,1.0,50.0,right.jpg,,,right,0.9465,,A1FJGB5JLZ81XB
441,71,,1.0,51.0,2964209380-218956.jpg,2898617396-291219.jpg,3.0,,,,A1FJGB5JLZ81XB
442,72,,1.0,52.0,2449442529-124446.jpg,2868469458-64561.jpg,2.0,,,,A1FJGB5JLZ81XB
443,73,,1.0,53.0,2238471391-240918.jpg,2868470400-212889.jpg,1.0,,,,A1FJGB5JLZ81XB
444,74,,1.0,54.0,2964218374-144968.jpg,2238525773-27014.jpg,3.0,,,,A1FJGB5JLZ81XB
445,75,,1.0,55.0,2238375302-311538.jpg,2460547508-51571.jpg,3.0,,,,A1FJGB5JLZ81XB
446,76,,1.0,56.0,2986408352-371293.jpg,2446759580-197801.jpg,2.0,,,,A1FJGB5JLZ81XB
447,77,,1.0,57.0,2883254439-140941.jpg,2989724308-73928.jpg,1.0,,,,A1FJGB5JLZ81XB
448,78,,1.0,58.0,2238584869-113153.jpg,2986455373-73646.jpg,3.0,,,,A1FJGB5JLZ81XB
449,79,,1.0,59.0,2446758985-197609.jpg,2984618344-146295.jpg,3.0,,,,A1FJGB5JLZ81XB
450,80,,1.0,60.0,2898632385-217137.jpg,2864904453-63932.jpg,3.0,,,,A1FJGB5JLZ81XB
451,81,,1.0,61.0,2446759803-49249.jpg,2592380177-354629.jpg,1.0,,,,A1FJGB5JLZ81XB
452,82,,1.0,62.0,2238429999-90218.jpg,2964222378-71332.jpg,3.0,,,,A1FJGB5JLZ81XB
453,83,,1.0,63.0,2238496457-319749.jpg,2592380234-131135.jpg,2.0,,,,A1FJGB5JLZ81XB
454,84,,1.0,64.0,2883255450-215309.jpg,2868476439-138927.jpg,2.0,,,,A1FJGB5JLZ81XB
455,20,,1.0,0.0,2901934573-69337.jpg,2238345946-235007.jpg,2.0,,,,A1O7XFRTZ46PN5
456,21,,1.0,1.0,2460547467-349421.jpg,2238554179-106663.jpg,3.0,,,,A1O7XFRTZ46PN5
457,22,,1.0,2.0,2446760524-123999.jpg,2238552469-106359.jpg,2.0,,,,A1O7XFRTZ46PN5
458,23,,1.0,3.0,2898633480-217190.jpg,2446760147-347245.jpg,1.0,,,,A1O7XFRTZ46PN5
459,24,,1.0,4.0,2238561223-33794.jpg,2592380177-354626.jpg,2.0,,,,A1O7XFRTZ46PN5
460,25,,1.0,5.0,2452380166-273109.jpg,2452380171-273112.jpg,1.0,,,,A1O7XFRTZ46PN5
461,26,,1.0,6.0,2883254439-140941.jpg,2989724308-73928.jpg,1.0,,,,A1O7XFRTZ46PN5
462,27,,1.0,7.0,2868475410-213219.jpg,2238216693-10721.jpg,1.0,,,,A1O7XFRTZ46PN5
463,28,,1.0,8.0,2446760940-198145.jpg,2449443300-198739.jpg,1.0,,,,A1O7XFRTZ46PN5
464,29,,1.0,9.0,2592380138-56727.jpg,2430664847-345753.jpg,2.0,,,,A1O7XFRTZ46PN5
465,30,right,1.0,10.0,right.jpg,,,right,1.346,,A1O7XFRTZ46PN5
466,31,,1.0,11.0,2883255450-215311.jpg,2868485399-139476.jpg,2.0,,,,A1O7XFRTZ46PN5
467,32,,1.0,12.0,2964209380-218956.jpg,2868488456-288710.jpg,1.0,,,,A1O7XFRTZ46PN5
468,33,,1.0,13.0,2883272438-68133.jpg,2592380136-279476.jpg,3.0,,,,A1O7XFRTZ46PN5
469,34,,1.0,14.0,2883254439-140940.jpg,2452380166-273110.jpg,1.0,,,,A1O7XFRTZ46PN5
470,35,,1.0,15.0,2964224310-219527.jpg,2964213441-294073.jpg,2.0,,,,A1O7XFRTZ46PN5
471,36,,1.0,16.0,2868485396-288511.jpg,2868470456-287597.jpg,1.0,,,,A1O7XFRTZ46PN5
472,37,,1.0,17.0,2898626385-216899.jpg,2449442365-198476.jpg,2.0,,,,A1O7XFRTZ46PN5
473,38,right,1.0,18.0,right.jpg,,,right,0.895,,A1O7XFRTZ46PN5
474,39,,1.0,19.0,2238516618-25604.jpg,2238470979-92618.jpg,3.0,,,,A1O7XFRTZ46PN5
475,40,,1.0,20.0,2238429999-90218.jpg,2964222378-71332.jpg,3.0,,,,A1O7XFRTZ46PN5
476,41,,1.0,21.0,2964213381-294061.jpg,2989721347-371917.jpg,3.0,,,,A1O7XFRTZ46PN5
477,42,,1.0,22.0,2883255450-215309.jpg,2238429999-90216.jpg,1.0,,,,A1O7XFRTZ46PN5
478,43,,1.0,23.0,2862691449-137104.jpg,2238328478-11678.jpg,3.0,,,,A1O7XFRTZ46PN5
479,44,,1.0,24.0,2238521193-26286.jpg,2874301437-363905.jpg,2.0,,,,A1O7XFRTZ46PN5
480,45,,1.0,25.0,2901938432-367627.jpg,2424122568-45517.jpg,3.0,,,,A1O7XFRTZ46PN5
481,46,,1.0,26.0,2898635427-367120.jpg,2237941457-301342.jpg,2.0,,,,A1O7XFRTZ46PN5
482,47,right,1.0,27.0,right.jpg,,,right,0.995,,A1O7XFRTZ46PN5
483,48,,1.0,28.0,2986400320-221190.jpg,2238470979-92615.jpg,2.0,,,,A1O7XFRTZ46PN5
484,49,,1.0,29.0,2898617468-68274.jpg,2238585512-336576.jpg,2.0,,,,A1O7XFRTZ46PN5
485,50,,1.0,30.0,2238499155-170911.jpg,2452380832-348593.jpg,2.0,,,,A1O7XFRTZ46PN5
486,51,,1.0,31.0,2238471391-240918.jpg,2986399339-146857.jpg,3.0,,,,A1O7XFRTZ46PN5
487,52,,1.0,32.0,2864909447-362146.jpg,2874303453-66056.jpg,3.0,,,,A1O7XFRTZ46PN5
488,53,,1.0,33.0,2446758985-197609.jpg,2898633421-291973.jpg,1.0,,,,A1O7XFRTZ46PN5
489,54,,1.0,34.0,2238480434-93829.jpg,2804906319-133082.jpg,1.0,,,,A1O7XFRTZ46PN5
490,55,,1.0,35.0,2446759803-49249.jpg,2238498786-244797.jpg,3.0,,,,A1O7XFRTZ46PN5
491,56,left,1.0,36.0,left.jpg,,,left,1.073,,A1O7XFRTZ46PN5
492,57,,1.0,37.0,2331570830-189984.jpg,2458348012-349114.jpg,3.0,,,,A1O7XFRTZ46PN5
493,58,,1.0,38.0,2981231446-294731.jpg,2986450330-221526.jpg,1.0,,,,A1O7XFRTZ46PN5
494,59,,1.0,39.0,2625337302-355866.jpg,2238478760-167789.jpg,2.0,,,,A1O7XFRTZ46PN5
495,60,,1.0,40.0,2238126735-154721.jpg,2901951430-218724.jpg,3.0,,,,A1O7XFRTZ46PN5
496,61,,1.0,41.0,2238575092-334269.jpg,2964218374-144967.jpg,3.0,,,,A1O7XFRTZ46PN5
497,62,,1.0,42.0,2238584869-113153.jpg,2986455373-73646.jpg,3.0,,,,A1O7XFRTZ46PN5
498,63,,1.0,43.0,2238584018-38513.jpg,2452381442-348755.jpg,3.0,,,,A1O7XFRTZ46PN5
499,64,,1.0,44.0,2238375302-311538.jpg,2592380049-131077.jpg,2.0,,,,A1O7XFRTZ46PN5
500,65,,1.0,45.0,2274829821-263682.jpg,2446758985-197610.jpg,2.0,,,,A1O7XFRTZ46PN5
501,66,,1.0,46.0,2898632385-217138.jpg,2575120738-55529.jpg,1.0,,,,A1O7XFRTZ46PN5
502,67,,1.0,47.0,2575964140-205050.jpg,2238482920-168428.jpg,1.0,,,,A1O7XFRTZ46PN5
503,68,,1.0,48.0,2898632385-217137.jpg,2238480803-19739.jpg,2.0,,,,A1O7XFRTZ46PN5
504,69,,1.0,49.0,2449442529-124446.jpg,2238481610-168214.jpg,1.0,,,,A1O7XFRTZ46PN5
505,70,,1.0,50.0,2512876023-52283.jpg,2864908323-64106.jpg,1.0,,,,A1O7XFRTZ46PN5
506,71,,1.0,51.0,2964216465-219242.jpg,2512875796-274856.jpg,2.0,,,,A1O7XFRTZ46PN5
507,72,,1.0,52.0,2964218374-144968.jpg,2238521157-323782.jpg,2.0,,,,A1O7XFRTZ46PN5
508,73,left,1.0,53.0,left.jpg,,,left,0.795,,A1O7XFRTZ46PN5
509,74,,1.0,54.0,2238129579-80916.jpg,2238161924-82646.jpg,3.0,,,,A1O7XFRTZ46PN5
510,75,,1.0,55.0,2964213381-294060.jpg,2898631359-142720.jpg,1.0,,,,A1O7XFRTZ46PN5
511,76,,1.0,56.0,2901939379-143479.jpg,2449443292-348022.jpg,2.0,,,,A1O7XFRTZ46PN5
512,77,,1.0,57.0,2864906345-212360.jpg,2994403305-222559.jpg,3.0,,,,A1O7XFRTZ46PN5
513,78,,1.0,58.0,2238550049-105691.jpg,2238482972-317759.jpg,1.0,,,,A1O7XFRTZ46PN5
514,79,,1.0,59.0,2986408352-371293.jpg,2868488422-363713.jpg,1.0,,,,A1O7XFRTZ46PN5
515,80,,1.0,60.0,2994405328-74628.jpg,2883273443-68192.jpg,3.0,,,,A1O7XFRTZ46PN5
516,81,,1.0,61.0,2901941426-292805.jpg,2901945303-70125.jpg,3.0,,,,A1O7XFRTZ46PN5
517,82,,1.0,62.0,2579432576-279079.jpg,2458348144-125787.jpg,3.0,,,,A1O7XFRTZ46PN5
518,83,,1.0,63.0,2898624426-291546.jpg,2986402377-371266.jpg,1.0,,,,A1O7XFRTZ46PN5
519,84,,1.0,64.0,2238496457-319749.jpg,2592380234-131135.jpg,2.0,,,,A1O7XFRTZ46PN5
520,20,,1.0,0.0,2964213381-294060.jpg,2989724308-73930.jpg,3.0,,,,A1OK06ZUFSY1C
521,21,,1.0,1.0,2901938432-367627.jpg,2856919327-359675.jpg,2.0,,,,A1OK06ZUFSY1C
522,22,,1.0,2.0,2964216465-219242.jpg,2592380049-131079.jpg,1.0,,,,A1OK06ZUFSY1C
523,23,,1.0,3.0,2331570830-189984.jpg,2449442529-124445.jpg,2.0,,,,A1OK06ZUFSY1C
524,24,,1.0,4.0,2274829821-263682.jpg,2862687442-360837.jpg,3.0,,,,A1OK06ZUFSY1C
525,25,,1.0,5.0,2901941426-292805.jpg,2238510189-98616.jpg,2.0,,,,A1OK06ZUFSY1C
526,26,right,1.0,6.0,right.jpg,,,right,1.028,,A1OK06ZUFSY1C
527,27,,1.0,7.0,2592380138-56727.jpg,2238537701-251772.jpg,3.0,,,,A1OK06ZUFSY1C
528,28,,1.0,8.0,2986400320-221190.jpg,2989727350-222011.jpg,1.0,,,,A1OK06ZUFSY1C
529,29,,1.0,9.0,2238126735-154721.jpg,2901951430-218724.jpg,3.0,,,,A1OK06ZUFSY1C
530,30,,1.0,10.0,2898624426-291546.jpg,2864902304-137862.jpg,3.0,,,,A1OK06ZUFSY1C
531,31,,1.0,11.0,2238584018-38513.jpg,2449443163-50093.jpg,1.0,,,,A1OK06ZUFSY1C
532,32,,1.0,12.0,2883272438-68133.jpg,2592380136-279476.jpg,3.0,,,,A1OK06ZUFSY1C
533,33,,1.0,13.0,2460547467-349421.jpg,2238554179-106663.jpg,3.0,,,,A1OK06ZUFSY1C
534,34,,1.0,14.0,2238521193-26286.jpg,2446760306-272024.jpg,3.0,,,,A1OK06ZUFSY1C
535,35,,1.0,15.0,2238550049-105691.jpg,2964219468-71238.jpg,3.0,,,,A1OK06ZUFSY1C
536,36,,1.0,16.0,2994405328-74628.jpg,2883273443-68192.jpg,3.0,,,,A1OK06ZUFSY1C
537,37,,1.0,17.0,2964218374-144968.jpg,2238521157-323782.jpg,2.0,,,,A1OK06ZUFSY1C
538,38,,1.0,18.0,2579432576-279079.jpg,2458348144-125787.jpg,3.0,,,,A1OK06ZUFSY1C
539,39,,1.0,19.0,2883254439-140941.jpg,2417207511-266975.jpg,3.0,,,,A1OK06ZUFSY1C
540,40,,1.0,20.0,2883254439-140940.jpg,2812983311-281946.jpg,3.0,,,,A1OK06ZUFSY1C
541,41,left,1.0,21.0,left.jpg,,,left,1.039,,A1OK06ZUFSY1C
542,42,,1.0,22.0,2238429999-90218.jpg,2964222378-71332.jpg,3.0,,,,A1OK06ZUFSY1C
543,43,,1.0,23.0,2864906345-212360.jpg,2238087237-303447.jpg,2.0,,,,A1OK06ZUFSY1C
544,44,,1.0,24.0,2862691449-137104.jpg,2986455341-296758.jpg,2.0,,,,A1OK06ZUFSY1C
545,45,,1.0,25.0,2625337302-355866.jpg,2425492472-343825.jpg,1.0,,,,A1OK06ZUFSY1C
546,46,,1.0,26.0,2512876023-52283.jpg,2898636443-69154.jpg,2.0,,,,A1OK06ZUFSY1C
547,47,,1.0,27.0,2864909447-362146.jpg,2874316384-140749.jpg,1.0,,,,A1OK06ZUFSY1C
548,48,right,1.0,28.0,right.jpg,,,right,1.088,,A1OK06ZUFSY1C
549,49,,1.0,29.0,2964209380-218956.jpg,2898617396-291219.jpg,3.0,,,,A1OK06ZUFSY1C
550,50,,1.0,30.0,2898635427-367120.jpg,2238436632-314069.jpg,1.0,,,,A1OK06ZUFSY1C
551,51,,1.0,31.0,2981231446-294731.jpg,2238568685-183597.jpg,2.0,,,,A1OK06ZUFSY1C
552,52,,1.0,32.0,2238480434-93829.jpg,2592380255-205551.jpg,2.0,,,,A1OK06ZUFSY1C
553,53,,1.0,33.0,2575964140-205050.jpg,2446760226-272005.jpg,3.0,,,,A1OK06ZUFSY1C
554,54,,1.0,34.0,2898632385-217137.jpg,2238360884-87525.jpg,1.0,,,,A1OK06ZUFSY1C
555,55,,1.0,35.0,2238129579-80916.jpg,2898618444-142233.jpg,2.0,,,,A1OK06ZUFSY1C
556,56,,1.0,36.0,2986408352-371293.jpg,2856916345-210056.jpg,3.0,,,,A1OK06ZUFSY1C
557,57,,1.0,37.0,2238499155-170911.jpg,2446760621-272103.jpg,1.0,,,,A1OK06ZUFSY1C
558,58,,1.0,38.0,2238471391-240918.jpg,2901943388-69995.jpg,2.0,,,,A1OK06ZUFSY1C
559,59,,1.0,39.0,2238375302-311538.jpg,2592380255-205552.jpg,1.0,,,,A1OK06ZUFSY1C
560,60,,1.0,40.0,2452380166-273109.jpg,2592379781-279345.jpg,2.0,,,,A1OK06ZUFSY1C
561,61,,1.0,41.0,2446760940-198145.jpg,2449443300-198739.jpg,1.0,,,,A1OK06ZUFSY1C
562,62,right,1.0,42.0,right.jpg,,,right,0.97,,A1OK06ZUFSY1C
563,63,,1.0,43.0,2238584869-113153.jpg,2864901420-212147.jpg,1.0,,,,A1OK06ZUFSY1C
564,64,,1.0,44.0,2964213381-294061.jpg,2238433340-164524.jpg,1.0,,,,A1OK06ZUFSY1C
565,65,,1.0,45.0,2898632385-217138.jpg,2273188118-40829.jpg,2.0,,,,A1OK06ZUFSY1C
566,66,,1.0,46.0,2883255450-215311.jpg,2868485399-139476.jpg,2.0,,,,A1OK06ZUFSY1C
567,67,,1.0,47.0,2868485396-288511.jpg,2238380314-88261.jpg,3.0,,,,A1OK06ZUFSY1C
568,68,,1.0,48.0,2238516618-25604.jpg,2238470979-92618.jpg,3.0,,,,A1OK06ZUFSY1C
569,69,,1.0,49.0,2898626385-216899.jpg,2989715328-73658.jpg,1.0,,,,A1OK06ZUFSY1C
570,70,,1.0,50.0,2898633480-217190.jpg,2986450334-147216.jpg,2.0,,,,A1OK06ZUFSY1C
571,71,right,1.0,51.0,right.jpg,,,right,1.127,,A1OK06ZUFSY1C
572,72,,1.0,52.0,2446760524-123999.jpg,2446760621-272102.jpg,1.0,,,,A1OK06ZUFSY1C
573,73,,1.0,53.0,2238561223-33794.jpg,2592380177-354626.jpg,2.0,,,,A1OK06ZUFSY1C
574,74,,1.0,54.0,2901934573-69337.jpg,2238345946-235007.jpg,2.0,,,,A1OK06ZUFSY1C
575,75,,1.0,55.0,2446759803-49249.jpg,2238468265-166556.jpg,2.0,,,,A1OK06ZUFSY1C
576,76,,1.0,56.0,2238575092-334269.jpg,2592380285-205564.jpg,1.0,,,,A1OK06ZUFSY1C
577,77,,1.0,57.0,2449442529-124446.jpg,2864911339-138231.jpg,3.0,,,,A1OK06ZUFSY1C
578,78,,1.0,58.0,2964224310-219527.jpg,2238380178-14011.jpg,1.0,,,,A1OK06ZUFSY1C
579,79,,1.0,59.0,2446758985-197609.jpg,2898633421-291973.jpg,1.0,,,,A1OK06ZUFSY1C
580,80,,1.0,60.0,2883255450-215309.jpg,2868476439-138927.jpg,2.0,,,,A1OK06ZUFSY1C
581,81,,1.0,61.0,2868475410-213219.jpg,2238216693-10721.jpg,1.0,,,,A1OK06ZUFSY1C
582,82,,1.0,62.0,2238496457-319749.jpg,2238570142-333223.jpg,1.0,,,,A1OK06ZUFSY1C
583,83,,1.0,63.0,2901939379-143479.jpg,2986450334-147215.jpg,1.0,,,,A1OK06ZUFSY1C
584,84,,1.0,64.0,2898617468-68274.jpg,2238585512-336576.jpg,2.0,,,,A1OK06ZUFSY1C
585,20,,1.0,0.0,2981231446-294731.jpg,2417207297-342139.jpg,3.0,,,,A1OZPLHNIU1519
586,21,,1.0,1.0,2964213381-294060.jpg,2898631359-142720.jpg,1.0,,,,A1OZPLHNIU1519
587,22,,1.0,2.0,2331570830-189984.jpg,2449442529-124445.jpg,2.0,,,,A1OZPLHNIU1519
588,23,,1.0,3.0,2898635427-367120.jpg,2237941457-301342.jpg,2.0,,,,A1OZPLHNIU1519
589,24,,1.0,4.0,2238550049-105691.jpg,2449443271-272729.jpg,2.0,,,,A1OZPLHNIU1519
590,25,,1.0,5.0,2883254439-140940.jpg,2812983311-281946.jpg,3.0,,,,A1OZPLHNIU1519
591,26,,1.0,6.0,2868485396-288511.jpg,2238380314-88261.jpg,3.0,,,,A1OZPLHNIU1519
592,27,right,1.0,7.0,right.jpg,,,right,0.7143,,A1OZPLHNIU1519
593,28,,1.0,8.0,2986408352-371293.jpg,2856916345-210056.jpg,3.0,,,,A1OZPLHNIU1519
594,29,,1.0,9.0,2238575092-334269.jpg,2592380285-205564.jpg,1.0,,,,A1OZPLHNIU1519
595,30,,1.0,10.0,2883254439-140941.jpg,2989724308-73928.jpg,1.0,,,,A1OZPLHNIU1519
596,31,,1.0,11.0,2964218374-144968.jpg,2238411877-313125.jpg,1.0,,,,A1OZPLHNIU1519
597,32,,1.0,12.0,2901938432-367627.jpg,2579432708-56394.jpg,1.0,,,,A1OZPLHNIU1519
598,33,,1.0,13.0,2964213381-294061.jpg,2989721347-371917.jpg,3.0,,,,A1OZPLHNIU1519
599,34,,1.0,14.0,2238129579-80916.jpg,2460547477-349426.jpg,1.0,,,,A1OZPLHNIU1519
600,35,,1.0,15.0,2446760940-198145.jpg,2592380188-56743.jpg,2.0,,,,A1OZPLHNIU1519
601,36,,1.0,16.0,2449442529-124446.jpg,2868469458-64561.jpg,2.0,,,,A1OZPLHNIU1519
602,37,,1.0,17.0,2592380138-56727.jpg,2238537701-251772.jpg,3.0,,,,A1OZPLHNIU1519
603,38,,1.0,18.0,2579432576-279079.jpg,2458348144-125787.jpg,3.0,,,,A1OZPLHNIU1519
604,39,,1.0,19.0,2864906345-212360.jpg,2238087237-303447.jpg,2.0,,,,A1OZPLHNIU1519
605,40,,1.0,20.0,2901934573-69337.jpg,2986401333-73218.jpg,1.0,,,,A1OZPLHNIU1519
606,41,,1.0,21.0,2446760524-123999.jpg,2238552469-106359.jpg,2.0,,,,A1OZPLHNIU1519
607,42,,1.0,22.0,2625337302-355866.jpg,2425492472-343825.jpg,1.0,,,,A1OZPLHNIU1519
608,43,right,1.0,23.0,right.jpg,,,right,0.6914,,A1OZPLHNIU1519
609,44,,1.0,24.0,2883272438-68133.jpg,2237949408-4018.jpg,1.0,,,,A1OZPLHNIU1519
610,45,,1.0,25.0,2446758985-197609.jpg,2984618344-146295.jpg,3.0,,,,A1OZPLHNIU1519
611,46,,1.0,26.0,2238471391-240918.jpg,2986399339-146857.jpg,3.0,,,,A1OZPLHNIU1519
612,47,,1.0,27.0,2238480434-93829.jpg,2592380255-205551.jpg,2.0,,,,A1OZPLHNIU1519
613,48,,1.0,28.0,2238561223-33794.jpg,2592380177-354626.jpg,2.0,,,,A1OZPLHNIU1519
614,49,,1.0,29.0,2238516618-25604.jpg,2862686459-136888.jpg,2.0,,,,A1OZPLHNIU1519
615,50,,1.0,30.0,2575964140-205050.jpg,2446760226-272005.jpg,3.0,,,,A1OZPLHNIU1519
616,51,,1.0,31.0,2901941426-292805.jpg,2868488422-363715.jpg,1.0,,,,A1OZPLHNIU1519
617,52,left,1.0,32.0,left.jpg,,,left,0.5354,,A1OZPLHNIU1519
618,53,,1.0,33.0,2883255450-215311.jpg,2238481575-168208.jpg,1.0,,,,A1OZPLHNIU1519
619,54,,1.0,34.0,2898632385-217138.jpg,2575120738-55529.jpg,1.0,,,,A1OZPLHNIU1519
620,55,,1.0,35.0,2864909447-362146.jpg,2238555799-106905.jpg,2.0,,,,A1OZPLHNIU1519
621,56,,1.0,36.0,2964224310-219527.jpg,2238380178-14011.jpg,1.0,,,,A1OZPLHNIU1519
622,57,,1.0,37.0,2898633480-217190.jpg,2986450334-147216.jpg,2.0,,,,A1OZPLHNIU1519
623,58,,1.0,38.0,2512876023-52283.jpg,2238576267-334532.jpg,3.0,,,,A1OZPLHNIU1519
624,59,,1.0,39.0,2986400320-221190.jpg,2989727350-222011.jpg,1.0,,,,A1OZPLHNIU1519
625,60,,1.0,40.0,2238584869-113153.jpg,2981241419-145844.jpg,2.0,,,,A1OZPLHNIU1519
626,61,,1.0,41.0,2883255450-215309.jpg,2238429999-90216.jpg,1.0,,,,A1OZPLHNIU1519
627,62,,1.0,42.0,2994405328-74628.jpg,2825702353-60662.jpg,2.0,,,,A1OZPLHNIU1519
628,63,,1.0,43.0,2868475410-213219.jpg,2575964140-205051.jpg,2.0,,,,A1OZPLHNIU1519
629,64,right,1.0,44.0,right.jpg,,,right,0.5293,,A1OZPLHNIU1519
630,65,,1.0,45.0,2898626385-216899.jpg,2898618440-216545.jpg,3.0,,,,A1OZPLHNIU1519
631,66,,1.0,46.0,2238429999-90218.jpg,2986448334-147157.jpg,1.0,,,,A1OZPLHNIU1519
632,67,,1.0,47.0,2238584018-38513.jpg,2898633321-291943.jpg,2.0,,,,A1OZPLHNIU1519
633,68,,1.0,48.0,2898624426-291546.jpg,2986402377-371266.jpg,1.0,,,,A1OZPLHNIU1519
634,69,,1.0,49.0,2274829821-263682.jpg,2238570526-257884.jpg,1.0,,,,A1OZPLHNIU1519
635,70,,1.0,50.0,2901939379-143479.jpg,2864909422-362141.jpg,3.0,,,,A1OZPLHNIU1519
636,71,,1.0,51.0,2460547467-349421.jpg,2238470079-92499.jpg,2.0,,,,A1OZPLHNIU1519
637,72,,1.0,52.0,2964209380-218956.jpg,2868488456-288710.jpg,1.0,,,,A1OZPLHNIU1519
638,73,,1.0,53.0,2452380166-273109.jpg,2592379781-279345.jpg,2.0,,,,A1OZPLHNIU1519
639,74,left,1.0,54.0,left.jpg,,,left,0.6012,,A1OZPLHNIU1519
640,75,,1.0,55.0,2238499155-170911.jpg,2452380832-348593.jpg,2.0,,,,A1OZPLHNIU1519
641,76,,1.0,56.0,2238496457-319749.jpg,2460547467-349422.jpg,3.0,,,,A1OZPLHNIU1519
642,77,,1.0,57.0,2898617468-68274.jpg,2862684406-285700.jpg,3.0,,,,A1OZPLHNIU1519
643,78,,1.0,58.0,2862691449-137104.jpg,2238328478-11678.jpg,3.0,,,,A1OZPLHNIU1519
644,79,,1.0,59.0,2964216465-219242.jpg,2446760917-347439.jpg,3.0,,,,A1OZPLHNIU1519
645,80,,1.0,60.0,2238521193-26286.jpg,2446760306-272024.jpg,3.0,,,,A1OZPLHNIU1519
646,81,,1.0,61.0,2898632385-217137.jpg,2238360884-87525.jpg,1.0,,,,A1OZPLHNIU1519
647,82,,1.0,62.0,2238126735-154721.jpg,2575122854-130480.jpg,2.0,,,,A1OZPLHNIU1519
648,83,,1.0,63.0,2238375302-311538.jpg,2460547508-51571.jpg,3.0,,,,A1OZPLHNIU1519
649,84,,1.0,64.0,2446759803-49249.jpg,2238498786-244797.jpg,3.0,,,,A1OZPLHNIU1519
650,20,,1.0,0.0,2986400320-221190.jpg,2238538133-29662.jpg,3.0,,,,A1Q1JSFKBUIYJD
651,21,,1.0,1.0,2964209380-218956.jpg,2898617396-291219.jpg,3.0,,,,A1Q1JSFKBUIYJD
652,22,,1.0,2.0,2579432576-279079.jpg,2446760226-272006.jpg,2.0,,,,A1Q1JSFKBUIYJD
653,23,,1.0,3.0,2274829821-263682.jpg,2862687442-360837.jpg,3.0,,,,A1Q1JSFKBUIYJD
654,24,,1.0,4.0,2460547467-349421.jpg,2238554179-106663.jpg,3.0,,,,A1Q1JSFKBUIYJD
655,25,,1.0,5.0,2986408352-371293.jpg,2856916345-210056.jpg,3.0,,,,A1Q1JSFKBUIYJD
656,26,,1.0,6.0,2446760524-123999.jpg,2238539138-29878.jpg,3.0,,,,A1Q1JSFKBUIYJD
657,27,,1.0,7.0,2446758985-197609.jpg,2635396318-58409.jpg,2.0,,,,A1Q1JSFKBUIYJD
658,28,,1.0,8.0,2238471391-240918.jpg,2868470400-212889.jpg,1.0,,,,A1Q1JSFKBUIYJD
659,29,right,1.0,9.0,right.jpg,,,right,0.8304,,A1Q1JSFKBUIYJD
660,30,,1.0,10.0,2238499155-170911.jpg,2238373603-13733.jpg,3.0,,,,A1Q1JSFKBUIYJD
661,31,,1.0,11.0,2238584018-38513.jpg,2449443163-50093.jpg,1.0,,,,A1Q1JSFKBUIYJD
662,32,,1.0,12.0,2964218374-144968.jpg,2238521157-323782.jpg,2.0,,,,A1Q1JSFKBUIYJD
663,33,,1.0,13.0,2238561223-33794.jpg,2883271323-68049.jpg,3.0,,,,A1Q1JSFKBUIYJD
664,34,,1.0,14.0,2898632385-217137.jpg,2238480803-19739.jpg,2.0,,,,A1Q1JSFKBUIYJD
665,35,,1.0,15.0,2862691449-137104.jpg,2238328478-11678.jpg,3.0,,,,A1Q1JSFKBUIYJD
666,36,,1.0,16.0,2238429999-90218.jpg,2986448334-147157.jpg,1.0,,,,A1Q1JSFKBUIYJD
667,37,,1.0,17.0,2449442529-124446.jpg,2868469458-64561.jpg,2.0,,,,A1Q1JSFKBUIYJD
668,38,,1.0,18.0,2452380166-273109.jpg,2238380901-236499.jpg,3.0,,,,A1Q1JSFKBUIYJD
669,39,,1.0,19.0,2238129579-80916.jpg,2460547477-349426.jpg,1.0,,,,A1Q1JSFKBUIYJD
670,40,,1.0,20.0,2238375302-311538.jpg,2592380255-205552.jpg,1.0,,,,A1Q1JSFKBUIYJD
671,41,,1.0,21.0,2238575092-334269.jpg,2860304305-210777.jpg,2.0,,,,A1Q1JSFKBUIYJD
672,42,left,1.0,22.0,left.jpg,,,left,1.514,,A1Q1JSFKBUIYJD
673,43,,1.0,23.0,2964213381-294061.jpg,2238433340-164524.jpg,1.0,,,,A1Q1JSFKBUIYJD
674,44,,1.0,24.0,2592380138-56727.jpg,2986419351-296471.jpg,1.0,,,,A1Q1JSFKBUIYJD
675,45,,1.0,25.0,2898633480-217190.jpg,2986450334-147216.jpg,2.0,,,,A1Q1JSFKBUIYJD
676,46,,1.0,26.0,2901934573-69337.jpg,2238345946-235007.jpg,2.0,,,,A1Q1JSFKBUIYJD
677,47,,1.0,27.0,2575964140-205050.jpg,2238482920-168428.jpg,1.0,,,,A1Q1JSFKBUIYJD
678,48,,1.0,28.0,2864906345-212360.jpg,2238087237-303447.jpg,2.0,,,,A1Q1JSFKBUIYJD
679,49,,1.0,29.0,2898624426-291546.jpg,2864902304-137862.jpg,3.0,,,,A1Q1JSFKBUIYJD
680,50,left,1.0,30.0,left.jpg,,,left,0.8781,,A1Q1JSFKBUIYJD
681,51,,1.0,31.0,2898635427-367120.jpg,2238436632-314069.jpg,1.0,,,,A1Q1JSFKBUIYJD
682,52,,1.0,32.0,2238521193-26286.jpg,2874301437-363905.jpg,2.0,,,,A1Q1JSFKBUIYJD
683,53,,1.0,33.0,2868485396-288511.jpg,2868470456-287597.jpg,1.0,,,,A1Q1JSFKBUIYJD
684,54,,1.0,34.0,2625337302-355866.jpg,2238478760-167789.jpg,2.0,,,,A1Q1JSFKBUIYJD
685,55,,1.0,35.0,2238126735-154721.jpg,2575122854-130480.jpg,2.0,,,,A1Q1JSFKBUIYJD
686,56,,1.0,36.0,2964216465-219242.jpg,2512875796-274856.jpg,2.0,,,,A1Q1JSFKBUIYJD
687,57,,1.0,37.0,2883255450-215309.jpg,2868476439-138927.jpg,2.0,,,,A1Q1JSFKBUIYJD
688,58,,1.0,38.0,2883254439-140940.jpg,2575121890-204630.jpg,2.0,,,,A1Q1JSFKBUIYJD
689,59,left,1.0,39.0,left.jpg,,,left,0.9294,,A1Q1JSFKBUIYJD
690,60,,1.0,40.0,2868475410-213219.jpg,2238436851-238821.jpg,3.0,,,,A1Q1JSFKBUIYJD
691,61,,1.0,41.0,2238550049-105691.jpg,2238482972-317759.jpg,1.0,,,,A1Q1JSFKBUIYJD
692,62,,1.0,42.0,2238516618-25604.jpg,2862686459-136888.jpg,2.0,,,,A1Q1JSFKBUIYJD
693,63,,1.0,43.0,2964224310-219527.jpg,2238490590-169598.jpg,3.0,,,,A1Q1JSFKBUIYJD
694,64,,1.0,44.0,2238496457-319749.jpg,2592380234-131135.jpg,2.0,,,,A1Q1JSFKBUIYJD
695,65,,1.0,45.0,2898617468-68274.jpg,2862684406-285700.jpg,3.0,,,,A1Q1JSFKBUIYJD
696,66,,1.0,46.0,2898626385-216899.jpg,2989715328-73658.jpg,1.0,,,,A1Q1JSFKBUIYJD
697,67,,1.0,47.0,2238584869-113153.jpg,2986455373-73646.jpg,3.0,,,,A1Q1JSFKBUIYJD
698,68,,1.0,48.0,2864909447-362146.jpg,2874316384-140749.jpg,1.0,,,,A1Q1JSFKBUIYJD
699,69,right,1.0,49.0,right.jpg,,,right,0.7938,,A1Q1JSFKBUIYJD
700,70,,1.0,50.0,2512876023-52283.jpg,2238576267-334532.jpg,3.0,,,,A1Q1JSFKBUIYJD
701,71,,1.0,51.0,2883255450-215311.jpg,2238481575-168208.jpg,1.0,,,,A1Q1JSFKBUIYJD
702,72,,1.0,52.0,2901938432-367627.jpg,2579432708-56394.jpg,1.0,,,,A1Q1JSFKBUIYJD
703,73,,1.0,53.0,2901941426-292805.jpg,2901945303-70125.jpg,3.0,,,,A1Q1JSFKBUIYJD
704,74,,1.0,54.0,2901939379-143479.jpg,2986450334-147215.jpg,1.0,,,,A1Q1JSFKBUIYJD
705,75,,1.0,55.0,2994405328-74628.jpg,2417206274-118542.jpg,1.0,,,,A1Q1JSFKBUIYJD
706,76,,1.0,56.0,2883272438-68133.jpg,2237949408-4018.jpg,1.0,,,,A1Q1JSFKBUIYJD
707,77,,1.0,57.0,2883254439-140941.jpg,2989724308-73928.jpg,1.0,,,,A1Q1JSFKBUIYJD
708,78,,1.0,58.0,2446760940-198145.jpg,2592380188-56743.jpg,2.0,,,,A1Q1JSFKBUIYJD
709,79,,1.0,59.0,2331570830-189984.jpg,2458348012-349114.jpg,3.0,,,,A1Q1JSFKBUIYJD
710,80,,1.0,60.0,2964213381-294060.jpg,2989724308-73930.jpg,3.0,,,,A1Q1JSFKBUIYJD
711,81,,1.0,61.0,2981231446-294731.jpg,2986450330-221526.jpg,1.0,,,,A1Q1JSFKBUIYJD
712,82,,1.0,62.0,2238480434-93829.jpg,2592380255-205551.jpg,2.0,,,,A1Q1JSFKBUIYJD
713,83,,1.0,63.0,2446759803-49249.jpg,2238468265-166556.jpg,2.0,,,,A1Q1JSFKBUIYJD
714,84,,1.0,64.0,2898632385-217138.jpg,2460547992-349586.jpg,3.0,,,,A1Q1JSFKBUIYJD
715,20,,1.0,0.0,2238429999-90218.jpg,2964222378-71332.jpg,3.0,,,,A1QSX79P1W1058
716,21,,1.0,1.0,2898617468-68274.jpg,2512875899-126682.jpg,1.0,,,,A1QSX79P1W1058
717,22,,1.0,2.0,2964218374-144968.jpg,2238411877-313125.jpg,1.0,,,,A1QSX79P1W1058
718,23,,1.0,3.0,2446758985-197609.jpg,2635396318-58409.jpg,2.0,,,,A1QSX79P1W1058
719,24,,1.0,4.0,2452380166-273109.jpg,2592379781-279345.jpg,2.0,,,,A1QSX79P1W1058
720,25,,1.0,5.0,2446759803-49249.jpg,2238498786-244797.jpg,3.0,,,,A1QSX79P1W1058
721,26,,1.0,6.0,2898632385-217138.jpg,2273188118-40829.jpg,2.0,,,,A1QSX79P1W1058
722,27,left,1.0,7.0,left.jpg,,,left,1.832,,A1QSX79P1W1058
723,28,,1.0,8.0,2883255450-215311.jpg,2575964014-130589.jpg,3.0,,,,A1QSX79P1W1058
724,29,,1.0,9.0,2901941426-292805.jpg,2238510189-98616.jpg,2.0,,,,A1QSX79P1W1058
725,30,,1.0,10.0,2446760524-123999.jpg,2238539138-29878.jpg,3.0,,,,A1QSX79P1W1058
726,31,,1.0,11.0,2864906345-212360.jpg,2994403305-222559.jpg,3.0,,,,A1QSX79P1W1058
727,32,,1.0,12.0,2898633480-217190.jpg,2986450334-147216.jpg,2.0,,,,A1QSX79P1W1058
728,33,,1.0,13.0,2883254439-140941.jpg,2237965109-79314.jpg,2.0,,,,A1QSX79P1W1058
729,34,,1.0,14.0,2964216465-219242.jpg,2446760917-347439.jpg,3.0,,,,A1QSX79P1W1058
730,35,,1.0,15.0,2238521193-26286.jpg,2825712309-134957.jpg,1.0,,,,A1QSX79P1W1058
731,36,,1.0,16.0,2238480434-93829.jpg,2804906319-133082.jpg,1.0,,,,A1QSX79P1W1058
732,37,left,1.0,17.0,left.jpg,,,left,1.782,,A1QSX79P1W1058
733,38,,1.0,18.0,2238584869-113153.jpg,2986455373-73646.jpg,3.0,,,,A1QSX79P1W1058
734,39,,1.0,19.0,2868475410-213219.jpg,2238436851-238821.jpg,3.0,,,,A1QSX79P1W1058
735,40,,1.0,20.0,2862691449-137104.jpg,2238540598-30035.jpg,1.0,,,,A1QSX79P1W1058
736,41,,1.0,21.0,2579432576-279079.jpg,2446760226-272006.jpg,2.0,,,,A1QSX79P1W1058
737,42,,1.0,22.0,2238550049-105691.jpg,2964219468-71238.jpg,3.0,,,,A1QSX79P1W1058
738,43,,1.0,23.0,2883255450-215309.jpg,2238429999-90216.jpg,1.0,,,,A1QSX79P1W1058
739,44,,1.0,24.0,2964213381-294061.jpg,2238433340-164524.jpg,1.0,,,,A1QSX79P1W1058
740,45,,1.0,25.0,2981231446-294731.jpg,2986450330-221526.jpg,1.0,,,,A1QSX79P1W1058
741,46,,1.0,26.0,2238471391-240918.jpg,2868470400-212889.jpg,1.0,,,,A1QSX79P1W1058
742,47,,1.0,27.0,2274829821-263682.jpg,2446758985-197610.jpg,2.0,,,,A1QSX79P1W1058
743,48,,1.0,28.0,2592380138-56727.jpg,2986419351-296471.jpg,1.0,,,,A1QSX79P1W1058
744,49,,1.0,29.0,2864909447-362146.jpg,2874316384-140749.jpg,1.0,,,,A1QSX79P1W1058
745,50,left,1.0,30.0,left.jpg,,,left,2.643,,A1QSX79P1W1058
746,51,,1.0,31.0,2883254439-140940.jpg,2452380166-273110.jpg,1.0,,,,A1QSX79P1W1058
747,52,,1.0,32.0,2901934573-69337.jpg,2986401333-73218.jpg,1.0,,,,A1QSX79P1W1058
748,53,,1.0,33.0,2964209380-218956.jpg,2898617396-291219.jpg,3.0,,,,A1QSX79P1W1058
749,54,,1.0,34.0,2238126735-154721.jpg,2575122854-130480.jpg,2.0,,,,A1QSX79P1W1058
750,55,,1.0,35.0,2446760940-198145.jpg,2592380188-56743.jpg,2.0,,,,A1QSX79P1W1058
751,56,,1.0,36.0,2898632385-217137.jpg,2238480803-19739.jpg,2.0,,,,A1QSX79P1W1058
752,57,,1.0,37.0,2460547467-349421.jpg,2901934573-69336.jpg,1.0,,,,A1QSX79P1W1058
753,58,,1.0,38.0,2986408352-371293.jpg,2856916345-210056.jpg,3.0,,,,A1QSX79P1W1058
754,59,,1.0,39.0,2868485396-288511.jpg,2868472420-213024.jpg,2.0,,,,A1QSX79P1W1058
755,60,,1.0,40.0,2898626385-216899.jpg,2989715328-73658.jpg,1.0,,,,A1QSX79P1W1058
756,61,left,1.0,41.0,left.jpg,,,left,1.204,,A1QSX79P1W1058
757,62,,1.0,42.0,2898635427-367120.jpg,2238436632-314069.jpg,1.0,,,,A1QSX79P1W1058
758,63,,1.0,43.0,2238496457-319749.jpg,2238570142-333223.jpg,1.0,,,,A1QSX79P1W1058
759,64,,1.0,44.0,2238499155-170911.jpg,2446760621-272103.jpg,1.0,,,,A1QSX79P1W1058
760,65,,1.0,45.0,2994405328-74628.jpg,2825702353-60662.jpg,2.0,,,,A1QSX79P1W1058
761,66,,1.0,46.0,2238129579-80916.jpg,2898618444-142233.jpg,2.0,,,,A1QSX79P1W1058
762,67,,1.0,47.0,2238516618-25604.jpg,2862686459-136888.jpg,2.0,,,,A1QSX79P1W1058
763,68,,1.0,48.0,2331570830-189984.jpg,2446760483-49429.jpg,1.0,,,,A1QSX79P1W1058
764,69,,1.0,49.0,2901939379-143479.jpg,2986450334-147215.jpg,1.0,,,,A1QSX79P1W1058
765,70,,1.0,50.0,2575964140-205050.jpg,2238547522-328488.jpg,2.0,,,,A1QSX79P1W1058
766,71,,1.0,51.0,2512876023-52283.jpg,2898636443-69154.jpg,2.0,,,,A1QSX79P1W1058
767,72,,0.0,52.0,right.jpg,,,right,,,A1QSX79P1W1058
768,73,,1.0,53.0,2238375302-311538.jpg,2460547508-51571.jpg,3.0,,,,A1QSX79P1W1058
769,74,,1.0,54.0,2238584018-38513.jpg,2452381442-348755.jpg,3.0,,,,A1QSX79P1W1058
770,75,,1.0,55.0,2625337302-355866.jpg,2238478760-167789.jpg,2.0,,,,A1QSX79P1W1058
771,76,,1.0,56.0,2901938432-367627.jpg,2424122568-45517.jpg,3.0,,,,A1QSX79P1W1058
772,77,,1.0,57.0,2238561223-33794.jpg,2592380177-354626.jpg,2.0,,,,A1QSX79P1W1058
773,78,,1.0,58.0,2238575092-334269.jpg,2964218374-144967.jpg,3.0,,,,A1QSX79P1W1058
774,79,,1.0,59.0,2964224310-219527.jpg,2238490590-169598.jpg,3.0,,,,A1QSX79P1W1058
775,80,,1.0,60.0,2964213381-294060.jpg,2989724308-73930.jpg,3.0,,,,A1QSX79P1W1058
776,81,,1.0,61.0,2898624426-291546.jpg,2864902304-137862.jpg,3.0,,,,A1QSX79P1W1058
777,82,,1.0,62.0,2883272438-68133.jpg,2901936369-143233.jpg,2.0,,,,A1QSX79P1W1058
778,83,,1.0,63.0,2986400320-221190.jpg,2238538133-29662.jpg,3.0,,,,A1QSX79P1W1058
779,84,,1.0,64.0,2449442529-124446.jpg,2864911339-138231.jpg,3.0,,,,A1QSX79P1W1058
780,20,,1.0,0.0,2274829821-263682.jpg,2862687442-360837.jpg,3.0,,,,A1TKQJUFNN40MJ
781,21,,1.0,1.0,2898632385-217138.jpg,2273188118-40829.jpg,2.0,,,,A1TKQJUFNN40MJ
782,22,,1.0,2.0,2238584018-38513.jpg,2449443163-50093.jpg,1.0,,,,A1TKQJUFNN40MJ
783,23,,1.0,3.0,2460547467-349421.jpg,2238470079-92499.jpg,2.0,,,,A1TKQJUFNN40MJ
784,24,,1.0,4.0,2986408352-371293.jpg,2856916345-210056.jpg,3.0,,,,A1TKQJUFNN40MJ
785,25,,1.0,5.0,2862691449-137104.jpg,2986455341-296758.jpg,2.0,,,,A1TKQJUFNN40MJ
786,26,,1.0,6.0,2238584869-113153.jpg,2986455373-73646.jpg,3.0,,,,A1TKQJUFNN40MJ
787,27,,1.0,7.0,2575964140-205050.jpg,2238547522-328488.jpg,2.0,,,,A1TKQJUFNN40MJ
788,28,,1.0,8.0,2986400320-221190.jpg,2989727350-222011.jpg,1.0,,,,A1TKQJUFNN40MJ
789,29,,1.0,9.0,2238496457-319749.jpg,2238570142-333223.jpg,1.0,,,,A1TKQJUFNN40MJ
790,30,left,1.0,10.0,left.jpg,,,left,2.2295,,A1TKQJUFNN40MJ
791,31,,1.0,11.0,2883254439-140941.jpg,2417207511-266975.jpg,3.0,,,,A1TKQJUFNN40MJ
792,32,,1.0,12.0,2883254439-140940.jpg,2812983311-281946.jpg,3.0,,,,A1TKQJUFNN40MJ
793,33,,1.0,13.0,2883272438-68133.jpg,2592380136-279476.jpg,3.0,,,,A1TKQJUFNN40MJ
794,34,,1.0,14.0,2452380166-273109.jpg,2592379781-279345.jpg,2.0,,,,A1TKQJUFNN40MJ
795,35,,1.0,15.0,2964213381-294061.jpg,2238433340-164524.jpg,1.0,,,,A1TKQJUFNN40MJ
796,36,,1.0,16.0,2512876023-52283.jpg,2238576267-334532.jpg,3.0,,,,A1TKQJUFNN40MJ
797,37,,1.0,17.0,2898632385-217137.jpg,2238360884-87525.jpg,1.0,,,,A1TKQJUFNN40MJ
798,38,left,1.0,18.0,left.jpg,,,left,1.8713,,A1TKQJUFNN40MJ
799,39,,1.0,19.0,2238126735-154721.jpg,2575122854-130480.jpg,2.0,,,,A1TKQJUFNN40MJ
800,40,,1.0,20.0,2238429999-90218.jpg,2986448334-147157.jpg,1.0,,,,A1TKQJUFNN40MJ
801,41,,1.0,21.0,2964216465-219242.jpg,2592380049-131079.jpg,1.0,,,,A1TKQJUFNN40MJ
802,42,,1.0,22.0,2898633480-217190.jpg,2986450334-147216.jpg,2.0,,,,A1TKQJUFNN40MJ
803,43,,1.0,23.0,2981231446-294731.jpg,2238568685-183597.jpg,2.0,,,,A1TKQJUFNN40MJ
804,44,,1.0,24.0,2883255450-215311.jpg,2575964014-130589.jpg,3.0,,,,A1TKQJUFNN40MJ
805,45,,1.0,25.0,2964224310-219527.jpg,2238490590-169598.jpg,3.0,,,,A1TKQJUFNN40MJ
806,46,,1.0,26.0,2625337302-355866.jpg,2598726160-205998.jpg,3.0,,,,A1TKQJUFNN40MJ
807,47,,1.0,27.0,2238471391-240918.jpg,2868470400-212889.jpg,1.0,,,,A1TKQJUFNN40MJ
808,48,,1.0,28.0,2868485396-288511.jpg,2868470456-287597.jpg,1.0,,,,A1TKQJUFNN40MJ
809,49,left,1.0,29.0,left.jpg,,,left,2.548,,A1TKQJUFNN40MJ
810,50,,1.0,30.0,2238521193-26286.jpg,2825712309-134957.jpg,1.0,,,,A1TKQJUFNN40MJ
811,51,,1.0,31.0,2238516618-25604.jpg,2238470979-92618.jpg,3.0,,,,A1TKQJUFNN40MJ
812,52,,1.0,32.0,2579432576-279079.jpg,2458348144-125787.jpg,3.0,,,,A1TKQJUFNN40MJ
813,53,,1.0,33.0,2868475410-213219.jpg,2238436851-238821.jpg,3.0,,,,A1TKQJUFNN40MJ
814,54,,1.0,34.0,2238480434-93829.jpg,2592380255-205551.jpg,2.0,,,,A1TKQJUFNN40MJ
815,55,,1.0,35.0,2592380138-56727.jpg,2238537701-251772.jpg,3.0,,,,A1TKQJUFNN40MJ
816,56,,1.0,36.0,2883255450-215309.jpg,2238429999-90216.jpg,1.0,,,,A1TKQJUFNN40MJ
817,57,,1.0,37.0,2238375302-311538.jpg,2460547508-51571.jpg,3.0,,,,A1TKQJUFNN40MJ
818,58,,0.0,38.0,left.jpg,,,left,,,A1TKQJUFNN40MJ
819,59,,1.0,39.0,2994405328-74628.jpg,2417206274-118542.jpg,1.0,,,,A1TKQJUFNN40MJ
820,60,,1.0,40.0,2238129579-80916.jpg,2898618444-142233.jpg,2.0,,,,A1TKQJUFNN40MJ
821,61,,1.0,41.0,2446760940-198145.jpg,2592380188-56743.jpg,2.0,,,,A1TKQJUFNN40MJ
822,62,,1.0,42.0,2964213381-294060.jpg,2238520921-248323.jpg,2.0,,,,A1TKQJUFNN40MJ
823,63,,1.0,43.0,2901934573-69337.jpg,2986401333-73218.jpg,1.0,,,,A1TKQJUFNN40MJ
824,64,,1.0,44.0,2449442529-124446.jpg,2868469458-64561.jpg,2.0,,,,A1TKQJUFNN40MJ
825,65,,1.0,45.0,2898624426-291546.jpg,2986402377-371266.jpg,1.0,,,,A1TKQJUFNN40MJ
826,66,left,1.0,46.0,left.jpg,,,left,1.2859,,A1TKQJUFNN40MJ
827,67,,1.0,47.0,2964209380-218956.jpg,2898631429-142736.jpg,2.0,,,,A1TKQJUFNN40MJ
828,68,,1.0,48.0,2898617468-68274.jpg,2238585512-336576.jpg,2.0,,,,A1TKQJUFNN40MJ
829,69,,1.0,49.0,2864909447-362146.jpg,2874316384-140749.jpg,1.0,,,,A1TKQJUFNN40MJ
830,70,,1.0,50.0,2898626385-216899.jpg,2449442365-198476.jpg,2.0,,,,A1TKQJUFNN40MJ
831,71,,1.0,51.0,2238561223-33794.jpg,2238506233-23904.jpg,1.0,,,,A1TKQJUFNN40MJ
832,72,,1.0,52.0,2901941426-292805.jpg,2238510189-98616.jpg,2.0,,,,A1TKQJUFNN40MJ
833,73,,1.0,53.0,2238499155-170911.jpg,2238373603-13733.jpg,3.0,,,,A1TKQJUFNN40MJ
834,74,,1.0,54.0,2898635427-367120.jpg,2901936309-143207.jpg,3.0,,,,A1TKQJUFNN40MJ
835,75,,1.0,55.0,2446759803-49249.jpg,2592380177-354629.jpg,1.0,,,,A1TKQJUFNN40MJ
836,76,,1.0,56.0,2901938432-367627.jpg,2579432708-56394.jpg,1.0,,,,A1TKQJUFNN40MJ
837,77,,1.0,57.0,2446760524-123999.jpg,2238552469-106359.jpg,2.0,,,,A1TKQJUFNN40MJ
838,78,,1.0,58.0,2964218374-144968.jpg,2238525773-27014.jpg,3.0,,,,A1TKQJUFNN40MJ
839,79,,1.0,59.0,2446758985-197609.jpg,2898633421-291973.jpg,1.0,,,,A1TKQJUFNN40MJ
840,80,,1.0,60.0,2238550049-105691.jpg,2449443271-272729.jpg,2.0,,,,A1TKQJUFNN40MJ
841,81,,1.0,61.0,2331570830-189984.jpg,2458348012-349114.jpg,3.0,,,,A1TKQJUFNN40MJ
842,82,,1.0,62.0,2238575092-334269.jpg,2964218374-144967.jpg,3.0,,,,A1TKQJUFNN40MJ
843,83,,1.0,63.0,2864906345-212360.jpg,2238087237-303447.jpg,2.0,,,,A1TKQJUFNN40MJ
844,84,,1.0,64.0,2901939379-143479.jpg,2986450334-147215.jpg,1.0,,,,A1TKQJUFNN40MJ
845,20,,1.0,0.0,2592380138-56727.jpg,2986419351-296471.jpg,1.0,,,,A1UEMMSI1XUBSW
846,21,,1.0,1.0,2449442529-124446.jpg,2238481610-168214.jpg,1.0,,,,A1UEMMSI1XUBSW
847,22,,1.0,2.0,2238480434-93829.jpg,2238479903-19596.jpg,3.0,,,,A1UEMMSI1XUBSW
848,23,,1.0,3.0,2883254439-140941.jpg,2237965109-79314.jpg,2.0,,,,A1UEMMSI1XUBSW
849,24,,1.0,4.0,2579432576-279079.jpg,2458348144-125787.jpg,3.0,,,,A1UEMMSI1XUBSW
850,25,,1.0,5.0,2238429999-90218.jpg,2901951459-144433.jpg,2.0,,,,A1UEMMSI1XUBSW
851,26,,1.0,6.0,2238129579-80916.jpg,2898618444-142233.jpg,2.0,,,,A1UEMMSI1XUBSW
852,27,,1.0,7.0,2446760940-198145.jpg,2449443300-198739.jpg,1.0,,,,A1UEMMSI1XUBSW
853,28,right,1.0,8.0,right.jpg,,,right,1.2006,,A1UEMMSI1XUBSW
854,29,,1.0,9.0,2898626385-216899.jpg,2898618440-216545.jpg,3.0,,,,A1UEMMSI1XUBSW
855,30,,1.0,10.0,2901938432-367627.jpg,2424122568-45517.jpg,3.0,,,,A1UEMMSI1XUBSW
856,31,,1.0,11.0,2868485396-288511.jpg,2868472420-213024.jpg,2.0,,,,A1UEMMSI1XUBSW
857,32,,1.0,12.0,2981231446-294731.jpg,2238568685-183597.jpg,2.0,,,,A1UEMMSI1XUBSW
858,33,,1.0,13.0,2446758985-197609.jpg,2898633421-291973.jpg,1.0,,,,A1UEMMSI1XUBSW
859,34,,1.0,14.0,2901939379-143479.jpg,2986450334-147215.jpg,1.0,,,,A1UEMMSI1XUBSW
860,35,,1.0,15.0,2274829821-263682.jpg,2446758985-197610.jpg,2.0,,,,A1UEMMSI1XUBSW
861,36,,1.0,16.0,2864909447-362146.jpg,2874303453-66056.jpg,3.0,,,,A1UEMMSI1XUBSW
862,37,,1.0,17.0,2898624426-291546.jpg,2986402377-371266.jpg,1.0,,,,A1UEMMSI1XUBSW
863,38,,1.0,18.0,2986408352-371293.jpg,2868488422-363713.jpg,1.0,,,,A1UEMMSI1XUBSW
864,39,,1.0,19.0,2238496457-319749.jpg,2592380234-131135.jpg,2.0,,,,A1UEMMSI1XUBSW
865,40,,1.0,20.0,2901941426-292805.jpg,2868488422-363715.jpg,1.0,,,,A1UEMMSI1XUBSW
866,41,,1.0,21.0,2964213381-294060.jpg,2898631359-142720.jpg,1.0,,,,A1UEMMSI1XUBSW
867,42,,1.0,22.0,2883254439-140940.jpg,2452380166-273110.jpg,1.0,,,,A1UEMMSI1XUBSW
868,43,left,1.0,23.0,left.jpg,,,left,0.4802,,A1UEMMSI1XUBSW
869,44,,1.0,24.0,2883255450-215309.jpg,2238429999-90216.jpg,1.0,,,,A1UEMMSI1XUBSW
870,45,,1.0,25.0,2898617468-68274.jpg,2862684406-285700.jpg,3.0,,,,A1UEMMSI1XUBSW
871,46,right,1.0,26.0,right.jpg,,,right,2.9566,,A1UEMMSI1XUBSW
872,47,,1.0,27.0,2452380166-273109.jpg,2452380171-273112.jpg,1.0,,,,A1UEMMSI1XUBSW
873,48,,1.0,28.0,2625337302-355866.jpg,2598726160-205998.jpg,3.0,,,,A1UEMMSI1XUBSW
874,49,,1.0,29.0,2238584869-113153.jpg,2864901420-212147.jpg,1.0,,,,A1UEMMSI1XUBSW
875,50,,1.0,30.0,2898633480-217190.jpg,2237858043-1434.jpg,3.0,,,,A1UEMMSI1XUBSW
876,51,,1.0,31.0,2238575092-334269.jpg,2860304305-210777.jpg,2.0,,,,A1UEMMSI1XUBSW
877,52,,1.0,32.0,2964218374-144968.jpg,2238525773-27014.jpg,3.0,,,,A1UEMMSI1XUBSW
878,53,,1.0,33.0,2898635427-367120.jpg,2901936309-143207.jpg,3.0,,,,A1UEMMSI1XUBSW
879,54,,1.0,34.0,2986400320-221190.jpg,2989727350-222011.jpg,1.0,,,,A1UEMMSI1XUBSW
880,55,,1.0,35.0,2238550049-105691.jpg,2449443271-272729.jpg,2.0,,,,A1UEMMSI1XUBSW
881,56,,1.0,36.0,2460547467-349421.jpg,2238554179-106663.jpg,3.0,,,,A1UEMMSI1XUBSW
882,57,,1.0,37.0,2238126735-154721.jpg,2901951430-218724.jpg,3.0,,,,A1UEMMSI1XUBSW
883,58,,1.0,38.0,2994405328-74628.jpg,2883273443-68192.jpg,3.0,,,,A1UEMMSI1XUBSW
884,59,,1.0,39.0,2964224310-219527.jpg,2238490590-169598.jpg,3.0,,,,A1UEMMSI1XUBSW
885,60,,1.0,40.0,2964209380-218956.jpg,2898631429-142736.jpg,2.0,,,,A1UEMMSI1XUBSW
886,61,,1.0,41.0,2883255450-215311.jpg,2868485399-139476.jpg,2.0,,,,A1UEMMSI1XUBSW
887,62,right,1.0,42.0,right.jpg,,,right,0.5628,,A1UEMMSI1XUBSW
888,63,,1.0,43.0,2238471391-240918.jpg,2986399339-146857.jpg,3.0,,,,A1UEMMSI1XUBSW
889,64,,1.0,44.0,2238521193-26286.jpg,2874301437-363905.jpg,2.0,,,,A1UEMMSI1XUBSW
890,65,,1.0,45.0,2883272438-68133.jpg,2237949408-4018.jpg,1.0,,,,A1UEMMSI1XUBSW
891,66,,1.0,46.0,2238499155-170911.jpg,2452380832-348593.jpg,2.0,,,,A1UEMMSI1XUBSW
892,67,right,1.0,47.0,right.jpg,,,right,0.7157,,A1UEMMSI1XUBSW
893,68,,1.0,48.0,2238561223-33794.jpg,2883271323-68049.jpg,3.0,,,,A1UEMMSI1XUBSW
894,69,,1.0,49.0,2446759803-49249.jpg,2592380177-354629.jpg,1.0,,,,A1UEMMSI1XUBSW
895,70,,1.0,50.0,2238584018-38513.jpg,2449443163-50093.jpg,1.0,,,,A1UEMMSI1XUBSW
896,71,,1.0,51.0,2238516618-25604.jpg,2238573549-110485.jpg,1.0,,,,A1UEMMSI1XUBSW
897,72,,1.0,52.0,2964213381-294061.jpg,2989721347-371917.jpg,3.0,,,,A1UEMMSI1XUBSW
898,73,,1.0,53.0,2901934573-69337.jpg,2238345946-235007.jpg,2.0,,,,A1UEMMSI1XUBSW
899,74,,1.0,54.0,2512876023-52283.jpg,2864908323-64106.jpg,1.0,,,,A1UEMMSI1XUBSW
900,75,,1.0,55.0,2238375302-311538.jpg,2460547508-51571.jpg,3.0,,,,A1UEMMSI1XUBSW
901,76,,1.0,56.0,2964216465-219242.jpg,2512875796-274856.jpg,2.0,,,,A1UEMMSI1XUBSW
902,77,,1.0,57.0,2575964140-205050.jpg,2238547522-328488.jpg,2.0,,,,A1UEMMSI1XUBSW
903,78,,1.0,58.0,2898632385-217137.jpg,2238480803-19739.jpg,2.0,,,,A1UEMMSI1XUBSW
904,79,,1.0,59.0,2862691449-137104.jpg,2238540598-30035.jpg,1.0,,,,A1UEMMSI1XUBSW
905,80,,1.0,60.0,2868475410-213219.jpg,2575964140-205051.jpg,2.0,,,,A1UEMMSI1XUBSW
906,81,,1.0,61.0,2864906345-212360.jpg,2238087237-303447.jpg,2.0,,,,A1UEMMSI1XUBSW
907,82,,1.0,62.0,2446760524-123999.jpg,2238552469-106359.jpg,2.0,,,,A1UEMMSI1XUBSW
908,83,,1.0,63.0,2898632385-217138.jpg,2460547992-349586.jpg,3.0,,,,A1UEMMSI1XUBSW
909,84,,1.0,64.0,2331570830-189984.jpg,2458348012-349114.jpg,3.0,,,,A1UEMMSI1XUBSW
910,20,,1.0,0.0,2238521193-26286.jpg,2874301437-363905.jpg,2.0,,,,A1XI05JJT3GPRG
911,21,,1.0,1.0,2964224310-219527.jpg,2238490590-169598.jpg,3.0,,,,A1XI05JJT3GPRG
912,22,,1.0,2.0,2868485396-288511.jpg,2868472420-213024.jpg,2.0,,,,A1XI05JJT3GPRG
913,23,,1.0,3.0,2452380166-273109.jpg,2592379781-279345.jpg,2.0,,,,A1XI05JJT3GPRG
914,24,,1.0,4.0,2901938432-367627.jpg,2579432708-56394.jpg,1.0,,,,A1XI05JJT3GPRG
915,25,,1.0,5.0,2868475410-213219.jpg,2575964140-205051.jpg,2.0,,,,A1XI05JJT3GPRG
916,26,,1.0,6.0,2238584018-38513.jpg,2449443163-50093.jpg,1.0,,,,A1XI05JJT3GPRG
917,27,,1.0,7.0,2238126735-154721.jpg,2901951430-218724.jpg,3.0,,,,A1XI05JJT3GPRG
918,28,,1.0,8.0,2964216465-219242.jpg,2512875796-274856.jpg,2.0,,,,A1XI05JJT3GPRG
919,29,right,1.0,9.0,right.jpg,,,right,1.1176,,A1XI05JJT3GPRG
920,30,,1.0,10.0,2981231446-294731.jpg,2417207297-342139.jpg,3.0,,,,A1XI05JJT3GPRG
921,31,,1.0,11.0,2238516618-25604.jpg,2862686459-136888.jpg,2.0,,,,A1XI05JJT3GPRG
922,32,,1.0,12.0,2575964140-205050.jpg,2238547522-328488.jpg,2.0,,,,A1XI05JJT3GPRG
923,33,,1.0,13.0,2883272438-68133.jpg,2592380136-279476.jpg,3.0,,,,A1XI05JJT3GPRG
924,34,,1.0,14.0,2901939379-143479.jpg,2449443292-348022.jpg,2.0,,,,A1XI05JJT3GPRG
925,35,,1.0,15.0,2862691449-137104.jpg,2238540598-30035.jpg,1.0,,,,A1XI05JJT3GPRG
926,36,left,1.0,16.0,left.jpg,,,left,1.2256,,A1XI05JJT3GPRG
927,37,,1.0,17.0,2238429999-90218.jpg,2986448334-147157.jpg,1.0,,,,A1XI05JJT3GPRG
928,38,,1.0,18.0,2446760940-198145.jpg,2592380188-56743.jpg,2.0,,,,A1XI05JJT3GPRG
929,39,,1.0,19.0,2901941426-292805.jpg,2901945303-70125.jpg,3.0,,,,A1XI05JJT3GPRG
930,40,,1.0,20.0,2864909447-362146.jpg,2874316384-140749.jpg,1.0,,,,A1XI05JJT3GPRG
931,41,,1.0,21.0,2964209380-218956.jpg,2898617396-291219.jpg,3.0,,,,A1XI05JJT3GPRG
932,42,,1.0,22.0,2986408352-371293.jpg,2868488422-363713.jpg,1.0,,,,A1XI05JJT3GPRG
933,43,,1.0,23.0,2898624426-291546.jpg,2549106844-127878.jpg,2.0,,,,A1XI05JJT3GPRG
934,44,,1.0,24.0,2238584869-113153.jpg,2864901420-212147.jpg,1.0,,,,A1XI05JJT3GPRG
935,45,,1.0,25.0,2898632385-217137.jpg,2864904453-63932.jpg,3.0,,,,A1XI05JJT3GPRG
936,46,,1.0,26.0,2238129579-80916.jpg,2898618444-142233.jpg,2.0,,,,A1XI05JJT3GPRG
937,47,,1.0,27.0,2592380138-56727.jpg,2238537701-251772.jpg,3.0,,,,A1XI05JJT3GPRG
938,48,,1.0,28.0,2446758985-197609.jpg,2984618344-146295.jpg,3.0,,,,A1XI05JJT3GPRG
939,49,,1.0,29.0,2446759803-49249.jpg,2592380177-354629.jpg,1.0,,,,A1XI05JJT3GPRG
940,50,,1.0,30.0,2898626385-216899.jpg,2989715328-73658.jpg,1.0,,,,A1XI05JJT3GPRG
941,51,,1.0,31.0,2898632385-217138.jpg,2460547992-349586.jpg,3.0,,,,A1XI05JJT3GPRG
942,52,,1.0,32.0,2238550049-105691.jpg,2238482972-317759.jpg,1.0,,,,A1XI05JJT3GPRG
943,53,left,1.0,33.0,left.jpg,,,left,1.1153,,A1XI05JJT3GPRG
944,54,,1.0,34.0,2986400320-221190.jpg,2238538133-29662.jpg,3.0,,,,A1XI05JJT3GPRG
945,55,,1.0,35.0,2449442529-124446.jpg,2238481610-168214.jpg,1.0,,,,A1XI05JJT3GPRG
946,56,,1.0,36.0,2864906345-212360.jpg,2994403305-222559.jpg,3.0,,,,A1XI05JJT3GPRG
947,57,,1.0,37.0,2238375302-311538.jpg,2592380049-131077.jpg,2.0,,,,A1XI05JJT3GPRG
948,58,,1.0,38.0,2898635427-367120.jpg,2237941457-301342.jpg,2.0,,,,A1XI05JJT3GPRG
949,59,,1.0,39.0,2964213381-294060.jpg,2989724308-73930.jpg,3.0,,,,A1XI05JJT3GPRG
950,60,left,1.0,40.0,left.jpg,,,left,1.2272,,A1XI05JJT3GPRG
951,61,,1.0,41.0,2579432576-279079.jpg,2446760226-272006.jpg,2.0,,,,A1XI05JJT3GPRG
952,62,,1.0,42.0,2964218374-144968.jpg,2238521157-323782.jpg,2.0,,,,A1XI05JJT3GPRG
953,63,,1.0,43.0,2238499155-170911.jpg,2446760621-272103.jpg,1.0,,,,A1XI05JJT3GPRG
954,64,,1.0,44.0,2883255450-215309.jpg,2238562336-256366.jpg,3.0,,,,A1XI05JJT3GPRG
955,65,,1.0,45.0,2331570830-189984.jpg,2458348012-349114.jpg,3.0,,,,A1XI05JJT3GPRG
956,66,,1.0,46.0,2883255450-215311.jpg,2868485399-139476.jpg,2.0,,,,A1XI05JJT3GPRG
957,67,,1.0,47.0,2512876023-52283.jpg,2864908323-64106.jpg,1.0,,,,A1XI05JJT3GPRG
958,68,right,1.0,48.0,right.jpg,,,right,1.4464,,A1XI05JJT3GPRG
959,69,,1.0,49.0,2901934573-69337.jpg,2986401333-73218.jpg,1.0,,,,A1XI05JJT3GPRG
960,70,,1.0,50.0,2994405328-74628.jpg,2883273443-68192.jpg,3.0,,,,A1XI05JJT3GPRG
961,71,,1.0,51.0,2898617468-68274.jpg,2862684406-285700.jpg,3.0,,,,A1XI05JJT3GPRG
962,72,,1.0,52.0,2964213381-294061.jpg,2989721347-371917.jpg,3.0,,,,A1XI05JJT3GPRG
963,73,,1.0,53.0,2460547467-349421.jpg,2901934573-69336.jpg,1.0,,,,A1XI05JJT3GPRG
964,74,,1.0,54.0,2238471391-240918.jpg,2868470400-212889.jpg,1.0,,,,A1XI05JJT3GPRG
965,75,,1.0,55.0,2274829821-263682.jpg,2446758985-197610.jpg,2.0,,,,A1XI05JJT3GPRG
966,76,,1.0,56.0,2238496457-319749.jpg,2592380234-131135.jpg,2.0,,,,A1XI05JJT3GPRG
967,77,,1.0,57.0,2238575092-334269.jpg,2860304305-210777.jpg,2.0,,,,A1XI05JJT3GPRG
968,78,,1.0,58.0,2446760524-123999.jpg,2446760621-272102.jpg,1.0,,,,A1XI05JJT3GPRG
969,79,,1.0,59.0,2898633480-217190.jpg,2237858043-1434.jpg,3.0,,,,A1XI05JJT3GPRG
970,80,,1.0,60.0,2238561223-33794.jpg,2883271323-68049.jpg,3.0,,,,A1XI05JJT3GPRG
971,81,,1.0,61.0,2883254439-140940.jpg,2452380166-273110.jpg,1.0,,,,A1XI05JJT3GPRG
972,82,,1.0,62.0,2883254439-140941.jpg,2989724308-73928.jpg,1.0,,,,A1XI05JJT3GPRG
973,83,,1.0,63.0,2625337302-355866.jpg,2238478760-167789.jpg,2.0,,,,A1XI05JJT3GPRG
974,84,,1.0,64.0,2238480434-93829.jpg,2804906319-133082.jpg,1.0,,,,A1XI05JJT3GPRG
975,20,,1.0,0.0,2964209380-218956.jpg,2898631429-142736.jpg,2.0,,,,A2CXF9V4KEA8AW
976,21,,1.0,1.0,2238126735-154721.jpg,2575122854-130480.jpg,2.0,,,,A2CXF9V4KEA8AW
977,22,,1.0,2.0,2238550049-105691.jpg,2964219468-71238.jpg,3.0,,,,A2CXF9V4KEA8AW
978,23,,1.0,3.0,2238375302-311538.jpg,2592380049-131077.jpg,2.0,,,,A2CXF9V4KEA8AW
979,24,,1.0,4.0,2868485396-288511.jpg,2238380314-88261.jpg,3.0,,,,A2CXF9V4KEA8AW
980,25,,1.0,5.0,2898626385-216899.jpg,2898618440-216545.jpg,3.0,,,,A2CXF9V4KEA8AW
981,26,,1.0,6.0,2446760524-123999.jpg,2446760621-272102.jpg,1.0,,,,A2CXF9V4KEA8AW
982,27,,1.0,7.0,2238584869-113153.jpg,2864901420-212147.jpg,1.0,,,,A2CXF9V4KEA8AW
983,28,,1.0,8.0,2901934573-69337.jpg,2238345946-235007.jpg,2.0,,,,A2CXF9V4KEA8AW
984,29,right,1.0,9.0,right.jpg,,,right,1.6106,,A2CXF9V4KEA8AW
985,30,,1.0,10.0,2964213381-294060.jpg,2989724308-73930.jpg,3.0,,,,A2CXF9V4KEA8AW
986,31,,1.0,11.0,2460547467-349421.jpg,2238554179-106663.jpg,3.0,,,,A2CXF9V4KEA8AW
987,32,,1.0,12.0,2575964140-205050.jpg,2238482920-168428.jpg,1.0,,,,A2CXF9V4KEA8AW
988,33,,1.0,13.0,2898632385-217138.jpg,2273188118-40829.jpg,2.0,,,,A2CXF9V4KEA8AW
989,34,,1.0,14.0,2238561223-33794.jpg,2238506233-23904.jpg,1.0,,,,A2CXF9V4KEA8AW
990,35,,1.0,15.0,2238129579-80916.jpg,2460547477-349426.jpg,1.0,,,,A2CXF9V4KEA8AW
991,36,,1.0,16.0,2901939379-143479.jpg,2449443292-348022.jpg,2.0,,,,A2CXF9V4KEA8AW
992,37,,1.0,17.0,2452380166-273109.jpg,2592379781-279345.jpg,2.0,,,,A2CXF9V4KEA8AW
993,38,,0.0,18.0,right.jpg,,,right,,,A2CXF9V4KEA8AW
994,39,,1.0,19.0,2592380138-56727.jpg,2238537701-251772.jpg,3.0,,,,A2CXF9V4KEA8AW
995,40,,1.0,20.0,2986408352-371293.jpg,2868488422-363713.jpg,1.0,,,,A2CXF9V4KEA8AW
996,41,,1.0,21.0,2901941426-292805.jpg,2901945303-70125.jpg,3.0,,,,A2CXF9V4KEA8AW
997,42,,1.0,22.0,2898635427-367120.jpg,2237941457-301342.jpg,2.0,,,,A2CXF9V4KEA8AW
998,43,,1.0,23.0,2238521193-26286.jpg,2446760306-272024.jpg,3.0,,,,A2CXF9V4KEA8AW
999,44,,1.0,24.0,2964224310-219527.jpg,2964213441-294073.jpg,2.0,,,,A2CXF9V4KEA8AW
1000,45,,1.0,25.0,2238499155-170911.jpg,2446760621-272103.jpg,1.0,,,,A2CXF9V4KEA8AW
1001,46,left,1.0,26.0,left.jpg,,,left,1.541,,A2CXF9V4KEA8AW
1002,47,,1.0,27.0,2883254439-140941.jpg,2237965109-79314.jpg,2.0,,,,A2CXF9V4KEA8AW
1003,48,,1.0,28.0,2898632385-217137.jpg,2238480803-19739.jpg,2.0,,,,A2CXF9V4KEA8AW
1004,49,,1.0,29.0,2964216465-219242.jpg,2446760917-347439.jpg,3.0,,,,A2CXF9V4KEA8AW
1005,50,,1.0,30.0,2883255450-215311.jpg,2238481575-168208.jpg,1.0,,,,A2CXF9V4KEA8AW
1006,51,,1.0,31.0,2579432576-279079.jpg,2901934574-143126.jpg,1.0,,,,A2CXF9V4KEA8AW
1007,52,,1.0,32.0,2446758985-197609.jpg,2898633421-291973.jpg,1.0,,,,A2CXF9V4KEA8AW
1008,53,,1.0,33.0,2883272438-68133.jpg,2901936369-143233.jpg,2.0,,,,A2CXF9V4KEA8AW
1009,54,,1.0,34.0,2898624426-291546.jpg,2986402377-371266.jpg,1.0,,,,A2CXF9V4KEA8AW
1010,55,,1.0,35.0,2883254439-140940.jpg,2452380166-273110.jpg,1.0,,,,A2CXF9V4KEA8AW
1011,56,,1.0,36.0,2238429999-90218.jpg,2901951459-144433.jpg,2.0,,,,A2CXF9V4KEA8AW
1012,57,,1.0,37.0,2331570830-189984.jpg,2449442529-124445.jpg,2.0,,,,A2CXF9V4KEA8AW
1013,58,,1.0,38.0,2864906345-212360.jpg,2986397365-221133.jpg,1.0,,,,A2CXF9V4KEA8AW
1014,59,,1.0,39.0,2274829821-263682.jpg,2238570526-257884.jpg,1.0,,,,A2CXF9V4KEA8AW
1015,60,,1.0,40.0,2512876023-52283.jpg,2238576267-334532.jpg,3.0,,,,A2CXF9V4KEA8AW
1016,61,,1.0,41.0,2238496457-319749.jpg,2460547467-349422.jpg,3.0,,,,A2CXF9V4KEA8AW
1017,62,right,1.0,42.0,right.jpg,,,right,1.4893,,A2CXF9V4KEA8AW
1018,63,,1.0,43.0,2883255450-215309.jpg,2868476439-138927.jpg,2.0,,,,A2CXF9V4KEA8AW
1019,64,,1.0,44.0,2994405328-74628.jpg,2825702353-60662.jpg,2.0,,,,A2CXF9V4KEA8AW
1020,65,,1.0,45.0,2964213381-294061.jpg,2981234334-145491.jpg,2.0,,,,A2CXF9V4KEA8AW
1021,66,,1.0,46.0,2238471391-240918.jpg,2868470400-212889.jpg,1.0,,,,A2CXF9V4KEA8AW
1022,67,,1.0,47.0,2864909447-362146.jpg,2874316384-140749.jpg,1.0,,,,A2CXF9V4KEA8AW
1023,68,,1.0,48.0,2446759803-49249.jpg,2238498786-244797.jpg,3.0,,,,A2CXF9V4KEA8AW
1024,69,left,1.0,49.0,left.jpg,,,left,1.8812,,A2CXF9V4KEA8AW
1025,70,,1.0,50.0,2449442529-124446.jpg,2238481610-168214.jpg,1.0,,,,A2CXF9V4KEA8AW
1026,71,,1.0,51.0,2238516618-25604.jpg,2238470979-92618.jpg,3.0,,,,A2CXF9V4KEA8AW
1027,72,,1.0,52.0,2446760940-198145.jpg,2446760692-347392.jpg,3.0,,,,A2CXF9V4KEA8AW
1028,73,,1.0,53.0,2238575092-334269.jpg,2964218374-144967.jpg,3.0,,,,A2CXF9V4KEA8AW
1029,74,,1.0,54.0,2625337302-355866.jpg,2238478760-167789.jpg,2.0,,,,A2CXF9V4KEA8AW
1030,75,,1.0,55.0,2901938432-367627.jpg,2424122568-45517.jpg,3.0,,,,A2CXF9V4KEA8AW
1031,76,,1.0,56.0,2898633480-217190.jpg,2237858043-1434.jpg,3.0,,,,A2CXF9V4KEA8AW
1032,77,,1.0,57.0,2238584018-38513.jpg,2898633321-291943.jpg,2.0,,,,A2CXF9V4KEA8AW
1033,78,,1.0,58.0,2964218374-144968.jpg,2238525773-27014.jpg,3.0,,,,A2CXF9V4KEA8AW
1034,79,,1.0,59.0,2238480434-93829.jpg,2238479903-19596.jpg,3.0,,,,A2CXF9V4KEA8AW
1035,80,,1.0,60.0,2862691449-137104.jpg,2238328478-11678.jpg,3.0,,,,A2CXF9V4KEA8AW
1036,81,,1.0,61.0,2986400320-221190.jpg,2989727350-222011.jpg,1.0,,,,A2CXF9V4KEA8AW
1037,82,,1.0,62.0,2898617468-68274.jpg,2512875899-126682.jpg,1.0,,,,A2CXF9V4KEA8AW
1038,83,,1.0,63.0,2868475410-213219.jpg,2238216693-10721.jpg,1.0,,,,A2CXF9V4KEA8AW
1039,84,,1.0,64.0,2981231446-294731.jpg,2238568685-183597.jpg,2.0,,,,A2CXF9V4KEA8AW
1040,20,,1.0,0.0,2986400320-221190.jpg,2238470979-92615.jpg,2.0,,,,A2S95C6RJJBD29
1041,21,,1.0,1.0,2868485396-288511.jpg,2868470456-287597.jpg,1.0,,,,A2S95C6RJJBD29
1042,22,,1.0,2.0,2238429999-90218.jpg,2986448334-147157.jpg,1.0,,,,A2S95C6RJJBD29
1043,23,,1.0,3.0,2898633480-217190.jpg,2237858043-1434.jpg,3.0,,,,A2S95C6RJJBD29
1044,24,,1.0,4.0,2898626385-216899.jpg,2989715328-73658.jpg,1.0,,,,A2S95C6RJJBD29
1045,25,,1.0,5.0,2898632385-217137.jpg,2864904453-63932.jpg,3.0,,,,A2S95C6RJJBD29
1046,26,,1.0,6.0,2901938432-367627.jpg,2424122568-45517.jpg,3.0,,,,A2S95C6RJJBD29
1047,27,,1.0,7.0,2986408352-371293.jpg,2446759580-197801.jpg,2.0,,,,A2S95C6RJJBD29
1048,28,,1.0,8.0,2238375302-311538.jpg,2460547508-51571.jpg,3.0,,,,A2S95C6RJJBD29
1049,29,,1.0,9.0,2238126735-154721.jpg,2901951430-218724.jpg,3.0,,,,A2S95C6RJJBD29
1050,30,,1.0,10.0,2449442529-124446.jpg,2864911339-138231.jpg,3.0,,,,A2S95C6RJJBD29
1051,31,,1.0,11.0,2868475410-213219.jpg,2238216693-10721.jpg,1.0,,,,A2S95C6RJJBD29
1052,32,right,1.0,12.0,right.jpg,,,right,2.064,,A2S95C6RJJBD29
1053,33,,1.0,13.0,2964213381-294061.jpg,2989721347-371917.jpg,3.0,,,,A2S95C6RJJBD29
1054,34,,1.0,14.0,2238521193-26286.jpg,2446760306-272024.jpg,3.0,,,,A2S95C6RJJBD29
1055,35,,1.0,15.0,2452380166-273109.jpg,2452380171-273112.jpg,1.0,,,,A2S95C6RJJBD29
1056,36,,1.0,16.0,2331570830-189984.jpg,2449442529-124445.jpg,2.0,,,,A2S95C6RJJBD29
1057,37,,1.0,17.0,2883272438-68133.jpg,2237949408-4018.jpg,1.0,,,,A2S95C6RJJBD29
1058,38,,1.0,18.0,2864909447-362146.jpg,2874303453-66056.jpg,3.0,,,,A2S95C6RJJBD29
1059,39,,1.0,19.0,2575964140-205050.jpg,2238547522-328488.jpg,2.0,,,,A2S95C6RJJBD29
1060,40,right,1.0,20.0,right.jpg,,,right,1.1098,,A2S95C6RJJBD29
1061,41,,1.0,21.0,2883255450-215311.jpg,2868485399-139476.jpg,2.0,,,,A2S95C6RJJBD29
1062,42,,1.0,22.0,2898624426-291546.jpg,2549106844-127878.jpg,2.0,,,,A2S95C6RJJBD29
1063,43,,1.0,23.0,2446758985-197609.jpg,2635396318-58409.jpg,2.0,,,,A2S95C6RJJBD29
1064,44,,1.0,24.0,2883255450-215309.jpg,2238562336-256366.jpg,3.0,,,,A2S95C6RJJBD29
1065,45,,1.0,25.0,2238561223-33794.jpg,2238506233-23904.jpg,1.0,,,,A2S95C6RJJBD29
1066,46,left,1.0,26.0,left.jpg,,,left,0.9026,,A2S95C6RJJBD29
1067,47,,1.0,27.0,2238480434-93829.jpg,2804906319-133082.jpg,1.0,,,,A2S95C6RJJBD29
1068,48,,1.0,28.0,2446760524-123999.jpg,2238539138-29878.jpg,3.0,,,,A2S95C6RJJBD29
1069,49,,1.0,29.0,2964218374-144968.jpg,2238411877-313125.jpg,1.0,,,,A2S95C6RJJBD29
1070,50,,1.0,30.0,2238499155-170911.jpg,2238373603-13733.jpg,3.0,,,,A2S95C6RJJBD29
1071,51,,1.0,31.0,2446760940-198145.jpg,2446760692-347392.jpg,3.0,,,,A2S95C6RJJBD29
1072,52,,1.0,32.0,2898635427-367120.jpg,2238436632-314069.jpg,1.0,,,,A2S95C6RJJBD29
1073,53,,1.0,33.0,2901941426-292805.jpg,2868488422-363715.jpg,1.0,,,,A2S95C6RJJBD29
1074,54,,1.0,34.0,2238129579-80916.jpg,2238161924-82646.jpg,3.0,,,,A2S95C6RJJBD29
1075,55,,1.0,35.0,2592380138-56727.jpg,2430664847-345753.jpg,2.0,,,,A2S95C6RJJBD29
1076,56,left,1.0,36.0,left.jpg,,,left,1.1156,,A2S95C6RJJBD29
1077,57,,1.0,37.0,2964224310-219527.jpg,2964213441-294073.jpg,2.0,,,,A2S95C6RJJBD29
1078,58,,1.0,38.0,2898632385-217138.jpg,2273188118-40829.jpg,2.0,,,,A2S95C6RJJBD29
1079,59,,1.0,39.0,2981231446-294731.jpg,2238568685-183597.jpg,2.0,,,,A2S95C6RJJBD29
1080,60,,1.0,40.0,2238471391-240918.jpg,2901943388-69995.jpg,2.0,,,,A2S95C6RJJBD29
1081,61,,1.0,41.0,2238496457-319749.jpg,2592380234-131135.jpg,2.0,,,,A2S95C6RJJBD29
1082,62,,1.0,42.0,2238516618-25604.jpg,2238573549-110485.jpg,1.0,,,,A2S95C6RJJBD29
1083,63,,1.0,43.0,2883254439-140941.jpg,2417207511-266975.jpg,3.0,,,,A2S95C6RJJBD29
1084,64,,1.0,44.0,2460547467-349421.jpg,2901934573-69336.jpg,1.0,,,,A2S95C6RJJBD29
1085,65,,1.0,45.0,2964216465-219242.jpg,2446760917-347439.jpg,3.0,,,,A2S95C6RJJBD29
1086,66,,1.0,46.0,2579432576-279079.jpg,2446760226-272006.jpg,2.0,,,,A2S95C6RJJBD29
1087,67,,1.0,47.0,2238575092-334269.jpg,2964218374-144967.jpg,3.0,,,,A2S95C6RJJBD29
1088,68,,1.0,48.0,2898617468-68274.jpg,2238585512-336576.jpg,2.0,,,,A2S95C6RJJBD29
1089,69,,1.0,49.0,2238584018-38513.jpg,2898633321-291943.jpg,2.0,,,,A2S95C6RJJBD29
1090,70,,1.0,50.0,2883254439-140940.jpg,2575121890-204630.jpg,2.0,,,,A2S95C6RJJBD29
1091,71,left,0.0,51.0,right.jpg,,,right,1.0005,,A2S95C6RJJBD29
1092,72,,1.0,52.0,2238584869-113153.jpg,2864901420-212147.jpg,1.0,,,,A2S95C6RJJBD29
1093,73,,1.0,53.0,2512876023-52283.jpg,2864908323-64106.jpg,1.0,,,,A2S95C6RJJBD29
1094,74,,1.0,54.0,2274829821-263682.jpg,2238570526-257884.jpg,1.0,,,,A2S95C6RJJBD29
1095,75,,1.0,55.0,2964209380-218956.jpg,2898631429-142736.jpg,2.0,,,,A2S95C6RJJBD29
1096,76,,1.0,56.0,2964213381-294060.jpg,2898631359-142720.jpg,1.0,,,,A2S95C6RJJBD29
1097,77,,1.0,57.0,2901934573-69337.jpg,2238345946-235007.jpg,2.0,,,,A2S95C6RJJBD29
1098,78,,1.0,58.0,2864906345-212360.jpg,2986397365-221133.jpg,1.0,,,,A2S95C6RJJBD29
1099,79,,1.0,59.0,2446759803-49249.jpg,2238468265-166556.jpg,2.0,,,,A2S95C6RJJBD29
1100,80,,1.0,60.0,2625337302-355866.jpg,2598726160-205998.jpg,3.0,,,,A2S95C6RJJBD29
1101,81,,1.0,61.0,2994405328-74628.jpg,2417206274-118542.jpg,1.0,,,,A2S95C6RJJBD29
1102,82,,1.0,62.0,2238550049-105691.jpg,2964219468-71238.jpg,3.0,,,,A2S95C6RJJBD29
1103,83,,1.0,63.0,2901939379-143479.jpg,2986450334-147215.jpg,1.0,,,,A2S95C6RJJBD29
1104,84,,1.0,64.0,2862691449-137104.jpg,2238328478-11678.jpg,3.0,,,,A2S95C6RJJBD29
1105,20,,1.0,0.0,2898626385-216899.jpg,2898618440-216545.jpg,3.0,,,,A2TCX20FIMNWSS
1106,21,,1.0,1.0,2238471391-240918.jpg,2901943388-69995.jpg,2.0,,,,A2TCX20FIMNWSS
1107,22,,1.0,2.0,2964218374-144968.jpg,2238411877-313125.jpg,1.0,,,,A2TCX20FIMNWSS
1108,23,,1.0,3.0,2238584869-113153.jpg,2986455373-73646.jpg,3.0,,,,A2TCX20FIMNWSS
1109,24,,1.0,4.0,2868485396-288511.jpg,2238380314-88261.jpg,3.0,,,,A2TCX20FIMNWSS
1110,25,,1.0,5.0,2964213381-294060.jpg,2238520921-248323.jpg,2.0,,,,A2TCX20FIMNWSS
1111,26,,1.0,6.0,2446758985-197609.jpg,2984618344-146295.jpg,3.0,,,,A2TCX20FIMNWSS
1112,27,,1.0,7.0,2883254439-140940.jpg,2812983311-281946.jpg,3.0,,,,A2TCX20FIMNWSS
1113,28,right,1.0,8.0,right.jpg,,,right,0.852,,A2TCX20FIMNWSS
1114,29,,1.0,9.0,2868475410-213219.jpg,2575964140-205051.jpg,2.0,,,,A2TCX20FIMNWSS
1115,30,,1.0,10.0,2986408352-371293.jpg,2868488422-363713.jpg,1.0,,,,A2TCX20FIMNWSS
1116,31,,1.0,11.0,2883255450-215309.jpg,2868476439-138927.jpg,2.0,,,,A2TCX20FIMNWSS
1117,32,,1.0,12.0,2986400320-221190.jpg,2989727350-222011.jpg,1.0,,,,A2TCX20FIMNWSS
1118,33,,1.0,13.0,2452380166-273109.jpg,2592379781-279345.jpg,2.0,,,,A2TCX20FIMNWSS
1119,34,,1.0,14.0,2864909447-362146.jpg,2238555799-106905.jpg,2.0,,,,A2TCX20FIMNWSS
1120,35,,1.0,15.0,2981231446-294731.jpg,2986450330-221526.jpg,1.0,,,,A2TCX20FIMNWSS
1121,36,,1.0,16.0,2579432576-279079.jpg,2458348144-125787.jpg,3.0,,,,A2TCX20FIMNWSS
1122,37,,1.0,17.0,2575964140-205050.jpg,2238482920-168428.jpg,1.0,,,,A2TCX20FIMNWSS
1123,38,right,1.0,18.0,right.jpg,,,right,0.8445,,A2TCX20FIMNWSS
1124,39,,1.0,19.0,2331570830-189984.jpg,2458348012-349114.jpg,3.0,,,,A2TCX20FIMNWSS
1125,40,,1.0,20.0,2964224310-219527.jpg,2238380178-14011.jpg,1.0,,,,A2TCX20FIMNWSS
1126,41,,1.0,21.0,2898632385-217137.jpg,2864904453-63932.jpg,3.0,,,,A2TCX20FIMNWSS
1127,42,,1.0,22.0,2512876023-52283.jpg,2864908323-64106.jpg,1.0,,,,A2TCX20FIMNWSS
1128,43,,1.0,23.0,2883272438-68133.jpg,2901936369-143233.jpg,2.0,,,,A2TCX20FIMNWSS
1129,44,,1.0,24.0,2238550049-105691.jpg,2964219468-71238.jpg,3.0,,,,A2TCX20FIMNWSS
1130,45,,1.0,25.0,2901941426-292805.jpg,2238510189-98616.jpg,2.0,,,,A2TCX20FIMNWSS
1131,46,,1.0,26.0,2238126735-154721.jpg,2856919327-359676.jpg,1.0,,,,A2TCX20FIMNWSS
1132,47,,1.0,27.0,2238561223-33794.jpg,2592380177-354626.jpg,2.0,,,,A2TCX20FIMNWSS
1133,48,,1.0,28.0,2901938432-367627.jpg,2424122568-45517.jpg,3.0,,,,A2TCX20FIMNWSS
1134,49,,1.0,29.0,2592380138-56727.jpg,2986419351-296471.jpg,1.0,,,,A2TCX20FIMNWSS
1135,50,,1.0,30.0,2901934573-69337.jpg,2986401333-73218.jpg,1.0,,,,A2TCX20FIMNWSS
1136,51,left,1.0,31.0,left.jpg,,,left,0.9257,,A2TCX20FIMNWSS
1137,52,,1.0,32.0,2864906345-212360.jpg,2238087237-303447.jpg,2.0,,,,A2TCX20FIMNWSS
1138,53,,1.0,33.0,2901939379-143479.jpg,2864909422-362141.jpg,3.0,,,,A2TCX20FIMNWSS
1139,54,,1.0,34.0,2460547467-349421.jpg,2238554179-106663.jpg,3.0,,,,A2TCX20FIMNWSS
1140,55,,1.0,35.0,2449442529-124446.jpg,2864911339-138231.jpg,3.0,,,,A2TCX20FIMNWSS
1141,56,,1.0,36.0,2238516618-25604.jpg,2238470979-92618.jpg,3.0,,,,A2TCX20FIMNWSS
1142,57,,1.0,37.0,2238375302-311538.jpg,2592380049-131077.jpg,2.0,,,,A2TCX20FIMNWSS
1143,58,,1.0,38.0,2238499155-170911.jpg,2238373603-13733.jpg,3.0,,,,A2TCX20FIMNWSS
1144,59,,1.0,39.0,2446760940-198145.jpg,2449443300-198739.jpg,1.0,,,,A2TCX20FIMNWSS
1145,60,,1.0,40.0,2274829821-263682.jpg,2862687442-360837.jpg,3.0,,,,A2TCX20FIMNWSS
1146,61,,1.0,41.0,2238129579-80916.jpg,2898618444-142233.jpg,2.0,,,,A2TCX20FIMNWSS
1147,62,,1.0,42.0,2994405328-74628.jpg,2825702353-60662.jpg,2.0,,,,A2TCX20FIMNWSS
1148,63,left,1.0,43.0,left.jpg,,,left,0.8602,,A2TCX20FIMNWSS
1149,64,,1.0,44.0,2446760524-123999.jpg,2238552469-106359.jpg,2.0,,,,A2TCX20FIMNWSS
1150,65,,1.0,45.0,2964216465-219242.jpg,2592380049-131079.jpg,1.0,,,,A2TCX20FIMNWSS
1151,66,,1.0,46.0,2898633480-217190.jpg,2237858043-1434.jpg,3.0,,,,A2TCX20FIMNWSS
1152,67,,1.0,47.0,2238521193-26286.jpg,2874301437-363905.jpg,2.0,,,,A2TCX20FIMNWSS
1153,68,,1.0,48.0,2883254439-140941.jpg,2989724308-73928.jpg,1.0,,,,A2TCX20FIMNWSS
1154,69,,1.0,49.0,2898632385-217138.jpg,2460547992-349586.jpg,3.0,,,,A2TCX20FIMNWSS
1155,70,,1.0,50.0,2238584018-38513.jpg,2898633321-291943.jpg,2.0,,,,A2TCX20FIMNWSS
1156,71,,1.0,51.0,2238429999-90218.jpg,2964222378-71332.jpg,3.0,,,,A2TCX20FIMNWSS
1157,72,,1.0,52.0,2883255450-215311.jpg,2575964014-130589.jpg,3.0,,,,A2TCX20FIMNWSS
1158,73,right,1.0,53.0,right.jpg,,,right,0.9965,,A2TCX20FIMNWSS
1159,74,,1.0,54.0,2898635427-367120.jpg,2237941457-301342.jpg,2.0,,,,A2TCX20FIMNWSS
1160,75,,1.0,55.0,2964209380-218956.jpg,2868488456-288710.jpg,1.0,,,,A2TCX20FIMNWSS
1161,76,,1.0,56.0,2238496457-319749.jpg,2592380234-131135.jpg,2.0,,,,A2TCX20FIMNWSS
1162,77,,1.0,57.0,2862691449-137104.jpg,2238540598-30035.jpg,1.0,,,,A2TCX20FIMNWSS
1163,78,,1.0,58.0,2446759803-49249.jpg,2592380177-354629.jpg,1.0,,,,A2TCX20FIMNWSS
1164,79,,1.0,59.0,2964213381-294061.jpg,2238433340-164524.jpg,1.0,,,,A2TCX20FIMNWSS
1165,80,,1.0,60.0,2898617468-68274.jpg,2512875899-126682.jpg,1.0,,,,A2TCX20FIMNWSS
1166,81,,1.0,61.0,2898624426-291546.jpg,2549106844-127878.jpg,2.0,,,,A2TCX20FIMNWSS
1167,82,,1.0,62.0,2625337302-355866.jpg,2425492472-343825.jpg,1.0,,,,A2TCX20FIMNWSS
1168,83,,1.0,63.0,2238575092-334269.jpg,2860304305-210777.jpg,2.0,,,,A2TCX20FIMNWSS
1169,84,,1.0,64.0,2238480434-93829.jpg,2804906319-133082.jpg,1.0,,,,A2TCX20FIMNWSS
1170,20,,1.0,0.0,2898633480-217190.jpg,2446760147-347245.jpg,1.0,,,,A2VO0CD0Z21DE4
1171,21,,1.0,1.0,2864909447-362146.jpg,2874316384-140749.jpg,1.0,,,,A2VO0CD0Z21DE4
1172,22,,1.0,2.0,2883255450-215311.jpg,2575964014-130589.jpg,3.0,,,,A2VO0CD0Z21DE4
1173,23,,1.0,3.0,2901938432-367627.jpg,2579432708-56394.jpg,1.0,,,,A2VO0CD0Z21DE4
1174,24,,1.0,4.0,2446758985-197609.jpg,2984618344-146295.jpg,3.0,,,,A2VO0CD0Z21DE4
1175,25,,1.0,5.0,2625337302-355866.jpg,2425492472-343825.jpg,1.0,,,,A2VO0CD0Z21DE4
1176,26,,1.0,6.0,2883254439-140940.jpg,2452380166-273110.jpg,1.0,,,,A2VO0CD0Z21DE4
1177,27,,1.0,7.0,2238575092-334269.jpg,2964218374-144967.jpg,3.0,,,,A2VO0CD0Z21DE4
1178,28,,1.0,8.0,2964209380-218956.jpg,2868488456-288710.jpg,1.0,,,,A2VO0CD0Z21DE4
1179,29,,1.0,9.0,2883272438-68133.jpg,2901936369-143233.jpg,2.0,,,,A2VO0CD0Z21DE4
1180,30,left,1.0,10.0,left.jpg,,,left,0.7672,,A2VO0CD0Z21DE4
1181,31,,1.0,11.0,2446760940-198145.jpg,2446760692-347392.jpg,3.0,,,,A2VO0CD0Z21DE4
1182,32,,1.0,12.0,2512876023-52283.jpg,2898636443-69154.jpg,2.0,,,,A2VO0CD0Z21DE4
1183,33,,1.0,13.0,2901939379-143479.jpg,2449443292-348022.jpg,2.0,,,,A2VO0CD0Z21DE4
1184,34,,1.0,14.0,2868485396-288511.jpg,2238380314-88261.jpg,3.0,,,,A2VO0CD0Z21DE4
1185,35,,1.0,15.0,2994405328-74628.jpg,2825702353-60662.jpg,2.0,,,,A2VO0CD0Z21DE4
1186,36,,1.0,16.0,2898632385-217137.jpg,2864904453-63932.jpg,3.0,,,,A2VO0CD0Z21DE4
1187,37,,1.0,17.0,2238550049-105691.jpg,2238482972-317759.jpg,1.0,,,,A2VO0CD0Z21DE4
1188,38,,1.0,18.0,2238375302-311538.jpg,2592380049-131077.jpg,2.0,,,,A2VO0CD0Z21DE4
1189,39,left,1.0,19.0,left.jpg,,,left,0.7089,,A2VO0CD0Z21DE4
1190,40,,1.0,20.0,2868475410-213219.jpg,2238436851-238821.jpg,3.0,,,,A2VO0CD0Z21DE4
1191,41,,1.0,21.0,2981231446-294731.jpg,2238568685-183597.jpg,2.0,,,,A2VO0CD0Z21DE4
1192,42,,1.0,22.0,2898624426-291546.jpg,2864902304-137862.jpg,3.0,,,,A2VO0CD0Z21DE4
1193,43,,1.0,23.0,2898635427-367120.jpg,2901936309-143207.jpg,3.0,,,,A2VO0CD0Z21DE4
1194,44,,1.0,24.0,2579432576-279079.jpg,2446760226-272006.jpg,2.0,,,,A2VO0CD0Z21DE4
1195,45,,1.0,25.0,2986400320-221190.jpg,2238538133-29662.jpg,3.0,,,,A2VO0CD0Z21DE4
1196,46,,1.0,26.0,2238496457-319749.jpg,2592380234-131135.jpg,2.0,,,,A2VO0CD0Z21DE4
1197,47,,1.0,27.0,2883254439-140941.jpg,2237965109-79314.jpg,2.0,,,,A2VO0CD0Z21DE4
1198,48,,1.0,28.0,2446759803-49249.jpg,2238498786-244797.jpg,3.0,,,,A2VO0CD0Z21DE4
1199,49,,1.0,29.0,2901941426-292805.jpg,2238510189-98616.jpg,2.0,,,,A2VO0CD0Z21DE4
1200,50,right,1.0,30.0,right.jpg,,,right,0.5943,,A2VO0CD0Z21DE4
1201,51,,1.0,31.0,2883255450-215309.jpg,2238429999-90216.jpg,1.0,,,,A2VO0CD0Z21DE4
1202,52,,1.0,32.0,2898632385-217138.jpg,2575120738-55529.jpg,1.0,,,,A2VO0CD0Z21DE4
1203,53,,1.0,33.0,2238561223-33794.jpg,2238506233-23904.jpg,1.0,,,,A2VO0CD0Z21DE4
1204,54,,1.0,34.0,2238480434-93829.jpg,2592380255-205551.jpg,2.0,,,,A2VO0CD0Z21DE4
1205,55,,1.0,35.0,2238521193-26286.jpg,2874301437-363905.jpg,2.0,,,,A2VO0CD0Z21DE4
1206,56,,1.0,36.0,2986408352-371293.jpg,2856916345-210056.jpg,3.0,,,,A2VO0CD0Z21DE4
1207,57,,1.0,37.0,2238129579-80916.jpg,2898618444-142233.jpg,2.0,,,,A2VO0CD0Z21DE4
1208,58,,1.0,38.0,2862691449-137104.jpg,2238540598-30035.jpg,1.0,,,,A2VO0CD0Z21DE4
1209,59,,1.0,39.0,2964213381-294060.jpg,2238520921-248323.jpg,2.0,,,,A2VO0CD0Z21DE4
1210,60,,1.0,40.0,2592380138-56727.jpg,2986419351-296471.jpg,1.0,,,,A2VO0CD0Z21DE4
1211,61,,1.0,41.0,2898626385-216899.jpg,2989715328-73658.jpg,1.0,,,,A2VO0CD0Z21DE4
1212,62,,1.0,42.0,2238499155-170911.jpg,2446760621-272103.jpg,1.0,,,,A2VO0CD0Z21DE4
1213,63,,1.0,43.0,2238429999-90218.jpg,2901951459-144433.jpg,2.0,,,,A2VO0CD0Z21DE4
1214,64,right,1.0,44.0,right.jpg,,,right,0.6316,,A2VO0CD0Z21DE4
1215,65,,1.0,45.0,2238471391-240918.jpg,2868470400-212889.jpg,1.0,,,,A2VO0CD0Z21DE4
1216,66,,1.0,46.0,2238516618-25604.jpg,2238470979-92618.jpg,3.0,,,,A2VO0CD0Z21DE4
1217,67,,1.0,47.0,2460547467-349421.jpg,2238554179-106663.jpg,3.0,,,,A2VO0CD0Z21DE4
1218,68,,1.0,48.0,2449442529-124446.jpg,2868469458-64561.jpg,2.0,,,,A2VO0CD0Z21DE4
1219,69,,1.0,49.0,2864906345-212360.jpg,2994403305-222559.jpg,3.0,,,,A2VO0CD0Z21DE4
1220,70,,1.0,50.0,2238584018-38513.jpg,2452381442-348755.jpg,3.0,,,,A2VO0CD0Z21DE4
1221,71,,1.0,51.0,2964224310-219527.jpg,2238380178-14011.jpg,1.0,,,,A2VO0CD0Z21DE4
1222,72,,1.0,52.0,2964213381-294061.jpg,2981234334-145491.jpg,2.0,,,,A2VO0CD0Z21DE4
1223,73,,1.0,53.0,2446760524-123999.jpg,2238539138-29878.jpg,3.0,,,,A2VO0CD0Z21DE4
1224,74,right,1.0,54.0,right.jpg,,,right,0.537,,A2VO0CD0Z21DE4
1225,75,,1.0,55.0,2238126735-154721.jpg,2575122854-130480.jpg,2.0,,,,A2VO0CD0Z21DE4
1226,76,,1.0,56.0,2575964140-205050.jpg,2238482920-168428.jpg,1.0,,,,A2VO0CD0Z21DE4
1227,77,,1.0,57.0,2331570830-189984.jpg,2458348012-349114.jpg,3.0,,,,A2VO0CD0Z21DE4
1228,78,,1.0,58.0,2964216465-219242.jpg,2592380049-131079.jpg,1.0,,,,A2VO0CD0Z21DE4
1229,79,,1.0,59.0,2898617468-68274.jpg,2238585512-336576.jpg,2.0,,,,A2VO0CD0Z21DE4
1230,80,,1.0,60.0,2238584869-113153.jpg,2864901420-212147.jpg,1.0,,,,A2VO0CD0Z21DE4
1231,81,,1.0,61.0,2901934573-69337.jpg,2901936407-367476.jpg,3.0,,,,A2VO0CD0Z21DE4
1232,82,,1.0,62.0,2274829821-263682.jpg,2446758985-197610.jpg,2.0,,,,A2VO0CD0Z21DE4
1233,83,,1.0,63.0,2964218374-144968.jpg,2238411877-313125.jpg,1.0,,,,A2VO0CD0Z21DE4
1234,84,,1.0,64.0,2452380166-273109.jpg,2238380901-236499.jpg,3.0,,,,A2VO0CD0Z21DE4
1235,20,,1.0,0.0,2964216465-219242.jpg,2446760917-347439.jpg,3.0,,,,A2WJMGV0HKQG3Z
