,workID,Age,Gender,target,image1,image2,correct,background_0,background_1,background_2,background_3,background_4,background_5,target_index,test_key_resp.keys,test_key_resp.rt,distractor_level,category,selected_dist,slider_part2.response,slider_part2.rt,subject
0,A382IYPJDT9UV6,35,female,playground_257.jpg,playground_215.jpg,playground_257.jpg,right,golf_course_164.jpg,bridge_52.jpg,playground_257.jpg,mountain_277.jpg,badlands_67.jpg,highway_90.jpg,2.0,left,2.0085,1.0,playground,playground_215.jpg,5.962962963,5.1206,A382IYPJDT9UV6
1,A382IYPJDT9UV6,35,female,bridge_146.jpg,bridge_121.jpg,bridge_146.jpg,right,bridge_146.jpg,highway_319.jpg,golf_course_328.jpg,playground_26.jpg,mountain_251.jpg,badlands_185.jpg,0.0,right,3.5013,1.0,bridge,bridge_121.jpg,3.97037037,10.3936,A382IYPJDT9UV6
2,A382IYPJDT9UV6,35,female,highway_245.jpg,highway_134.jpg,highway_245.jpg,right,playground_241.jpg,badlands_183.jpg,mountain_226.jpg,bridge_173.jpg,highway_245.jpg,golf_course_179.jpg,4.0,right,2.8993,0.0,highway,highway_134.jpg,5.0,4.3025,A382IYPJDT9UV6
3,A382IYPJDT9UV6,35,female,highway_156.jpg,highway_156.jpg,highway_293.jpg,left,golf_course_202.jpg,playground_54.jpg,bridge_117.jpg,mountain_32.jpg,highway_156.jpg,badlands_97.jpg,4.0,left,1.6532,1.0,highway,highway_293.jpg,8.007407407,2.8723,A382IYPJDT9UV6
4,A382IYPJDT9UV6,35,female,highway_93.jpg,highway_85.jpg,highway_93.jpg,right,playground_15.jpg,mountain_45.jpg,golf_course_238.jpg,badlands_35.jpg,highway_93.jpg,bridge_144.jpg,4.0,left,2.8628,0.0,highway,highway_85.jpg,1.007407407,4.1446,A382IYPJDT9UV6
5,A382IYPJDT9UV6,35,female,badlands_184.jpg,badlands_184.jpg,badlands_228.jpg,left,highway_18.jpg,bridge_76.jpg,badlands_184.jpg,playground_162.jpg,golf_course_307.jpg,mountain_151.jpg,2.0,right,2.4954,0.0,badlands,badlands_228.jpg,5.962962963,3.6902,A382IYPJDT9UV6
6,A382IYPJDT9UV6,35,female,highway_294.jpg,highway_368.jpg,highway_294.jpg,right,mountain_92.jpg,bridge_155.jpg,golf_course_241.jpg,highway_294.jpg,badlands_30.jpg,playground_16.jpg,3.0,right,3.4483,1.0,highway,highway_368.jpg,3.992592593,3.3371,A382IYPJDT9UV6
7,A382IYPJDT9UV6,35,female,badlands_137.jpg,badlands_139.jpg,badlands_137.jpg,right,badlands_137.jpg,mountain_87.jpg,playground_195.jpg,highway_246.jpg,golf_course_138.jpg,bridge_68.jpg,0.0,left,1.492,1.0,badlands,badlands_139.jpg,2.985185185,3.3849,A382IYPJDT9UV6
8,A382IYPJDT9UV6,35,female,playground_145.jpg,playground_145.jpg,playground_229.jpg,left,playground_145.jpg,golf_course_162.jpg,badlands_213.jpg,highway_81.jpg,bridge_218.jpg,mountain_187.jpg,0.0,right,3.6756,0.0,playground,playground_229.jpg,8.992592593,4.5474,A382IYPJDT9UV6
9,A382IYPJDT9UV6,35,female,playground_144.jpg,playground_144.jpg,playground_65.jpg,left,badlands_166.jpg,golf_course_199.jpg,bridge_118.jpg,playground_144.jpg,highway_9.jpg,mountain_176.jpg,3.0,right,1.5145,1.0,playground,playground_65.jpg,7.0,2.3146,A382IYPJDT9UV6
10,A382IYPJDT9UV6,35,female,mountain_232.jpg,mountain_232.jpg,mountain_3.jpg,left,golf_course_265.jpg,playground_55.jpg,bridge_86.jpg,mountain_232.jpg,highway_251.jpg,badlands_120.jpg,3.0,right,2.0293,0.0,mountain,mountain_3.jpg,3.985185185,2.6033,A382IYPJDT9UV6
11,A382IYPJDT9UV6,35,female,playground_219.jpg,playground_21.jpg,playground_219.jpg,right,badlands_216.jpg,playground_219.jpg,bridge_197.jpg,mountain_22.jpg,golf_course_72.jpg,highway_290.jpg,1.0,left,8.1778,0.0,playground,playground_21.jpg,7.977777778,3.0167,A382IYPJDT9UV6
12,A382IYPJDT9UV6,35,female,golf_course_214.jpg,golf_course_317.jpg,golf_course_214.jpg,right,bridge_238.jpg,golf_course_214.jpg,badlands_9.jpg,mountain_88.jpg,highway_147.jpg,playground_50.jpg,1.0,right,2.5477,1.0,golf,golf_course_317.jpg,2.007407407,2.367,A382IYPJDT9UV6
13,A382IYPJDT9UV6,35,female,mountain_101.jpg,mountain_171.jpg,mountain_101.jpg,right,mountain_101.jpg,highway_31.jpg,playground_83.jpg,bridge_167.jpg,badlands_121.jpg,golf_course_308.jpg,0.0,left,2.8822,0.0,mountain,mountain_171.jpg,3.977777778,2.6844,A382IYPJDT9UV6
14,A382IYPJDT9UV6,35,female,highway_273.jpg,highway_171.jpg,highway_273.jpg,right,badlands_36.jpg,bridge_87.jpg,highway_273.jpg,mountain_19.jpg,golf_course_269.jpg,playground_74.jpg,2.0,right,2.6897,1.0,highway,highway_171.jpg,5.977777778,5.353,A382IYPJDT9UV6
15,A382IYPJDT9UV6,35,female,bridge_191.jpg,bridge_191.jpg,bridge_184.jpg,left,mountain_233.jpg,golf_course_102.jpg,bridge_191.jpg,badlands_105.jpg,highway_399.jpg,playground_103.jpg,2.0,left,1.8932,0.0,bridge,bridge_184.jpg,1.992592593,3.627,A382IYPJDT9UV6
16,A382IYPJDT9UV6,35,female,golf_course_193.jpg,golf_course_235.jpg,golf_course_193.jpg,right,mountain_160.jpg,golf_course_193.jpg,badlands_128.jpg,highway_193.jpg,playground_49.jpg,bridge_266.jpg,1.0,right,3.0161,0.0,golf,golf_course_235.jpg,7.977777778,2.7827,A382IYPJDT9UV6
17,A382IYPJDT9UV6,35,female,badlands_221.jpg,badlands_221.jpg,badlands_115.jpg,left,bridge_120.jpg,golf_course_166.jpg,highway_29.jpg,badlands_221.jpg,mountain_199.jpg,playground_6.jpg,3.0,left,2.0135,0.0,badlands,badlands_115.jpg,8.948148148,2.7997,A382IYPJDT9UV6
18,A382IYPJDT9UV6,35,female,badlands_70.jpg,badlands_119.jpg,badlands_70.jpg,right,badlands_70.jpg,golf_course_282.jpg,highway_342.jpg,mountain_34.jpg,playground_39.jpg,bridge_147.jpg,0.0,left,2.2804,1.0,badlands,badlands_119.jpg,4.0,2.7023,A382IYPJDT9UV6
19,A382IYPJDT9UV6,35,female,bridge_65.jpg,bridge_65.jpg,bridge_181.jpg,left,bridge_65.jpg,highway_288.jpg,badlands_201.jpg,playground_184.jpg,mountain_39.jpg,golf_course_128.jpg,0.0,left,2.0362,0.0,bridge,bridge_181.jpg,6.955555556,5.9387,A382IYPJDT9UV6
20,A382IYPJDT9UV6,35,female,mountain_154.jpg,mountain_154.jpg,mountain_95.jpg,left,highway_141.jpg,badlands_59.jpg,golf_course_338.jpg,mountain_154.jpg,bridge_20.jpg,playground_153.jpg,3.0,right,1.6857,1.0,mountain,mountain_95.jpg,5.940740741,2.6212,A382IYPJDT9UV6
21,A382IYPJDT9UV6,35,female,highway_209.jpg,highway_314.jpg,highway_209.jpg,right,bridge_24.jpg,playground_47.jpg,mountain_120.jpg,highway_209.jpg,badlands_80.jpg,golf_course_42.jpg,3.0,left,1.8677,0.0,highway,highway_314.jpg,1.985185185,2.7542,A382IYPJDT9UV6
22,A382IYPJDT9UV6,35,female,bridge_128.jpg,bridge_244.jpg,bridge_128.jpg,right,playground_176.jpg,bridge_128.jpg,mountain_290.jpg,highway_17.jpg,badlands_150.jpg,golf_course_56.jpg,1.0,right,1.8321,1.0,bridge,bridge_244.jpg,7.97037037,3.1249,A382IYPJDT9UV6
23,A382IYPJDT9UV6,35,female,bridge_108.jpg,bridge_148.jpg,bridge_108.jpg,right,bridge_108.jpg,playground_251.jpg,highway_101.jpg,mountain_204.jpg,badlands_10.jpg,golf_course_59.jpg,0.0,right,2.1991,1.0,bridge,bridge_148.jpg,2.977777778,4.0343,A382IYPJDT9UV6
24,A382IYPJDT9UV6,35,female,bridge_172.jpg,bridge_17.jpg,bridge_172.jpg,right,highway_50.jpg,bridge_172.jpg,playground_173.jpg,mountain_190.jpg,badlands_219.jpg,golf_course_133.jpg,1.0,right,3.2471,0.0,bridge,bridge_17.jpg,6.962962963,3.1711,A382IYPJDT9UV6
25,A382IYPJDT9UV6,35,female,mountain_123.jpg,mountain_189.jpg,mountain_123.jpg,right,highway_83.jpg,mountain_123.jpg,badlands_55.jpg,bridge_110.jpg,playground_248.jpg,golf_course_219.jpg,1.0,left,6.9939,1.0,mountain,mountain_189.jpg,2.962962963,6.0268,A382IYPJDT9UV6
26,A382IYPJDT9UV6,35,female,badlands_113.jpg,badlands_203.jpg,badlands_113.jpg,right,mountain_102.jpg,highway_315.jpg,golf_course_71.jpg,badlands_113.jpg,bridge_140.jpg,playground_7.jpg,3.0,right,9.9451,1.0,badlands,badlands_203.jpg,6.962962963,2.7067,A382IYPJDT9UV6
27,A382IYPJDT9UV6,35,female,golf_course_78.jpg,golf_course_78.jpg,golf_course_101.jpg,left,golf_course_78.jpg,highway_154.jpg,mountain_268.jpg,badlands_156.jpg,bridge_254.jpg,playground_140.jpg,0.0,right,4.3411,1.0,golf,golf_course_101.jpg,8.014814815,2.4953,A382IYPJDT9UV6
28,A382IYPJDT9UV6,35,female,playground_10.jpg,playground_12.jpg,playground_10.jpg,right,highway_265.jpg,bridge_169.jpg,mountain_51.jpg,playground_10.jpg,badlands_175.jpg,golf_course_61.jpg,3.0,right,3.1482,1.0,playground,playground_12.jpg,6.992592593,2.2075,A382IYPJDT9UV6
29,A382IYPJDT9UV6,35,female,playground_117.jpg,playground_167.jpg,playground_117.jpg,right,golf_course_176.jpg,bridge_66.jpg,playground_117.jpg,badlands_170.jpg,mountain_41.jpg,highway_37.jpg,2.0,left,5.424,0.0,playground,playground_167.jpg,5.007407407,3.1963,A382IYPJDT9UV6
30,A382IYPJDT9UV6,35,female,golf_course_331.jpg,golf_course_331.jpg,golf_course_26.jpg,left,golf_course_331.jpg,bridge_225.jpg,playground_14.jpg,badlands_152.jpg,mountain_146.jpg,highway_313.jpg,0.0,left,2.4635,1.0,golf,golf_course_26.jpg,7.97037037,2.5608,A382IYPJDT9UV6
31,A382IYPJDT9UV6,35,female,mountain_222.jpg,mountain_222.jpg,mountain_93.jpg,left,mountain_222.jpg,badlands_72.jpg,golf_course_297.jpg,playground_126.jpg,highway_76.jpg,bridge_156.jpg,0.0,right,2.711,1.0,mountain,mountain_93.jpg,8.962962963,2.8333,A382IYPJDT9UV6
32,A382IYPJDT9UV6,35,female,bridge_91.jpg,bridge_91.jpg,bridge_253.jpg,left,bridge_91.jpg,golf_course_305.jpg,mountain_29.jpg,badlands_215.jpg,highway_274.jpg,playground_222.jpg,0.0,left,2.3834,0.0,bridge,bridge_253.jpg,1.985185185,3.0014,A382IYPJDT9UV6
33,A382IYPJDT9UV6,35,female,badlands_222.jpg,badlands_62.jpg,badlands_222.jpg,right,mountain_206.jpg,golf_course_313.jpg,badlands_222.jpg,highway_287.jpg,bridge_74.jpg,playground_36.jpg,2.0,right,2.2796,1.0,badlands,badlands_62.jpg,2.955555556,2.5665,A382IYPJDT9UV6
34,A382IYPJDT9UV6,35,female,golf_course_195.jpg,golf_course_25.jpg,golf_course_195.jpg,right,bridge_234.jpg,playground_30.jpg,badlands_20.jpg,highway_365.jpg,golf_course_195.jpg,mountain_35.jpg,4.0,right,35.9245,0.0,golf,golf_course_25.jpg,4.940740741,2.1604,A382IYPJDT9UV6
35,A382IYPJDT9UV6,35,female,badlands_23.jpg,badlands_23.jpg,badlands_114.jpg,left,golf_course_196.jpg,bridge_64.jpg,mountain_253.jpg,badlands_23.jpg,playground_196.jpg,highway_30.jpg,3.0,left,1.701,0.0,badlands,badlands_114.jpg,3.955555556,2.3881,A382IYPJDT9UV6
36,A382IYPJDT9UV6,35,female,bridge_250.jpg,bridge_134.jpg,bridge_250.jpg,right,badlands_164.jpg,bridge_250.jpg,highway_15.jpg,mountain_40.jpg,playground_110.jpg,golf_course_171.jpg,1.0,left,2.9051,0.0,bridge,bridge_134.jpg,6.0,3.9932,A382IYPJDT9UV6
37,A382IYPJDT9UV6,35,female,badlands_52.jpg,badlands_52.jpg,badlands_63.jpg,left,badlands_52.jpg,playground_78.jpg,bridge_126.jpg,highway_268.jpg,golf_course_212.jpg,mountain_89.jpg,0.0,right,1.4603,1.0,badlands,badlands_63.jpg,6.940740741,2.5451,A382IYPJDT9UV6
38,A382IYPJDT9UV6,35,female,playground_131.jpg,playground_164.jpg,playground_131.jpg,right,golf_course_218.jpg,highway_308.jpg,playground_131.jpg,mountain_62.jpg,badlands_214.jpg,bridge_45.jpg,2.0,left,2.1316,1.0,playground,playground_164.jpg,2.992592593,2.2723,A382IYPJDT9UV6
39,A382IYPJDT9UV6,35,female,highway_359.jpg,highway_379.jpg,highway_359.jpg,right,bridge_22.jpg,badlands_27.jpg,mountain_126.jpg,highway_359.jpg,golf_course_120.jpg,playground_237.jpg,3.0,right,2.1463,1.0,highway,highway_379.jpg,7.948148148,2.5892,A382IYPJDT9UV6
40,A382IYPJDT9UV6,35,female,mountain_110.jpg,mountain_110.jpg,mountain_157.jpg,left,mountain_110.jpg,golf_course_55.jpg,highway_413.jpg,badlands_44.jpg,playground_42.jpg,bridge_133.jpg,0.0,left,2.4577,0.0,mountain,mountain_157.jpg,5.992592593,2.2617,A382IYPJDT9UV6
41,A382IYPJDT9UV6,35,female,badlands_21.jpg,badlands_1.jpg,badlands_21.jpg,right,highway_28.jpg,playground_37.jpg,mountain_309.jpg,badlands_21.jpg,golf_course_41.jpg,bridge_106.jpg,3.0,right,2.9712,0.0,badlands,badlands_1.jpg,2.985185185,2.1849,A382IYPJDT9UV6
42,A382IYPJDT9UV6,35,female,mountain_230.jpg,mountain_97.jpg,mountain_230.jpg,right,bridge_136.jpg,playground_227.jpg,highway_191.jpg,golf_course_316.jpg,mountain_230.jpg,badlands_46.jpg,4.0,left,9.2408,1.0,mountain,mountain_97.jpg,7.007407407,3.8785,A382IYPJDT9UV6
43,A382IYPJDT9UV6,35,female,highway_415.jpg,highway_60.jpg,highway_415.jpg,right,badlands_6.jpg,bridge_179.jpg,playground_191.jpg,highway_415.jpg,golf_course_342.jpg,mountain_135.jpg,3.0,right,2.3402,0.0,highway,highway_60.jpg,3.992592593,3.236,A382IYPJDT9UV6
44,A382IYPJDT9UV6,35,female,highway_177.jpg,highway_87.jpg,highway_177.jpg,right,mountain_294.jpg,badlands_104.jpg,bridge_102.jpg,playground_256.jpg,highway_177.jpg,golf_course_253.jpg,4.0,right,2.7247,0.0,highway,highway_87.jpg,7.948148148,4.6283,A382IYPJDT9UV6
45,A382IYPJDT9UV6,35,female,golf_course_309.jpg,golf_course_309.jpg,golf_course_16.jpg,left,highway_247.jpg,bridge_158.jpg,playground_204.jpg,golf_course_309.jpg,mountain_302.jpg,badlands_85.jpg,3.0,right,1.4569,0.0,golf,golf_course_16.jpg,7.955555556,5.6619,A382IYPJDT9UV6
46,A382IYPJDT9UV6,35,female,playground_76.jpg,playground_72.jpg,playground_76.jpg,right,playground_76.jpg,mountain_137.jpg,badlands_81.jpg,bridge_152.jpg,golf_course_333.jpg,highway_148.jpg,0.0,right,1.7445,1.0,playground,playground_72.jpg,5.97037037,2.3178,A382IYPJDT9UV6
47,A382IYPJDT9UV6,35,female,golf_course_15.jpg,golf_course_97.jpg,golf_course_15.jpg,right,golf_course_15.jpg,badlands_217.jpg,highway_404.jpg,playground_235.jpg,bridge_4.jpg,mountain_192.jpg,0.0,right,2.1716,1.0,golf,golf_course_97.jpg,2.985185185,2.1125,A382IYPJDT9UV6
48,A382IYPJDT9UV6,35,female,mountain_156.jpg,mountain_156.jpg,mountain_128.jpg,left,golf_course_291.jpg,playground_118.jpg,badlands_129.jpg,bridge_180.jpg,mountain_156.jpg,highway_354.jpg,4.0,left,1.9818,0.0,mountain,mountain_128.jpg,2.992592593,2.1591,A382IYPJDT9UV6
49,A382IYPJDT9UV6,35,female,highway_394.jpg,highway_204.jpg,highway_394.jpg,right,golf_course_226.jpg,mountain_256.jpg,bridge_164.jpg,badlands_157.jpg,highway_394.jpg,playground_258.jpg,4.0,right,2.7471,0.0,highway,highway_204.jpg,6.962962963,2.3296,A382IYPJDT9UV6
50,A382IYPJDT9UV6,35,female,golf_course_87.jpg,golf_course_130.jpg,golf_course_87.jpg,right,highway_78.jpg,playground_84.jpg,bridge_112.jpg,mountain_166.jpg,golf_course_87.jpg,badlands_16.jpg,4.0,right,57.7715,0.0,golf,golf_course_130.jpg,4.97037037,4.3154,A382IYPJDT9UV6
51,A382IYPJDT9UV6,35,female,bridge_256.jpg,bridge_256.jpg,bridge_54.jpg,left,bridge_256.jpg,highway_3.jpg,golf_course_23.jpg,badlands_173.jpg,playground_63.jpg,mountain_43.jpg,0.0,left,3.8825,0.0,bridge,bridge_54.jpg,3.007407407,4.0609,A382IYPJDT9UV6
52,A382IYPJDT9UV6,35,female,badlands_24.jpg,badlands_24.jpg,badlands_53.jpg,left,playground_85.jpg,highway_269.jpg,badlands_24.jpg,golf_course_181.jpg,bridge_35.jpg,mountain_198.jpg,2.0,right,2.5458,1.0,badlands,badlands_53.jpg,7.007407407,2.2783,A382IYPJDT9UV6
53,A382IYPJDT9UV6,35,female,bridge_202.jpg,bridge_38.jpg,bridge_202.jpg,right,playground_141.jpg,mountain_143.jpg,golf_course_0.jpg,bridge_202.jpg,highway_226.jpg,badlands_79.jpg,3.0,left,2.1435,1.0,bridge,bridge_38.jpg,3.97037037,2.7689,A382IYPJDT9UV6
54,A382IYPJDT9UV6,35,female,playground_240.jpg,playground_2.jpg,playground_240.jpg,right,highway_199.jpg,mountain_249.jpg,badlands_33.jpg,playground_240.jpg,bridge_79.jpg,golf_course_174.jpg,3.0,right,2.805,0.0,playground,playground_2.jpg,8.955555556,3.4468,A382IYPJDT9UV6
55,A382IYPJDT9UV6,35,female,mountain_57.jpg,mountain_57.jpg,mountain_138.jpg,left,badlands_88.jpg,golf_course_221.jpg,mountain_57.jpg,playground_246.jpg,highway_33.jpg,bridge_142.jpg,2.0,right,2.3154,1.0,mountain,mountain_138.jpg,4.985185185,2.7409,A382IYPJDT9UV6
56,A382IYPJDT9UV6,35,female,playground_60.jpg,playground_60.jpg,playground_244.jpg,left,golf_course_288.jpg,bridge_193.jpg,badlands_174.jpg,playground_60.jpg,mountain_228.jpg,highway_42.jpg,3.0,left,1.7843,1.0,playground,playground_244.jpg,6.97037037,2.5137,A382IYPJDT9UV6
57,A382IYPJDT9UV6,35,female,golf_course_188.jpg,golf_course_160.jpg,golf_course_188.jpg,right,highway_257.jpg,playground_233.jpg,badlands_227.jpg,golf_course_188.jpg,bridge_63.jpg,mountain_306.jpg,3.0,right,8.2447,1.0,golf,golf_course_160.jpg,1.985185185,3.0968,A382IYPJDT9UV6
58,A382IYPJDT9UV6,35,female,mountain_293.jpg,mountain_72.jpg,mountain_293.jpg,right,mountain_293.jpg,bridge_190.jpg,playground_154.jpg,highway_305.jpg,badlands_211.jpg,golf_course_105.jpg,0.0,right,2.5603,0.0,mountain,mountain_72.jpg,4.977777778,3.2206,A382IYPJDT9UV6
59,A382IYPJDT9UV6,35,female,golf_course_217.jpg,golf_course_262.jpg,golf_course_217.jpg,right,badlands_60.jpg,playground_61.jpg,highway_138.jpg,golf_course_217.jpg,bridge_212.jpg,mountain_202.jpg,3.0,left,1.4945,1.0,golf,golf_course_262.jpg,6.962962963,2.9906,A382IYPJDT9UV6
60,A2KLIBLDVDV144,35,MALE,mountain_232.jpg,mountain_54.jpg,mountain_232.jpg,right,bridge_212.jpg,badlands_213.jpg,mountain_232.jpg,highway_399.jpg,playground_118.jpg,golf_course_221.jpg,2.0,right,4.6856,1.0,mountain,mountain_54.jpg,7.027883397,2.2768,A2KLIBLDVDV144
61,A2KLIBLDVDV144,35,MALE,golf_course_15.jpg,golf_course_15.jpg,golf_course_113.jpg,left,bridge_234.jpg,golf_course_15.jpg,badlands_173.jpg,highway_247.jpg,playground_195.jpg,mountain_62.jpg,1.0,left,3.042,0.0,golf,golf_course_113.jpg,3.986058302,8.229,A2KLIBLDVDV144
62,A2KLIBLDVDV144,35,MALE,badlands_24.jpg,badlands_24.jpg,badlands_53.jpg,left,badlands_24.jpg,mountain_228.jpg,highway_148.jpg,playground_237.jpg,bridge_24.jpg,golf_course_241.jpg,0.0,right,5.6927,1.0,badlands,badlands_53.jpg,6.977186312,3.0955,A2KLIBLDVDV144
63,A2KLIBLDVDV144,35,MALE,bridge_202.jpg,bridge_38.jpg,bridge_202.jpg,right,bridge_202.jpg,mountain_204.jpg,golf_course_226.jpg,badlands_201.jpg,playground_256.jpg,highway_269.jpg,0.0,left,9.2236,1.0,bridge,bridge_38.jpg,6.013941698,3.2979,A2KLIBLDVDV144
64,A2KLIBLDVDV144,35,MALE,playground_240.jpg,playground_40.jpg,playground_240.jpg,right,badlands_211.jpg,highway_315.jpg,bridge_197.jpg,golf_course_166.jpg,playground_240.jpg,mountain_212.jpg,4.0,right,3.5858,1.0,playground,playground_40.jpg,7.007604563,3.9585,A2KLIBLDVDV144
65,A2KLIBLDVDV144,35,MALE,bridge_172.jpg,bridge_163.jpg,bridge_172.jpg,right,highway_31.jpg,playground_36.jpg,mountain_309.jpg,bridge_172.jpg,golf_course_3.jpg,badlands_166.jpg,3.0,right,11.989,1.0,bridge,bridge_163.jpg,7.980988593,1.9114,A2KLIBLDVDV144
66,A2KLIBLDVDV144,35,MALE,badlands_137.jpg,badlands_139.jpg,badlands_137.jpg,right,bridge_1.jpg,golf_course_308.jpg,playground_251.jpg,highway_251.jpg,badlands_137.jpg,mountain_33.jpg,4.0,right,28.3568,1.0,badlands,badlands_139.jpg,7.980988593,1.5495,A2KLIBLDVDV144
67,A2KLIBLDVDV144,35,MALE,highway_415.jpg,highway_60.jpg,highway_415.jpg,right,highway_415.jpg,playground_26.jpg,badlands_164.jpg,bridge_180.jpg,mountain_92.jpg,golf_course_342.jpg,0.0,right,11.6915,0.0,highway,highway_60.jpg,5.993662864,3.9442,A2KLIBLDVDV144
68,A2KLIBLDVDV144,35,MALE,badlands_222.jpg,badlands_222.jpg,badlands_34.jpg,left,golf_course_67.jpg,badlands_222.jpg,highway_413.jpg,mountain_302.jpg,playground_191.jpg,bridge_52.jpg,1.0,left,1.7861,0.0,badlands,badlands_34.jpg,4.979721166,4.2416,A2KLIBLDVDV144
69,A2KLIBLDVDV144,35,MALE,golf_course_309.jpg,golf_course_309.jpg,golf_course_16.jpg,left,playground_47.jpg,golf_course_309.jpg,badlands_215.jpg,mountain_32.jpg,highway_42.jpg,bridge_224.jpg,1.0,left,3.8775,0.0,golf,golf_course_16.jpg,6.977186312,21.3344,A2KLIBLDVDV144
70,A2KLIBLDVDV144,35,MALE,playground_76.jpg,playground_76.jpg,playground_22.jpg,left,golf_course_238.jpg,playground_76.jpg,mountain_135.jpg,bridge_79.jpg,badlands_171.jpg,highway_335.jpg,1.0,right,6.091,0.0,playground,playground_22.jpg,5.993662864,2.3364,A2KLIBLDVDV144
71,A2KLIBLDVDV144,35,MALE,highway_93.jpg,highway_93.jpg,highway_85.jpg,left,highway_93.jpg,badlands_156.jpg,playground_68.jpg,golf_course_41.jpg,mountain_143.jpg,bridge_124.jpg,0.0,left,1.8129,0.0,highway,highway_85.jpg,5.953105196,55.8019,A2KLIBLDVDV144
72,A2KLIBLDVDV144,35,MALE,mountain_123.jpg,mountain_94.jpg,mountain_123.jpg,right,highway_147.jpg,playground_6.jpg,mountain_123.jpg,golf_course_179.jpg,bridge_155.jpg,badlands_125.jpg,2.0,right,2.2377,0.0,mountain,mountain_94.jpg,5.993662864,0.8387,A2KLIBLDVDV144
73,A2KLIBLDVDV144,35,MALE,bridge_65.jpg,bridge_65.jpg,bridge_60.jpg,left,mountain_43.jpg,bridge_65.jpg,golf_course_55.jpg,highway_107.jpg,playground_16.jpg,badlands_30.jpg,1.0,left,2.3471,1.0,bridge,bridge_60.jpg,6.967046895,3.8097,A2KLIBLDVDV144
74,A2KLIBLDVDV144,35,MALE,playground_145.jpg,playground_229.jpg,playground_145.jpg,right,badlands_214.jpg,playground_145.jpg,golf_course_338.jpg,highway_342.jpg,mountain_290.jpg,bridge_20.jpg,1.0,right,1.4912,0.0,playground,playground_229.jpg,6.987325729,2.163,A2KLIBLDVDV144
75,A2KLIBLDVDV144,35,MALE,golf_course_87.jpg,golf_course_87.jpg,golf_course_161.jpg,left,badlands_105.jpg,bridge_225.jpg,golf_course_87.jpg,playground_173.jpg,highway_50.jpg,mountain_251.jpg,2.0,right,4.252,1.0,golf,golf_course_161.jpg,6.054499366,1.9339,A2KLIBLDVDV144
76,A2KLIBLDVDV144,35,MALE,highway_359.jpg,highway_389.jpg,highway_359.jpg,right,mountain_19.jpg,badlands_219.jpg,playground_84.jpg,golf_course_164.jpg,highway_359.jpg,bridge_106.jpg,4.0,left,3.8167,0.0,highway,highway_389.jpg,6.013941698,4.282,A2KLIBLDVDV144
77,A2KLIBLDVDV144,35,MALE,bridge_108.jpg,bridge_148.jpg,bridge_108.jpg,right,highway_30.jpg,bridge_108.jpg,golf_course_291.jpg,badlands_106.jpg,playground_196.jpg,mountain_250.jpg,1.0,right,2.0494,1.0,bridge,bridge_148.jpg,6.013941698,12.502,A2KLIBLDVDV144
78,A2KLIBLDVDV144,35,MALE,playground_144.jpg,playground_144.jpg,playground_137.jpg,left,mountain_306.jpg,playground_144.jpg,golf_course_282.jpg,bridge_63.jpg,highway_383.jpg,badlands_122.jpg,1.0,left,1.762,0.0,playground,playground_137.jpg,5.993662864,1.6397,A2KLIBLDVDV144
79,A2KLIBLDVDV144,35,MALE,highway_273.jpg,highway_273.jpg,highway_171.jpg,left,playground_55.jpg,mountain_199.jpg,badlands_26.jpg,highway_273.jpg,bridge_167.jpg,golf_course_56.jpg,3.0,left,2.4024,1.0,highway,highway_171.jpg,6.977186312,2.0958,A2KLIBLDVDV144
80,A2KLIBLDVDV144,35,MALE,badlands_70.jpg,badlands_70.jpg,badlands_119.jpg,left,bridge_76.jpg,highway_319.jpg,playground_248.jpg,mountain_38.jpg,badlands_70.jpg,golf_course_137.jpg,4.0,left,1.9319,1.0,badlands,badlands_119.jpg,6.013941698,1.5519,A2KLIBLDVDV144
81,A2KLIBLDVDV144,35,MALE,mountain_156.jpg,mountain_128.jpg,mountain_156.jpg,right,badlands_6.jpg,highway_191.jpg,mountain_156.jpg,bridge_112.jpg,playground_15.jpg,golf_course_120.jpg,2.0,right,2.9433,0.0,mountain,mountain_128.jpg,6.003802281,1.3469,A2KLIBLDVDV144
82,A2KLIBLDVDV144,35,MALE,golf_course_331.jpg,golf_course_114.jpg,golf_course_331.jpg,right,golf_course_331.jpg,playground_181.jpg,highway_3.jpg,bridge_193.jpg,mountain_180.jpg,badlands_152.jpg,0.0,right,1.6736,0.0,golf,golf_course_114.jpg,6.936628644,2.2328,A2KLIBLDVDV144
83,A2KLIBLDVDV144,35,MALE,badlands_113.jpg,badlands_113.jpg,badlands_225.jpg,left,playground_184.jpg,bridge_218.jpg,golf_course_102.jpg,badlands_113.jpg,mountain_34.jpg,highway_138.jpg,3.0,left,1.6288,0.0,badlands,badlands_225.jpg,6.977186312,4.5665,A2KLIBLDVDV144
84,A2KLIBLDVDV144,35,MALE,mountain_222.jpg,mountain_222.jpg,mountain_93.jpg,left,playground_233.jpg,golf_course_174.jpg,bridge_62.jpg,mountain_222.jpg,badlands_59.jpg,highway_265.jpg,3.0,left,1.8248,1.0,mountain,mountain_93.jpg,6.003802281,1.0314,A2KLIBLDVDV144
85,A2KLIBLDVDV144,35,MALE,bridge_128.jpg,bridge_61.jpg,bridge_128.jpg,right,golf_course_199.jpg,highway_226.jpg,bridge_128.jpg,mountain_249.jpg,badlands_54.jpg,playground_33.jpg,2.0,right,1.1438,0.0,bridge,bridge_61.jpg,6.997465146,1.5197,A2KLIBLDVDV144
86,A2KLIBLDVDV144,35,MALE,golf_course_217.jpg,golf_course_35.jpg,golf_course_217.jpg,right,highway_257.jpg,mountain_91.jpg,playground_110.jpg,bridge_118.jpg,golf_course_217.jpg,badlands_227.jpg,4.0,right,1.5354,0.0,golf,golf_course_35.jpg,6.024081115,3.1364,A2KLIBLDVDV144
87,A2KLIBLDVDV144,35,MALE,badlands_23.jpg,badlands_101.jpg,badlands_23.jpg,right,bridge_35.jpg,mountain_198.jpg,badlands_23.jpg,playground_222.jpg,golf_course_0.jpg,highway_76.jpg,2.0,right,1.6219,1.0,badlands,badlands_101.jpg,6.956907478,2.4211,A2KLIBLDVDV144
88,A2KLIBLDVDV144,35,MALE,golf_course_195.jpg,golf_course_195.jpg,golf_course_25.jpg,left,badlands_47.jpg,highway_313.jpg,mountain_206.jpg,playground_50.jpg,golf_course_195.jpg,bridge_136.jpg,4.0,right,1.5336,0.0,golf,golf_course_25.jpg,6.956907478,1.753,A2KLIBLDVDV144
89,A2KLIBLDVDV144,35,MALE,mountain_101.jpg,mountain_101.jpg,mountain_221.jpg,left,mountain_101.jpg,golf_course_202.jpg,playground_64.jpg,highway_288.jpg,bridge_190.jpg,badlands_16.jpg,0.0,left,1.7316,1.0,mountain,mountain_221.jpg,3.975918885,3.2246,A2KLIBLDVDV144
90,A2KLIBLDVDV144,35,MALE,playground_131.jpg,playground_131.jpg,playground_43.jpg,left,bridge_133.jpg,badlands_174.jpg,highway_9.jpg,golf_course_127.jpg,playground_131.jpg,mountain_169.jpg,4.0,left,1.8492,0.0,playground,playground_43.jpg,4.979721166,2.9302,A2KLIBLDVDV144
91,A2KLIBLDVDV144,35,MALE,playground_60.jpg,playground_244.jpg,playground_60.jpg,right,mountain_35.jpg,playground_60.jpg,bridge_110.jpg,golf_course_307.jpg,badlands_44.jpg,highway_101.jpg,1.0,left,2.9357,1.0,playground,playground_244.jpg,4.969581749,19.6467,A2KLIBLDVDV144
92,A2KLIBLDVDV144,35,MALE,bridge_256.jpg,bridge_256.jpg,bridge_54.jpg,left,bridge_256.jpg,golf_course_253.jpg,badlands_170.jpg,mountain_152.jpg,highway_365.jpg,playground_30.jpg,0.0,left,1.4514,0.0,bridge,bridge_54.jpg,5.963244613,2.4312,A2KLIBLDVDV144
93,A2KLIBLDVDV144,35,MALE,highway_294.jpg,highway_368.jpg,highway_294.jpg,right,bridge_254.jpg,mountain_202.jpg,playground_141.jpg,highway_294.jpg,golf_course_162.jpg,badlands_85.jpg,3.0,left,2.4401,1.0,highway,highway_368.jpg,5.020278834,1.8748,A2KLIBLDVDV144
94,A2KLIBLDVDV144,35,MALE,bridge_191.jpg,bridge_75.jpg,bridge_191.jpg,right,bridge_191.jpg,highway_290.jpg,mountain_187.jpg,badlands_104.jpg,golf_course_144.jpg,playground_235.jpg,0.0,right,1.199,1.0,bridge,bridge_75.jpg,5.993662864,1.9812,A2KLIBLDVDV144
95,A2KLIBLDVDV144,35,MALE,badlands_52.jpg,badlands_63.jpg,badlands_52.jpg,right,playground_7.jpg,golf_course_269.jpg,highway_33.jpg,bridge_158.jpg,badlands_52.jpg,mountain_51.jpg,4.0,right,1.973,1.0,badlands,badlands_63.jpg,6.997465146,2.4159,A2KLIBLDVDV144
96,A2KLIBLDVDV144,35,MALE,highway_245.jpg,highway_206.jpg,highway_245.jpg,right,playground_61.jpg,highway_245.jpg,badlands_55.jpg,golf_course_61.jpg,bridge_66.jpg,mountain_76.jpg,1.0,left,2.5094,1.0,highway,highway_206.jpg,5.983523447,2.018,A2KLIBLDVDV144
97,A2KLIBLDVDV144,35,MALE,badlands_184.jpg,badlands_184.jpg,badlands_103.jpg,left,badlands_184.jpg,mountain_192.jpg,bridge_72.jpg,playground_249.jpg,highway_15.jpg,golf_course_194.jpg,0.0,left,1.8642,1.0,badlands,badlands_103.jpg,5.983523447,1.7015,A2KLIBLDVDV144
98,A2KLIBLDVDV144,35,MALE,highway_209.jpg,highway_209.jpg,highway_314.jpg,left,mountain_146.jpg,golf_course_72.jpg,badlands_138.jpg,playground_78.jpg,highway_209.jpg,bridge_173.jpg,4.0,left,2.9109,0.0,highway,highway_314.jpg,4.959442332,1.536,A2KLIBLDVDV144
99,A2KLIBLDVDV144,35,MALE,highway_394.jpg,highway_406.jpg,highway_394.jpg,right,badlands_36.jpg,playground_124.jpg,mountain_87.jpg,golf_course_333.jpg,highway_394.jpg,bridge_64.jpg,4.0,right,1.561,1.0,highway,highway_406.jpg,5.953105196,1.7343,A2KLIBLDVDV144
100,A2KLIBLDVDV144,35,MALE,mountain_110.jpg,mountain_110.jpg,mountain_157.jpg,left,badlands_35.jpg,bridge_156.jpg,golf_course_33.jpg,playground_246.jpg,mountain_110.jpg,highway_53.jpg,4.0,left,2.4125,0.0,mountain,mountain_157.jpg,6.967046895,3.2785,A2KLIBLDVDV144
101,A2KLIBLDVDV144,35,MALE,playground_257.jpg,playground_257.jpg,playground_214.jpg,left,bridge_238.jpg,playground_257.jpg,golf_course_219.jpg,mountain_253.jpg,highway_78.jpg,badlands_150.jpg,1.0,left,2.0013,0.0,playground,playground_214.jpg,5.993662864,2.4059,A2KLIBLDVDV144
102,A2KLIBLDVDV144,35,MALE,mountain_230.jpg,mountain_230.jpg,mountain_184.jpg,left,golf_course_181.jpg,mountain_230.jpg,playground_39.jpg,bridge_22.jpg,badlands_129.jpg,highway_287.jpg,1.0,left,1.2229,0.0,mountain,mountain_184.jpg,8.021546261,2.4069,A2KLIBLDVDV144
103,A2KLIBLDVDV144,35,MALE,bridge_91.jpg,bridge_91.jpg,bridge_253.jpg,left,mountain_190.jpg,badlands_183.jpg,bridge_91.jpg,golf_course_328.jpg,playground_120.jpg,highway_28.jpg,2.0,right,4.298,0.0,bridge,bridge_253.jpg,2.992395437,3.3577,A2KLIBLDVDV144
104,A2KLIBLDVDV144,35,MALE,golf_course_214.jpg,golf_course_214.jpg,golf_course_317.jpg,left,highway_274.jpg,mountain_102.jpg,playground_162.jpg,bridge_169.jpg,golf_course_214.jpg,badlands_20.jpg,4.0,left,1.4968,1.0,golf,golf_course_317.jpg,8.913814956,4.2053,A2KLIBLDVDV144
105,A2KLIBLDVDV144,35,MALE,highway_156.jpg,highway_160.jpg,highway_156.jpg,right,badlands_80.jpg,highway_156.jpg,bridge_45.jpg,playground_54.jpg,mountain_137.jpg,golf_course_218.jpg,1.0,left,3.2992,0.0,highway,highway_160.jpg,7.950570342,2.9952,A2KLIBLDVDV144
106,A2KLIBLDVDV144,35,MALE,playground_117.jpg,playground_117.jpg,playground_167.jpg,left,bridge_39.jpg,mountain_41.jpg,highway_354.jpg,playground_117.jpg,golf_course_313.jpg,badlands_216.jpg,3.0,left,1.898,0.0,playground,playground_167.jpg,7.950570342,1.6103,A2KLIBLDVDV144
107,A2KLIBLDVDV144,35,MALE,mountain_57.jpg,mountain_193.jpg,mountain_57.jpg,right,badlands_157.jpg,bridge_86.jpg,highway_36.jpg,mountain_57.jpg,playground_165.jpg,golf_course_176.jpg,3.0,right,1.8341,0.0,mountain,mountain_193.jpg,5.010139417,3.099,A2KLIBLDVDV144
108,A2KLIBLDVDV144,35,MALE,bridge_146.jpg,bridge_27.jpg,bridge_146.jpg,right,highway_81.jpg,golf_course_305.jpg,mountain_126.jpg,bridge_146.jpg,playground_154.jpg,badlands_175.jpg,3.0,left,1.2427,0.0,bridge,bridge_27.jpg,6.013941698,2.0638,A2KLIBLDVDV144
109,A2KLIBLDVDV144,35,MALE,mountain_293.jpg,mountain_72.jpg,mountain_293.jpg,right,badlands_67.jpg,golf_course_316.jpg,mountain_293.jpg,highway_178.jpg,bridge_87.jpg,playground_132.jpg,2.0,right,1.8985,0.0,mountain,mountain_72.jpg,5.942965779,24.8336,A2KLIBLDVDV144
110,A2KLIBLDVDV144,35,MALE,bridge_250.jpg,bridge_205.jpg,bridge_250.jpg,right,playground_204.jpg,mountain_89.jpg,badlands_180.jpg,highway_199.jpg,bridge_250.jpg,golf_course_297.jpg,4.0,right,1.4234,1.0,bridge,bridge_205.jpg,5.953105196,0.7813,A2KLIBLDVDV144
111,A2KLIBLDVDV144,35,MALE,badlands_221.jpg,badlands_207.jpg,badlands_221.jpg,right,golf_course_252.jpg,badlands_221.jpg,mountain_22.jpg,playground_98.jpg,highway_305.jpg,bridge_179.jpg,1.0,right,2.902,1.0,badlands,badlands_207.jpg,6.977186312,1.6936,A2KLIBLDVDV144
112,A2KLIBLDVDV144,35,MALE,playground_10.jpg,playground_10.jpg,playground_12.jpg,left,badlands_121.jpg,bridge_96.jpg,highway_90.jpg,mountain_307.jpg,playground_10.jpg,golf_course_133.jpg,4.0,right,2.6393,1.0,playground,playground_12.jpg,6.977186312,0.9036,A2KLIBLDVDV144
113,A2KLIBLDVDV144,35,MALE,playground_219.jpg,playground_219.jpg,playground_21.jpg,left,bridge_126.jpg,playground_219.jpg,badlands_10.jpg,golf_course_42.jpg,highway_37.jpg,mountain_45.jpg,1.0,left,2.8003,0.0,playground,playground_21.jpg,6.977186312,1.1763,A2KLIBLDVDV144
114,A2KLIBLDVDV144,35,MALE,golf_course_193.jpg,golf_course_193.jpg,golf_course_123.jpg,left,badlands_27.jpg,golf_course_193.jpg,bridge_147.jpg,highway_18.jpg,mountain_151.jpg,playground_140.jpg,1.0,right,3.2818,1.0,golf,golf_course_123.jpg,7.99112801,1.4598,A2KLIBLDVDV144
115,A2KLIBLDVDV144,35,MALE,badlands_21.jpg,badlands_1.jpg,badlands_21.jpg,right,golf_course_71.jpg,badlands_21.jpg,bridge_117.jpg,mountain_120.jpg,highway_17.jpg,playground_153.jpg,1.0,right,1.2545,0.0,badlands,badlands_1.jpg,6.987325729,1.6648,A2KLIBLDVDV144
116,A2KLIBLDVDV144,35,MALE,golf_course_78.jpg,golf_course_78.jpg,golf_course_134.jpg,left,golf_course_78.jpg,badlands_217.jpg,bridge_228.jpg,playground_42.jpg,mountain_256.jpg,highway_154.jpg,0.0,left,1.4526,0.0,golf,golf_course_134.jpg,6.987325729,1.5819,A2KLIBLDVDV144
117,A2KLIBLDVDV144,35,MALE,mountain_154.jpg,mountain_154.jpg,mountain_131.jpg,left,highway_58.jpg,golf_course_116.jpg,bridge_140.jpg,mountain_154.jpg,badlands_46.jpg,playground_103.jpg,3.0,left,1.2986,0.0,mountain,mountain_131.jpg,6.987325729,2.2344,A2KLIBLDVDV144
118,A2KLIBLDVDV144,35,MALE,golf_course_188.jpg,golf_course_188.jpg,golf_course_160.jpg,left,golf_course_188.jpg,bridge_152.jpg,badlands_33.jpg,highway_102.jpg,mountain_176.jpg,playground_258.jpg,0.0,left,1.135,1.0,golf,golf_course_160.jpg,6.987325729,1.6163,A2KLIBLDVDV144
119,A2KLIBLDVDV144,35,MALE,highway_177.jpg,highway_278.jpg,highway_177.jpg,right,badlands_120.jpg,bridge_120.jpg,mountain_226.jpg,golf_course_196.jpg,highway_177.jpg,playground_241.jpg,4.0,right,1.568,1.0,highway,highway_278.jpg,6.987325729,1.0763,A2KLIBLDVDV144
120,A16DFVQYKDHTON,35,male,golf_course_214.jpg,golf_course_214.jpg,golf_course_317.jpg,left,highway_193.jpg,golf_course_214.jpg,mountain_302.jpg,playground_37.jpg,bridge_228.jpg,badlands_213.jpg,1.0,left,3.7807,1.0,golf,golf_course_317.jpg,3.96875,8.5417,A16DFVQYKDHTON
121,A16DFVQYKDHTON,35,male,playground_240.jpg,playground_40.jpg,playground_240.jpg,right,highway_78.jpg,badlands_36.jpg,golf_course_179.jpg,bridge_64.jpg,playground_240.jpg,mountain_228.jpg,4.0,right,3.5982,1.0,playground,playground_40.jpg,7.583333333,4.7302,A16DFVQYKDHTON
122,A16DFVQYKDHTON,35,male,highway_359.jpg,highway_359.jpg,highway_389.jpg,left,mountain_277.jpg,highway_359.jpg,playground_7.jpg,golf_course_55.jpg,badlands_26.jpg,bridge_190.jpg,1.0,left,2.5807,0.0,highway,highway_389.jpg,2.916666667,3.0713,A16DFVQYKDHTON
123,A16DFVQYKDHTON,35,male,badlands_21.jpg,badlands_21.jpg,badlands_1.jpg,left,mountain_253.jpg,highway_308.jpg,bridge_52.jpg,badlands_21.jpg,playground_118.jpg,golf_course_72.jpg,3.0,left,1.8547,0.0,badlands,badlands_1.jpg,2.947916667,2.5423,A16DFVQYKDHTON
124,A16DFVQYKDHTON,35,male,highway_177.jpg,highway_177.jpg,highway_87.jpg,left,mountain_22.jpg,golf_course_196.jpg,playground_49.jpg,highway_177.jpg,badlands_80.jpg,bridge_68.jpg,3.0,right,1.9863,0.0,highway,highway_87.jpg,6.197916667,3.7778,A16DFVQYKDHTON
125,A16DFVQYKDHTON,35,male,badlands_24.jpg,badlands_53.jpg,badlands_24.jpg,right,playground_141.jpg,mountain_152.jpg,badlands_24.jpg,golf_course_174.jpg,highway_42.jpg,bridge_87.jpg,2.0,left,1.6631,1.0,badlands,badlands_53.jpg,3.802083333,3.5167,A16DFVQYKDHTON
126,A16DFVQYKDHTON,35,male,mountain_123.jpg,mountain_123.jpg,mountain_94.jpg,left,bridge_224.jpg,playground_110.jpg,golf_course_328.jpg,mountain_123.jpg,highway_107.jpg,badlands_30.jpg,3.0,left,2.744,0.0,mountain,mountain_94.jpg,3.802083333,2.1365,A16DFVQYKDHTON
127,A16DFVQYKDHTON,35,male,badlands_52.jpg,badlands_63.jpg,badlands_52.jpg,right,badlands_52.jpg,bridge_142.jpg,golf_course_0.jpg,playground_39.jpg,mountain_306.jpg,highway_354.jpg,0.0,right,1.3331,1.0,badlands,badlands_63.jpg,6.84375,2.169,A16DFVQYKDHTON
128,A16DFVQYKDHTON,35,male,playground_145.jpg,playground_145.jpg,playground_242.jpg,left,playground_145.jpg,mountain_180.jpg,golf_course_307.jpg,bridge_133.jpg,badlands_44.jpg,highway_178.jpg,0.0,right,1.7761,1.0,playground,playground_242.jpg,6.854166667,2.3335,A16DFVQYKDHTON
129,A16DFVQYKDHTON,35,male,highway_394.jpg,highway_394.jpg,highway_406.jpg,left,playground_33.jpg,highway_394.jpg,badlands_128.jpg,bridge_179.jpg,golf_course_116.jpg,mountain_212.jpg,1.0,right,1.4264,1.0,highway,highway_406.jpg,3.84375,3.2145,A16DFVQYKDHTON
130,A16DFVQYKDHTON,35,male,playground_144.jpg,playground_144.jpg,playground_137.jpg,left,golf_course_202.jpg,mountain_151.jpg,highway_290.jpg,playground_144.jpg,bridge_120.jpg,badlands_211.jpg,3.0,left,3.8245,0.0,playground,playground_137.jpg,3.854166667,2.4726,A16DFVQYKDHTON
131,A16DFVQYKDHTON,35,male,golf_course_331.jpg,golf_course_114.jpg,golf_course_331.jpg,right,playground_140.jpg,golf_course_331.jpg,highway_265.jpg,mountain_169.jpg,badlands_122.jpg,bridge_193.jpg,1.0,right,1.7976,0.0,golf,golf_course_114.jpg,6.40625,2.4436,A16DFVQYKDHTON
132,A16DFVQYKDHTON,35,male,playground_219.jpg,playground_21.jpg,playground_219.jpg,right,bridge_158.jpg,highway_274.jpg,mountain_198.jpg,badlands_183.jpg,playground_219.jpg,golf_course_212.jpg,4.0,right,3.0113,0.0,playground,playground_21.jpg,6.40625,1.8627,A16DFVQYKDHTON
133,A16DFVQYKDHTON,35,male,golf_course_87.jpg,golf_course_87.jpg,golf_course_130.jpg,left,mountain_309.jpg,playground_68.jpg,highway_102.jpg,golf_course_87.jpg,bridge_24.jpg,badlands_174.jpg,3.0,left,1.9131,0.0,golf,golf_course_130.jpg,3.5625,1.9997,A16DFVQYKDHTON
134,A16DFVQYKDHTON,35,male,mountain_110.jpg,mountain_110.jpg,mountain_157.jpg,left,highway_15.jpg,mountain_110.jpg,playground_14.jpg,bridge_180.jpg,golf_course_291.jpg,badlands_150.jpg,1.0,left,1.9641,0.0,mountain,mountain_157.jpg,3.5625,3.4037,A16DFVQYKDHTON
135,A16DFVQYKDHTON,35,male,playground_76.jpg,playground_22.jpg,playground_76.jpg,right,badlands_129.jpg,golf_course_41.jpg,bridge_35.jpg,highway_36.jpg,playground_76.jpg,mountain_126.jpg,4.0,right,2.0391,0.0,playground,playground_22.jpg,6.322916667,2.3409,A16DFVQYKDHTON
136,A16DFVQYKDHTON,35,male,bridge_146.jpg,bridge_146.jpg,bridge_27.jpg,left,mountain_76.jpg,highway_58.jpg,golf_course_342.jpg,badlands_104.jpg,bridge_146.jpg,playground_42.jpg,4.0,left,2.4695,0.0,bridge,bridge_27.jpg,6.322916667,3.2248,A16DFVQYKDHTON
137,A16DFVQYKDHTON,35,male,highway_245.jpg,highway_245.jpg,highway_134.jpg,left,playground_227.jpg,mountain_19.jpg,golf_course_71.jpg,highway_245.jpg,bridge_1.jpg,badlands_47.jpg,3.0,left,2.1433,0.0,highway,highway_134.jpg,6.322916667,1.6943,A16DFVQYKDHTON
138,A16DFVQYKDHTON,35,male,playground_60.jpg,playground_60.jpg,playground_268.jpg,left,playground_60.jpg,mountain_251.jpg,golf_course_42.jpg,bridge_143.jpg,badlands_185.jpg,highway_288.jpg,0.0,right,1.582,0.0,playground,playground_268.jpg,3.84375,2.9032,A16DFVQYKDHTON
139,A16DFVQYKDHTON,35,male,mountain_57.jpg,mountain_57.jpg,mountain_138.jpg,left,playground_15.jpg,bridge_136.jpg,golf_course_218.jpg,badlands_138.jpg,mountain_57.jpg,highway_53.jpg,4.0,left,1.8483,1.0,mountain,mountain_138.jpg,3.84375,3.1533,A16DFVQYKDHTON
140,A16DFVQYKDHTON,35,male,golf_course_195.jpg,golf_course_195.jpg,golf_course_2.jpg,left,mountain_51.jpg,bridge_238.jpg,badlands_180.jpg,golf_course_195.jpg,playground_154.jpg,highway_191.jpg,3.0,right,2.4416,1.0,golf,golf_course_2.jpg,6.833333333,1.6961,A16DFVQYKDHTON
141,A16DFVQYKDHTON,35,male,mountain_154.jpg,mountain_154.jpg,mountain_131.jpg,left,mountain_154.jpg,golf_course_297.jpg,highway_319.jpg,badlands_72.jpg,playground_74.jpg,bridge_79.jpg,0.0,left,1.7354,0.0,mountain,mountain_131.jpg,6.833333333,1.9613,A16DFVQYKDHTON
142,A16DFVQYKDHTON,35,male,playground_10.jpg,playground_10.jpg,playground_12.jpg,left,golf_course_226.jpg,mountain_143.jpg,playground_10.jpg,highway_226.jpg,badlands_214.jpg,bridge_152.jpg,2.0,left,1.5622,1.0,playground,playground_12.jpg,6.833333333,2.3559,A16DFVQYKDHTON
143,A16DFVQYKDHTON,35,male,mountain_222.jpg,mountain_222.jpg,mountain_93.jpg,left,mountain_222.jpg,badlands_156.jpg,golf_course_265.jpg,bridge_118.jpg,highway_147.jpg,playground_98.jpg,0.0,left,1.2859,1.0,mountain,mountain_93.jpg,4.052083333,2.3394,A16DFVQYKDHTON
144,A16DFVQYKDHTON,35,male,highway_93.jpg,highway_369.jpg,highway_93.jpg,right,playground_256.jpg,bridge_266.jpg,golf_course_308.jpg,highway_93.jpg,badlands_67.jpg,mountain_35.jpg,3.0,right,1.4483,1.0,highway,highway_369.jpg,6.510416667,1.8806,A16DFVQYKDHTON
145,A16DFVQYKDHTON,35,male,mountain_101.jpg,mountain_171.jpg,mountain_101.jpg,right,golf_course_128.jpg,playground_165.jpg,highway_269.jpg,mountain_101.jpg,badlands_59.jpg,bridge_45.jpg,3.0,right,1.2615,0.0,mountain,mountain_171.jpg,6.427083333,1.6416,A16DFVQYKDHTON
146,A16DFVQYKDHTON,35,male,golf_course_78.jpg,golf_course_134.jpg,golf_course_78.jpg,right,playground_54.jpg,golf_course_78.jpg,bridge_173.jpg,badlands_81.jpg,highway_3.jpg,mountain_233.jpg,1.0,left,1.2435,0.0,golf,golf_course_134.jpg,6.427083333,1.3625,A16DFVQYKDHTON
147,A16DFVQYKDHTON,35,male,highway_273.jpg,highway_384.jpg,highway_273.jpg,right,playground_120.jpg,badlands_164.jpg,bridge_22.jpg,highway_273.jpg,mountain_250.jpg,golf_course_253.jpg,3.0,right,1.2773,0.0,highway,highway_384.jpg,6.427083333,1.4952,A16DFVQYKDHTON
148,A16DFVQYKDHTON,35,male,bridge_108.jpg,bridge_108.jpg,bridge_148.jpg,left,mountain_91.jpg,bridge_108.jpg,highway_101.jpg,badlands_106.jpg,playground_249.jpg,golf_course_181.jpg,1.0,right,2.3131,1.0,bridge,bridge_148.jpg,3.989583333,2.1898,A16DFVQYKDHTON
149,A16DFVQYKDHTON,35,male,badlands_222.jpg,badlands_222.jpg,badlands_62.jpg,left,highway_33.jpg,bridge_147.jpg,playground_222.jpg,badlands_222.jpg,mountain_88.jpg,golf_course_162.jpg,3.0,right,1.94,1.0,badlands,badlands_62.jpg,3.791666667,2.2749,A16DFVQYKDHTON
150,A16DFVQYKDHTON,35,male,playground_131.jpg,playground_131.jpg,playground_43.jpg,left,golf_course_305.jpg,mountain_160.jpg,playground_131.jpg,highway_18.jpg,bridge_234.jpg,badlands_54.jpg,2.0,left,1.4604,0.0,playground,playground_43.jpg,6.208333333,1.7549,A16DFVQYKDHTON
151,A16DFVQYKDHTON,35,male,playground_257.jpg,playground_215.jpg,playground_257.jpg,right,bridge_204.jpg,mountain_45.jpg,playground_257.jpg,golf_course_120.jpg,badlands_16.jpg,highway_138.jpg,2.0,left,1.7284,1.0,playground,playground_215.jpg,6.208333333,2.128,A16DFVQYKDHTON
152,A16DFVQYKDHTON,35,male,mountain_156.jpg,mountain_156.jpg,mountain_128.jpg,left,highway_154.jpg,playground_84.jpg,bridge_72.jpg,mountain_156.jpg,badlands_33.jpg,golf_course_171.jpg,3.0,left,1.1373,0.0,mountain,mountain_128.jpg,6.208333333,1.5862,A16DFVQYKDHTON
153,A16DFVQYKDHTON,35,male,golf_course_217.jpg,golf_course_35.jpg,golf_course_217.jpg,right,badlands_166.jpg,bridge_124.jpg,mountain_202.jpg,golf_course_217.jpg,playground_64.jpg,highway_30.jpg,3.0,right,1.4428,0.0,golf,golf_course_35.jpg,3.489583333,1.9722,A16DFVQYKDHTON
154,A16DFVQYKDHTON,35,male,golf_course_15.jpg,golf_course_97.jpg,golf_course_15.jpg,right,bridge_112.jpg,badlands_200.jpg,mountain_307.jpg,golf_course_15.jpg,playground_132.jpg,highway_199.jpg,3.0,right,1.2219,1.0,golf,golf_course_97.jpg,6.666666667,1.5456,A16DFVQYKDHTON
155,A16DFVQYKDHTON,35,male,bridge_202.jpg,bridge_202.jpg,bridge_31.jpg,left,badlands_152.jpg,bridge_202.jpg,golf_course_288.jpg,highway_141.jpg,mountain_137.jpg,playground_126.jpg,1.0,left,1.2957,0.0,bridge,bridge_31.jpg,3.270833333,2.0829,A16DFVQYKDHTON
156,A16DFVQYKDHTON,35,male,highway_156.jpg,highway_156.jpg,highway_160.jpg,left,mountain_43.jpg,bridge_167.jpg,badlands_79.jpg,golf_course_164.jpg,highway_156.jpg,playground_83.jpg,4.0,left,1.81,0.0,highway,highway_160.jpg,3.541666667,2.0699,A16DFVQYKDHTON
157,A16DFVQYKDHTON,35,male,badlands_184.jpg,badlands_184.jpg,badlands_228.jpg,left,badlands_184.jpg,highway_28.jpg,mountain_29.jpg,bridge_96.jpg,playground_124.jpg,golf_course_241.jpg,0.0,left,1.6668,0.0,badlands,badlands_228.jpg,3.541666667,1.6429,A16DFVQYKDHTON
158,A16DFVQYKDHTON,35,male,playground_117.jpg,playground_167.jpg,playground_117.jpg,right,playground_117.jpg,mountain_92.jpg,highway_257.jpg,golf_course_127.jpg,badlands_216.jpg,bridge_63.jpg,0.0,left,1.7563,0.0,playground,playground_167.jpg,2.895833333,2.1755,A16DFVQYKDHTON
159,A16DFVQYKDHTON,35,male,bridge_191.jpg,bridge_184.jpg,bridge_191.jpg,right,bridge_191.jpg,highway_37.jpg,badlands_88.jpg,mountain_62.jpg,golf_course_194.jpg,playground_176.jpg,0.0,right,1.3653,0.0,bridge,bridge_184.jpg,6.760416667,2.032,A16DFVQYKDHTON
160,A16DFVQYKDHTON,35,male,mountain_232.jpg,mountain_232.jpg,mountain_54.jpg,left,mountain_232.jpg,badlands_9.jpg,bridge_155.jpg,highway_305.jpg,golf_course_333.jpg,playground_251.jpg,0.0,left,1.5396,1.0,mountain,mountain_54.jpg,6.822916667,1.499,A16DFVQYKDHTON
161,A16DFVQYKDHTON,35,male,mountain_230.jpg,mountain_230.jpg,mountain_97.jpg,left,badlands_20.jpg,mountain_230.jpg,golf_course_338.jpg,bridge_164.jpg,playground_241.jpg,highway_17.jpg,1.0,left,1.8028,1.0,mountain,mountain_97.jpg,6.541666667,2.56,A16DFVQYKDHTON
162,A16DFVQYKDHTON,35,male,golf_course_309.jpg,golf_course_309.jpg,golf_course_16.jpg,left,mountain_187.jpg,bridge_86.jpg,badlands_157.jpg,highway_148.jpg,golf_course_309.jpg,playground_55.jpg,4.0,right,1.2554,0.0,golf,golf_course_16.jpg,6.541666667,1.4382,A16DFVQYKDHTON
163,A16DFVQYKDHTON,35,male,highway_294.jpg,highway_203.jpg,highway_294.jpg,right,bridge_117.jpg,badlands_173.jpg,mountain_249.jpg,highway_294.jpg,playground_47.jpg,golf_course_105.jpg,3.0,left,1.2632,0.0,highway,highway_203.jpg,6.541666667,5.154,A16DFVQYKDHTON
164,A16DFVQYKDHTON,35,male,highway_209.jpg,highway_122.jpg,highway_209.jpg,right,golf_course_133.jpg,mountain_39.jpg,playground_63.jpg,bridge_144.jpg,highway_209.jpg,badlands_35.jpg,4.0,right,1.3249,1.0,highway,highway_122.jpg,6.541666667,2.0323,A16DFVQYKDHTON
165,A16DFVQYKDHTON,35,male,bridge_172.jpg,bridge_172.jpg,bridge_17.jpg,left,golf_course_238.jpg,playground_204.jpg,bridge_172.jpg,highway_29.jpg,mountain_206.jpg,badlands_175.jpg,2.0,right,1.8098,0.0,bridge,bridge_17.jpg,6.510416667,1.6808,A16DFVQYKDHTON
166,A16DFVQYKDHTON,35,male,bridge_65.jpg,bridge_60.jpg,bridge_65.jpg,right,highway_246.jpg,playground_85.jpg,badlands_121.jpg,mountain_268.jpg,bridge_65.jpg,golf_course_138.jpg,4.0,left,1.7518,1.0,bridge,bridge_60.jpg,6.510416667,1.9816,A16DFVQYKDHTON
167,A16DFVQYKDHTON,35,male,golf_course_193.jpg,golf_course_235.jpg,golf_course_193.jpg,right,badlands_97.jpg,highway_404.jpg,bridge_254.jpg,mountain_290.jpg,golf_course_193.jpg,playground_103.jpg,4.0,right,1.2423,0.0,golf,golf_course_235.jpg,4.260416667,1.6333,A16DFVQYKDHTON
168,A16DFVQYKDHTON,35,male,bridge_128.jpg,bridge_61.jpg,bridge_128.jpg,right,playground_191.jpg,golf_course_102.jpg,bridge_128.jpg,mountain_34.jpg,highway_365.jpg,badlands_10.jpg,2.0,right,1.3457,0.0,bridge,bridge_61.jpg,7.104166667,1.6216,A16DFVQYKDHTON
169,A16DFVQYKDHTON,35,male,badlands_221.jpg,badlands_221.jpg,badlands_207.jpg,left,golf_course_61.jpg,badlands_221.jpg,playground_246.jpg,mountain_226.jpg,bridge_197.jpg,highway_399.jpg,1.0,left,1.6584,1.0,badlands,badlands_207.jpg,3.802083333,1.4468,A16DFVQYKDHTON
170,A16DFVQYKDHTON,35,male,bridge_256.jpg,bridge_211.jpg,bridge_256.jpg,right,mountain_256.jpg,playground_195.jpg,golf_course_219.jpg,bridge_256.jpg,badlands_55.jpg,highway_31.jpg,3.0,left,1.5293,1.0,bridge,bridge_211.jpg,6.28125,1.9119,A16DFVQYKDHTON
171,A16DFVQYKDHTON,35,male,badlands_70.jpg,badlands_70.jpg,badlands_119.jpg,left,highway_9.jpg,bridge_225.jpg,badlands_70.jpg,playground_173.jpg,golf_course_252.jpg,mountain_176.jpg,2.0,right,1.6218,1.0,badlands,badlands_119.jpg,7.635416667,1.7315,A16DFVQYKDHTON
172,A16DFVQYKDHTON,35,male,mountain_293.jpg,mountain_293.jpg,mountain_47.jpg,left,bridge_4.jpg,highway_335.jpg,playground_6.jpg,golf_course_199.jpg,mountain_293.jpg,badlands_219.jpg,4.0,right,2.296,1.0,mountain,mountain_47.jpg,3.25,1.5795,A16DFVQYKDHTON
173,A16DFVQYKDHTON,35,male,badlands_23.jpg,badlands_101.jpg,badlands_23.jpg,right,mountain_87.jpg,badlands_23.jpg,golf_course_282.jpg,highway_315.jpg,bridge_126.jpg,playground_258.jpg,1.0,right,1.5735,1.0,badlands,badlands_101.jpg,3.25,1.4441,A16DFVQYKDHTON
174,A16DFVQYKDHTON,35,male,badlands_137.jpg,badlands_194.jpg,badlands_137.jpg,right,playground_248.jpg,highway_90.jpg,mountain_89.jpg,bridge_106.jpg,badlands_137.jpg,golf_course_33.jpg,4.0,left,1.3556,0.0,badlands,badlands_194.jpg,8.145833333,2.1708,A16DFVQYKDHTON
175,A16DFVQYKDHTON,35,male,golf_course_188.jpg,golf_course_160.jpg,golf_course_188.jpg,right,mountain_294.jpg,playground_26.jpg,highway_268.jpg,badlands_227.jpg,golf_course_188.jpg,bridge_20.jpg,4.0,right,1.548,1.0,golf,golf_course_160.jpg,3.791666667,1.5474,A16DFVQYKDHTON
176,A16DFVQYKDHTON,35,male,badlands_113.jpg,badlands_225.jpg,badlands_113.jpg,right,highway_342.jpg,mountain_38.jpg,badlands_113.jpg,golf_course_269.jpg,playground_184.jpg,bridge_140.jpg,2.0,left,1.2495,0.0,badlands,badlands_225.jpg,6.489583333,1.3303,A16DFVQYKDHTON
177,A16DFVQYKDHTON,35,male,bridge_250.jpg,bridge_134.jpg,bridge_250.jpg,right,badlands_171.jpg,mountain_120.jpg,golf_course_67.jpg,bridge_250.jpg,playground_78.jpg,highway_172.jpg,3.0,right,1.514,0.0,bridge,bridge_134.jpg,6.489583333,1.4978,A16DFVQYKDHTON
178,A16DFVQYKDHTON,35,male,highway_415.jpg,highway_60.jpg,highway_415.jpg,right,golf_course_300.jpg,bridge_102.jpg,mountain_102.jpg,highway_415.jpg,playground_36.jpg,badlands_217.jpg,3.0,left,1.1865,0.0,highway,highway_60.jpg,6.489583333,1.7166,A16DFVQYKDHTON
179,A16DFVQYKDHTON,35,male,bridge_91.jpg,bridge_91.jpg,bridge_82.jpg,left,badlands_85.jpg,golf_course_316.jpg,bridge_91.jpg,highway_383.jpg,mountain_204.jpg,playground_235.jpg,2.0,left,1.5752,1.0,bridge,bridge_82.jpg,6.489583333,1.4476,A16DFVQYKDHTON
180,A11MOA9HW11EP1,30,FEMALE,playground_131.jpg,playground_43.jpg,playground_131.jpg,right,highway_199.jpg,playground_131.jpg,badlands_175.jpg,mountain_87.jpg,golf_course_288.jpg,bridge_238.jpg,1.0,right,4.609,0.0,playground,playground_43.jpg,8.992592593,12.9807,A11MOA9HW11EP1
181,A11MOA9HW11EP1,30,FEMALE,golf_course_195.jpg,golf_course_25.jpg,golf_course_195.jpg,right,badlands_30.jpg,highway_42.jpg,bridge_197.jpg,golf_course_195.jpg,playground_141.jpg,mountain_228.jpg,3.0,right,2.9209,0.0,golf,golf_course_25.jpg,8.992592593,0.7621,A11MOA9HW11EP1
182,A11MOA9HW11EP1,30,FEMALE,highway_177.jpg,highway_177.jpg,highway_278.jpg,left,badlands_185.jpg,golf_course_194.jpg,mountain_307.jpg,highway_177.jpg,bridge_20.jpg,playground_83.jpg,3.0,left,2.3166,1.0,highway,highway_278.jpg,6.992592593,6.366,A11MOA9HW11EP1
183,A11MOA9HW11EP1,30,FEMALE,bridge_256.jpg,bridge_211.jpg,bridge_256.jpg,right,bridge_256.jpg,highway_265.jpg,playground_84.jpg,badlands_55.jpg,mountain_62.jpg,golf_course_0.jpg,0.0,right,3.3541,1.0,bridge,bridge_211.jpg,1.992592593,5.2897,A11MOA9HW11EP1
184,A11MOA9HW11EP1,30,FEMALE,mountain_293.jpg,mountain_47.jpg,mountain_293.jpg,right,mountain_293.jpg,highway_50.jpg,badlands_81.jpg,golf_course_128.jpg,bridge_118.jpg,playground_54.jpg,0.0,right,3.4651,1.0,mountain,mountain_47.jpg,2.0,4.3778,A11MOA9HW11EP1
185,A11MOA9HW11EP1,30,FEMALE,badlands_21.jpg,badlands_21.jpg,badlands_1.jpg,left,highway_257.jpg,mountain_76.jpg,golf_course_316.jpg,playground_196.jpg,badlands_21.jpg,bridge_110.jpg,4.0,left,2.8839,0.0,badlands,badlands_1.jpg,2.0,2.0143,A11MOA9HW11EP1
186,A11MOA9HW11EP1,30,FEMALE,bridge_91.jpg,bridge_91.jpg,bridge_82.jpg,left,mountain_202.jpg,bridge_91.jpg,playground_110.jpg,golf_course_300.jpg,highway_274.jpg,badlands_219.jpg,1.0,right,1.8037,1.0,bridge,bridge_82.jpg,1.985185185,29.2362,A11MOA9HW11EP1
187,A11MOA9HW11EP1,30,FEMALE,highway_156.jpg,highway_156.jpg,highway_293.jpg,left,highway_156.jpg,bridge_266.jpg,mountain_268.jpg,badlands_120.jpg,playground_132.jpg,golf_course_116.jpg,0.0,left,1.558,1.0,highway,highway_293.jpg,6.014814815,4.2831,A11MOA9HW11EP1
188,A11MOA9HW11EP1,30,FEMALE,golf_course_78.jpg,golf_course_78.jpg,golf_course_134.jpg,left,badlands_180.jpg,playground_61.jpg,highway_83.jpg,golf_course_78.jpg,bridge_72.jpg,mountain_249.jpg,3.0,left,2.2626,0.0,golf,golf_course_134.jpg,6.0,9.1133,A11MOA9HW11EP1
189,A11MOA9HW11EP1,30,FEMALE,mountain_156.jpg,mountain_295.jpg,mountain_156.jpg,right,bridge_52.jpg,playground_6.jpg,highway_33.jpg,golf_course_105.jpg,mountain_156.jpg,badlands_9.jpg,4.0,right,1.8587,1.0,mountain,mountain_295.jpg,1.022222222,8.1787,A11MOA9HW11EP1
190,A11MOA9HW11EP1,30,FEMALE,playground_117.jpg,playground_117.jpg,playground_167.jpg,left,golf_course_338.jpg,mountain_204.jpg,playground_117.jpg,bridge_112.jpg,highway_251.jpg,badlands_35.jpg,2.0,right,2.2233,0.0,playground,playground_167.jpg,4.007407407,3.2449,A11MOA9HW11EP1
191,A11MOA9HW11EP1,30,FEMALE,badlands_184.jpg,badlands_103.jpg,badlands_184.jpg,right,bridge_193.jpg,golf_course_174.jpg,mountain_226.jpg,playground_204.jpg,badlands_184.jpg,highway_102.jpg,4.0,right,1.8458,1.0,badlands,badlands_103.jpg,2.985185185,1.4682,A11MOA9HW11EP1
192,A11MOA9HW11EP1,30,FEMALE,playground_145.jpg,playground_145.jpg,playground_229.jpg,left,golf_course_252.jpg,bridge_147.jpg,mountain_88.jpg,badlands_215.jpg,playground_145.jpg,highway_154.jpg,4.0,left,3.0731,0.0,playground,playground_229.jpg,2.985185185,1.4674,A11MOA9HW11EP1
193,A11MOA9HW11EP1,30,FEMALE,mountain_110.jpg,mountain_110.jpg,mountain_157.jpg,left,badlands_47.jpg,mountain_110.jpg,playground_140.jpg,highway_383.jpg,bridge_136.jpg,golf_course_127.jpg,1.0,right,2.0013,0.0,mountain,mountain_157.jpg,2.985185185,1.47,A11MOA9HW11EP1
194,A11MOA9HW11EP1,30,FEMALE,bridge_202.jpg,bridge_202.jpg,bridge_38.jpg,left,bridge_202.jpg,highway_399.jpg,golf_course_179.jpg,mountain_146.jpg,playground_64.jpg,badlands_157.jpg,0.0,left,1.3061,1.0,bridge,bridge_38.jpg,2.985185185,1.8598,A11MOA9HW11EP1
195,A11MOA9HW11EP1,30,FEMALE,highway_209.jpg,highway_122.jpg,highway_209.jpg,right,bridge_224.jpg,highway_209.jpg,mountain_137.jpg,golf_course_137.jpg,playground_184.jpg,badlands_106.jpg,1.0,right,1.3562,1.0,highway,highway_122.jpg,7.896296296,3.2884,A11MOA9HW11EP1
196,A11MOA9HW11EP1,30,FEMALE,badlands_222.jpg,badlands_222.jpg,badlands_62.jpg,left,bridge_142.jpg,badlands_222.jpg,mountain_29.jpg,playground_258.jpg,golf_course_308.jpg,highway_90.jpg,1.0,left,3.1502,1.0,badlands,badlands_62.jpg,7.948148148,1.5577,A11MOA9HW11EP1
197,A11MOA9HW11EP1,30,FEMALE,badlands_221.jpg,badlands_221.jpg,badlands_115.jpg,left,playground_37.jpg,bridge_158.jpg,golf_course_164.jpg,badlands_221.jpg,highway_148.jpg,mountain_212.jpg,3.0,right,2.1866,0.0,badlands,badlands_115.jpg,7.948148148,1.6508,A11MOA9HW11EP1
198,A11MOA9HW11EP1,30,FEMALE,bridge_108.jpg,bridge_108.jpg,bridge_148.jpg,left,mountain_151.jpg,badlands_79.jpg,bridge_108.jpg,playground_33.jpg,highway_288.jpg,golf_course_33.jpg,2.0,right,1.9984,1.0,bridge,bridge_148.jpg,7.948148148,1.8473,A11MOA9HW11EP1
199,A11MOA9HW11EP1,30,FEMALE,playground_60.jpg,playground_60.jpg,playground_244.jpg,left,highway_319.jpg,bridge_117.jpg,golf_course_166.jpg,mountain_39.jpg,playground_60.jpg,badlands_170.jpg,4.0,left,1.4242,1.0,playground,playground_244.jpg,7.948148148,2.5128,A11MOA9HW11EP1
200,A11MOA9HW11EP1,30,FEMALE,mountain_230.jpg,mountain_184.jpg,mountain_230.jpg,right,mountain_230.jpg,golf_course_3.jpg,bridge_120.jpg,highway_78.jpg,playground_126.jpg,badlands_16.jpg,0.0,right,1.8229,0.0,mountain,mountain_184.jpg,7.97037037,1.8463,A11MOA9HW11EP1
201,A11MOA9HW11EP1,30,FEMALE,badlands_70.jpg,badlands_70.jpg,badlands_102.jpg,left,golf_course_171.jpg,bridge_190.jpg,badlands_70.jpg,playground_153.jpg,mountain_294.jpg,highway_247.jpg,2.0,left,1.5104,0.0,badlands,badlands_102.jpg,3.0,3.5073,A11MOA9HW11EP1
202,A11MOA9HW11EP1,30,FEMALE,highway_359.jpg,highway_359.jpg,highway_389.jpg,left,golf_course_202.jpg,mountain_253.jpg,playground_222.jpg,bridge_254.jpg,highway_359.jpg,badlands_85.jpg,4.0,right,2.7462,0.0,highway,highway_389.jpg,2.97037037,3.7668,A11MOA9HW11EP1
203,A11MOA9HW11EP1,30,FEMALE,golf_course_188.jpg,golf_course_157.jpg,golf_course_188.jpg,right,mountain_126.jpg,bridge_218.jpg,highway_404.jpg,golf_course_188.jpg,playground_42.jpg,badlands_152.jpg,3.0,right,1.5363,0.0,golf,golf_course_157.jpg,4.0,3.742,A11MOA9HW11EP1
204,A11MOA9HW11EP1,30,FEMALE,highway_273.jpg,highway_273.jpg,highway_171.jpg,left,playground_98.jpg,mountain_43.jpg,highway_273.jpg,bridge_76.jpg,golf_course_72.jpg,badlands_105.jpg,2.0,right,2.6646,1.0,highway,highway_171.jpg,3.97037037,2.6144,A11MOA9HW11EP1
205,A11MOA9HW11EP1,30,FEMALE,badlands_137.jpg,badlands_137.jpg,badlands_139.jpg,left,golf_course_253.jpg,badlands_137.jpg,playground_49.jpg,highway_413.jpg,mountain_180.jpg,bridge_225.jpg,1.0,right,1.3647,1.0,badlands,badlands_139.jpg,3.97037037,1.4996,A11MOA9HW11EP1
206,A11MOA9HW11EP1,30,FEMALE,badlands_23.jpg,badlands_101.jpg,badlands_23.jpg,right,bridge_1.jpg,mountain_233.jpg,golf_course_282.jpg,badlands_23.jpg,highway_37.jpg,playground_118.jpg,3.0,left,1.7896,1.0,badlands,badlands_101.jpg,3.97037037,1.7051,A11MOA9HW11EP1
207,A11MOA9HW11EP1,30,FEMALE,badlands_52.jpg,badlands_94.jpg,badlands_52.jpg,right,badlands_52.jpg,playground_246.jpg,golf_course_307.jpg,bridge_156.jpg,mountain_192.jpg,highway_3.jpg,0.0,right,0.9945,0.0,badlands,badlands_94.jpg,3.97037037,0.9561,A11MOA9HW11EP1
208,A11MOA9HW11EP1,30,FEMALE,golf_course_214.jpg,golf_course_214.jpg,golf_course_312.jpg,left,mountain_190.jpg,golf_course_214.jpg,bridge_63.jpg,highway_246.jpg,badlands_200.jpg,playground_227.jpg,1.0,right,2.8442,0.0,golf,golf_course_312.jpg,3.0,2.1049,A11MOA9HW11EP1
209,A11MOA9HW11EP1,30,FEMALE,golf_course_309.jpg,golf_course_16.jpg,golf_course_309.jpg,right,badlands_171.jpg,mountain_166.jpg,playground_154.jpg,golf_course_309.jpg,highway_226.jpg,bridge_86.jpg,3.0,left,2.9618,0.0,golf,golf_course_16.jpg,4.007407407,1.8805,A11MOA9HW11EP1
210,A11MOA9HW11EP1,30,FEMALE,playground_240.jpg,playground_2.jpg,playground_240.jpg,right,golf_course_138.jpg,playground_240.jpg,highway_17.jpg,mountain_277.jpg,badlands_46.jpg,bridge_234.jpg,1.0,right,5.0192,0.0,playground,playground_2.jpg,1.97037037,1.6591,A11MOA9HW11EP1
211,A11MOA9HW11EP1,30,FEMALE,playground_257.jpg,playground_257.jpg,playground_214.jpg,left,playground_257.jpg,badlands_166.jpg,golf_course_102.jpg,bridge_22.jpg,mountain_40.jpg,highway_269.jpg,0.0,right,8.2596,0.0,playground,playground_214.jpg,2.977777778,2.0177,A11MOA9HW11EP1
212,A11MOA9HW11EP1,30,FEMALE,playground_144.jpg,playground_137.jpg,playground_144.jpg,right,golf_course_297.jpg,highway_287.jpg,badlands_227.jpg,mountain_176.jpg,playground_144.jpg,bridge_87.jpg,4.0,right,2.0822,0.0,playground,playground_137.jpg,1.985185185,2.0487,A11MOA9HW11EP1
213,A11MOA9HW11EP1,30,FEMALE,mountain_101.jpg,mountain_171.jpg,mountain_101.jpg,right,golf_course_212.jpg,playground_68.jpg,mountain_101.jpg,badlands_217.jpg,highway_365.jpg,bridge_169.jpg,2.0,right,1.1482,0.0,mountain,mountain_171.jpg,3.977777778,2.146,A11MOA9HW11EP1
214,A11MOA9HW11EP1,30,FEMALE,golf_course_217.jpg,golf_course_35.jpg,golf_course_217.jpg,right,mountain_35.jpg,bridge_173.jpg,playground_15.jpg,golf_course_217.jpg,highway_58.jpg,badlands_104.jpg,3.0,right,1.9049,0.0,golf,golf_course_35.jpg,4.992592593,3.5877,A11MOA9HW11EP1
215,A11MOA9HW11EP1,30,FEMALE,playground_219.jpg,playground_21.jpg,playground_219.jpg,right,badlands_213.jpg,playground_219.jpg,bridge_164.jpg,golf_course_196.jpg,highway_147.jpg,mountain_92.jpg,1.0,left,5.5439,0.0,playground,playground_21.jpg,4.0,3.1641,A11MOA9HW11EP1
216,A11MOA9HW11EP1,30,FEMALE,playground_10.jpg,playground_122.jpg,playground_10.jpg,right,golf_course_199.jpg,playground_10.jpg,highway_315.jpg,mountain_143.jpg,badlands_129.jpg,bridge_144.jpg,1.0,right,2.2671,0.0,playground,playground_122.jpg,7.007407407,3.0651,A11MOA9HW11EP1
217,A11MOA9HW11EP1,30,FEMALE,highway_294.jpg,highway_294.jpg,highway_203.jpg,left,highway_294.jpg,golf_course_219.jpg,mountain_34.jpg,badlands_44.jpg,bridge_68.jpg,playground_233.jpg,0.0,right,7.3123,0.0,highway,highway_203.jpg,6.948148148,7.9634,A11MOA9HW11EP1
218,A11MOA9HW11EP1,30,FEMALE,playground_76.jpg,playground_76.jpg,playground_22.jpg,left,playground_76.jpg,golf_course_226.jpg,mountain_306.jpg,bridge_24.jpg,highway_268.jpg,badlands_60.jpg,0.0,right,3.7202,0.0,playground,playground_22.jpg,7.0,1.5754,A11MOA9HW11EP1
219,A11MOA9HW11EP1,30,FEMALE,highway_245.jpg,highway_245.jpg,highway_206.jpg,left,playground_191.jpg,badlands_59.jpg,bridge_212.jpg,highway_245.jpg,mountain_152.jpg,golf_course_162.jpg,3.0,right,3.2136,1.0,highway,highway_206.jpg,4.992592593,3.1906,A11MOA9HW11EP1
220,A11MOA9HW11EP1,30,FEMALE,highway_93.jpg,highway_369.jpg,highway_93.jpg,right,playground_103.jpg,highway_93.jpg,mountain_206.jpg,badlands_33.jpg,golf_course_181.jpg,bridge_62.jpg,1.0,right,4.4821,1.0,highway,highway_369.jpg,4.97037037,2.6782,A11MOA9HW11EP1
221,A11MOA9HW11EP1,30,FEMALE,mountain_232.jpg,mountain_232.jpg,mountain_54.jpg,left,bridge_204.jpg,badlands_201.jpg,mountain_232.jpg,highway_141.jpg,golf_course_291.jpg,playground_165.jpg,2.0,right,2.4777,1.0,mountain,mountain_54.jpg,4.992592593,2.2725,A11MOA9HW11EP1
222,A11MOA9HW11EP1,30,FEMALE,bridge_65.jpg,bridge_65.jpg,bridge_181.jpg,left,highway_30.jpg,bridge_65.jpg,badlands_174.jpg,mountain_89.jpg,playground_249.jpg,golf_course_133.jpg,1.0,left,2.0581,0.0,bridge,bridge_181.jpg,5.992592593,3.8367,A11MOA9HW11EP1
223,A11MOA9HW11EP1,30,FEMALE,golf_course_15.jpg,golf_course_97.jpg,golf_course_15.jpg,right,bridge_126.jpg,mountain_120.jpg,badlands_156.jpg,highway_9.jpg,golf_course_15.jpg,playground_47.jpg,4.0,left,1.2924,1.0,golf,golf_course_97.jpg,3.007407407,2.9697,A11MOA9HW11EP1
224,A11MOA9HW11EP1,30,FEMALE,highway_394.jpg,highway_394.jpg,highway_204.jpg,left,highway_394.jpg,badlands_27.jpg,golf_course_61.jpg,bridge_106.jpg,mountain_102.jpg,playground_181.jpg,0.0,right,2.979,0.0,highway,highway_204.jpg,7.97037037,2.2182,A11MOA9HW11EP1
225,A11MOA9HW11EP1,30,FEMALE,bridge_191.jpg,bridge_75.jpg,bridge_191.jpg,right,golf_course_144.jpg,highway_36.jpg,bridge_191.jpg,mountain_309.jpg,badlands_20.jpg,playground_26.jpg,2.0,right,6.5291,1.0,bridge,bridge_75.jpg,5.955555556,1.3668,A11MOA9HW11EP1
226,A11MOA9HW11EP1,30,FEMALE,highway_415.jpg,highway_415.jpg,highway_174.jpg,left,highway_415.jpg,golf_course_221.jpg,mountain_169.jpg,badlands_80.jpg,bridge_35.jpg,playground_195.jpg,0.0,right,1.5667,1.0,highway,highway_174.jpg,4.962962963,1.0909,A11MOA9HW11EP1
227,A11MOA9HW11EP1,30,FEMALE,mountain_57.jpg,mountain_193.jpg,mountain_57.jpg,right,badlands_211.jpg,golf_course_56.jpg,mountain_57.jpg,playground_248.jpg,bridge_79.jpg,highway_28.jpg,2.0,right,2.0798,0.0,mountain,mountain_193.jpg,4.081481481,1.5313,A11MOA9HW11EP1
228,A11MOA9HW11EP1,30,FEMALE,mountain_222.jpg,mountain_222.jpg,mountain_93.jpg,left,highway_193.jpg,bridge_167.jpg,playground_63.jpg,golf_course_313.jpg,mountain_222.jpg,badlands_97.jpg,4.0,right,6.3997,1.0,mountain,mountain_93.jpg,6.918518519,1.6234,A11MOA9HW11EP1
229,A11MOA9HW11EP1,30,FEMALE,mountain_123.jpg,mountain_189.jpg,mountain_123.jpg,right,bridge_133.jpg,badlands_36.jpg,golf_course_305.jpg,mountain_123.jpg,highway_76.jpg,playground_50.jpg,3.0,left,1.5254,1.0,mountain,mountain_189.jpg,5.925925926,1.168,A11MOA9HW11EP1
230,A11MOA9HW11EP1,30,FEMALE,badlands_24.jpg,badlands_24.jpg,badlands_53.jpg,left,golf_course_55.jpg,playground_241.jpg,highway_81.jpg,bridge_66.jpg,badlands_24.jpg,mountain_41.jpg,4.0,left,1.3029,1.0,badlands,badlands_53.jpg,6.888888889,1.9711,A11MOA9HW11EP1
231,A11MOA9HW11EP1,30,FEMALE,mountain_154.jpg,mountain_131.jpg,mountain_154.jpg,right,golf_course_241.jpg,mountain_154.jpg,badlands_138.jpg,bridge_143.jpg,playground_30.jpg,highway_308.jpg,1.0,right,2.3731,0.0,mountain,mountain_131.jpg,6.940740741,1.6867,A11MOA9HW11EP1
232,A11MOA9HW11EP1,30,FEMALE,bridge_172.jpg,bridge_172.jpg,bridge_163.jpg,left,playground_7.jpg,golf_course_41.jpg,bridge_172.jpg,highway_191.jpg,mountain_91.jpg,badlands_54.jpg,2.0,right,2.2476,1.0,bridge,bridge_163.jpg,6.955555556,1.6622,A11MOA9HW11EP1
233,A11MOA9HW11EP1,30,FEMALE,bridge_250.jpg,bridge_250.jpg,bridge_134.jpg,left,bridge_250.jpg,playground_251.jpg,golf_course_23.jpg,highway_107.jpg,mountain_302.jpg,badlands_150.jpg,0.0,left,1.5722,0.0,bridge,bridge_134.jpg,1.977777778,3.6771,A11MOA9HW11EP1
234,A11MOA9HW11EP1,30,FEMALE,golf_course_193.jpg,golf_course_235.jpg,golf_course_193.jpg,right,badlands_214.jpg,highway_18.jpg,bridge_4.jpg,playground_235.jpg,golf_course_193.jpg,mountain_38.jpg,4.0,left,1.9154,0.0,golf,golf_course_235.jpg,5.977777778,3.6146,A11MOA9HW11EP1
235,A11MOA9HW11EP1,30,FEMALE,golf_course_331.jpg,golf_course_26.jpg,golf_course_331.jpg,right,highway_31.jpg,bridge_152.jpg,playground_162.jpg,mountain_256.jpg,golf_course_331.jpg,badlands_216.jpg,4.0,left,1.9889,1.0,golf,golf_course_26.jpg,7.0,2.9698,A11MOA9HW11EP1
236,A11MOA9HW11EP1,30,FEMALE,golf_course_87.jpg,golf_course_87.jpg,golf_course_130.jpg,left,playground_256.jpg,highway_101.jpg,badlands_122.jpg,golf_course_87.jpg,mountain_251.jpg,bridge_102.jpg,3.0,left,1.6408,0.0,golf,golf_course_130.jpg,4.037037037,2.0624,A11MOA9HW11EP1
237,A11MOA9HW11EP1,30,FEMALE,bridge_146.jpg,bridge_146.jpg,bridge_121.jpg,left,playground_85.jpg,mountain_45.jpg,highway_335.jpg,bridge_146.jpg,golf_course_265.jpg,badlands_164.jpg,3.0,right,1.7232,1.0,bridge,bridge_121.jpg,4.962962963,2.5022,A11MOA9HW11EP1
238,A11MOA9HW11EP1,30,FEMALE,bridge_128.jpg,bridge_128.jpg,bridge_244.jpg,left,mountain_160.jpg,bridge_128.jpg,highway_290.jpg,badlands_121.jpg,golf_course_342.jpg,playground_237.jpg,1.0,left,1.6938,1.0,bridge,bridge_244.jpg,6.02962963,2.3027,A11MOA9HW11EP1
239,A11MOA9HW11EP1,30,FEMALE,badlands_113.jpg,badlands_203.jpg,badlands_113.jpg,right,golf_course_218.jpg,highway_178.jpg,badlands_113.jpg,playground_173.jpg,bridge_39.jpg,mountain_290.jpg,2.0,left,1.4198,1.0,badlands,badlands_203.jpg,3.948148148,2.4904,A11MOA9HW11EP1
240,A19GPBWE8CBCOL,29,Female,badlands_221.jpg,badlands_221.jpg,badlands_115.jpg,left,bridge_224.jpg,badlands_221.jpg,golf_course_128.jpg,highway_53.jpg,mountain_91.jpg,playground_162.jpg,1.0,right,1.8465,0.0,badlands,badlands_115.jpg,5.927083333,6.6372,A19GPBWE8CBCOL
241,A19GPBWE8CBCOL,29,Female,golf_course_309.jpg,golf_course_209.jpg,golf_course_309.jpg,right,highway_247.jpg,playground_16.jpg,golf_course_309.jpg,bridge_96.jpg,mountain_29.jpg,badlands_175.jpg,2.0,left,1.1643,1.0,golf,golf_course_209.jpg,5.979166667,0.5667,A19GPBWE8CBCOL
242,A19GPBWE8CBCOL,29,Female,badlands_23.jpg,badlands_23.jpg,badlands_114.jpg,left,badlands_23.jpg,highway_9.jpg,playground_33.jpg,bridge_87.jpg,golf_course_144.jpg,mountain_143.jpg,0.0,right,1.5339,0.0,badlands,badlands_114.jpg,4.958333333,2.9096,A19GPBWE8CBCOL
243,A19GPBWE8CBCOL,29,Female,playground_240.jpg,playground_240.jpg,playground_2.jpg,left,badlands_201.jpg,playground_240.jpg,highway_15.jpg,golf_course_56.jpg,bridge_147.jpg,mountain_137.jpg,1.0,right,2.0836,0.0,playground,playground_2.jpg,8.0,3.1731,A19GPBWE8CBCOL
244,A19GPBWE8CBCOL,29,Female,golf_course_217.jpg,golf_course_35.jpg,golf_course_217.jpg,right,playground_256.jpg,golf_course_217.jpg,mountain_33.jpg,badlands_33.jpg,highway_154.jpg,bridge_45.jpg,1.0,left,4.3225,0.0,golf,golf_course_35.jpg,5.010416667,33.2491,A19GPBWE8CBCOL
245,A19GPBWE8CBCOL,29,Female,highway_156.jpg,highway_156.jpg,highway_293.jpg,left,highway_156.jpg,playground_118.jpg,golf_course_265.jpg,badlands_55.jpg,bridge_4.jpg,mountain_120.jpg,0.0,right,3.2602,1.0,highway,highway_293.jpg,8.895833333,3.0079,A19GPBWE8CBCOL
246,A19GPBWE8CBCOL,29,Female,highway_209.jpg,highway_209.jpg,highway_122.jpg,left,badlands_217.jpg,playground_98.jpg,golf_course_176.jpg,highway_209.jpg,mountain_190.jpg,bridge_197.jpg,3.0,left,3.8933,1.0,highway,highway_122.jpg,8.03125,2.3667,A19GPBWE8CBCOL
247,A19GPBWE8CBCOL,29,Female,golf_course_195.jpg,golf_course_195.jpg,golf_course_25.jpg,left,bridge_22.jpg,mountain_199.jpg,badlands_59.jpg,playground_55.jpg,golf_course_195.jpg,highway_287.jpg,4.0,right,1.7506,0.0,golf,golf_course_25.jpg,5.0625,3.1351,A19GPBWE8CBCOL
248,A19GPBWE8CBCOL,29,Female,mountain_222.jpg,mountain_222.jpg,mountain_93.jpg,left,playground_153.jpg,golf_course_313.jpg,bridge_238.jpg,highway_81.jpg,mountain_222.jpg,badlands_97.jpg,4.0,left,1.0695,1.0,mountain,mountain_93.jpg,7.947916667,2.5662,A19GPBWE8CBCOL
249,A19GPBWE8CBCOL,29,Female,mountain_232.jpg,mountain_232.jpg,mountain_54.jpg,left,mountain_232.jpg,highway_399.jpg,golf_course_328.jpg,playground_49.jpg,badlands_138.jpg,bridge_64.jpg,0.0,right,0.9916,1.0,mountain,mountain_54.jpg,8.885416667,2.4746,A19GPBWE8CBCOL
250,A19GPBWE8CBCOL,29,Female,highway_294.jpg,highway_368.jpg,highway_294.jpg,right,bridge_169.jpg,playground_132.jpg,mountain_256.jpg,badlands_10.jpg,highway_294.jpg,golf_course_105.jpg,4.0,right,2.3806,1.0,highway,highway_368.jpg,8.03125,2.3908,A19GPBWE8CBCOL
251,A19GPBWE8CBCOL,29,Female,badlands_21.jpg,badlands_21.jpg,badlands_1.jpg,left,bridge_112.jpg,highway_315.jpg,mountain_40.jpg,badlands_21.jpg,golf_course_238.jpg,playground_141.jpg,3.0,left,2.8235,0.0,badlands,badlands_1.jpg,6.947916667,2.239,A19GPBWE8CBCOL
252,A19GPBWE8CBCOL,29,Female,mountain_293.jpg,mountain_293.jpg,mountain_72.jpg,left,highway_37.jpg,bridge_152.jpg,badlands_185.jpg,mountain_293.jpg,golf_course_59.jpg,playground_15.jpg,3.0,right,2.9614,0.0,mountain,mountain_72.jpg,8.822916667,1.7799,A19GPBWE8CBCOL
253,A19GPBWE8CBCOL,29,Female,golf_course_214.jpg,golf_course_214.jpg,golf_course_312.jpg,left,mountain_102.jpg,golf_course_214.jpg,bridge_225.jpg,playground_50.jpg,highway_342.jpg,badlands_47.jpg,1.0,left,6.0225,0.0,golf,golf_course_312.jpg,4.958333333,3.5488,A19GPBWE8CBCOL
254,A19GPBWE8CBCOL,29,Female,badlands_52.jpg,badlands_94.jpg,badlands_52.jpg,right,highway_295.jpg,mountain_202.jpg,playground_173.jpg,badlands_52.jpg,bridge_24.jpg,golf_course_342.jpg,3.0,right,11.7886,0.0,badlands,badlands_94.jpg,7.96875,2.4855,A19GPBWE8CBCOL
255,A19GPBWE8CBCOL,29,Female,mountain_57.jpg,mountain_193.jpg,mountain_57.jpg,right,badlands_157.jpg,mountain_57.jpg,golf_course_0.jpg,bridge_72.jpg,playground_68.jpg,highway_83.jpg,1.0,right,10.8011,0.0,mountain,mountain_193.jpg,8.697916667,2.223,A19GPBWE8CBCOL
256,A19GPBWE8CBCOL,29,Female,highway_359.jpg,highway_389.jpg,highway_359.jpg,right,highway_359.jpg,badlands_183.jpg,playground_103.jpg,mountain_204.jpg,bridge_179.jpg,golf_course_164.jpg,0.0,left,30.0947,0.0,highway,highway_389.jpg,3.927083333,2.9771,A19GPBWE8CBCOL
257,A19GPBWE8CBCOL,29,Female,mountain_123.jpg,mountain_123.jpg,mountain_94.jpg,left,golf_course_300.jpg,badlands_6.jpg,bridge_118.jpg,highway_269.jpg,mountain_123.jpg,playground_6.jpg,4.0,left,1.8157,0.0,mountain,mountain_94.jpg,4.020833333,2.7866,A19GPBWE8CBCOL
258,A19GPBWE8CBCOL,29,Female,bridge_250.jpg,bridge_205.jpg,bridge_250.jpg,right,playground_26.jpg,golf_course_218.jpg,highway_28.jpg,mountain_22.jpg,bridge_250.jpg,badlands_174.jpg,4.0,right,1.2983,1.0,bridge,bridge_205.jpg,7.989583333,7.1255,A19GPBWE8CBCOL
259,A19GPBWE8CBCOL,29,Female,playground_145.jpg,playground_145.jpg,playground_229.jpg,left,highway_413.jpg,mountain_62.jpg,golf_course_179.jpg,playground_145.jpg,badlands_106.jpg,bridge_117.jpg,3.0,right,1.6749,0.0,playground,playground_229.jpg,7.0,5.1562,A19GPBWE8CBCOL
260,A19GPBWE8CBCOL,29,Female,playground_10.jpg,playground_10.jpg,playground_122.jpg,left,golf_course_33.jpg,highway_107.jpg,playground_10.jpg,bridge_106.jpg,mountain_41.jpg,badlands_20.jpg,2.0,left,1.6044,0.0,playground,playground_122.jpg,6.177083333,2.1724,A19GPBWE8CBCOL
261,A19GPBWE8CBCOL,29,Female,badlands_24.jpg,badlands_53.jpg,badlands_24.jpg,right,badlands_24.jpg,bridge_158.jpg,mountain_126.jpg,golf_course_305.jpg,highway_3.jpg,playground_248.jpg,0.0,left,1.0732,1.0,badlands,badlands_53.jpg,8.875,2.3645,A19GPBWE8CBCOL
262,A19GPBWE8CBCOL,29,Female,badlands_222.jpg,badlands_34.jpg,badlands_222.jpg,right,mountain_51.jpg,highway_31.jpg,bridge_52.jpg,badlands_222.jpg,playground_126.jpg,golf_course_253.jpg,3.0,right,1.3051,0.0,badlands,badlands_34.jpg,8.90625,1.6385,A19GPBWE8CBCOL
263,A19GPBWE8CBCOL,29,Female,golf_course_331.jpg,golf_course_331.jpg,golf_course_114.jpg,left,badlands_152.jpg,bridge_180.jpg,mountain_34.jpg,playground_83.jpg,golf_course_331.jpg,highway_288.jpg,4.0,left,1.4521,0.0,golf,golf_course_114.jpg,6.989583333,2.7758,A19GPBWE8CBCOL
264,A19GPBWE8CBCOL,29,Female,mountain_230.jpg,mountain_230.jpg,mountain_97.jpg,left,badlands_215.jpg,mountain_230.jpg,bridge_133.jpg,highway_335.jpg,playground_37.jpg,golf_course_127.jpg,1.0,right,0.9132,1.0,mountain,mountain_97.jpg,7.9375,2.2218,A19GPBWE8CBCOL
265,A19GPBWE8CBCOL,29,Female,mountain_156.jpg,mountain_156.jpg,mountain_295.jpg,left,badlands_36.jpg,bridge_193.jpg,mountain_156.jpg,playground_14.jpg,golf_course_316.jpg,highway_319.jpg,2.0,left,1.3767,1.0,mountain,mountain_295.jpg,6.979166667,2.4917,A19GPBWE8CBCOL
266,A19GPBWE8CBCOL,29,Female,mountain_110.jpg,mountain_110.jpg,mountain_223.jpg,left,golf_course_166.jpg,bridge_102.jpg,mountain_110.jpg,highway_90.jpg,playground_154.jpg,badlands_72.jpg,2.0,right,0.9143,1.0,mountain,mountain_223.jpg,8.979166667,2.3994,A19GPBWE8CBCOL
267,A19GPBWE8CBCOL,29,Female,badlands_184.jpg,badlands_228.jpg,badlands_184.jpg,right,playground_30.jpg,golf_course_72.jpg,badlands_184.jpg,bridge_156.jpg,highway_18.jpg,mountain_166.jpg,2.0,right,11.8361,0.0,badlands,badlands_228.jpg,8.895833333,4.7884,A19GPBWE8CBCOL
268,A19GPBWE8CBCOL,29,Female,golf_course_78.jpg,golf_course_134.jpg,golf_course_78.jpg,right,mountain_35.jpg,playground_110.jpg,bridge_136.jpg,badlands_104.jpg,golf_course_78.jpg,highway_78.jpg,4.0,right,1.5999,0.0,golf,golf_course_134.jpg,8.96875,2.395,A19GPBWE8CBCOL
269,A19GPBWE8CBCOL,29,Female,playground_219.jpg,playground_219.jpg,playground_205.jpg,left,badlands_173.jpg,mountain_250.jpg,bridge_254.jpg,playground_219.jpg,golf_course_252.jpg,highway_29.jpg,3.0,left,0.8386,1.0,playground,playground_205.jpg,7.979166667,3.6029,A19GPBWE8CBCOL
270,A19GPBWE8CBCOL,29,Female,playground_131.jpg,playground_131.jpg,playground_43.jpg,left,badlands_122.jpg,bridge_212.jpg,mountain_151.jpg,highway_141.jpg,playground_131.jpg,golf_course_297.jpg,4.0,left,1.1425,0.0,playground,playground_43.jpg,5.96875,3.7017,A19GPBWE8CBCOL
271,A19GPBWE8CBCOL,29,Female,mountain_154.jpg,mountain_154.jpg,mountain_131.jpg,left,badlands_79.jpg,highway_290.jpg,golf_course_219.jpg,mountain_154.jpg,bridge_76.jpg,playground_120.jpg,3.0,left,1.5836,0.0,mountain,mountain_131.jpg,7.104166667,4.7116,A19GPBWE8CBCOL
272,A19GPBWE8CBCOL,29,Female,playground_60.jpg,playground_60.jpg,playground_268.jpg,left,mountain_146.jpg,highway_365.jpg,playground_60.jpg,bridge_79.jpg,golf_course_42.jpg,badlands_88.jpg,2.0,left,2.0473,0.0,playground,playground_268.jpg,8.052083333,23.8561,A19GPBWE8CBCOL
273,A19GPBWE8CBCOL,29,Female,playground_257.jpg,playground_257.jpg,playground_214.jpg,left,highway_305.jpg,golf_course_308.jpg,bridge_144.jpg,playground_257.jpg,mountain_88.jpg,badlands_80.jpg,3.0,left,1.6693,0.0,playground,playground_214.jpg,4.947916667,3.003,A19GPBWE8CBCOL
274,A19GPBWE8CBCOL,29,Female,highway_273.jpg,highway_384.jpg,highway_273.jpg,right,mountain_233.jpg,bridge_124.jpg,highway_273.jpg,playground_39.jpg,badlands_219.jpg,golf_course_55.jpg,2.0,left,1.9019,0.0,highway,highway_384.jpg,7.03125,2.0841,A19GPBWE8CBCOL
275,A19GPBWE8CBCOL,29,Female,golf_course_87.jpg,golf_course_130.jpg,golf_course_87.jpg,right,bridge_66.jpg,highway_17.jpg,mountain_32.jpg,golf_course_87.jpg,badlands_121.jpg,playground_204.jpg,3.0,right,2.8074,0.0,golf,golf_course_130.jpg,7.666666667,5.0463,A19GPBWE8CBCOL
276,A19GPBWE8CBCOL,29,Female,playground_76.jpg,playground_76.jpg,playground_22.jpg,left,playground_76.jpg,bridge_1.jpg,golf_course_196.jpg,badlands_44.jpg,mountain_192.jpg,highway_308.jpg,0.0,right,2.0577,0.0,playground,playground_22.jpg,8.989583333,3.0168,A19GPBWE8CBCOL
277,A19GPBWE8CBCOL,29,Female,highway_93.jpg,highway_85.jpg,highway_93.jpg,right,highway_93.jpg,bridge_266.jpg,mountain_309.jpg,playground_78.jpg,badlands_170.jpg,golf_course_171.jpg,0.0,right,1.292,0.0,highway,highway_85.jpg,4.989583333,2.3235,A19GPBWE8CBCOL
278,A19GPBWE8CBCOL,29,Female,bridge_146.jpg,bridge_146.jpg,bridge_27.jpg,left,highway_257.jpg,golf_course_138.jpg,badlands_67.jpg,playground_7.jpg,bridge_146.jpg,mountain_19.jpg,4.0,left,1.8305,0.0,bridge,bridge_27.jpg,6.03125,2.0775,A19GPBWE8CBCOL
279,A19GPBWE8CBCOL,29,Female,bridge_128.jpg,bridge_128.jpg,bridge_244.jpg,left,golf_course_269.jpg,playground_42.jpg,mountain_39.jpg,badlands_200.jpg,bridge_128.jpg,highway_76.jpg,4.0,left,1.351,1.0,bridge,bridge_244.jpg,7.875,2.0997,A19GPBWE8CBCOL
280,A19GPBWE8CBCOL,29,Female,bridge_256.jpg,bridge_256.jpg,bridge_211.jpg,left,badlands_27.jpg,bridge_256.jpg,highway_102.jpg,mountain_212.jpg,playground_124.jpg,golf_course_338.jpg,1.0,right,1.655,1.0,bridge,bridge_211.jpg,7.770833333,1.8845,A19GPBWE8CBCOL
281,A19GPBWE8CBCOL,29,Female,bridge_191.jpg,bridge_184.jpg,bridge_191.jpg,right,bridge_191.jpg,highway_36.jpg,badlands_216.jpg,golf_course_162.jpg,playground_61.jpg,mountain_226.jpg,0.0,right,83.8388,0.0,bridge,bridge_184.jpg,6.916666667,2.3019,A19GPBWE8CBCOL
282,A19GPBWE8CBCOL,29,Female,badlands_137.jpg,badlands_137.jpg,badlands_139.jpg,left,mountain_43.jpg,badlands_137.jpg,bridge_86.jpg,golf_course_137.jpg,highway_251.jpg,playground_181.jpg,1.0,left,1.7534,1.0,badlands,badlands_139.jpg,5.958333333,2.4363,A19GPBWE8CBCOL
283,A19GPBWE8CBCOL,29,Female,highway_245.jpg,highway_245.jpg,highway_206.jpg,left,golf_course_307.jpg,highway_245.jpg,mountain_198.jpg,bridge_74.jpg,playground_251.jpg,badlands_180.jpg,1.0,right,1.6822,1.0,highway,highway_206.jpg,8.947916667,2.2477,A19GPBWE8CBCOL
284,A19GPBWE8CBCOL,29,Female,bridge_202.jpg,bridge_202.jpg,bridge_38.jpg,left,mountain_38.jpg,highway_148.jpg,golf_course_133.jpg,bridge_202.jpg,badlands_54.jpg,playground_36.jpg,3.0,right,1.8324,1.0,bridge,bridge_38.jpg,8.916666667,2.7826,A19GPBWE8CBCOL
285,A19GPBWE8CBCOL,29,Female,golf_course_15.jpg,golf_course_113.jpg,golf_course_15.jpg,right,bridge_142.jpg,badlands_81.jpg,playground_195.jpg,golf_course_15.jpg,highway_274.jpg,mountain_206.jpg,3.0,left,1.6645,0.0,golf,golf_course_113.jpg,4.9375,2.9869,A19GPBWE8CBCOL
286,A19GPBWE8CBCOL,29,Female,mountain_101.jpg,mountain_171.jpg,mountain_101.jpg,right,mountain_101.jpg,bridge_204.jpg,highway_101.jpg,badlands_227.jpg,playground_241.jpg,golf_course_67.jpg,0.0,right,1.1501,0.0,mountain,mountain_171.jpg,8.104166667,2.371,A19GPBWE8CBCOL
287,A19GPBWE8CBCOL,29,Female,bridge_108.jpg,bridge_108.jpg,bridge_116.jpg,left,playground_84.jpg,highway_313.jpg,mountain_228.jpg,golf_course_102.jpg,bridge_108.jpg,badlands_129.jpg,4.0,left,2.203,0.0,bridge,bridge_116.jpg,7.0625,2.5363,A19GPBWE8CBCOL
288,A19GPBWE8CBCOL,29,Female,highway_415.jpg,highway_415.jpg,highway_174.jpg,left,badlands_156.jpg,playground_64.jpg,highway_415.jpg,golf_course_282.jpg,mountain_160.jpg,bridge_126.jpg,2.0,right,1.1425,1.0,highway,highway_174.jpg,6.020833333,2.6151,A19GPBWE8CBCOL
289,A19GPBWE8CBCOL,29,Female,bridge_91.jpg,bridge_91.jpg,bridge_253.jpg,left,mountain_187.jpg,bridge_91.jpg,playground_233.jpg,golf_course_202.jpg,highway_50.jpg,badlands_105.jpg,1.0,right,1.371,0.0,bridge,bridge_253.jpg,4.010416667,2.9217,A19GPBWE8CBCOL
290,A19GPBWE8CBCOL,29,Female,playground_144.jpg,playground_137.jpg,playground_144.jpg,right,bridge_62.jpg,highway_199.jpg,playground_144.jpg,mountain_45.jpg,golf_course_61.jpg,badlands_164.jpg,2.0,right,1.1439,0.0,playground,playground_137.jpg,4.989583333,2.4103,A19GPBWE8CBCOL
291,A19GPBWE8CBCOL,29,Female,bridge_65.jpg,bridge_181.jpg,bridge_65.jpg,right,bridge_65.jpg,mountain_176.jpg,golf_course_71.jpg,playground_258.jpg,highway_58.jpg,badlands_213.jpg,0.0,left,1.5254,0.0,bridge,bridge_181.jpg,5.9375,3.0821,A19GPBWE8CBCOL
292,A19GPBWE8CBCOL,29,Female,badlands_70.jpg,badlands_102.jpg,badlands_70.jpg,right,playground_85.jpg,badlands_70.jpg,mountain_251.jpg,highway_30.jpg,bridge_140.jpg,golf_course_120.jpg,1.0,right,1.366,0.0,badlands,badlands_102.jpg,7.958333333,2.7021,A19GPBWE8CBCOL
293,A19GPBWE8CBCOL,29,Female,highway_394.jpg,highway_406.jpg,highway_394.jpg,right,bridge_35.jpg,playground_63.jpg,highway_394.jpg,badlands_125.jpg,golf_course_288.jpg,mountain_87.jpg,2.0,left,1.7443,1.0,highway,highway_406.jpg,7.020833333,2.0747,A19GPBWE8CBCOL
294,A19GPBWE8CBCOL,29,Female,bridge_172.jpg,bridge_163.jpg,bridge_172.jpg,right,bridge_172.jpg,highway_147.jpg,badlands_128.jpg,mountain_249.jpg,playground_54.jpg,golf_course_333.jpg,0.0,right,2.0426,1.0,bridge,bridge_163.jpg,6.958333333,3.6793,A19GPBWE8CBCOL
295,A19GPBWE8CBCOL,29,Female,highway_177.jpg,highway_177.jpg,highway_278.jpg,left,playground_191.jpg,badlands_214.jpg,highway_177.jpg,golf_course_194.jpg,bridge_190.jpg,mountain_76.jpg,2.0,left,1.5183,1.0,highway,highway_278.jpg,7.916666667,2.5598,A19GPBWE8CBCOL
296,A19GPBWE8CBCOL,29,Female,playground_117.jpg,playground_117.jpg,playground_167.jpg,left,highway_246.jpg,bridge_120.jpg,badlands_16.jpg,playground_117.jpg,golf_course_221.jpg,mountain_302.jpg,3.0,right,1.3531,0.0,playground,playground_167.jpg,8.864583333,2.7757,A19GPBWE8CBCOL
297,A19GPBWE8CBCOL,29,Female,golf_course_188.jpg,golf_course_160.jpg,golf_course_188.jpg,right,bridge_68.jpg,golf_course_188.jpg,badlands_26.jpg,highway_172.jpg,playground_235.jpg,mountain_92.jpg,1.0,right,1.218,1.0,golf,golf_course_160.jpg,6.947916667,2.3374,A19GPBWE8CBCOL
298,A19GPBWE8CBCOL,29,Female,badlands_113.jpg,badlands_203.jpg,badlands_113.jpg,right,mountain_307.jpg,golf_course_212.jpg,bridge_143.jpg,badlands_113.jpg,highway_193.jpg,playground_74.jpg,3.0,right,2.1092,1.0,badlands,badlands_203.jpg,7.9375,2.0044,A19GPBWE8CBCOL
299,A19GPBWE8CBCOL,29,Female,golf_course_193.jpg,golf_course_193.jpg,golf_course_235.jpg,left,mountain_152.jpg,highway_138.jpg,badlands_211.jpg,golf_course_193.jpg,playground_196.jpg,bridge_155.jpg,3.0,right,1.4501,0.0,golf,golf_course_235.jpg,5.947916667,2.5419,A19GPBWE8CBCOL
300,A2DGBPX9UOQC54,40,FEMALE,golf_course_78.jpg,golf_course_78.jpg,golf_course_134.jpg,left,highway_265.jpg,bridge_179.jpg,playground_64.jpg,golf_course_78.jpg,badlands_36.jpg,mountain_19.jpg,3.0,left,3.3621,0.0,golf,golf_course_134.jpg,2.007407407,5.1806,A2DGBPX9UOQC54
301,A2DGBPX9UOQC54,40,FEMALE,badlands_70.jpg,badlands_70.jpg,badlands_102.jpg,left,golf_course_342.jpg,badlands_70.jpg,highway_342.jpg,bridge_197.jpg,mountain_76.jpg,playground_6.jpg,1.0,right,2.2798,0.0,badlands,badlands_102.jpg,1.985185185,13.209,A2DGBPX9UOQC54
302,A2DGBPX9UOQC54,40,FEMALE,playground_144.jpg,playground_144.jpg,playground_137.jpg,left,bridge_118.jpg,highway_257.jpg,mountain_29.jpg,golf_course_0.jpg,playground_144.jpg,badlands_213.jpg,4.0,left,1.6912,0.0,playground,playground_137.jpg,1.985185185,6.6781,A2DGBPX9UOQC54
303,A2DGBPX9UOQC54,40,FEMALE,bridge_108.jpg,bridge_108.jpg,bridge_148.jpg,left,golf_course_176.jpg,mountain_43.jpg,bridge_108.jpg,playground_248.jpg,badlands_47.jpg,highway_37.jpg,2.0,right,4.414,1.0,bridge,bridge_148.jpg,2.992592593,4.2731,A2DGBPX9UOQC54
304,A2DGBPX9UOQC54,40,FEMALE,playground_76.jpg,playground_76.jpg,playground_22.jpg,left,playground_76.jpg,bridge_4.jpg,badlands_201.jpg,golf_course_238.jpg,highway_319.jpg,mountain_199.jpg,0.0,left,2.2108,0.0,playground,playground_22.jpg,2.0,8.8881,A2DGBPX9UOQC54
305,A2DGBPX9UOQC54,40,FEMALE,golf_course_15.jpg,golf_course_15.jpg,golf_course_113.jpg,left,golf_course_15.jpg,badlands_180.jpg,bridge_142.jpg,mountain_212.jpg,playground_196.jpg,highway_42.jpg,0.0,right,1.929,0.0,golf,golf_course_113.jpg,1.977777778,2.093,A2DGBPX9UOQC54
306,A2DGBPX9UOQC54,40,FEMALE,golf_course_87.jpg,golf_course_161.jpg,golf_course_87.jpg,right,golf_course_87.jpg,mountain_126.jpg,bridge_1.jpg,playground_153.jpg,highway_148.jpg,badlands_6.jpg,0.0,right,2.3918,1.0,golf,golf_course_161.jpg,5.007407407,4.6913,A2DGBPX9UOQC54
307,A2DGBPX9UOQC54,40,FEMALE,bridge_128.jpg,bridge_128.jpg,bridge_244.jpg,left,bridge_128.jpg,mountain_41.jpg,badlands_128.jpg,playground_258.jpg,highway_28.jpg,golf_course_269.jpg,0.0,left,1.9866,1.0,bridge,bridge_244.jpg,3.985185185,3.53,A2DGBPX9UOQC54
308,A2DGBPX9UOQC54,40,FEMALE,badlands_184.jpg,badlands_184.jpg,badlands_228.jpg,left,mountain_250.jpg,bridge_155.jpg,golf_course_288.jpg,badlands_184.jpg,playground_42.jpg,highway_178.jpg,3.0,left,2.7202,0.0,badlands,badlands_228.jpg,2.948148148,4.0121,A2DGBPX9UOQC54
309,A2DGBPX9UOQC54,40,FEMALE,badlands_52.jpg,badlands_52.jpg,badlands_94.jpg,left,mountain_190.jpg,bridge_126.jpg,badlands_52.jpg,highway_251.jpg,playground_154.jpg,golf_course_202.jpg,2.0,left,2.1519,0.0,badlands,badlands_94.jpg,1.962962963,2.8962,A2DGBPX9UOQC54
310,A2DGBPX9UOQC54,40,FEMALE,mountain_110.jpg,mountain_110.jpg,mountain_157.jpg,left,badlands_227.jpg,playground_235.jpg,bridge_173.jpg,highway_226.jpg,mountain_110.jpg,golf_course_333.jpg,4.0,left,1.6978,0.0,mountain,mountain_157.jpg,3.992592593,4.5116,A2DGBPX9UOQC54
311,A2DGBPX9UOQC54,40,FEMALE,highway_177.jpg,highway_177.jpg,highway_278.jpg,left,playground_132.jpg,highway_177.jpg,bridge_68.jpg,golf_course_67.jpg,badlands_9.jpg,mountain_33.jpg,1.0,left,1.91,1.0,highway,highway_278.jpg,3.992592593,0.8464,A2DGBPX9UOQC54
312,A2DGBPX9UOQC54,40,FEMALE,highway_245.jpg,highway_245.jpg,highway_206.jpg,left,bridge_72.jpg,playground_165.jpg,golf_course_219.jpg,badlands_10.jpg,highway_245.jpg,mountain_226.jpg,4.0,left,1.6567,1.0,highway,highway_206.jpg,4.955555556,4.3579,A2DGBPX9UOQC54
313,A2DGBPX9UOQC54,40,FEMALE,bridge_146.jpg,bridge_121.jpg,bridge_146.jpg,right,playground_16.jpg,mountain_152.jpg,badlands_67.jpg,bridge_146.jpg,golf_course_212.jpg,highway_269.jpg,3.0,right,2.1386,1.0,bridge,bridge_121.jpg,1.985185185,3.163,A2DGBPX9UOQC54
314,A2DGBPX9UOQC54,40,FEMALE,golf_course_193.jpg,golf_course_193.jpg,golf_course_235.jpg,left,highway_191.jpg,playground_237.jpg,bridge_254.jpg,golf_course_193.jpg,mountain_120.jpg,badlands_175.jpg,3.0,left,2.1356,0.0,golf,golf_course_235.jpg,2.977777778,4.4388,A2DGBPX9UOQC54
315,A2DGBPX9UOQC54,40,FEMALE,golf_course_309.jpg,golf_course_309.jpg,golf_course_209.jpg,left,highway_30.jpg,bridge_63.jpg,golf_course_309.jpg,mountain_87.jpg,badlands_219.jpg,playground_63.jpg,2.0,left,1.3056,1.0,golf,golf_course_209.jpg,4.02962963,3.2398,A2DGBPX9UOQC54
316,A2DGBPX9UOQC54,40,FEMALE,highway_294.jpg,highway_294.jpg,highway_368.jpg,left,mountain_176.jpg,bridge_76.jpg,playground_7.jpg,golf_course_253.jpg,highway_294.jpg,badlands_60.jpg,4.0,right,2.3414,1.0,highway,highway_368.jpg,5.0,5.3705,A2DGBPX9UOQC54
317,A2DGBPX9UOQC54,40,FEMALE,golf_course_331.jpg,golf_course_331.jpg,golf_course_114.jpg,left,playground_120.jpg,badlands_150.jpg,golf_course_331.jpg,bridge_110.jpg,highway_404.jpg,mountain_62.jpg,2.0,left,1.7983,0.0,golf,golf_course_114.jpg,1.97037037,4.9419,A2DGBPX9UOQC54
318,A2DGBPX9UOQC54,40,FEMALE,playground_131.jpg,playground_164.jpg,playground_131.jpg,right,badlands_214.jpg,mountain_137.jpg,golf_course_199.jpg,playground_131.jpg,highway_31.jpg,bridge_152.jpg,3.0,right,3.0244,1.0,playground,playground_164.jpg,5.962962963,5.7187,A2DGBPX9UOQC54
319,A2DGBPX9UOQC54,40,FEMALE,bridge_191.jpg,bridge_191.jpg,bridge_75.jpg,left,playground_14.jpg,golf_course_162.jpg,bridge_191.jpg,highway_274.jpg,badlands_157.jpg,mountain_92.jpg,2.0,left,2.3156,1.0,bridge,bridge_75.jpg,1.97037037,5.0509,A2DGBPX9UOQC54
320,A2DGBPX9UOQC54,40,FEMALE,bridge_250.jpg,bridge_250.jpg,bridge_205.jpg,left,badlands_216.jpg,mountain_192.jpg,golf_course_164.jpg,bridge_250.jpg,highway_90.jpg,playground_126.jpg,3.0,left,1.7822,1.0,bridge,bridge_205.jpg,2.97037037,9.3042,A2DGBPX9UOQC54
321,A2DGBPX9UOQC54,40,FEMALE,mountain_232.jpg,mountain_3.jpg,mountain_232.jpg,right,playground_26.jpg,bridge_204.jpg,highway_154.jpg,mountain_232.jpg,badlands_129.jpg,golf_course_307.jpg,3.0,right,1.7423,0.0,mountain,mountain_3.jpg,1.955555556,3.3312,A2DGBPX9UOQC54
322,A2DGBPX9UOQC54,40,FEMALE,badlands_221.jpg,badlands_115.jpg,badlands_221.jpg,right,highway_247.jpg,bridge_193.jpg,playground_176.jpg,mountain_277.jpg,badlands_221.jpg,golf_course_194.jpg,4.0,left,40.2741,0.0,badlands,badlands_115.jpg,2.962962963,3.1452,A2DGBPX9UOQC54
323,A2DGBPX9UOQC54,40,FEMALE,playground_219.jpg,playground_219.jpg,playground_21.jpg,left,bridge_52.jpg,mountain_202.jpg,badlands_27.jpg,playground_219.jpg,golf_course_196.jpg,highway_308.jpg,3.0,right,2.4996,0.0,playground,playground_21.jpg,1.940740741,3.4243,A2DGBPX9UOQC54
324,A2DGBPX9UOQC54,40,FEMALE,highway_415.jpg,highway_60.jpg,highway_415.jpg,right,mountain_294.jpg,badlands_106.jpg,highway_415.jpg,playground_68.jpg,golf_course_179.jpg,bridge_238.jpg,2.0,right,1.6682,0.0,highway,highway_60.jpg,4.02962963,3.5705,A2DGBPX9UOQC54
325,A2DGBPX9UOQC54,40,FEMALE,bridge_172.jpg,bridge_163.jpg,bridge_172.jpg,right,highway_101.jpg,badlands_26.jpg,golf_course_59.jpg,bridge_172.jpg,playground_256.jpg,mountain_22.jpg,3.0,right,1.1432,1.0,bridge,bridge_163.jpg,1.992592593,3.4412,A2DGBPX9UOQC54
326,A2DGBPX9UOQC54,40,FEMALE,golf_course_214.jpg,golf_course_214.jpg,golf_course_317.jpg,left,bridge_102.jpg,highway_141.jpg,mountain_143.jpg,badlands_173.jpg,golf_course_214.jpg,playground_83.jpg,4.0,left,1.8904,1.0,golf,golf_course_317.jpg,6.985185185,5.3577,A2DGBPX9UOQC54
327,A2DGBPX9UOQC54,40,FEMALE,badlands_137.jpg,badlands_137.jpg,badlands_139.jpg,left,golf_course_252.jpg,highway_36.jpg,mountain_309.jpg,badlands_137.jpg,bridge_143.jpg,playground_251.jpg,3.0,right,1.6439,1.0,badlands,badlands_139.jpg,3.955555556,3.1204,A2DGBPX9UOQC54
328,A2DGBPX9UOQC54,40,FEMALE,bridge_65.jpg,bridge_65.jpg,bridge_60.jpg,left,highway_58.jpg,bridge_65.jpg,golf_course_305.jpg,playground_118.jpg,badlands_72.jpg,mountain_89.jpg,1.0,left,2.0325,1.0,bridge,bridge_60.jpg,2.955555556,3.5021,A2DGBPX9UOQC54
329,A2DGBPX9UOQC54,40,FEMALE,mountain_293.jpg,mountain_293.jpg,mountain_47.jpg,left,mountain_293.jpg,bridge_79.jpg,playground_184.jpg,highway_295.jpg,badlands_166.jpg,golf_course_137.jpg,0.0,left,2.8495,1.0,mountain,mountain_47.jpg,4.97037037,3.8095,A2DGBPX9UOQC54
330,A2DGBPX9UOQC54,40,FEMALE,badlands_21.jpg,badlands_98.jpg,badlands_21.jpg,right,playground_191.jpg,bridge_167.jpg,golf_course_282.jpg,highway_172.jpg,badlands_21.jpg,mountain_233.jpg,4.0,right,1.9276,1.0,badlands,badlands_98.jpg,3.97037037,3.2532,A2DGBPX9UOQC54
331,A2DGBPX9UOQC54,40,FEMALE,golf_course_217.jpg,golf_course_217.jpg,golf_course_262.jpg,left,highway_83.jpg,mountain_166.jpg,golf_course_217.jpg,playground_204.jpg,bridge_39.jpg,badlands_35.jpg,2.0,left,2.8732,1.0,golf,golf_course_262.jpg,1.118518519,28.873,A2DGBPX9UOQC54
332,A2DGBPX9UOQC54,40,FEMALE,bridge_256.jpg,bridge_256.jpg,bridge_54.jpg,left,playground_249.jpg,bridge_256.jpg,golf_course_181.jpg,mountain_251.jpg,highway_17.jpg,badlands_85.jpg,1.0,left,2.1227,0.0,bridge,bridge_54.jpg,1.540740741,6.8761,A2DGBPX9UOQC54
333,A2DGBPX9UOQC54,40,FEMALE,playground_117.jpg,playground_117.jpg,playground_127.jpg,left,playground_117.jpg,bridge_180.jpg,badlands_185.jpg,golf_course_338.jpg,highway_138.jpg,mountain_180.jpg,0.0,left,1.7454,1.0,playground,playground_127.jpg,2.407407407,2.5574,A2DGBPX9UOQC54
334,A2DGBPX9UOQC54,40,FEMALE,mountain_123.jpg,mountain_94.jpg,mountain_123.jpg,right,bridge_120.jpg,playground_55.jpg,mountain_123.jpg,golf_course_328.jpg,badlands_171.jpg,highway_3.jpg,2.0,right,1.5144,0.0,mountain,mountain_94.jpg,1.007407407,3.1168,A2DGBPX9UOQC54
335,A2DGBPX9UOQC54,40,FEMALE,highway_209.jpg,highway_209.jpg,highway_314.jpg,left,golf_course_300.jpg,bridge_224.jpg,badlands_88.jpg,highway_209.jpg,mountain_32.jpg,playground_50.jpg,3.0,left,1.5289,0.0,highway,highway_314.jpg,1.985185185,3.6966,A2DGBPX9UOQC54
336,A2DGBPX9UOQC54,40,FEMALE,mountain_101.jpg,mountain_221.jpg,mountain_101.jpg,right,badlands_79.jpg,golf_course_241.jpg,highway_102.jpg,bridge_190.jpg,mountain_101.jpg,playground_181.jpg,4.0,right,1.454,1.0,mountain,mountain_221.jpg,1.488888889,2.7111,A2DGBPX9UOQC54
337,A2DGBPX9UOQC54,40,FEMALE,highway_273.jpg,highway_171.jpg,highway_273.jpg,right,highway_273.jpg,badlands_80.jpg,bridge_64.jpg,mountain_204.jpg,golf_course_218.jpg,playground_110.jpg,0.0,right,1.6235,1.0,highway,highway_171.jpg,4.97037037,3.6346,A2DGBPX9UOQC54
338,A2DGBPX9UOQC54,40,FEMALE,mountain_230.jpg,mountain_184.jpg,mountain_230.jpg,right,mountain_230.jpg,golf_course_297.jpg,highway_199.jpg,playground_173.jpg,badlands_121.jpg,bridge_228.jpg,0.0,right,1.4482,0.0,mountain,mountain_184.jpg,2.007407407,3.8341,A2DGBPX9UOQC54
339,A2DGBPX9UOQC54,40,FEMALE,mountain_156.jpg,mountain_128.jpg,mountain_156.jpg,right,highway_29.jpg,mountain_156.jpg,playground_246.jpg,golf_course_221.jpg,badlands_217.jpg,bridge_225.jpg,1.0,right,1.3273,0.0,mountain,mountain_128.jpg,1.962962963,5.3941,A2DGBPX9UOQC54
340,A2DGBPX9UOQC54,40,FEMALE,badlands_23.jpg,badlands_114.jpg,badlands_23.jpg,right,playground_222.jpg,bridge_66.jpg,highway_313.jpg,golf_course_313.jpg,badlands_23.jpg,mountain_290.jpg,4.0,left,1.7835,0.0,badlands,badlands_114.jpg,1.096296296,6.2366,A2DGBPX9UOQC54
341,A2DGBPX9UOQC54,40,FEMALE,playground_145.jpg,playground_229.jpg,playground_145.jpg,right,badlands_211.jpg,playground_145.jpg,highway_18.jpg,golf_course_171.jpg,mountain_198.jpg,bridge_24.jpg,1.0,left,2.2627,0.0,playground,playground_229.jpg,1.659259259,3.6685,A2DGBPX9UOQC54
342,A2DGBPX9UOQC54,40,FEMALE,highway_359.jpg,highway_379.jpg,highway_359.jpg,right,mountain_151.jpg,highway_359.jpg,golf_course_56.jpg,playground_140.jpg,badlands_104.jpg,bridge_158.jpg,1.0,left,2.3949,1.0,highway,highway_379.jpg,3.97037037,3.7458,A2DGBPX9UOQC54
343,A2DGBPX9UOQC54,40,FEMALE,playground_10.jpg,playground_12.jpg,playground_10.jpg,right,playground_10.jpg,mountain_38.jpg,golf_course_71.jpg,highway_15.jpg,badlands_59.jpg,bridge_112.jpg,0.0,right,1.7273,1.0,playground,playground_12.jpg,2.97037037,3.9624,A2DGBPX9UOQC54
344,A2DGBPX9UOQC54,40,FEMALE,highway_156.jpg,highway_293.jpg,highway_156.jpg,right,bridge_147.jpg,golf_course_291.jpg,mountain_306.jpg,playground_241.jpg,highway_156.jpg,badlands_174.jpg,4.0,right,1.8244,1.0,highway,highway_293.jpg,5.037037037,4.105,A2DGBPX9UOQC54
345,A2DGBPX9UOQC54,40,FEMALE,mountain_57.jpg,mountain_57.jpg,mountain_138.jpg,left,playground_227.jpg,mountain_57.jpg,highway_287.jpg,badlands_16.jpg,golf_course_61.jpg,bridge_266.jpg,1.0,left,1.3342,1.0,mountain,mountain_138.jpg,2.007407407,2.8381,A2DGBPX9UOQC54
346,A2DGBPX9UOQC54,40,FEMALE,golf_course_188.jpg,golf_course_188.jpg,golf_course_160.jpg,left,mountain_253.jpg,bridge_62.jpg,golf_course_188.jpg,badlands_120.jpg,playground_47.jpg,highway_399.jpg,2.0,right,1.8759,1.0,golf,golf_course_160.jpg,4.007407407,5.7742,A2DGBPX9UOQC54
347,A2DGBPX9UOQC54,40,FEMALE,playground_257.jpg,playground_214.jpg,playground_257.jpg,right,mountain_91.jpg,playground_257.jpg,golf_course_72.jpg,highway_288.jpg,bridge_35.jpg,badlands_170.jpg,1.0,right,1.4414,0.0,playground,playground_214.jpg,1.925925926,4.7402,A2DGBPX9UOQC54
348,A2DGBPX9UOQC54,40,FEMALE,badlands_222.jpg,badlands_222.jpg,badlands_34.jpg,left,golf_course_128.jpg,bridge_86.jpg,playground_195.jpg,badlands_222.jpg,highway_193.jpg,mountain_228.jpg,3.0,left,1.5461,0.0,badlands,badlands_34.jpg,4.0,3.0039,A2DGBPX9UOQC54
349,A2DGBPX9UOQC54,40,FEMALE,badlands_113.jpg,badlands_225.jpg,badlands_113.jpg,right,playground_61.jpg,highway_76.jpg,mountain_35.jpg,badlands_113.jpg,golf_course_166.jpg,bridge_144.jpg,3.0,left,1.9205,0.0,badlands,badlands_225.jpg,2.051851852,2.9228,A2DGBPX9UOQC54
350,A2DGBPX9UOQC54,40,FEMALE,bridge_91.jpg,bridge_91.jpg,bridge_82.jpg,left,mountain_146.jpg,highway_33.jpg,bridge_91.jpg,badlands_105.jpg,playground_78.jpg,golf_course_226.jpg,2.0,left,1.4906,1.0,bridge,bridge_82.jpg,3.014814815,3.9947,A2DGBPX9UOQC54
351,A2DGBPX9UOQC54,40,FEMALE,mountain_154.jpg,mountain_154.jpg,mountain_95.jpg,left,playground_74.jpg,badlands_20.jpg,mountain_154.jpg,golf_course_105.jpg,bridge_87.jpg,highway_9.jpg,2.0,right,1.5772,1.0,mountain,mountain_95.jpg,1.962962963,3.5454,A2DGBPX9UOQC54
352,A2DGBPX9UOQC54,40,FEMALE,mountain_222.jpg,mountain_244.jpg,mountain_222.jpg,right,playground_33.jpg,mountain_222.jpg,golf_course_174.jpg,highway_354.jpg,badlands_30.jpg,bridge_218.jpg,1.0,left,1.781,0.0,mountain,mountain_244.jpg,1.118518519,6.2328,A2DGBPX9UOQC54
353,A2DGBPX9UOQC54,40,FEMALE,highway_394.jpg,highway_394.jpg,highway_406.jpg,left,highway_394.jpg,playground_103.jpg,golf_course_23.jpg,mountain_45.jpg,badlands_200.jpg,bridge_136.jpg,0.0,left,1.4396,1.0,highway,highway_406.jpg,1.97037037,5.0897,A2DGBPX9UOQC54
354,A2DGBPX9UOQC54,40,FEMALE,badlands_24.jpg,badlands_24.jpg,badlands_53.jpg,left,playground_124.jpg,badlands_24.jpg,golf_course_308.jpg,highway_383.jpg,bridge_106.jpg,mountain_160.jpg,1.0,right,1.2165,1.0,badlands,badlands_53.jpg,7.022222222,6.0646,A2DGBPX9UOQC54
355,A2DGBPX9UOQC54,40,FEMALE,highway_93.jpg,highway_85.jpg,highway_93.jpg,right,mountain_51.jpg,highway_93.jpg,bridge_74.jpg,golf_course_120.jpg,badlands_138.jpg,playground_84.jpg,1.0,right,1.6331,0.0,highway,highway_85.jpg,1.962962963,3.2037,A2DGBPX9UOQC54
356,A2DGBPX9UOQC54,40,FEMALE,golf_course_195.jpg,golf_course_195.jpg,golf_course_2.jpg,left,bridge_45.jpg,highway_315.jpg,badlands_125.jpg,golf_course_195.jpg,playground_54.jpg,mountain_40.jpg,3.0,left,1.5737,1.0,golf,golf_course_2.jpg,6.992592593,4.1126,A2DGBPX9UOQC54
357,A2DGBPX9UOQC54,40,FEMALE,playground_240.jpg,playground_240.jpg,playground_40.jpg,left,bridge_22.jpg,mountain_206.jpg,playground_240.jpg,highway_50.jpg,golf_course_127.jpg,badlands_164.jpg,2.0,left,2.1945,1.0,playground,playground_40.jpg,4.02962963,2.7765,A2DGBPX9UOQC54
358,A2DGBPX9UOQC54,40,FEMALE,playground_60.jpg,playground_244.jpg,playground_60.jpg,right,golf_course_116.jpg,badlands_122.jpg,playground_60.jpg,mountain_88.jpg,highway_268.jpg,bridge_169.jpg,2.0,right,1.4259,1.0,playground,playground_244.jpg,3.051851852,3.0015,A2DGBPX9UOQC54
359,A2DGBPX9UOQC54,40,FEMALE,bridge_202.jpg,bridge_202.jpg,bridge_38.jpg,left,bridge_202.jpg,playground_49.jpg,badlands_44.jpg,mountain_307.jpg,golf_course_3.jpg,highway_78.jpg,0.0,left,1.6399,1.0,bridge,bridge_38.jpg,2.0,5.8771,A2DGBPX9UOQC54
360,A15SB9KAGZMJ4G,25,male,playground_145.jpg,playground_229.jpg,playground_145.jpg,right,highway_102.jpg,golf_course_102.jpg,mountain_146.jpg,bridge_133.jpg,playground_145.jpg,badlands_6.jpg,4.0,left,3.3089,0.0,playground,playground_229.jpg,7.980815831,3.1126,A15SB9KAGZMJ4G
361,A15SB9KAGZMJ4G,25,male,highway_394.jpg,highway_406.jpg,highway_394.jpg,right,highway_394.jpg,badlands_180.jpg,playground_227.jpg,mountain_22.jpg,golf_course_282.jpg,bridge_156.jpg,0.0,left,2.3392,1.0,highway,highway_406.jpg,7.136112851,1.4859,A15SB9KAGZMJ4G
362,A15SB9KAGZMJ4G,25,male,bridge_256.jpg,bridge_256.jpg,bridge_211.jpg,left,playground_33.jpg,mountain_192.jpg,badlands_166.jpg,golf_course_181.jpg,bridge_256.jpg,highway_148.jpg,4.0,right,2.6833,1.0,bridge,bridge_211.jpg,6.905739311,0.6745,A15SB9KAGZMJ4G
363,A15SB9KAGZMJ4G,25,male,golf_course_15.jpg,golf_course_15.jpg,golf_course_113.jpg,left,badlands_183.jpg,golf_course_15.jpg,mountain_143.jpg,bridge_96.jpg,playground_63.jpg,highway_172.jpg,1.0,right,1.6563,0.0,golf,golf_course_113.jpg,3.923681822,1.2907,A15SB9KAGZMJ4G
364,A15SB9KAGZMJ4G,25,male,bridge_91.jpg,bridge_253.jpg,bridge_91.jpg,right,badlands_125.jpg,highway_199.jpg,mountain_160.jpg,playground_103.jpg,bridge_91.jpg,golf_course_144.jpg,4.0,right,1.4785,0.0,bridge,bridge_253.jpg,5.536296602,1.0248,A15SB9KAGZMJ4G
365,A15SB9KAGZMJ4G,25,male,mountain_156.jpg,mountain_128.jpg,mountain_156.jpg,right,bridge_117.jpg,playground_153.jpg,mountain_156.jpg,badlands_97.jpg,highway_53.jpg,golf_course_316.jpg,2.0,right,1.1211,0.0,mountain,mountain_128.jpg,6.419395171,0.4047,A15SB9KAGZMJ4G
366,A15SB9KAGZMJ4G,25,male,playground_60.jpg,playground_268.jpg,playground_60.jpg,right,playground_60.jpg,badlands_55.jpg,golf_course_176.jpg,mountain_89.jpg,highway_251.jpg,bridge_76.jpg,0.0,left,1.8316,0.0,playground,playground_268.jpg,7.443277571,0.27,A15SB9KAGZMJ4G
367,A15SB9KAGZMJ4G,25,male,golf_course_217.jpg,golf_course_262.jpg,golf_course_217.jpg,right,playground_98.jpg,badlands_44.jpg,mountain_120.jpg,bridge_142.jpg,golf_course_217.jpg,highway_18.jpg,4.0,right,1.9962,1.0,golf,golf_course_262.jpg,6.086633392,0.1262,A15SB9KAGZMJ4G
368,A15SB9KAGZMJ4G,25,male,golf_course_309.jpg,golf_course_16.jpg,golf_course_309.jpg,right,mountain_88.jpg,badlands_217.jpg,golf_course_309.jpg,bridge_197.jpg,highway_354.jpg,playground_54.jpg,2.0,left,1.9832,0.0,golf,golf_course_16.jpg,6.777754011,0.2062,A15SB9KAGZMJ4G
369,A15SB9KAGZMJ4G,25,male,bridge_128.jpg,bridge_128.jpg,bridge_244.jpg,left,badlands_46.jpg,golf_course_164.jpg,highway_58.jpg,bridge_128.jpg,playground_256.jpg,mountain_206.jpg,3.0,right,1.2373,1.0,bridge,bridge_244.jpg,5.139542172,0.2038,A15SB9KAGZMJ4G
370,A15SB9KAGZMJ4G,25,male,badlands_70.jpg,badlands_70.jpg,badlands_119.jpg,left,playground_132.jpg,bridge_118.jpg,badlands_70.jpg,mountain_268.jpg,highway_399.jpg,golf_course_219.jpg,2.0,right,1.9405,1.0,badlands,badlands_119.jpg,7.443277571,0.2057,A15SB9KAGZMJ4G
371,A15SB9KAGZMJ4G,25,male,highway_294.jpg,highway_203.jpg,highway_294.jpg,right,highway_294.jpg,golf_course_291.jpg,badlands_171.jpg,mountain_233.jpg,bridge_4.jpg,playground_248.jpg,0.0,right,0.0062,0.0,highway,highway_203.jpg,4.857974512,0.1233,A15SB9KAGZMJ4G
372,A15SB9KAGZMJ4G,25,male,mountain_110.jpg,mountain_110.jpg,mountain_157.jpg,left,golf_course_288.jpg,bridge_167.jpg,badlands_173.jpg,mountain_110.jpg,highway_246.jpg,playground_173.jpg,3.0,left,0.0059,0.0,mountain,mountain_157.jpg,4.870773042,0.2019,A15SB9KAGZMJ4G
373,A15SB9KAGZMJ4G,25,male,highway_93.jpg,highway_93.jpg,highway_85.jpg,left,golf_course_196.jpg,bridge_106.jpg,badlands_219.jpg,mountain_249.jpg,highway_93.jpg,playground_124.jpg,4.0,right,0.0052,0.0,highway,highway_85.jpg,4.870773042,0.1387,A15SB9KAGZMJ4G
374,A15SB9KAGZMJ4G,25,male,playground_219.jpg,playground_205.jpg,playground_219.jpg,right,highway_50.jpg,bridge_79.jpg,playground_219.jpg,golf_course_253.jpg,mountain_41.jpg,badlands_138.jpg,2.0,right,0.0044,1.0,playground,playground_205.jpg,5.830662792,0.207,A15SB9KAGZMJ4G
375,A15SB9KAGZMJ4G,25,male,bridge_202.jpg,bridge_202.jpg,bridge_31.jpg,left,bridge_202.jpg,golf_course_61.jpg,playground_50.jpg,mountain_198.jpg,badlands_129.jpg,highway_191.jpg,0.0,left,0.0058,0.0,bridge,bridge_31.jpg,8.057607011,0.2329,A15SB9KAGZMJ4G
