,workID,Age,Gender,target,image1,image2,correct,background_0,background_1,background_2,background_3,background_4,background_5,target_index,test_key_resp.keys,test_key_resp.rt,distractor_level,category,selected_dist,slider_part2.response,slider_part2.rt,subject
0,A2CB9D65R9CY9A,25,Female,golf_course_309.jpg,golf_course_209.jpg,golf_course_309.jpg,right,golf_course_309.jpg,bridge_162.jpg,mountain_84.jpg,playground_241.jpg,playground_241.jpg,playground_241.jpg,0.0,right,1.3609,1.0,golf,golf_course_209.jpg,3.958333333,3.693099999,A2CB9D65R9CY9A
1,A2CB9D65R9CY9A,25,Female,golf_course_193.jpg,golf_course_193.jpg,golf_course_123.jpg,left,bridge_25.jpg,golf_course_193.jpg,badlands_176.jpg,highway_147.jpg,highway_147.jpg,highway_147.jpg,1.0,left,1.8731,1.0,golf,golf_course_123.jpg,4.0,1.8343,A2CB9D65R9CY9A
2,A2CB9D65R9CY9A,25,Female,golf_course_195.jpg,golf_course_195.jpg,golf_course_25.jpg,left,bridge_2.jpg,playground_30.jpg,golf_course_195.jpg,highway_23.jpg,highway_23.jpg,highway_23.jpg,2.0,left,1.1975,0.0,golf,golf_course_25.jpg,3.052083333,2.3496,A2CB9D65R9CY9A
3,A2CB9D65R9CY9A,25,Female,playground_144.jpg,playground_137.jpg,playground_144.jpg,right,playground_144.jpg,golf_course_43.jpg,highway_175.jpg,badlands_27.jpg,badlands_27.jpg,badlands_27.jpg,0.0,right,0.9483,0.0,playground,playground_137.jpg,3.041666667,0.7181,A2CB9D65R9CY9A
4,A2CB9D65R9CY9A,25,Female,playground_257.jpg,playground_214.jpg,playground_257.jpg,right,playground_257.jpg,golf_course_264.jpg,bridge_259.jpg,mountain_199.jpg,mountain_199.jpg,mountain_199.jpg,0.0,right,1.029299999,0.0,playground,playground_214.jpg,6.041666667,2.6108,A2CB9D65R9CY9A
5,A2CB9D65R9CY9A,25,Female,mountain_230.jpg,mountain_230.jpg,mountain_184.jpg,left,bridge_64.jpg,highway_117.jpg,mountain_230.jpg,badlands_193.jpg,badlands_193.jpg,badlands_193.jpg,2.0,left,1.647,0.0,mountain,mountain_184.jpg,3.989583333,2.3329,A2CB9D65R9CY9A
6,A2CB9D65R9CY9A,25,Female,golf_course_217.jpg,golf_course_217.jpg,golf_course_262.jpg,left,golf_course_217.jpg,badlands_31.jpg,bridge_34.jpg,mountain_280.jpg,mountain_280.jpg,mountain_280.jpg,0.0,left,1.5923,1.0,golf,golf_course_262.jpg,3.989583333,1.2849,A2CB9D65R9CY9A
7,A2CB9D65R9CY9A,25,Female,highway_93.jpg,highway_93.jpg,highway_369.jpg,left,mountain_12.jpg,golf_course_325.jpg,highway_93.jpg,badlands_54.jpg,badlands_54.jpg,badlands_54.jpg,2.0,left,1.5045,1.0,highway,highway_369.jpg,7.958333333,2.677200001,A2CB9D65R9CY9A
8,A2CB9D65R9CY9A,25,Female,mountain_123.jpg,mountain_123.jpg,mountain_189.jpg,left,playground_42.jpg,mountain_123.jpg,badlands_89.jpg,golf_course_198.jpg,golf_course_198.jpg,golf_course_198.jpg,1.0,left,1.7048,1.0,mountain,mountain_189.jpg,7.979166667,1.316,A2CB9D65R9CY9A
9,A2CB9D65R9CY9A,25,Female,badlands_221.jpg,badlands_115.jpg,badlands_221.jpg,right,badlands_221.jpg,mountain_160.jpg,golf_course_46.jpg,playground_158.jpg,playground_158.jpg,playground_158.jpg,0.0,right,0.7742,0.0,badlands,badlands_115.jpg,8.010416667,1.4915,A2CB9D65R9CY9A
10,A2CB9D65R9CY9A,25,Female,golf_course_78.jpg,golf_course_101.jpg,golf_course_78.jpg,right,bridge_19.jpg,playground_103.jpg,golf_course_78.jpg,mountain_26.jpg,mountain_26.jpg,mountain_26.jpg,2.0,left,0.7624,1.0,golf,golf_course_101.jpg,6.958333333,2.588599999,A2CB9D65R9CY9A
11,A2CB9D65R9CY9A,25,Female,bridge_250.jpg,bridge_134.jpg,bridge_250.jpg,right,highway_159.jpg,bridge_250.jpg,golf_course_52.jpg,playground_108.jpg,playground_108.jpg,playground_108.jpg,1.0,right,0.0927,0.0,bridge,bridge_134.jpg,8.947916667,2.653099999,A2CB9D65R9CY9A
12,A2CB9D65R9CY9A,25,Female,badlands_52.jpg,badlands_52.jpg,badlands_94.jpg,left,badlands_52.jpg,mountain_233.jpg,bridge_179.jpg,golf_course_260.jpg,golf_course_260.jpg,golf_course_260.jpg,0.0,left,0.348299999,0.0,badlands,badlands_94.jpg,8.916666667,1.5683,A2CB9D65R9CY9A
13,A2CB9D65R9CY9A,25,Female,golf_course_188.jpg,golf_course_157.jpg,golf_course_188.jpg,right,golf_course_188.jpg,bridge_106.jpg,playground_3.jpg,mountain_307.jpg,mountain_307.jpg,mountain_307.jpg,0.0,right,0.0943,0.0,golf,golf_course_157.jpg,6.0625,2.323900001,A2CB9D65R9CY9A
14,A2CB9D65R9CY9A,25,Female,badlands_24.jpg,badlands_24.jpg,badlands_3.jpg,left,badlands_24.jpg,highway_75.jpg,bridge_263.jpg,playground_46.jpg,playground_46.jpg,playground_46.jpg,0.0,left,0.3478,0.0,badlands,badlands_3.jpg,5.989583333,0.612200001,A2CB9D65R9CY9A
15,A2CB9D65R9CY9A,25,Female,highway_415.jpg,highway_174.jpg,highway_415.jpg,right,bridge_49.jpg,golf_course_21.jpg,highway_415.jpg,mountain_204.jpg,mountain_204.jpg,mountain_204.jpg,2.0,right,0.8705,1.0,highway,highway_174.jpg,7.96875,2.150400001,A2CB9D65R9CY9A
16,A2CB9D65R9CY9A,25,Female,mountain_57.jpg,mountain_57.jpg,mountain_138.jpg,left,bridge_21.jpg,badlands_166.jpg,mountain_57.jpg,golf_course_337.jpg,golf_course_337.jpg,golf_course_337.jpg,2.0,left,0.2481,1.0,mountain,mountain_138.jpg,7.96875,1.3799,A2CB9D65R9CY9A
17,A2CB9D65R9CY9A,25,Female,bridge_172.jpg,bridge_163.jpg,bridge_172.jpg,right,mountain_91.jpg,bridge_172.jpg,badlands_153.jpg,highway_263.jpg,highway_263.jpg,highway_263.jpg,1.0,right,0.5201,1.0,bridge,bridge_163.jpg,4.927083333,2.579799999,A2CB9D65R9CY9A
18,A2CB9D65R9CY9A,25,Female,playground_240.jpg,playground_40.jpg,playground_240.jpg,right,highway_196.jpg,bridge_47.jpg,playground_240.jpg,mountain_166.jpg,mountain_166.jpg,mountain_166.jpg,2.0,left,0.7769,1.0,playground,playground_40.jpg,5.010416667,1.393,A2CB9D65R9CY9A
19,A2CB9D65R9CY9A,25,Female,mountain_222.jpg,mountain_93.jpg,mountain_222.jpg,right,mountain_222.jpg,playground_124.jpg,highway_325.jpg,bridge_177.jpg,bridge_177.jpg,bridge_177.jpg,0.0,right,0.522,1.0,mountain,mountain_93.jpg,6.010416667,2.3366,A2CB9D65R9CY9A
20,A2CB9D65R9CY9A,25,Female,highway_245.jpg,highway_245.jpg,highway_134.jpg,left,bridge_78.jpg,mountain_15.jpg,highway_245.jpg,playground_66.jpg,playground_66.jpg,playground_66.jpg,2.0,right,2.042900001,0.0,highway,highway_134.jpg,6.03125,1.3088,A2CB9D65R9CY9A
21,A2CB9D65R9CY9A,25,Female,highway_359.jpg,highway_389.jpg,highway_359.jpg,right,highway_359.jpg,bridge_132.jpg,mountain_202.jpg,golf_course_88.jpg,golf_course_88.jpg,golf_course_88.jpg,0.0,left,1.0348,0.0,highway,highway_389.jpg,6.083333333,1.8653,A2CB9D65R9CY9A
22,A2CB9D65R9CY9A,25,Female,badlands_23.jpg,badlands_114.jpg,badlands_23.jpg,right,golf_course_229.jpg,bridge_26.jpg,badlands_23.jpg,highway_112.jpg,highway_112.jpg,highway_112.jpg,2.0,right,0.5417,0.0,badlands,badlands_114.jpg,6.010416667,0.698,A2CB9D65R9CY9A
23,A2CB9D65R9CY9A,25,Female,playground_60.jpg,playground_268.jpg,playground_60.jpg,right,playground_60.jpg,highway_25.jpg,golf_course_316.jpg,mountain_179.jpg,mountain_179.jpg,mountain_179.jpg,0.0,left,1.7265,0.0,playground,playground_268.jpg,3.854166667,0.964299999,A2CB9D65R9CY9A
24,A2CB9D65R9CY9A,25,Female,bridge_191.jpg,bridge_191.jpg,bridge_75.jpg,left,bridge_191.jpg,badlands_226.jpg,highway_99.jpg,mountain_107.jpg,mountain_107.jpg,mountain_107.jpg,0.0,left,0.2645,1.0,bridge,bridge_75.jpg,4.0,0.447099999,A2CB9D65R9CY9A
25,A2CB9D65R9CY9A,25,Female,badlands_137.jpg,badlands_137.jpg,badlands_139.jpg,left,golf_course_152.jpg,badlands_137.jpg,mountain_4.jpg,highway_114.jpg,highway_114.jpg,highway_114.jpg,1.0,right,0.6,1.0,badlands,badlands_139.jpg,4.0,0.343,A2CB9D65R9CY9A
26,A2CB9D65R9CY9A,25,Female,badlands_21.jpg,badlands_1.jpg,badlands_21.jpg,right,mountain_253.jpg,playground_259.jpg,badlands_21.jpg,highway_244.jpg,highway_244.jpg,highway_244.jpg,2.0,right,0.5141,0.0,badlands,badlands_1.jpg,4.96875,1.1378,A2CB9D65R9CY9A
27,A2CB9D65R9CY9A,25,Female,playground_145.jpg,playground_242.jpg,playground_145.jpg,right,highway_149.jpg,badlands_149.jpg,playground_145.jpg,bridge_230.jpg,bridge_230.jpg,bridge_230.jpg,2.0,left,0.2665,1.0,playground,playground_242.jpg,4.96875,0.278,A2CB9D65R9CY9A
28,A2CB9D65R9CY9A,25,Female,bridge_146.jpg,bridge_146.jpg,bridge_121.jpg,left,bridge_146.jpg,mountain_104.jpg,badlands_173.jpg,playground_191.jpg,playground_191.jpg,playground_191.jpg,0.0,left,0.518400001,1.0,bridge,bridge_121.jpg,4.96875,0.4494,A2CB9D65R9CY9A
29,A2CB9D65R9CY9A,25,Female,mountain_154.jpg,mountain_131.jpg,mountain_154.jpg,right,mountain_154.jpg,highway_166.jpg,bridge_257.jpg,badlands_75.jpg,badlands_75.jpg,badlands_75.jpg,0.0,left,1.1946,0.0,mountain,mountain_131.jpg,4.979166667,0.6165,A2CB9D65R9CY9A
30,A2CB9D65R9CY9A,25,Female,golf_course_87.jpg,golf_course_161.jpg,golf_course_87.jpg,right,golf_course_87.jpg,badlands_142.jpg,mountain_66.jpg,bridge_169.jpg,bridge_169.jpg,bridge_169.jpg,0.0,left,0.6811,1.0,golf,golf_course_161.jpg,3.0,1.55,A2CB9D65R9CY9A
31,A2CB9D65R9CY9A,25,Female,playground_131.jpg,playground_164.jpg,playground_131.jpg,right,bridge_52.jpg,playground_131.jpg,golf_course_321.jpg,badlands_174.jpg,badlands_174.jpg,badlands_174.jpg,1.0,right,0.0077,1.0,playground,playground_164.jpg,3.0,0.1718,A2CB9D65R9CY9A
32,A2CB9D65R9CY9A,25,Female,bridge_108.jpg,bridge_148.jpg,bridge_108.jpg,right,golf_course_258.jpg,playground_172.jpg,bridge_108.jpg,badlands_143.jpg,badlands_143.jpg,badlands_143.jpg,2.0,right,1.0146,1.0,bridge,bridge_148.jpg,3.0,0.1909,A2CB9D65R9CY9A
33,A2CB9D65R9CY9A,25,Female,bridge_91.jpg,bridge_253.jpg,bridge_91.jpg,right,bridge_91.jpg,golf_course_33.jpg,badlands_30.jpg,mountain_132.jpg,mountain_132.jpg,mountain_132.jpg,0.0,right,1.024099999,0.0,bridge,bridge_253.jpg,4.010416667,1.1294,A2CB9D65R9CY9A
34,A2CB9D65R9CY9A,25,Female,mountain_110.jpg,mountain_110.jpg,mountain_223.jpg,left,badlands_177.jpg,mountain_110.jpg,golf_course_122.jpg,highway_37.jpg,highway_37.jpg,highway_37.jpg,1.0,right,0.259200001,1.0,mountain,mountain_223.jpg,4.010416667,0.187099999,A2CB9D65R9CY9A
35,A2CB9D65R9CY9A,25,Female,highway_394.jpg,highway_394.jpg,highway_204.jpg,left,golf_course_102.jpg,badlands_136.jpg,highway_394.jpg,playground_95.jpg,playground_95.jpg,playground_95.jpg,2.0,left,0.517700001,0.0,highway,highway_204.jpg,4.010416667,0.2815,A2CB9D65R9CY9A
36,A2CB9D65R9CY9A,25,Female,badlands_113.jpg,badlands_113.jpg,badlands_203.jpg,left,golf_course_206.jpg,bridge_103.jpg,badlands_113.jpg,mountain_44.jpg,mountain_44.jpg,mountain_44.jpg,2.0,right,0.8531,1.0,badlands,badlands_203.jpg,4.010416667,0.3762,A2CB9D65R9CY9A
37,A2CB9D65R9CY9A,25,Female,mountain_156.jpg,mountain_156.jpg,mountain_295.jpg,left,golf_course_57.jpg,mountain_156.jpg,bridge_204.jpg,playground_168.jpg,playground_168.jpg,playground_168.jpg,1.0,left,0.6917,1.0,mountain,mountain_295.jpg,4.010416667,0.210400001,A2CB9D65R9CY9A
38,A2CB9D65R9CY9A,25,Female,badlands_70.jpg,badlands_70.jpg,badlands_119.jpg,left,badlands_70.jpg,highway_333.jpg,mountain_68.jpg,golf_course_185.jpg,golf_course_185.jpg,golf_course_185.jpg,0.0,right,0.862,1.0,badlands,badlands_119.jpg,3.020833333,1.0046,A2CB9D65R9CY9A
39,A2CB9D65R9CY9A,25,Female,golf_course_214.jpg,golf_course_312.jpg,golf_course_214.jpg,right,golf_course_214.jpg,badlands_104.jpg,playground_193.jpg,highway_357.jpg,highway_357.jpg,highway_357.jpg,0.0,right,0.093700001,0.0,golf,golf_course_312.jpg,3.020833333,0.195,A2CB9D65R9CY9A
40,A2CB9D65R9CY9A,25,Female,highway_156.jpg,highway_156.jpg,highway_160.jpg,left,mountain_105.jpg,highway_156.jpg,playground_25.jpg,badlands_13.jpg,badlands_13.jpg,badlands_13.jpg,1.0,left,0.2869,0.0,highway,highway_160.jpg,3.020833333,0.191599999,A2CB9D65R9CY9A
41,A2CB9D65R9CY9A,25,Female,golf_course_331.jpg,golf_course_331.jpg,golf_course_114.jpg,left,golf_course_331.jpg,highway_301.jpg,badlands_186.jpg,mountain_235.jpg,mountain_235.jpg,mountain_235.jpg,0.0,right,4.7198,0.0,golf,golf_course_114.jpg,3.020833333,0.2145,A2CB9D65R9CY9A
42,A2CB9D65R9CY9A,25,Female,highway_209.jpg,highway_314.jpg,highway_209.jpg,right,playground_5.jpg,highway_209.jpg,badlands_38.jpg,bridge_48.jpg,bridge_48.jpg,bridge_48.jpg,1.0,left,0.4331,0.0,highway,highway_314.jpg,5.979166667,1.1815,A2CB9D65R9CY9A
43,A2CB9D65R9CY9A,25,Female,mountain_101.jpg,mountain_171.jpg,mountain_101.jpg,right,playground_181.jpg,mountain_101.jpg,golf_course_42.jpg,badlands_216.jpg,badlands_216.jpg,badlands_216.jpg,1.0,left,0.260900001,0.0,mountain,mountain_171.jpg,5.979166667,0.1802,A2CB9D65R9CY9A
44,A2CB9D65R9CY9A,25,Female,playground_76.jpg,playground_76.jpg,playground_22.jpg,left,golf_course_173.jpg,playground_76.jpg,mountain_214.jpg,highway_227.jpg,highway_227.jpg,highway_227.jpg,1.0,right,0.4315,0.0,playground,playground_22.jpg,5.979166667,0.1893,A2CB9D65R9CY9A
45,A2CB9D65R9CY9A,25,Female,bridge_202.jpg,bridge_31.jpg,bridge_202.jpg,right,bridge_202.jpg,mountain_111.jpg,highway_248.jpg,golf_course_166.jpg,golf_course_166.jpg,golf_course_166.jpg,0.0,left,1.0296,0.0,bridge,bridge_31.jpg,5.979166667,0.276599999,A2CB9D65R9CY9A
46,A2CB9D65R9CY9A,25,Female,highway_294.jpg,highway_203.jpg,highway_294.jpg,right,playground_264.jpg,badlands_95.jpg,highway_294.jpg,golf_course_60.jpg,golf_course_60.jpg,golf_course_60.jpg,2.0,left,0.7619,0.0,highway,highway_203.jpg,5.979166667,0.1882,A2CB9D65R9CY9A
47,A2CB9D65R9CY9A,25,Female,playground_117.jpg,playground_117.jpg,playground_167.jpg,left,bridge_218.jpg,golf_course_319.jpg,playground_117.jpg,mountain_21.jpg,mountain_21.jpg,mountain_21.jpg,2.0,left,0.6837,0.0,playground,playground_167.jpg,5.979166667,0.1999,A2CB9D65R9CY9A
48,A2CB9D65R9CY9A,25,Female,badlands_222.jpg,badlands_34.jpg,badlands_222.jpg,right,badlands_222.jpg,golf_course_334.jpg,playground_6.jpg,mountain_296.jpg,mountain_296.jpg,mountain_296.jpg,0.0,right,0.0077,0.0,badlands,badlands_34.jpg,5.979166667,0.2773,A2CB9D65R9CY9A
49,A2CB9D65R9CY9A,25,Female,mountain_293.jpg,mountain_293.jpg,mountain_47.jpg,left,highway_342.jpg,playground_54.jpg,mountain_293.jpg,badlands_108.jpg,badlands_108.jpg,badlands_108.jpg,2.0,right,0.7661,1.0,mountain,mountain_47.jpg,4.979166667,2.665400001,A2CB9D65R9CY9A
50,A2CB9D65R9CY9A,25,Female,highway_273.jpg,highway_273.jpg,highway_171.jpg,left,golf_course_302.jpg,highway_273.jpg,playground_209.jpg,mountain_34.jpg,mountain_34.jpg,mountain_34.jpg,1.0,left,0.1757,1.0,highway,highway_171.jpg,4.979166667,0.1901,A2CB9D65R9CY9A
51,A2CB9D65R9CY9A,25,Female,playground_219.jpg,playground_205.jpg,playground_219.jpg,right,playground_219.jpg,badlands_180.jpg,highway_234.jpg,golf_course_83.jpg,golf_course_83.jpg,golf_course_83.jpg,0.0,right,0.1755,1.0,playground,playground_205.jpg,4.979166667,0.190299999,A2CB9D65R9CY9A
52,A2CB9D65R9CY9A,25,Female,playground_10.jpg,playground_10.jpg,playground_12.jpg,left,playground_10.jpg,badlands_99.jpg,bridge_239.jpg,golf_course_329.jpg,golf_course_329.jpg,golf_course_329.jpg,0.0,left,1.027,1.0,playground,playground_12.jpg,4.979166667,0.2739,A2CB9D65R9CY9A
53,A2CB9D65R9CY9A,25,Female,highway_177.jpg,highway_177.jpg,highway_278.jpg,left,bridge_130.jpg,playground_70.jpg,highway_177.jpg,golf_course_204.jpg,golf_course_204.jpg,golf_course_204.jpg,2.0,left,1.1062,1.0,highway,highway_278.jpg,4.979166667,0.3555,A2CB9D65R9CY9A
54,A2CB9D65R9CY9A,25,Female,bridge_128.jpg,bridge_128.jpg,bridge_61.jpg,left,bridge_128.jpg,highway_144.jpg,golf_course_159.jpg,playground_52.jpg,playground_52.jpg,playground_52.jpg,0.0,left,0.0078,0.0,bridge,bridge_61.jpg,4.979166667,0.2761,A2CB9D65R9CY9A
55,A2CB9D65R9CY9A,25,Female,mountain_232.jpg,mountain_54.jpg,mountain_232.jpg,right,playground_183.jpg,mountain_232.jpg,badlands_220.jpg,bridge_18.jpg,bridge_18.jpg,bridge_18.jpg,1.0,left,0.430299999,1.0,mountain,mountain_54.jpg,5.9375,1.4807,A2CB9D65R9CY9A
56,A2CB9D65R9CY9A,25,Female,bridge_256.jpg,bridge_54.jpg,bridge_256.jpg,right,highway_249.jpg,golf_course_58.jpg,bridge_256.jpg,playground_123.jpg,playground_123.jpg,playground_123.jpg,2.0,right,0.9437,0.0,bridge,bridge_54.jpg,5.9375,0.1893,A2CB9D65R9CY9A
57,A2CB9D65R9CY9A,25,Female,badlands_184.jpg,badlands_184.jpg,badlands_103.jpg,left,badlands_184.jpg,mountain_162.jpg,highway_261.jpg,bridge_158.jpg,bridge_158.jpg,bridge_158.jpg,0.0,left,0.8918,1.0,badlands,badlands_103.jpg,5.947916667,0.2781,A2CB9D65R9CY9A
58,A2CB9D65R9CY9A,25,Female,bridge_65.jpg,bridge_65.jpg,bridge_181.jpg,left,bridge_65.jpg,playground_200.jpg,badlands_210.jpg,highway_331.jpg,highway_331.jpg,highway_331.jpg,0.0,right,0.9428,0.0,bridge,bridge_181.jpg,5.958333333,0.2769,A2CB9D65R9CY9A
59,A2CB9D65R9CY9A,25,Female,golf_course_15.jpg,golf_course_15.jpg,golf_course_97.jpg,left,bridge_120.jpg,highway_398.jpg,golf_course_15.jpg,playground_90.jpg,playground_90.jpg,playground_90.jpg,2.0,left,0.9373,1.0,golf,golf_course_97.jpg,5.958333333,0.1911,A2CB9D65R9CY9A
60,A3CLHW8U4DXVI3,28,MALE,badlands_24.jpg,badlands_53.jpg,badlands_24.jpg,right,playground_13.jpg,badlands_24.jpg,golf_course_152.jpg,mountain_253.jpg,mountain_253.jpg,mountain_253.jpg,1.0,left,2.8992,1.0,badlands,badlands_53.jpg,1.947916667,21.3179,A3CLHW8U4DXVI3
61,A3CLHW8U4DXVI3,28,MALE,golf_course_217.jpg,golf_course_262.jpg,golf_course_217.jpg,right,golf_course_217.jpg,badlands_99.jpg,bridge_123.jpg,highway_12.jpg,highway_12.jpg,highway_12.jpg,0.0,right,2.1906,1.0,golf,golf_course_262.jpg,2.010416667,0.6093,A3CLHW8U4DXVI3
62,A3CLHW8U4DXVI3,28,MALE,highway_177.jpg,highway_278.jpg,highway_177.jpg,right,mountain_66.jpg,bridge_177.jpg,highway_177.jpg,golf_course_334.jpg,golf_course_334.jpg,golf_course_334.jpg,2.0,right,1.8774,1.0,highway,highway_278.jpg,1.989583333,5.6905,A3CLHW8U4DXVI3
63,A3CLHW8U4DXVI3,28,MALE,highway_273.jpg,highway_384.jpg,highway_273.jpg,right,highway_273.jpg,golf_course_42.jpg,playground_108.jpg,badlands_59.jpg,badlands_59.jpg,badlands_59.jpg,0.0,right,2.0746,0.0,highway,highway_384.jpg,6.0,18.7532,A3CLHW8U4DXVI3
64,A3CLHW8U4DXVI3,28,MALE,playground_60.jpg,playground_268.jpg,playground_60.jpg,right,playground_60.jpg,bridge_47.jpg,mountain_21.jpg,highway_99.jpg,highway_99.jpg,highway_99.jpg,0.0,left,3.13,0.0,playground,playground_268.jpg,5.010416667,76.8768,A3CLHW8U4DXVI3
65,A3CLHW8U4DXVI3,28,MALE,mountain_156.jpg,mountain_156.jpg,mountain_295.jpg,left,playground_41.jpg,golf_course_337.jpg,mountain_156.jpg,badlands_30.jpg,badlands_30.jpg,badlands_30.jpg,2.0,right,1.8564,1.0,mountain,mountain_295.jpg,6.989583333,3.6384,A3CLHW8U4DXVI3
66,A3CLHW8U4DXVI3,28,MALE,mountain_222.jpg,mountain_222.jpg,mountain_244.jpg,left,mountain_222.jpg,badlands_210.jpg,bridge_130.jpg,highway_147.jpg,highway_147.jpg,highway_147.jpg,0.0,left,2.1095,0.0,mountain,mountain_244.jpg,3.96875,4.1909,A3CLHW8U4DXVI3
67,A3CLHW8U4DXVI3,28,MALE,golf_course_331.jpg,golf_course_331.jpg,golf_course_26.jpg,left,golf_course_331.jpg,highway_13.jpg,playground_191.jpg,bridge_80.jpg,bridge_80.jpg,bridge_80.jpg,0.0,left,1.4617,1.0,golf,golf_course_26.jpg,7.0,4.0068,A3CLHW8U4DXVI3
68,A3CLHW8U4DXVI3,28,MALE,highway_359.jpg,highway_359.jpg,highway_389.jpg,left,highway_359.jpg,bridge_251.jpg,mountain_107.jpg,playground_241.jpg,playground_241.jpg,playground_241.jpg,0.0,left,2.613,0.0,highway,highway_389.jpg,3.020833333,5.9195,A3CLHW8U4DXVI3
69,A3CLHW8U4DXVI3,28,MALE,golf_course_15.jpg,golf_course_15.jpg,golf_course_113.jpg,left,golf_course_15.jpg,badlands_166.jpg,playground_200.jpg,highway_342.jpg,highway_342.jpg,highway_342.jpg,0.0,left,1.6277,0.0,golf,golf_course_113.jpg,3.989583333,3.276,A3CLHW8U4DXVI3
70,A3CLHW8U4DXVI3,28,MALE,bridge_191.jpg,bridge_184.jpg,bridge_191.jpg,right,badlands_89.jpg,golf_course_57.jpg,bridge_191.jpg,playground_77.jpg,playground_77.jpg,playground_77.jpg,2.0,right,2.6733,0.0,bridge,bridge_184.jpg,6.0,4.231,A3CLHW8U4DXVI3
71,A3CLHW8U4DXVI3,28,MALE,golf_course_78.jpg,golf_course_101.jpg,golf_course_78.jpg,right,badlands_180.jpg,mountain_199.jpg,golf_course_78.jpg,bridge_218.jpg,bridge_218.jpg,bridge_218.jpg,2.0,right,2.1146,1.0,golf,golf_course_101.jpg,3.0,2.9243,A3CLHW8U4DXVI3
72,A3CLHW8U4DXVI3,28,MALE,badlands_184.jpg,badlands_103.jpg,badlands_184.jpg,right,bridge_257.jpg,badlands_184.jpg,mountain_115.jpg,playground_116.jpg,playground_116.jpg,playground_116.jpg,1.0,left,1.8128,1.0,badlands,badlands_103.jpg,7.0,3.4801,A3CLHW8U4DXVI3
73,A3CLHW8U4DXVI3,28,MALE,mountain_101.jpg,mountain_221.jpg,mountain_101.jpg,right,mountain_101.jpg,playground_54.jpg,badlands_174.jpg,bridge_263.jpg,bridge_263.jpg,bridge_263.jpg,0.0,right,1.8024,1.0,mountain,mountain_221.jpg,5.0,1.7868,A3CLHW8U4DXVI3
74,A3CLHW8U4DXVI3,28,MALE,bridge_128.jpg,bridge_244.jpg,bridge_128.jpg,right,mountain_212.jpg,playground_95.jpg,bridge_128.jpg,golf_course_185.jpg,golf_course_185.jpg,golf_course_185.jpg,2.0,right,1.9688,1.0,bridge,bridge_244.jpg,7.958333333,3.5036,A3CLHW8U4DXVI3
75,A3CLHW8U4DXVI3,28,MALE,playground_145.jpg,playground_145.jpg,playground_229.jpg,left,playground_145.jpg,mountain_307.jpg,golf_course_60.jpg,badlands_13.jpg,badlands_13.jpg,badlands_13.jpg,0.0,left,1.2076,0.0,playground,playground_229.jpg,6.010416667,4.6271,A3CLHW8U4DXVI3
76,A3CLHW8U4DXVI3,28,MALE,badlands_137.jpg,badlands_137.jpg,badlands_194.jpg,left,bridge_19.jpg,badlands_137.jpg,mountain_224.jpg,playground_235.jpg,playground_235.jpg,playground_235.jpg,1.0,left,1.1673,0.0,badlands,badlands_194.jpg,3.979166667,4.0759,A3CLHW8U4DXVI3
77,A3CLHW8U4DXVI3,28,MALE,bridge_250.jpg,bridge_134.jpg,bridge_250.jpg,right,mountain_15.jpg,bridge_250.jpg,highway_75.jpg,golf_course_258.jpg,golf_course_258.jpg,golf_course_258.jpg,1.0,right,7.7619,0.0,bridge,bridge_134.jpg,5.010416667,4.2293,A3CLHW8U4DXVI3
78,A3CLHW8U4DXVI3,28,MALE,mountain_154.jpg,mountain_154.jpg,mountain_95.jpg,left,badlands_153.jpg,mountain_154.jpg,playground_158.jpg,golf_course_321.jpg,golf_course_321.jpg,golf_course_321.jpg,1.0,right,2.4887,1.0,mountain,mountain_95.jpg,6.916666667,3.385,A3CLHW8U4DXVI3
79,A3CLHW8U4DXVI3,28,MALE,bridge_91.jpg,bridge_82.jpg,bridge_91.jpg,right,bridge_91.jpg,golf_course_325.jpg,highway_249.jpg,mountain_104.jpg,mountain_104.jpg,mountain_104.jpg,0.0,right,1.642,1.0,bridge,bridge_82.jpg,4.020833333,3.1284,A3CLHW8U4DXVI3
80,A3CLHW8U4DXVI3,28,MALE,bridge_172.jpg,bridge_163.jpg,bridge_172.jpg,right,bridge_172.jpg,highway_263.jpg,badlands_38.jpg,mountain_24.jpg,mountain_24.jpg,mountain_24.jpg,0.0,left,4.3808,1.0,bridge,bridge_163.jpg,5.010416667,2.7068,A3CLHW8U4DXVI3
81,A3CLHW8U4DXVI3,28,MALE,bridge_108.jpg,bridge_108.jpg,bridge_148.jpg,left,golf_course_21.jpg,bridge_108.jpg,badlands_2.jpg,playground_193.jpg,playground_193.jpg,playground_193.jpg,1.0,left,5.8972,1.0,bridge,bridge_148.jpg,6.979166667,4.1552,A3CLHW8U4DXVI3
82,A3CLHW8U4DXVI3,28,MALE,playground_240.jpg,playground_2.jpg,playground_240.jpg,right,playground_240.jpg,mountain_4.jpg,highway_149.jpg,badlands_226.jpg,badlands_226.jpg,badlands_226.jpg,0.0,left,3.7256,0.0,playground,playground_2.jpg,3.833333333,4.3922,A3CLHW8U4DXVI3
83,A3CLHW8U4DXVI3,28,MALE,playground_10.jpg,playground_10.jpg,playground_12.jpg,left,golf_course_159.jpg,highway_244.jpg,playground_10.jpg,badlands_45.jpg,badlands_45.jpg,badlands_45.jpg,2.0,right,7.4575,1.0,playground,playground_12.jpg,5.979166667,3.3243,A3CLHW8U4DXVI3
84,A3CLHW8U4DXVI3,28,MALE,highway_415.jpg,highway_415.jpg,highway_60.jpg,left,bridge_204.jpg,highway_415.jpg,golf_course_1.jpg,mountain_296.jpg,mountain_296.jpg,mountain_296.jpg,1.0,left,2.2273,0.0,highway,highway_60.jpg,5.010416667,2.3984,A3CLHW8U4DXVI3
85,A3CLHW8U4DXVI3,28,MALE,highway_93.jpg,highway_93.jpg,highway_369.jpg,left,highway_93.jpg,badlands_54.jpg,playground_36.jpg,golf_course_206.jpg,golf_course_206.jpg,golf_course_206.jpg,0.0,right,1.8947,1.0,highway,highway_369.jpg,7.979166667,3.6573,A3CLHW8U4DXVI3
86,A3CLHW8U4DXVI3,28,MALE,bridge_146.jpg,bridge_27.jpg,bridge_146.jpg,right,highway_112.jpg,playground_172.jpg,bridge_146.jpg,golf_course_204.jpg,golf_course_204.jpg,golf_course_204.jpg,2.0,right,1.8714,0.0,bridge,bridge_27.jpg,5.0,2.9511,A3CLHW8U4DXVI3
87,A3CLHW8U4DXVI3,28,MALE,golf_course_195.jpg,golf_course_195.jpg,golf_course_25.jpg,left,badlands_108.jpg,golf_course_195.jpg,bridge_124.jpg,highway_325.jpg,highway_325.jpg,highway_325.jpg,1.0,left,2.7252,0.0,golf,golf_course_25.jpg,6.010416667,3.7523,A3CLHW8U4DXVI3
88,A3CLHW8U4DXVI3,28,MALE,golf_course_87.jpg,golf_course_130.jpg,golf_course_87.jpg,right,badlands_176.jpg,mountain_132.jpg,golf_course_87.jpg,highway_88.jpg,highway_88.jpg,highway_88.jpg,2.0,right,9.2519,0.0,golf,golf_course_130.jpg,4.947916667,6.9018,A3CLHW8U4DXVI3
89,A3CLHW8U4DXVI3,28,MALE,mountain_232.jpg,mountain_232.jpg,mountain_54.jpg,left,playground_178.jpg,mountain_232.jpg,golf_course_58.jpg,bridge_259.jpg,bridge_259.jpg,bridge_259.jpg,1.0,left,18.7789,1.0,mountain,mountain_54.jpg,4.96875,4.2826,A3CLHW8U4DXVI3
90,A3CLHW8U4DXVI3,28,MALE,badlands_221.jpg,badlands_207.jpg,badlands_221.jpg,right,highway_219.jpg,bridge_264.jpg,badlands_221.jpg,playground_103.jpg,playground_103.jpg,playground_103.jpg,2.0,right,3.7643,1.0,badlands,badlands_207.jpg,6.0,4.8531,A3CLHW8U4DXVI3
91,A3CLHW8U4DXVI3,28,MALE,golf_course_188.jpg,golf_course_157.jpg,golf_course_188.jpg,right,badlands_216.jpg,golf_course_188.jpg,bridge_78.jpg,highway_166.jpg,highway_166.jpg,highway_166.jpg,1.0,right,1.583,0.0,golf,golf_course_157.jpg,2.96875,3.8648,A3CLHW8U4DXVI3
92,A3CLHW8U4DXVI3,28,MALE,playground_219.jpg,playground_205.jpg,playground_219.jpg,right,playground_219.jpg,highway_333.jpg,bridge_9.jpg,badlands_186.jpg,badlands_186.jpg,badlands_186.jpg,0.0,right,2.0448,1.0,playground,playground_205.jpg,6.0,1.9777,A3CLHW8U4DXVI3
93,A3CLHW8U4DXVI3,28,MALE,badlands_23.jpg,badlands_23.jpg,badlands_114.jpg,left,bridge_106.jpg,badlands_23.jpg,golf_course_320.jpg,playground_209.jpg,playground_209.jpg,playground_209.jpg,1.0,left,2.8341,0.0,badlands,badlands_114.jpg,5.958333333,4.4362,A3CLHW8U4DXVI3
94,A3CLHW8U4DXVI3,28,MALE,badlands_113.jpg,badlands_203.jpg,badlands_113.jpg,right,badlands_113.jpg,highway_336.jpg,mountain_12.jpg,golf_course_290.jpg,golf_course_290.jpg,golf_course_290.jpg,0.0,right,2.4412,1.0,badlands,badlands_203.jpg,4.958333333,2.1077,A3CLHW8U4DXVI3
95,A3CLHW8U4DXVI3,28,MALE,playground_76.jpg,playground_72.jpg,playground_76.jpg,right,playground_76.jpg,badlands_104.jpg,mountain_44.jpg,golf_course_198.jpg,golf_course_198.jpg,golf_course_198.jpg,0.0,left,1.6033,1.0,playground,playground_72.jpg,6.989583333,6.281,A3CLHW8U4DXVI3
96,A3CLHW8U4DXVI3,28,MALE,mountain_57.jpg,mountain_138.jpg,mountain_57.jpg,right,golf_course_329.jpg,mountain_57.jpg,badlands_218.jpg,highway_37.jpg,highway_37.jpg,highway_37.jpg,1.0,left,1.7283,1.0,mountain,mountain_138.jpg,4.979166667,1.9242,A3CLHW8U4DXVI3
97,A3CLHW8U4DXVI3,28,MALE,bridge_256.jpg,bridge_211.jpg,bridge_256.jpg,right,golf_course_52.jpg,badlands_95.jpg,bridge_256.jpg,playground_249.jpg,playground_249.jpg,playground_249.jpg,2.0,right,1.9473,1.0,bridge,bridge_211.jpg,6.96875,3.4766,A3CLHW8U4DXVI3
98,A3CLHW8U4DXVI3,28,MALE,golf_course_309.jpg,golf_course_309.jpg,golf_course_16.jpg,left,badlands_200.jpg,playground_173.jpg,golf_course_309.jpg,highway_301.jpg,highway_301.jpg,highway_301.jpg,2.0,left,1.8966,0.0,golf,golf_course_16.jpg,6.989583333,1.7991,A3CLHW8U4DXVI3
99,A3CLHW8U4DXVI3,28,MALE,badlands_222.jpg,badlands_222.jpg,badlands_62.jpg,left,mountain_204.jpg,badlands_222.jpg,highway_319.jpg,playground_183.jpg,playground_183.jpg,playground_183.jpg,1.0,right,2.2066,1.0,badlands,badlands_62.jpg,4.989583333,4.0363,A3CLHW8U4DXVI3
100,A3CLHW8U4DXVI3,28,MALE,badlands_70.jpg,badlands_70.jpg,badlands_119.jpg,left,mountain_161.jpg,golf_course_122.jpg,badlands_70.jpg,highway_196.jpg,highway_196.jpg,highway_196.jpg,2.0,left,2.5157,1.0,badlands,badlands_119.jpg,6.96875,4.3052,A3CLHW8U4DXVI3
101,A3CLHW8U4DXVI3,28,MALE,playground_144.jpg,playground_137.jpg,playground_144.jpg,right,playground_144.jpg,bridge_2.jpg,golf_course_46.jpg,mountain_91.jpg,mountain_91.jpg,mountain_91.jpg,0.0,left,6.1295,0.0,playground,playground_137.jpg,3.979166667,2.0394,A3CLHW8U4DXVI3
102,A3CLHW8U4DXVI3,28,MALE,highway_294.jpg,highway_368.jpg,highway_294.jpg,right,highway_294.jpg,badlands_130.jpg,mountain_228.jpg,bridge_52.jpg,bridge_52.jpg,bridge_52.jpg,0.0,right,1.4202,1.0,highway,highway_368.jpg,5.96875,2.4429,A3CLHW8U4DXVI3
103,A3CLHW8U4DXVI3,28,MALE,playground_257.jpg,playground_214.jpg,playground_257.jpg,right,highway_398.jpg,playground_257.jpg,bridge_25.jpg,golf_course_166.jpg,golf_course_166.jpg,golf_course_166.jpg,1.0,left,22.851,0.0,playground,playground_214.jpg,4.989583333,9.0051,A3CLHW8U4DXVI3
104,A3CLHW8U4DXVI3,28,MALE,playground_131.jpg,playground_43.jpg,playground_131.jpg,right,golf_course_83.jpg,highway_25.jpg,playground_131.jpg,bridge_162.jpg,bridge_162.jpg,bridge_162.jpg,2.0,right,1.6402,0.0,playground,playground_43.jpg,3.96875,4.3975,A3CLHW8U4DXVI3
105,A3CLHW8U4DXVI3,28,MALE,highway_156.jpg,highway_156.jpg,highway_160.jpg,left,bridge_103.jpg,highway_156.jpg,mountain_26.jpg,badlands_142.jpg,badlands_142.jpg,badlands_142.jpg,1.0,left,1.1856,0.0,highway,highway_160.jpg,3.989583333,2.9156,A3CLHW8U4DXVI3
106,A3CLHW8U4DXVI3,28,MALE,highway_245.jpg,highway_206.jpg,highway_245.jpg,right,golf_course_33.jpg,bridge_34.jpg,highway_245.jpg,mountain_84.jpg,mountain_84.jpg,mountain_84.jpg,2.0,right,3.5012,1.0,highway,highway_206.jpg,6.0,3.9117,A3CLHW8U4DXVI3
107,A3CLHW8U4DXVI3,28,MALE,golf_course_214.jpg,golf_course_312.jpg,golf_course_214.jpg,right,playground_52.jpg,golf_course_214.jpg,bridge_230.jpg,badlands_100.jpg,badlands_100.jpg,badlands_100.jpg,1.0,left,1.9292,0.0,golf,golf_course_312.jpg,4.010416667,1.2519,A3CLHW8U4DXVI3
108,A3CLHW8U4DXVI3,28,MALE,bridge_202.jpg,bridge_31.jpg,bridge_202.jpg,right,bridge_202.jpg,badlands_136.jpg,golf_course_102.jpg,highway_146.jpg,highway_146.jpg,highway_146.jpg,0.0,right,1.3727,0.0,bridge,bridge_31.jpg,4.947916667,2.5774,A3CLHW8U4DXVI3
109,A3CLHW8U4DXVI3,28,MALE,golf_course_193.jpg,golf_course_193.jpg,golf_course_235.jpg,left,highway_117.jpg,badlands_177.jpg,golf_course_193.jpg,bridge_158.jpg,bridge_158.jpg,bridge_158.jpg,2.0,left,1.3428,0.0,golf,golf_course_235.jpg,3.010416667,1.7729,A3CLHW8U4DXVI3
110,A3CLHW8U4DXVI3,28,MALE,badlands_21.jpg,badlands_1.jpg,badlands_21.jpg,right,mountain_166.jpg,badlands_21.jpg,highway_357.jpg,bridge_49.jpg,bridge_49.jpg,bridge_49.jpg,1.0,right,5.0106,0.0,badlands,badlands_1.jpg,3.958333333,1.8338,A3CLHW8U4DXVI3
111,A3CLHW8U4DXVI3,28,MALE,playground_117.jpg,playground_167.jpg,playground_117.jpg,right,badlands_193.jpg,playground_117.jpg,mountain_105.jpg,highway_159.jpg,highway_159.jpg,highway_159.jpg,1.0,right,3.808,0.0,playground,playground_167.jpg,4.96875,4.386,A3CLHW8U4DXVI3
112,A3CLHW8U4DXVI3,28,MALE,bridge_65.jpg,bridge_60.jpg,bridge_65.jpg,right,bridge_65.jpg,playground_123.jpg,mountain_202.jpg,highway_248.jpg,highway_248.jpg,highway_248.jpg,0.0,right,6.468,1.0,bridge,bridge_60.jpg,5.989583333,1.4412,A3CLHW8U4DXVI3
113,A3CLHW8U4DXVI3,28,MALE,mountain_123.jpg,mountain_189.jpg,mountain_123.jpg,right,badlands_35.jpg,golf_course_128.jpg,mountain_123.jpg,playground_5.jpg,playground_5.jpg,playground_5.jpg,2.0,left,2.4766,1.0,mountain,mountain_189.jpg,7.96875,3.5044,A3CLHW8U4DXVI3
114,A3CLHW8U4DXVI3,28,MALE,highway_209.jpg,highway_209.jpg,highway_314.jpg,left,bridge_21.jpg,highway_209.jpg,golf_course_264.jpg,mountain_301.jpg,mountain_301.jpg,mountain_301.jpg,1.0,right,1.8933,0.0,highway,highway_314.jpg,3.96875,2.9817,A3CLHW8U4DXVI3
115,A3CLHW8U4DXVI3,28,MALE,badlands_52.jpg,badlands_94.jpg,badlands_52.jpg,right,badlands_52.jpg,mountain_162.jpg,playground_66.jpg,highway_18.jpg,highway_18.jpg,highway_18.jpg,0.0,right,2.5895,0.0,badlands,badlands_94.jpg,6.979166667,2.84,A3CLHW8U4DXVI3
116,A3CLHW8U4DXVI3,28,MALE,mountain_293.jpg,mountain_72.jpg,mountain_293.jpg,right,bridge_169.jpg,mountain_293.jpg,highway_234.jpg,playground_168.jpg,playground_168.jpg,playground_168.jpg,1.0,left,1.4645,0.0,mountain,mountain_72.jpg,7.989583333,2.9412,A3CLHW8U4DXVI3
117,A3CLHW8U4DXVI3,28,MALE,mountain_230.jpg,mountain_97.jpg,mountain_230.jpg,right,mountain_230.jpg,playground_259.jpg,highway_402.jpg,badlands_75.jpg,badlands_75.jpg,badlands_75.jpg,0.0,left,9.8382,1.0,mountain,mountain_97.jpg,7.020833333,2.5764,A3CLHW8U4DXVI3
118,A3CLHW8U4DXVI3,28,MALE,mountain_110.jpg,mountain_223.jpg,mountain_110.jpg,right,mountain_110.jpg,golf_course_156.jpg,badlands_58.jpg,highway_144.jpg,highway_144.jpg,highway_144.jpg,0.0,right,7.6665,1.0,mountain,mountain_223.jpg,6.010416667,4.8145,A3CLHW8U4DXVI3
119,A3CLHW8U4DXVI3,28,MALE,highway_394.jpg,highway_204.jpg,highway_394.jpg,right,highway_394.jpg,badlands_143.jpg,mountain_233.jpg,bridge_239.jpg,bridge_239.jpg,bridge_239.jpg,0.0,left,2.3624,0.0,highway,highway_204.jpg,2.947916667,2.6064,A3CLHW8U4DXVI3
120,A1ODU7S7ENNY66,25,Male,playground_240.jpg,playground_240.jpg,playground_2.jpg,left,badlands_30.jpg,playground_240.jpg,golf_course_302.jpg,mountain_307.jpg,mountain_307.jpg,mountain_307.jpg,1.0,left,1.8785,0.0,playground,playground_2.jpg,7.041666667,8.0643,A1ODU7S7ENNY66
121,A1ODU7S7ENNY66,25,Male,playground_219.jpg,playground_219.jpg,playground_21.jpg,left,playground_219.jpg,highway_331.jpg,mountain_280.jpg,golf_course_264.jpg,golf_course_264.jpg,golf_course_264.jpg,0.0,left,3.6531,0.0,playground,playground_21.jpg,8.96875,112.7761,A1ODU7S7ENNY66
122,A1ODU7S7ENNY66,25,Male,golf_course_78.jpg,golf_course_78.jpg,golf_course_134.jpg,left,golf_course_78.jpg,highway_147.jpg,playground_168.jpg,mountain_71.jpg,mountain_71.jpg,mountain_71.jpg,0.0,right,4.1442,0.0,golf,golf_course_134.jpg,6.989583333,2.5316,A1ODU7S7ENNY66
123,A1ODU7S7ENNY66,25,Male,golf_course_195.jpg,golf_course_195.jpg,golf_course_25.jpg,left,mountain_214.jpg,bridge_251.jpg,golf_course_195.jpg,playground_52.jpg,playground_52.jpg,playground_52.jpg,2.0,left,2.3862,0.0,golf,golf_course_25.jpg,5.03125,3.770799999,A1ODU7S7ENNY66
124,A1ODU7S7ENNY66,25,Male,highway_245.jpg,highway_134.jpg,highway_245.jpg,right,highway_245.jpg,badlands_31.jpg,mountain_111.jpg,bridge_19.jpg,bridge_19.jpg,bridge_19.jpg,0.0,right,3.3455,0.0,highway,highway_134.jpg,8.0,104.5052,A1ODU7S7ENNY66
125,A1ODU7S7ENNY66,25,Male,bridge_256.jpg,bridge_54.jpg,bridge_256.jpg,right,bridge_256.jpg,highway_75.jpg,badlands_152.jpg,golf_course_334.jpg,golf_course_334.jpg,golf_course_334.jpg,0.0,left,2.0538,0.0,bridge,bridge_54.jpg,8.979166667,2.5027,A1ODU7S7ENNY66
126,A1ODU7S7ENNY66,25,Male,bridge_146.jpg,bridge_146.jpg,bridge_27.jpg,left,mountain_199.jpg,golf_course_319.jpg,bridge_146.jpg,playground_41.jpg,playground_41.jpg,playground_41.jpg,2.0,right,1.7196,0.0,bridge,bridge_27.jpg,7.9375,2.3068,A1ODU7S7ENNY66
127,A1ODU7S7ENNY66,25,Male,badlands_137.jpg,badlands_139.jpg,badlands_137.jpg,right,playground_124.jpg,badlands_137.jpg,golf_course_1.jpg,highway_23.jpg,highway_23.jpg,highway_23.jpg,1.0,left,1.4482,1.0,badlands,badlands_139.jpg,6.979166667,3.1968,A1ODU7S7ENNY66
128,A1ODU7S7ENNY66,25,Male,golf_course_217.jpg,golf_course_217.jpg,golf_course_262.jpg,left,playground_7.jpg,badlands_75.jpg,golf_course_217.jpg,mountain_68.jpg,mountain_68.jpg,mountain_68.jpg,2.0,left,1.796,1.0,golf,golf_course_262.jpg,6.09375,2.5982,A1ODU7S7ENNY66
129,A1ODU7S7ENNY66,25,Male,golf_course_214.jpg,golf_course_214.jpg,golf_course_317.jpg,left,playground_90.jpg,bridge_162.jpg,golf_course_214.jpg,badlands_143.jpg,badlands_143.jpg,badlands_143.jpg,2.0,left,1.7973,1.0,golf,golf_course_317.jpg,8.958333333,4.8397,A1ODU7S7ENNY66
130,A1ODU7S7ENNY66,25,Male,playground_131.jpg,playground_131.jpg,playground_164.jpg,left,playground_131.jpg,bridge_132.jpg,badlands_226.jpg,golf_course_42.jpg,golf_course_42.jpg,golf_course_42.jpg,0.0,left,1.276599999,1.0,playground,playground_164.jpg,8.989583333,2.1827,A1ODU7S7ENNY66
131,A1ODU7S7ENNY66,25,Male,badlands_221.jpg,badlands_221.jpg,badlands_207.jpg,left,badlands_221.jpg,highway_342.jpg,bridge_230.jpg,playground_30.jpg,playground_30.jpg,playground_30.jpg,0.0,left,1.798099999,1.0,badlands,badlands_207.jpg,3.989583333,2.9322,A1ODU7S7ENNY66
132,A1ODU7S7ENNY66,25,Male,mountain_154.jpg,mountain_154.jpg,mountain_131.jpg,left,golf_course_198.jpg,mountain_154.jpg,playground_103.jpg,bridge_158.jpg,bridge_158.jpg,bridge_158.jpg,1.0,right,1.6983,0.0,mountain,mountain_131.jpg,4.947916667,2.8971,A1ODU7S7ENNY66
133,A1ODU7S7ENNY66,25,Male,highway_156.jpg,highway_293.jpg,highway_156.jpg,right,mountain_107.jpg,highway_156.jpg,playground_264.jpg,badlands_176.jpg,badlands_176.jpg,badlands_176.jpg,1.0,right,1.962099999,1.0,highway,highway_293.jpg,8.010416667,2.4516,A1ODU7S7ENNY66
134,A1ODU7S7ENNY66,25,Male,playground_144.jpg,playground_144.jpg,playground_137.jpg,left,golf_course_128.jpg,bridge_257.jpg,playground_144.jpg,badlands_216.jpg,badlands_216.jpg,badlands_216.jpg,2.0,left,1.214200001,0.0,playground,playground_137.jpg,6.114583333,2.6387,A1ODU7S7ENNY66
135,A1ODU7S7ENNY66,25,Male,golf_course_331.jpg,golf_course_331.jpg,golf_course_114.jpg,left,golf_course_331.jpg,highway_301.jpg,playground_80.jpg,badlands_99.jpg,badlands_99.jpg,badlands_99.jpg,0.0,left,1.3687,0.0,golf,golf_course_114.jpg,8.979166667,2.5021,A1ODU7S7ENNY66
136,A1ODU7S7ENNY66,25,Male,badlands_23.jpg,badlands_114.jpg,badlands_23.jpg,right,golf_course_57.jpg,badlands_23.jpg,highway_146.jpg,playground_3.jpg,playground_3.jpg,playground_3.jpg,1.0,right,2.226,0.0,badlands,badlands_114.jpg,7.010416667,2.6725,A1ODU7S7ENNY66
137,A1ODU7S7ENNY66,25,Male,golf_course_188.jpg,golf_course_160.jpg,golf_course_188.jpg,right,highway_114.jpg,golf_course_188.jpg,badlands_200.jpg,mountain_115.jpg,mountain_115.jpg,mountain_115.jpg,1.0,right,3.2233,1.0,golf,golf_course_160.jpg,7.979166667,2.4779,A1ODU7S7ENNY66
138,A1ODU7S7ENNY66,25,Male,badlands_70.jpg,badlands_102.jpg,badlands_70.jpg,right,bridge_206.jpg,badlands_70.jpg,mountain_160.jpg,playground_5.jpg,playground_5.jpg,playground_5.jpg,1.0,right,1.1983,0.0,badlands,badlands_102.jpg,5.052083333,2.3275,A1ODU7S7ENNY66
139,A1ODU7S7ENNY66,25,Male,bridge_191.jpg,bridge_191.jpg,bridge_75.jpg,left,bridge_191.jpg,highway_357.jpg,playground_158.jpg,mountain_126.jpg,mountain_126.jpg,mountain_126.jpg,0.0,right,2.5517,1.0,bridge,bridge_75.jpg,6.958333333,2.0901,A1ODU7S7ENNY66
140,A1ODU7S7ENNY66,25,Male,golf_course_193.jpg,golf_course_123.jpg,golf_course_193.jpg,right,playground_259.jpg,golf_course_193.jpg,badlands_177.jpg,highway_398.jpg,highway_398.jpg,highway_398.jpg,1.0,left,1.478400001,1.0,golf,golf_course_123.jpg,7.96875,2.164,A1ODU7S7ENNY66
141,A1ODU7S7ENNY66,25,Male,playground_60.jpg,playground_60.jpg,playground_268.jpg,left,playground_60.jpg,bridge_259.jpg,mountain_162.jpg,highway_263.jpg,highway_263.jpg,highway_263.jpg,0.0,right,2.1126,0.0,playground,playground_268.jpg,8.927083333,9.1692,A1ODU7S7ENNY66
142,A1ODU7S7ENNY66,25,Male,bridge_250.jpg,bridge_134.jpg,bridge_250.jpg,right,mountain_132.jpg,golf_course_83.jpg,bridge_250.jpg,playground_36.jpg,playground_36.jpg,playground_36.jpg,2.0,left,1.361900001,0.0,bridge,bridge_134.jpg,8.989583333,0.6321,A1ODU7S7ENNY66
143,A1ODU7S7ENNY66,25,Male,bridge_172.jpg,bridge_17.jpg,bridge_172.jpg,right,highway_336.jpg,golf_course_325.jpg,bridge_172.jpg,badlands_130.jpg,badlands_130.jpg,badlands_130.jpg,2.0,right,1.4457,0.0,bridge,bridge_17.jpg,5.989583333,1.911599999,A1ODU7S7ENNY66
144,A1ODU7S7ENNY66,25,Male,highway_359.jpg,highway_359.jpg,highway_389.jpg,left,highway_359.jpg,golf_course_159.jpg,mountain_91.jpg,bridge_130.jpg,bridge_130.jpg,bridge_130.jpg,0.0,left,2.2166,0.0,highway,highway_389.jpg,7.052083333,1.0688,A1ODU7S7ENNY66
145,A1ODU7S7ENNY66,25,Male,badlands_113.jpg,badlands_203.jpg,badlands_113.jpg,right,badlands_113.jpg,bridge_21.jpg,highway_325.jpg,mountain_26.jpg,mountain_26.jpg,mountain_26.jpg,0.0,right,1.2748,1.0,badlands,badlands_203.jpg,7.989583333,1.991900001,A1ODU7S7ENNY66
146,A1ODU7S7ENNY66,25,Male,bridge_65.jpg,bridge_60.jpg,bridge_65.jpg,right,bridge_65.jpg,playground_172.jpg,highway_248.jpg,badlands_108.jpg,badlands_108.jpg,badlands_108.jpg,0.0,right,1.3707,1.0,bridge,bridge_60.jpg,8.895833333,3.4293,A1ODU7S7ENNY66
147,A1ODU7S7ENNY66,25,Male,badlands_24.jpg,badlands_24.jpg,badlands_3.jpg,left,playground_191.jpg,badlands_24.jpg,highway_175.jpg,golf_course_260.jpg,golf_course_260.jpg,golf_course_260.jpg,1.0,left,1.203200001,0.0,badlands,badlands_3.jpg,7.0,2.6103,A1ODU7S7ENNY66
148,A1ODU7S7ENNY66,25,Male,playground_257.jpg,playground_215.jpg,playground_257.jpg,right,golf_course_156.jpg,playground_257.jpg,mountain_292.jpg,highway_219.jpg,highway_219.jpg,highway_219.jpg,1.0,right,1.282200001,1.0,playground,playground_215.jpg,6.010416667,3.6693,A1ODU7S7ENNY66
149,A1ODU7S7ENNY66,25,Male,playground_76.jpg,playground_72.jpg,playground_76.jpg,right,playground_76.jpg,highway_112.jpg,golf_course_206.jpg,bridge_26.jpg,bridge_26.jpg,bridge_26.jpg,0.0,left,1.8752,1.0,playground,playground_72.jpg,4.989583333,4.3113,A1ODU7S7ENNY66
150,A1ODU7S7ENNY66,25,Male,mountain_101.jpg,mountain_221.jpg,mountain_101.jpg,right,golf_course_52.jpg,mountain_101.jpg,highway_227.jpg,bridge_18.jpg,bridge_18.jpg,bridge_18.jpg,1.0,right,1.4528,1.0,mountain,mountain_221.jpg,5.958333333,2.4142,A1ODU7S7ENNY66
151,A1ODU7S7ENNY66,25,Male,mountain_293.jpg,mountain_72.jpg,mountain_293.jpg,right,mountain_293.jpg,playground_42.jpg,golf_course_223.jpg,badlands_89.jpg,badlands_89.jpg,badlands_89.jpg,0.0,left,2.123599999,0.0,mountain,mountain_72.jpg,7.947916667,2.600700001,A1ODU7S7ENNY66
152,A1ODU7S7ENNY66,25,Male,mountain_156.jpg,mountain_295.jpg,mountain_156.jpg,right,badlands_59.jpg,mountain_156.jpg,highway_319.jpg,bridge_47.jpg,bridge_47.jpg,bridge_47.jpg,1.0,right,1.7221,1.0,mountain,mountain_295.jpg,5.03125,3.0192,A1ODU7S7ENNY66
153,A1ODU7S7ENNY66,25,Male,highway_177.jpg,highway_87.jpg,highway_177.jpg,right,highway_177.jpg,golf_course_46.jpg,mountain_166.jpg,playground_183.jpg,playground_183.jpg,playground_183.jpg,0.0,left,1.2827,0.0,highway,highway_87.jpg,6.979166667,3.9595,A1ODU7S7ENNY66
154,A1ODU7S7ENNY66,25,Male,mountain_232.jpg,mountain_232.jpg,mountain_54.jpg,left,mountain_232.jpg,golf_course_290.jpg,badlands_13.jpg,playground_66.jpg,playground_66.jpg,playground_66.jpg,0.0,left,2.384,1.0,mountain,mountain_54.jpg,7.96875,2.859400001,A1ODU7S7ENNY66
155,A1ODU7S7ENNY66,25,Male,golf_course_309.jpg,golf_course_16.jpg,golf_course_309.jpg,right,highway_144.jpg,badlands_35.jpg,golf_course_309.jpg,mountain_179.jpg,mountain_179.jpg,mountain_179.jpg,2.0,right,1.7642,0.0,golf,golf_course_16.jpg,5.96875,4.1508,A1ODU7S7ENNY66
156,A1ODU7S7ENNY66,25,Male,highway_294.jpg,highway_294.jpg,highway_368.jpg,left,highway_294.jpg,playground_6.jpg,golf_course_258.jpg,bridge_204.jpg,bridge_204.jpg,bridge_204.jpg,0.0,left,2.418900001,1.0,highway,highway_368.jpg,8.010416667,3.149,A1ODU7S7ENNY66
157,A1ODU7S7ENNY66,25,Male,bridge_108.jpg,bridge_148.jpg,bridge_108.jpg,right,mountain_4.jpg,bridge_108.jpg,playground_108.jpg,badlands_220.jpg,badlands_220.jpg,badlands_220.jpg,1.0,right,1.3746,1.0,bridge,bridge_148.jpg,8.989583333,2.4947,A1ODU7S7ENNY66
158,A1ODU7S7ENNY66,25,Male,playground_145.jpg,playground_145.jpg,playground_229.jpg,left,playground_145.jpg,golf_course_102.jpg,mountain_233.jpg,badlands_218.jpg,badlands_218.jpg,badlands_218.jpg,0.0,left,2.803799999,0.0,playground,playground_229.jpg,5.927083333,3.1202,A1ODU7S7ENNY66
159,A1ODU7S7ENNY66,25,Male,bridge_91.jpg,bridge_82.jpg,bridge_91.jpg,right,badlands_27.jpg,mountain_253.jpg,bridge_91.jpg,playground_54.jpg,playground_54.jpg,playground_54.jpg,2.0,left,1.4562,1.0,bridge,bridge_82.jpg,7.0625,2.9725,A1ODU7S7ENNY66
160,A1ODU7S7ENNY66,25,Male,golf_course_15.jpg,golf_course_113.jpg,golf_course_15.jpg,right,golf_course_15.jpg,playground_95.jpg,mountain_235.jpg,badlands_95.jpg,badlands_95.jpg,badlands_95.jpg,0.0,right,1.281,0.0,golf,golf_course_113.jpg,4.979166667,2.4997,A1ODU7S7ENNY66
161,A1ODU7S7ENNY66,25,Male,badlands_21.jpg,badlands_21.jpg,badlands_98.jpg,left,badlands_21.jpg,bridge_239.jpg,highway_159.jpg,mountain_224.jpg,mountain_224.jpg,mountain_224.jpg,0.0,left,2.206900001,1.0,badlands,badlands_98.jpg,7.979166667,2.515099999,A1ODU7S7ENNY66
162,A1ODU7S7ENNY66,25,Male,mountain_110.jpg,mountain_223.jpg,mountain_110.jpg,right,badlands_100.jpg,golf_course_152.jpg,mountain_110.jpg,playground_193.jpg,playground_193.jpg,playground_193.jpg,2.0,left,2.3113,1.0,mountain,mountain_223.jpg,5.03125,2.1837,A1ODU7S7ENNY66
163,A1ODU7S7ENNY66,25,Male,highway_209.jpg,highway_209.jpg,highway_122.jpg,left,bridge_48.jpg,badlands_54.jpg,highway_209.jpg,mountain_34.jpg,mountain_34.jpg,mountain_34.jpg,2.0,left,2.304,1.0,highway,highway_122.jpg,7.9375,4.0432,A1ODU7S7ENNY66
164,A1ODU7S7ENNY66,25,Male,highway_394.jpg,highway_394.jpg,highway_204.jpg,left,badlands_149.jpg,golf_course_166.jpg,highway_394.jpg,bridge_124.jpg,bridge_124.jpg,bridge_124.jpg,2.0,right,1.7071,0.0,highway,highway_204.jpg,8.96875,2.2518,A1ODU7S7ENNY66
165,A1ODU7S7ENNY66,25,Male,badlands_184.jpg,badlands_103.jpg,badlands_184.jpg,right,badlands_184.jpg,playground_173.jpg,mountain_212.jpg,golf_course_33.jpg,golf_course_33.jpg,golf_course_33.jpg,0.0,right,1.4402,1.0,badlands,badlands_103.jpg,7.052083333,5.045,A1ODU7S7ENNY66
166,A1ODU7S7ENNY66,25,Male,badlands_52.jpg,badlands_63.jpg,badlands_52.jpg,right,badlands_52.jpg,mountain_66.jpg,playground_209.jpg,golf_course_122.jpg,golf_course_122.jpg,golf_course_122.jpg,0.0,left,4.236900001,1.0,badlands,badlands_63.jpg,5.979166667,1.9945,A1ODU7S7ENNY66
167,A1ODU7S7ENNY66,25,Male,mountain_222.jpg,mountain_244.jpg,mountain_222.jpg,right,badlands_173.jpg,bridge_179.jpg,mountain_222.jpg,golf_course_88.jpg,golf_course_88.jpg,golf_course_88.jpg,2.0,left,1.9668,0.0,mountain,mountain_244.jpg,7.0,2.0838,A1ODU7S7ENNY66
168,A1ODU7S7ENNY66,25,Male,golf_course_87.jpg,golf_course_161.jpg,golf_course_87.jpg,right,mountain_105.jpg,golf_course_87.jpg,playground_249.jpg,bridge_263.jpg,bridge_263.jpg,bridge_263.jpg,1.0,right,1.7037,1.0,golf,golf_course_161.jpg,7.979166667,0.9633,A1ODU7S7ENNY66
169,A1ODU7S7ENNY66,25,Male,mountain_123.jpg,mountain_123.jpg,mountain_189.jpg,left,playground_181.jpg,golf_course_185.jpg,mountain_123.jpg,highway_244.jpg,highway_244.jpg,highway_244.jpg,2.0,left,1.7111,1.0,mountain,mountain_189.jpg,5.90625,0.7923,A1ODU7S7ENNY66
170,A1ODU7S7ENNY66,25,Male,badlands_222.jpg,badlands_222.jpg,badlands_34.jpg,left,badlands_222.jpg,highway_11.jpg,bridge_218.jpg,playground_13.jpg,playground_13.jpg,playground_13.jpg,0.0,left,1.1244,0.0,badlands,badlands_34.jpg,7.770833333,0.369299999,A1ODU7S7ENNY66
171,A1ODU7S7ENNY66,25,Male,mountain_57.jpg,mountain_57.jpg,mountain_138.jpg,left,highway_149.jpg,playground_70.jpg,mountain_57.jpg,bridge_78.jpg,bridge_78.jpg,bridge_78.jpg,2.0,left,1.4277,1.0,mountain,mountain_138.jpg,8.354166667,0.6238,A1ODU7S7ENNY66
172,A1ODU7S7ENNY66,25,Male,playground_10.jpg,playground_10.jpg,playground_122.jpg,left,playground_10.jpg,highway_117.jpg,golf_course_43.jpg,mountain_104.jpg,mountain_104.jpg,mountain_104.jpg,0.0,left,2.0885,0.0,playground,playground_122.jpg,5.458333333,0.365,A1ODU7S7ENNY66
173,A1ODU7S7ENNY66,25,Male,mountain_230.jpg,mountain_97.jpg,mountain_230.jpg,right,mountain_230.jpg,bridge_177.jpg,golf_course_204.jpg,playground_241.jpg,playground_241.jpg,playground_241.jpg,0.0,right,1.1172,1.0,mountain,mountain_97.jpg,8.208333333,2.541099999,A1ODU7S7ENNY66
174,A1ODU7S7ENNY66,25,Male,highway_93.jpg,highway_369.jpg,highway_93.jpg,right,playground_235.jpg,mountain_202.jpg,highway_93.jpg,badlands_136.jpg,badlands_136.jpg,badlands_136.jpg,2.0,left,1.6981,1.0,highway,highway_369.jpg,6.020833333,0.7901,A1ODU7S7ENNY66
175,A1ODU7S7ENNY66,25,Male,bridge_202.jpg,bridge_31.jpg,bridge_202.jpg,right,bridge_202.jpg,playground_200.jpg,mountain_24.jpg,golf_course_27.jpg,golf_course_27.jpg,golf_course_27.jpg,0.0,right,1.8848,0.0,bridge,bridge_31.jpg,7.229166667,1.2263,A1ODU7S7ENNY66
176,A1ODU7S7ENNY66,25,Male,playground_117.jpg,playground_117.jpg,playground_167.jpg,left,golf_course_21.jpg,highway_234.jpg,playground_117.jpg,mountain_301.jpg,mountain_301.jpg,mountain_301.jpg,2.0,left,1.4336,0.0,playground,playground_167.jpg,5.6875,1.4039,A1ODU7S7ENNY66
177,A1ODU7S7ENNY66,25,Male,highway_415.jpg,highway_174.jpg,highway_415.jpg,right,badlands_180.jpg,bridge_169.jpg,highway_415.jpg,mountain_44.jpg,mountain_44.jpg,mountain_44.jpg,2.0,right,1.2728,1.0,highway,highway_174.jpg,7.333333333,1.142400001,A1ODU7S7ENNY66
178,A1ODU7S7ENNY66,25,Male,highway_273.jpg,highway_384.jpg,highway_273.jpg,right,badlands_58.jpg,highway_273.jpg,mountain_12.jpg,golf_course_329.jpg,golf_course_329.jpg,golf_course_329.jpg,1.0,left,1.307,0.0,highway,highway_384.jpg,8.1875,0.5514,A1ODU7S7ENNY66
179,A1ODU7S7ENNY66,25,Male,bridge_128.jpg,bridge_61.jpg,bridge_128.jpg,right,mountain_21.jpg,bridge_128.jpg,highway_99.jpg,golf_course_321.jpg,golf_course_321.jpg,golf_course_321.jpg,1.0,right,1.1118,0.0,bridge,bridge_61.jpg,6.375,0.4558,A1ODU7S7ENNY66
180,A24MNMHSFYW6B,35,male,playground_117.jpg,playground_167.jpg,playground_117.jpg,right,bridge_52.jpg,playground_117.jpg,golf_course_1.jpg,badlands_200.jpg,badlands_200.jpg,badlands_200.jpg,1.0,right,3.0585,0.0,playground,playground_167.jpg,3.992950655,9.8979,A24MNMHSFYW6B
181,A24MNMHSFYW6B,35,male,golf_course_195.jpg,golf_course_25.jpg,golf_course_195.jpg,right,mountain_91.jpg,golf_course_195.jpg,playground_66.jpg,highway_166.jpg,highway_166.jpg,highway_166.jpg,1.0,left,3.2409,0.0,golf,golf_course_25.jpg,3.96878147,5.7003,A24MNMHSFYW6B
182,A24MNMHSFYW6B,35,male,golf_course_309.jpg,golf_course_209.jpg,golf_course_309.jpg,right,mountain_292.jpg,bridge_64.jpg,golf_course_309.jpg,playground_30.jpg,playground_30.jpg,playground_30.jpg,2.0,right,2.9485,1.0,golf,golf_course_209.jpg,5.024169184,19.8546,A24MNMHSFYW6B
183,A24MNMHSFYW6B,35,male,playground_240.jpg,playground_240.jpg,playground_40.jpg,left,mountain_161.jpg,playground_240.jpg,highway_147.jpg,bridge_264.jpg,bridge_264.jpg,bridge_264.jpg,1.0,left,3.0901,1.0,playground,playground_40.jpg,6.957703927,5.0028,A24MNMHSFYW6B
184,A24MNMHSFYW6B,35,male,playground_257.jpg,playground_215.jpg,playground_257.jpg,right,playground_257.jpg,mountain_105.jpg,bridge_123.jpg,badlands_142.jpg,badlands_142.jpg,badlands_142.jpg,0.0,right,2.6756,1.0,playground,playground_215.jpg,6.957703927,6.8919,A24MNMHSFYW6B
185,A24MNMHSFYW6B,35,male,mountain_57.jpg,mountain_138.jpg,mountain_57.jpg,right,golf_course_316.jpg,mountain_57.jpg,bridge_103.jpg,highway_11.jpg,highway_11.jpg,highway_11.jpg,1.0,right,2.2884,1.0,mountain,mountain_138.jpg,5.008056395,6.5912,A24MNMHSFYW6B
186,A24MNMHSFYW6B,35,male,playground_219.jpg,playground_219.jpg,playground_21.jpg,left,golf_course_152.jpg,badlands_45.jpg,playground_219.jpg,bridge_158.jpg,bridge_158.jpg,bridge_158.jpg,2.0,left,4.5312,0.0,playground,playground_21.jpg,4.001007049,8.0388,A24MNMHSFYW6B
187,A24MNMHSFYW6B,35,male,golf_course_188.jpg,golf_course_157.jpg,golf_course_188.jpg,right,badlands_152.jpg,golf_course_188.jpg,mountain_199.jpg,highway_357.jpg,highway_357.jpg,highway_357.jpg,1.0,left,2.2922,0.0,golf,golf_course_157.jpg,6.305135952,6.775,A24MNMHSFYW6B
188,A24MNMHSFYW6B,35,male,badlands_52.jpg,badlands_52.jpg,badlands_63.jpg,left,badlands_52.jpg,mountain_12.jpg,golf_course_325.jpg,playground_193.jpg,playground_193.jpg,playground_193.jpg,0.0,left,2.5364,1.0,badlands,badlands_63.jpg,6.03121853,20.2778,A24MNMHSFYW6B
189,A24MNMHSFYW6B,35,male,golf_course_193.jpg,golf_course_123.jpg,golf_course_193.jpg,right,golf_course_193.jpg,badlands_13.jpg,highway_144.jpg,bridge_10.jpg,bridge_10.jpg,bridge_10.jpg,0.0,right,2.1101,1.0,golf,golf_course_123.jpg,7.73917422,6.1322,A24MNMHSFYW6B
190,A24MNMHSFYW6B,35,male,mountain_230.jpg,mountain_230.jpg,mountain_97.jpg,left,badlands_130.jpg,mountain_230.jpg,golf_course_122.jpg,bridge_21.jpg,bridge_21.jpg,bridge_21.jpg,1.0,left,1.7029,1.0,mountain,mountain_97.jpg,8.013091641,4.7402,A24MNMHSFYW6B
191,A24MNMHSFYW6B,35,male,highway_156.jpg,highway_293.jpg,highway_156.jpg,right,playground_209.jpg,badlands_89.jpg,highway_156.jpg,bridge_204.jpg,bridge_204.jpg,bridge_204.jpg,2.0,right,2.2629,1.0,highway,highway_293.jpg,5.588116818,8.0765,A24MNMHSFYW6B
192,A24MNMHSFYW6B,35,male,playground_144.jpg,playground_65.jpg,playground_144.jpg,right,golf_course_27.jpg,highway_37.jpg,playground_144.jpg,mountain_24.jpg,mountain_24.jpg,mountain_24.jpg,2.0,right,2.4176,1.0,playground,playground_65.jpg,7.690835851,3.7797,A24MNMHSFYW6B
193,A24MNMHSFYW6B,35,male,badlands_184.jpg,badlands_184.jpg,badlands_103.jpg,left,golf_course_320.jpg,bridge_218.jpg,badlands_184.jpg,highway_175.jpg,highway_175.jpg,highway_175.jpg,2.0,left,1.9743,1.0,badlands,badlands_103.jpg,7.674723061,0.723,A24MNMHSFYW6B
194,A24MNMHSFYW6B,35,male,badlands_70.jpg,badlands_102.jpg,badlands_70.jpg,right,badlands_70.jpg,highway_398.jpg,playground_6.jpg,mountain_126.jpg,mountain_126.jpg,mountain_126.jpg,0.0,right,1.5075,0.0,badlands,badlands_102.jpg,5.990936556,5.97,A24MNMHSFYW6B
195,A24MNMHSFYW6B,35,male,badlands_113.jpg,badlands_203.jpg,badlands_113.jpg,right,mountain_115.jpg,badlands_113.jpg,bridge_48.jpg,playground_168.jpg,playground_168.jpg,playground_168.jpg,1.0,left,1.829,1.0,badlands,badlands_203.jpg,5.040281974,2.4464,A24MNMHSFYW6B
196,A24MNMHSFYW6B,35,male,badlands_222.jpg,badlands_222.jpg,badlands_34.jpg,left,bridge_177.jpg,highway_336.jpg,badlands_222.jpg,golf_course_229.jpg,golf_course_229.jpg,golf_course_229.jpg,2.0,right,3.3998,0.0,badlands,badlands_34.jpg,3.960725076,3.4039,A24MNMHSFYW6B
197,A24MNMHSFYW6B,35,male,playground_145.jpg,playground_229.jpg,playground_145.jpg,right,mountain_34.jpg,playground_145.jpg,bridge_259.jpg,golf_course_264.jpg,golf_course_264.jpg,golf_course_264.jpg,1.0,right,2.6372,0.0,playground,playground_229.jpg,5.217522659,4.1789,A24MNMHSFYW6B
198,A24MNMHSFYW6B,35,male,mountain_123.jpg,mountain_123.jpg,mountain_189.jpg,left,golf_course_33.jpg,mountain_123.jpg,bridge_9.jpg,playground_158.jpg,playground_158.jpg,playground_158.jpg,1.0,right,2.8279,1.0,mountain,mountain_189.jpg,7.690835851,5.3159,A24MNMHSFYW6B
199,A24MNMHSFYW6B,35,male,highway_415.jpg,highway_415.jpg,highway_60.jpg,left,bridge_49.jpg,highway_415.jpg,mountain_160.jpg,playground_235.jpg,playground_235.jpg,playground_235.jpg,1.0,right,2.9512,0.0,highway,highway_60.jpg,7.04632427,4.7565,A24MNMHSFYW6B
200,A24MNMHSFYW6B,35,male,badlands_221.jpg,badlands_221.jpg,badlands_207.jpg,left,badlands_221.jpg,mountain_15.jpg,golf_course_159.jpg,bridge_19.jpg,bridge_19.jpg,bridge_19.jpg,0.0,left,1.7189,1.0,badlands,badlands_207.jpg,6.635448137,8.2123,A24MNMHSFYW6B
201,A24MNMHSFYW6B,35,male,highway_359.jpg,highway_389.jpg,highway_359.jpg,right,mountain_307.jpg,golf_course_58.jpg,highway_359.jpg,playground_103.jpg,playground_103.jpg,playground_103.jpg,2.0,left,2.4092,0.0,highway,highway_389.jpg,6.587109768,0.58,A24MNMHSFYW6B
202,A24MNMHSFYW6B,35,male,golf_course_15.jpg,golf_course_113.jpg,golf_course_15.jpg,right,badlands_54.jpg,mountain_301.jpg,golf_course_15.jpg,bridge_18.jpg,bridge_18.jpg,bridge_18.jpg,2.0,left,2.3928,0.0,golf,golf_course_113.jpg,5.628398792,4.5655,A24MNMHSFYW6B
203,A24MNMHSFYW6B,35,male,mountain_293.jpg,mountain_293.jpg,mountain_72.jpg,left,mountain_293.jpg,bridge_25.jpg,badlands_153.jpg,playground_191.jpg,playground_191.jpg,playground_191.jpg,0.0,right,4.9845,0.0,mountain,mountain_72.jpg,7.972809668,4.2132,A24MNMHSFYW6B
204,A24MNMHSFYW6B,35,male,mountain_232.jpg,mountain_3.jpg,mountain_232.jpg,right,badlands_108.jpg,golf_course_337.jpg,mountain_232.jpg,highway_342.jpg,highway_342.jpg,highway_342.jpg,2.0,right,1.6525,0.0,mountain,mountain_3.jpg,3.259818731,8.33,A24MNMHSFYW6B
205,A24MNMHSFYW6B,35,male,highway_273.jpg,highway_273.jpg,highway_384.jpg,left,golf_course_334.jpg,badlands_149.jpg,highway_273.jpg,bridge_169.jpg,bridge_169.jpg,bridge_169.jpg,2.0,right,2.5613,0.0,highway,highway_384.jpg,8.141993958,2.7176,A24MNMHSFYW6B
206,A24MNMHSFYW6B,35,male,mountain_110.jpg,mountain_110.jpg,mountain_157.jpg,left,golf_course_198.jpg,highway_159.jpg,mountain_110.jpg,badlands_193.jpg,badlands_193.jpg,badlands_193.jpg,2.0,left,1.5355,0.0,mountain,mountain_157.jpg,6.530715005,6.2366,A24MNMHSFYW6B
207,A24MNMHSFYW6B,35,male,badlands_24.jpg,badlands_24.jpg,badlands_3.jpg,left,badlands_24.jpg,bridge_179.jpg,golf_course_60.jpg,mountain_166.jpg,mountain_166.jpg,mountain_166.jpg,0.0,right,3.9365,0.0,badlands,badlands_3.jpg,4.379657603,3.1718,A24MNMHSFYW6B
208,A24MNMHSFYW6B,35,male,bridge_250.jpg,bridge_250.jpg,bridge_134.jpg,left,playground_173.jpg,bridge_250.jpg,golf_course_43.jpg,mountain_26.jpg,mountain_26.jpg,mountain_26.jpg,1.0,right,4.5407,0.0,bridge,bridge_134.jpg,5.668680765,5.2997,A24MNMHSFYW6B
209,A24MNMHSFYW6B,35,male,mountain_154.jpg,mountain_154.jpg,mountain_131.jpg,left,bridge_132.jpg,playground_41.jpg,mountain_154.jpg,golf_course_57.jpg,golf_course_57.jpg,golf_course_57.jpg,2.0,left,21.1682,0.0,mountain,mountain_131.jpg,5.491440081,6.3748,A24MNMHSFYW6B
210,A24MNMHSFYW6B,35,male,playground_60.jpg,playground_60.jpg,playground_268.jpg,left,playground_60.jpg,bridge_47.jpg,highway_149.jpg,mountain_111.jpg,mountain_111.jpg,mountain_111.jpg,0.0,left,2.4129,0.0,playground,playground_268.jpg,5.402819738,2.329,A24MNMHSFYW6B
211,A24MNMHSFYW6B,35,male,highway_177.jpg,highway_177.jpg,highway_278.jpg,left,golf_course_290.jpg,badlands_38.jpg,highway_177.jpg,mountain_228.jpg,mountain_228.jpg,mountain_228.jpg,2.0,left,2.485,1.0,highway,highway_278.jpg,7.988922457,9.0927,A24MNMHSFYW6B
212,A24MNMHSFYW6B,35,male,highway_245.jpg,highway_206.jpg,highway_245.jpg,right,golf_course_206.jpg,highway_245.jpg,bridge_78.jpg,playground_178.jpg,playground_178.jpg,playground_178.jpg,1.0,right,2.1703,1.0,highway,highway_206.jpg,5.35448137,9.0768,A24MNMHSFYW6B
213,A24MNMHSFYW6B,35,male,playground_10.jpg,playground_10.jpg,playground_12.jpg,left,playground_10.jpg,highway_331.jpg,mountain_107.jpg,bridge_80.jpg,bridge_80.jpg,bridge_80.jpg,0.0,left,1.5802,1.0,playground,playground_12.jpg,5.426988922,5.4105,A24MNMHSFYW6B
214,A24MNMHSFYW6B,35,male,highway_294.jpg,highway_294.jpg,highway_368.jpg,left,golf_course_260.jpg,highway_294.jpg,bridge_2.jpg,playground_249.jpg,playground_249.jpg,playground_249.jpg,1.0,left,1.6298,1.0,highway,highway_368.jpg,5.990936556,10.7834,A24MNMHSFYW6B
215,A24MNMHSFYW6B,35,male,bridge_202.jpg,bridge_38.jpg,bridge_202.jpg,right,mountain_21.jpg,bridge_202.jpg,playground_46.jpg,badlands_58.jpg,badlands_58.jpg,badlands_58.jpg,1.0,right,3.1995,1.0,bridge,bridge_38.jpg,6.973816717,6.0654,A24MNMHSFYW6B
216,A24MNMHSFYW6B,35,male,mountain_222.jpg,mountain_244.jpg,mountain_222.jpg,right,golf_course_185.jpg,mountain_222.jpg,playground_5.jpg,highway_263.jpg,highway_263.jpg,highway_263.jpg,1.0,right,3.8135,0.0,mountain,mountain_244.jpg,7.956696878,6.178,A24MNMHSFYW6B
217,A24MNMHSFYW6B,35,male,bridge_128.jpg,bridge_61.jpg,bridge_128.jpg,right,bridge_128.jpg,mountain_4.jpg,golf_course_102.jpg,highway_244.jpg,highway_244.jpg,highway_244.jpg,0.0,right,1.8509,0.0,bridge,bridge_61.jpg,5.781470292,5.7322,A24MNMHSFYW6B
218,A24MNMHSFYW6B,35,male,bridge_91.jpg,bridge_91.jpg,bridge_253.jpg,left,playground_108.jpg,bridge_91.jpg,badlands_226.jpg,highway_402.jpg,highway_402.jpg,highway_402.jpg,1.0,right,2.8558,0.0,bridge,bridge_253.jpg,4.959718026,12.5413,A24MNMHSFYW6B
219,A24MNMHSFYW6B,35,male,badlands_137.jpg,badlands_194.jpg,badlands_137.jpg,right,badlands_137.jpg,bridge_34.jpg,highway_227.jpg,golf_course_223.jpg,golf_course_223.jpg,golf_course_223.jpg,0.0,right,2.4362,0.0,badlands,badlands_194.jpg,3.557905337,3.0988,A24MNMHSFYW6B
220,A24MNMHSFYW6B,35,male,playground_131.jpg,playground_43.jpg,playground_131.jpg,right,badlands_100.jpg,playground_131.jpg,mountain_233.jpg,highway_25.jpg,highway_25.jpg,highway_25.jpg,1.0,right,1.8594,0.0,playground,playground_43.jpg,5.0,8.3533,A24MNMHSFYW6B
221,A24MNMHSFYW6B,35,male,mountain_156.jpg,mountain_156.jpg,mountain_295.jpg,left,mountain_156.jpg,highway_146.jpg,badlands_174.jpg,bridge_263.jpg,bridge_263.jpg,bridge_263.jpg,0.0,right,2.6647,1.0,mountain,mountain_295.jpg,4.009063444,2.41,A24MNMHSFYW6B
222,A24MNMHSFYW6B,35,male,golf_course_217.jpg,golf_course_262.jpg,golf_course_217.jpg,right,playground_52.jpg,golf_course_217.jpg,highway_196.jpg,mountain_132.jpg,mountain_132.jpg,mountain_132.jpg,1.0,right,2.2736,1.0,golf,golf_course_262.jpg,5.080563948,3.4153,A24MNMHSFYW6B
223,A24MNMHSFYW6B,35,male,bridge_172.jpg,bridge_172.jpg,bridge_163.jpg,left,highway_112.jpg,bridge_172.jpg,badlands_176.jpg,mountain_44.jpg,mountain_44.jpg,mountain_44.jpg,1.0,right,2.1296,1.0,bridge,bridge_163.jpg,6.039274924,2.9554,A24MNMHSFYW6B
224,A24MNMHSFYW6B,35,male,bridge_65.jpg,bridge_60.jpg,bridge_65.jpg,right,highway_249.jpg,bridge_65.jpg,badlands_27.jpg,mountain_84.jpg,mountain_84.jpg,mountain_84.jpg,1.0,right,1.8604,1.0,bridge,bridge_60.jpg,7.094662638,0.883,A24MNMHSFYW6B
225,A24MNMHSFYW6B,35,male,highway_93.jpg,highway_85.jpg,highway_93.jpg,right,bridge_106.jpg,playground_90.jpg,highway_93.jpg,badlands_59.jpg,badlands_59.jpg,badlands_59.jpg,2.0,right,3.613,0.0,highway,highway_85.jpg,7.449144008,0.5776,A24MNMHSFYW6B
226,A24MNMHSFYW6B,35,male,golf_course_87.jpg,golf_course_87.jpg,golf_course_161.jpg,left,highway_261.jpg,bridge_257.jpg,golf_course_87.jpg,playground_241.jpg,playground_241.jpg,playground_241.jpg,2.0,left,1.8284,1.0,golf,golf_course_161.jpg,7.996978852,2.8205,A24MNMHSFYW6B
227,A24MNMHSFYW6B,35,male,bridge_146.jpg,bridge_146.jpg,bridge_27.jpg,left,bridge_146.jpg,golf_course_321.jpg,playground_42.jpg,badlands_136.jpg,badlands_136.jpg,badlands_136.jpg,0.0,left,1.8396,0.0,bridge,bridge_27.jpg,6.047331319,5.775,A24MNMHSFYW6B
228,A24MNMHSFYW6B,35,male,golf_course_214.jpg,golf_course_317.jpg,golf_course_214.jpg,right,badlands_30.jpg,bridge_238.jpg,golf_course_214.jpg,highway_13.jpg,highway_13.jpg,highway_13.jpg,2.0,right,3.2288,1.0,golf,golf_course_317.jpg,5.298086606,1.7184,A24MNMHSFYW6B
229,A24MNMHSFYW6B,35,male,badlands_21.jpg,badlands_98.jpg,badlands_21.jpg,right,badlands_21.jpg,mountain_280.jpg,bridge_239.jpg,highway_248.jpg,highway_248.jpg,highway_248.jpg,0.0,right,1.2916,1.0,badlands,badlands_98.jpg,4.47633434,0.4648,A24MNMHSFYW6B
230,A24MNMHSFYW6B,35,male,bridge_191.jpg,bridge_191.jpg,bridge_184.jpg,left,bridge_191.jpg,mountain_66.jpg,highway_114.jpg,playground_259.jpg,playground_259.jpg,playground_259.jpg,0.0,left,1.5283,0.0,bridge,bridge_184.jpg,4.025176234,0.3055,A24MNMHSFYW6B
231,A24MNMHSFYW6B,35,male,mountain_101.jpg,mountain_221.jpg,mountain_101.jpg,right,mountain_101.jpg,bridge_230.jpg,golf_course_46.jpg,playground_70.jpg,playground_70.jpg,playground_70.jpg,0.0,right,2.3851,1.0,mountain,mountain_221.jpg,3.106747231,0.2998,A24MNMHSFYW6B
232,A24MNMHSFYW6B,35,male,playground_76.jpg,playground_22.jpg,playground_76.jpg,right,playground_76.jpg,highway_18.jpg,golf_course_258.jpg,bridge_120.jpg,bridge_120.jpg,bridge_120.jpg,0.0,right,2.2231,0.0,playground,playground_22.jpg,2.268882175,0.3019,A24MNMHSFYW6B
233,A24MNMHSFYW6B,35,male,bridge_256.jpg,bridge_211.jpg,bridge_256.jpg,right,bridge_256.jpg,badlands_95.jpg,mountain_162.jpg,playground_200.jpg,playground_200.jpg,playground_200.jpg,0.0,left,1.9989,1.0,bridge,bridge_211.jpg,1.882175227,0.3082,A24MNMHSFYW6B
234,A24MNMHSFYW6B,35,male,golf_course_78.jpg,golf_course_134.jpg,golf_course_78.jpg,right,highway_333.jpg,golf_course_78.jpg,mountain_202.jpg,playground_7.jpg,playground_7.jpg,playground_7.jpg,1.0,right,3.8118,0.0,golf,golf_course_134.jpg,2.534743202,0.4499,A24MNMHSFYW6B
235,A24MNMHSFYW6B,35,male,bridge_108.jpg,bridge_108.jpg,bridge_116.jpg,left,badlands_75.jpg,mountain_235.jpg,bridge_108.jpg,golf_course_42.jpg,golf_course_42.jpg,golf_course_42.jpg,2.0,right,1.9143,0.0,bridge,bridge_116.jpg,5.273917422,0.3119,A24MNMHSFYW6B
236,A24MNMHSFYW6B,35,male,highway_394.jpg,highway_394.jpg,highway_406.jpg,left,highway_394.jpg,mountain_214.jpg,playground_172.jpg,golf_course_319.jpg,golf_course_319.jpg,golf_course_319.jpg,0.0,right,4.3573,1.0,highway,highway_406.jpg,6.280966767,0.3006,A24MNMHSFYW6B
237,A24MNMHSFYW6B,35,male,highway_209.jpg,highway_122.jpg,highway_209.jpg,right,badlands_31.jpg,highway_209.jpg,mountain_224.jpg,golf_course_166.jpg,golf_course_166.jpg,golf_course_166.jpg,1.0,right,1.5414,1.0,highway,highway_122.jpg,7.90835851,0.2894,A24MNMHSFYW6B
238,A24MNMHSFYW6B,35,male,golf_course_331.jpg,golf_course_114.jpg,golf_course_331.jpg,right,badlands_210.jpg,golf_course_331.jpg,highway_325.jpg,playground_183.jpg,playground_183.jpg,playground_183.jpg,1.0,right,35.145,0.0,golf,golf_course_114.jpg,8.995971803,0.316,A24MNMHSFYW6B
239,A24MNMHSFYW6B,35,male,badlands_23.jpg,badlands_101.jpg,badlands_23.jpg,right,badlands_23.jpg,playground_123.jpg,bridge_251.jpg,golf_course_83.jpg,golf_course_83.jpg,golf_course_83.jpg,0.0,right,2.9608,1.0,badlands,badlands_101.jpg,7.408862034,0.1591,A24MNMHSFYW6B
240,A2HBCXAK9A7A8D,25,MALE,mountain_57.jpg,mountain_138.jpg,mountain_57.jpg,right,badlands_149.jpg,highway_336.jpg,mountain_57.jpg,golf_course_42.jpg,golf_course_42.jpg,golf_course_42.jpg,2.0,left,1.836900001,1.0,mountain,mountain_138.jpg,7.677083333,3.9612,A2HBCXAK9A7A8D
241,A2HBCXAK9A7A8D,25,MALE,badlands_221.jpg,badlands_207.jpg,badlands_221.jpg,right,badlands_221.jpg,playground_90.jpg,mountain_4.jpg,bridge_49.jpg,bridge_49.jpg,bridge_49.jpg,0.0,right,1.1752,1.0,badlands,badlands_207.jpg,7.96875,1.4443,A2HBCXAK9A7A8D
242,A2HBCXAK9A7A8D,25,MALE,golf_course_188.jpg,golf_course_160.jpg,golf_course_188.jpg,right,bridge_80.jpg,mountain_84.jpg,golf_course_188.jpg,badlands_108.jpg,badlands_108.jpg,badlands_108.jpg,2.0,left,1.2155,1.0,golf,golf_course_160.jpg,7.010416667,1.7065,A2HBCXAK9A7A8D
243,A2HBCXAK9A7A8D,25,MALE,playground_257.jpg,playground_257.jpg,playground_214.jpg,left,playground_257.jpg,mountain_214.jpg,badlands_2.jpg,highway_331.jpg,highway_331.jpg,highway_331.jpg,0.0,left,1.3171,0.0,playground,playground_214.jpg,7.791666667,0.5539,A2HBCXAK9A7A8D
244,A2HBCXAK9A7A8D,25,MALE,mountain_154.jpg,mountain_154.jpg,mountain_131.jpg,left,mountain_154.jpg,playground_249.jpg,golf_course_33.jpg,badlands_226.jpg,badlands_226.jpg,badlands_226.jpg,0.0,right,1.6452,0.0,mountain,mountain_131.jpg,6.25,1.0125,A2HBCXAK9A7A8D
245,A2HBCXAK9A7A8D,25,MALE,golf_course_195.jpg,golf_course_25.jpg,golf_course_195.jpg,right,mountain_26.jpg,golf_course_195.jpg,highway_149.jpg,bridge_158.jpg,bridge_158.jpg,bridge_158.jpg,1.0,left,1.7528,0.0,golf,golf_course_25.jpg,5.770833333,1.2283,A2HBCXAK9A7A8D
246,A2HBCXAK9A7A8D,25,MALE,playground_60.jpg,playground_244.jpg,playground_60.jpg,right,highway_99.jpg,playground_60.jpg,bridge_132.jpg,badlands_173.jpg,badlands_173.jpg,badlands_173.jpg,1.0,right,1.714099999,1.0,playground,playground_244.jpg,7.78125,2.6005,A2HBCXAK9A7A8D
247,A2HBCXAK9A7A8D,25,MALE,mountain_123.jpg,mountain_189.jpg,mountain_123.jpg,right,bridge_64.jpg,mountain_123.jpg,golf_course_264.jpg,badlands_186.jpg,badlands_186.jpg,badlands_186.jpg,1.0,left,1.451900001,1.0,mountain,mountain_189.jpg,4.510416667,2.5873,A2HBCXAK9A7A8D
248,A2HBCXAK9A7A8D,25,MALE,badlands_222.jpg,badlands_222.jpg,badlands_62.jpg,left,golf_course_320.jpg,bridge_130.jpg,badlands_222.jpg,highway_402.jpg,highway_402.jpg,highway_402.jpg,2.0,left,1.8751,1.0,badlands,badlands_62.jpg,6.65625,0.4332,A2HBCXAK9A7A8D
249,A2HBCXAK9A7A8D,25,MALE,mountain_110.jpg,mountain_110.jpg,mountain_157.jpg,left,bridge_264.jpg,golf_course_1.jpg,mountain_110.jpg,playground_103.jpg,playground_103.jpg,playground_103.jpg,2.0,left,1.0888,0.0,mountain,mountain_157.jpg,5.239583333,0.5138,A2HBCXAK9A7A8D
250,A2HBCXAK9A7A8D,25,MALE,mountain_230.jpg,mountain_230.jpg,mountain_184.jpg,left,mountain_230.jpg,playground_3.jpg,badlands_59.jpg,bridge_206.jpg,bridge_206.jpg,bridge_206.jpg,0.0,left,0.745099999,0.0,mountain,mountain_184.jpg,6.46875,0.4652,A2HBCXAK9A7A8D
251,A2HBCXAK9A7A8D,25,MALE,golf_course_15.jpg,golf_course_15.jpg,golf_course_113.jpg,left,golf_course_15.jpg,bridge_251.jpg,playground_158.jpg,badlands_35.jpg,badlands_35.jpg,badlands_35.jpg,0.0,right,1.0851,0.0,golf,golf_course_113.jpg,7.072916667,0.6603,A2HBCXAK9A7A8D
252,A2HBCXAK9A7A8D,25,MALE,badlands_52.jpg,badlands_94.jpg,badlands_52.jpg,right,badlands_52.jpg,bridge_78.jpg,golf_course_152.jpg,playground_54.jpg,playground_54.jpg,playground_54.jpg,0.0,left,0.723,0.0,badlands,badlands_94.jpg,5.5,0.2726,A2HBCXAK9A7A8D
253,A2HBCXAK9A7A8D,25,MALE,badlands_184.jpg,badlands_184.jpg,badlands_103.jpg,left,highway_37.jpg,golf_course_337.jpg,badlands_184.jpg,mountain_307.jpg,mountain_307.jpg,mountain_307.jpg,2.0,right,1.1947,1.0,badlands,badlands_103.jpg,6.364583333,0.3618,A2HBCXAK9A7A8D
254,A2HBCXAK9A7A8D,25,MALE,badlands_113.jpg,badlands_225.jpg,badlands_113.jpg,right,mountain_224.jpg,highway_114.jpg,badlands_113.jpg,bridge_218.jpg,bridge_218.jpg,bridge_218.jpg,2.0,right,1.6169,0.0,badlands,badlands_225.jpg,6.6875,0.2705,A2HBCXAK9A7A8D
255,A2HBCXAK9A7A8D,25,MALE,mountain_222.jpg,mountain_93.jpg,mountain_222.jpg,right,mountain_222.jpg,bridge_179.jpg,golf_course_57.jpg,highway_319.jpg,highway_319.jpg,highway_319.jpg,0.0,right,1.5432,1.0,mountain,mountain_93.jpg,5.5,0.29,A2HBCXAK9A7A8D
256,A2HBCXAK9A7A8D,25,MALE,playground_10.jpg,playground_10.jpg,playground_122.jpg,left,playground_10.jpg,badlands_220.jpg,mountain_132.jpg,highway_144.jpg,highway_144.jpg,highway_144.jpg,0.0,left,1.1942,0.0,playground,playground_122.jpg,7.09375,0.3002,A2HBCXAK9A7A8D
257,A2HBCXAK9A7A8D,25,MALE,mountain_156.jpg,mountain_128.jpg,mountain_156.jpg,right,playground_42.jpg,mountain_156.jpg,bridge_19.jpg,highway_75.jpg,highway_75.jpg,highway_75.jpg,1.0,right,1.3895,0.0,mountain,mountain_128.jpg,6.020833333,0.3985,A2HBCXAK9A7A8D
258,A2HBCXAK9A7A8D,25,MALE,highway_294.jpg,highway_294.jpg,highway_368.jpg,left,highway_294.jpg,golf_course_198.jpg,playground_5.jpg,bridge_47.jpg,bridge_47.jpg,bridge_47.jpg,0.0,left,0.1606,1.0,highway,highway_368.jpg,4.666666667,0.3305,A2HBCXAK9A7A8D
259,A2HBCXAK9A7A8D,25,MALE,playground_240.jpg,playground_40.jpg,playground_240.jpg,right,playground_240.jpg,golf_course_290.jpg,badlands_30.jpg,highway_342.jpg,highway_342.jpg,highway_342.jpg,0.0,right,0.0075,1.0,playground,playground_40.jpg,6.177083333,0.3304,A2HBCXAK9A7A8D
260,A2HBCXAK9A7A8D,25,MALE,mountain_101.jpg,mountain_101.jpg,mountain_171.jpg,left,bridge_239.jpg,highway_301.jpg,mountain_101.jpg,playground_13.jpg,playground_13.jpg,playground_13.jpg,2.0,right,0.1293,0.0,mountain,mountain_171.jpg,4.59375,0.8588,A2HBCXAK9A7A8D
261,A2HBCXAK9A7A8D,25,MALE,badlands_137.jpg,badlands_137.jpg,badlands_139.jpg,left,badlands_137.jpg,highway_23.jpg,bridge_25.jpg,golf_course_316.jpg,golf_course_316.jpg,golf_course_316.jpg,0.0,right,0.1761,1.0,badlands,badlands_139.jpg,4.59375,0.2505,A2HBCXAK9A7A8D
262,A2HBCXAK9A7A8D,25,MALE,highway_394.jpg,highway_394.jpg,highway_406.jpg,left,bridge_21.jpg,golf_course_325.jpg,highway_394.jpg,badlands_95.jpg,badlands_95.jpg,badlands_95.jpg,2.0,left,0.0072,1.0,highway,highway_406.jpg,4.71875,0.1724,A2HBCXAK9A7A8D
263,A2HBCXAK9A7A8D,25,MALE,golf_course_87.jpg,golf_course_130.jpg,golf_course_87.jpg,right,golf_course_87.jpg,mountain_115.jpg,playground_200.jpg,badlands_143.jpg,badlands_143.jpg,badlands_143.jpg,0.0,right,0.166799999,0.0,golf,golf_course_130.jpg,6.3125,0.587099999,A2HBCXAK9A7A8D
264,A2HBCXAK9A7A8D,25,MALE,playground_144.jpg,playground_144.jpg,playground_65.jpg,left,highway_325.jpg,bridge_34.jpg,playground_144.jpg,badlands_54.jpg,badlands_54.jpg,badlands_54.jpg,2.0,right,0.0071,1.0,playground,playground_65.jpg,7.114583333,0.3419,A2HBCXAK9A7A8D
265,A2HBCXAK9A7A8D,25,MALE,playground_131.jpg,playground_131.jpg,playground_164.jpg,left,golf_course_43.jpg,playground_131.jpg,mountain_24.jpg,highway_179.jpg,highway_179.jpg,highway_179.jpg,1.0,right,0.0862,1.0,playground,playground_164.jpg,7.59375,0.3392,A2HBCXAK9A7A8D
266,A2HBCXAK9A7A8D,25,MALE,highway_245.jpg,highway_245.jpg,highway_206.jpg,left,mountain_71.jpg,highway_245.jpg,playground_193.jpg,golf_course_159.jpg,golf_course_159.jpg,golf_course_159.jpg,1.0,left,0.009,1.0,highway,highway_206.jpg,5.416666667,0.2949,A2HBCXAK9A7A8D
267,A2HBCXAK9A7A8D,25,MALE,mountain_232.jpg,mountain_232.jpg,mountain_3.jpg,left,mountain_232.jpg,playground_191.jpg,highway_234.jpg,badlands_166.jpg,badlands_166.jpg,badlands_166.jpg,0.0,right,0.007400001,0.0,mountain,mountain_3.jpg,7.333333333,0.3397,A2HBCXAK9A7A8D
268,A2HBCXAK9A7A8D,25,MALE,golf_course_214.jpg,golf_course_317.jpg,golf_course_214.jpg,right,playground_52.jpg,golf_course_214.jpg,highway_249.jpg,mountain_44.jpg,mountain_44.jpg,mountain_44.jpg,1.0,right,0.092099999,1.0,golf,golf_course_317.jpg,6.583333333,0.3461,A2HBCXAK9A7A8D
269,A2HBCXAK9A7A8D,25,MALE,highway_415.jpg,highway_174.jpg,highway_415.jpg,right,highway_415.jpg,playground_178.jpg,golf_course_185.jpg,bridge_230.jpg,bridge_230.jpg,bridge_230.jpg,0.0,right,1.188400001,1.0,highway,highway_174.jpg,6.760416667,0.3301,A2HBCXAK9A7A8D
270,A2HBCXAK9A7A8D,25,MALE,bridge_172.jpg,bridge_172.jpg,bridge_17.jpg,left,highway_112.jpg,badlands_174.jpg,bridge_172.jpg,mountain_301.jpg,mountain_301.jpg,mountain_301.jpg,2.0,left,0.0071,0.0,bridge,bridge_17.jpg,7.614583333,0.2476,A2HBCXAK9A7A8D
271,A2HBCXAK9A7A8D,25,MALE,bridge_146.jpg,bridge_146.jpg,bridge_27.jpg,left,badlands_218.jpg,bridge_146.jpg,mountain_105.jpg,playground_116.jpg,playground_116.jpg,playground_116.jpg,1.0,right,0.0069,0.0,bridge,bridge_27.jpg,6.489583333,0.3284,A2HBCXAK9A7A8D
272,A2HBCXAK9A7A8D,25,MALE,bridge_256.jpg,bridge_54.jpg,bridge_256.jpg,right,bridge_256.jpg,highway_159.jpg,mountain_166.jpg,playground_168.jpg,playground_168.jpg,playground_168.jpg,0.0,right,0.167400001,0.0,bridge,bridge_54.jpg,5.729166667,0.2139,A2HBCXAK9A7A8D
273,A2HBCXAK9A7A8D,25,MALE,golf_course_193.jpg,golf_course_235.jpg,golf_course_193.jpg,right,golf_course_193.jpg,mountain_233.jpg,playground_70.jpg,badlands_64.jpg,badlands_64.jpg,badlands_64.jpg,0.0,right,0.007099999,0.0,golf,golf_course_235.jpg,7.270833333,0.4039,A2HBCXAK9A7A8D
274,A2HBCXAK9A7A8D,25,MALE,highway_359.jpg,highway_359.jpg,highway_389.jpg,left,bridge_238.jpg,highway_359.jpg,badlands_45.jpg,mountain_104.jpg,mountain_104.jpg,mountain_104.jpg,1.0,right,0.085299999,0.0,highway,highway_389.jpg,5.520833333,0.422,A2HBCXAK9A7A8D
275,A2HBCXAK9A7A8D,25,MALE,highway_273.jpg,highway_273.jpg,highway_171.jpg,left,golf_course_52.jpg,mountain_111.jpg,highway_273.jpg,badlands_193.jpg,badlands_193.jpg,badlands_193.jpg,2.0,left,0.0067,1.0,highway,highway_171.jpg,7.583333333,0.263200001,A2HBCXAK9A7A8D
276,A2HBCXAK9A7A8D,25,MALE,highway_177.jpg,highway_278.jpg,highway_177.jpg,right,mountain_160.jpg,badlands_13.jpg,highway_177.jpg,golf_course_21.jpg,golf_course_21.jpg,golf_course_21.jpg,2.0,left,1.067799999,1.0,highway,highway_278.jpg,5.46875,0.388799999,A2HBCXAK9A7A8D
277,A2HBCXAK9A7A8D,25,MALE,bridge_202.jpg,bridge_38.jpg,bridge_202.jpg,right,badlands_89.jpg,bridge_202.jpg,mountain_12.jpg,highway_219.jpg,highway_219.jpg,highway_219.jpg,1.0,right,0.007,1.0,bridge,bridge_38.jpg,4.46875,0.2463,A2HBCXAK9A7A8D
278,A2HBCXAK9A7A8D,25,MALE,badlands_23.jpg,badlands_101.jpg,badlands_23.jpg,right,playground_264.jpg,badlands_23.jpg,golf_course_27.jpg,mountain_126.jpg,mountain_126.jpg,mountain_126.jpg,1.0,left,0.1628,1.0,badlands,badlands_101.jpg,7.083333333,0.2924,A2HBCXAK9A7A8D
279,A2HBCXAK9A7A8D,25,MALE,bridge_91.jpg,bridge_91.jpg,bridge_253.jpg,left,bridge_91.jpg,playground_183.jpg,highway_12.jpg,badlands_152.jpg,badlands_152.jpg,badlands_152.jpg,0.0,left,0.0072,0.0,bridge,bridge_253.jpg,7.604166667,0.265700001,A2HBCXAK9A7A8D
280,A2HBCXAK9A7A8D,25,MALE,golf_course_78.jpg,golf_course_78.jpg,golf_course_134.jpg,left,mountain_292.jpg,golf_course_78.jpg,highway_244.jpg,badlands_58.jpg,badlands_58.jpg,badlands_58.jpg,1.0,right,0.0073,0.0,golf,golf_course_134.jpg,5.572916667,0.3301,A2HBCXAK9A7A8D
281,A2HBCXAK9A7A8D,25,MALE,highway_156.jpg,highway_160.jpg,highway_156.jpg,right,badlands_130.jpg,golf_course_156.jpg,highway_156.jpg,bridge_162.jpg,bridge_162.jpg,bridge_162.jpg,2.0,right,0.0075,0.0,highway,highway_160.jpg,5.520833333,0.1675,A2HBCXAK9A7A8D
282,A2HBCXAK9A7A8D,25,MALE,playground_76.jpg,playground_72.jpg,playground_76.jpg,right,golf_course_334.jpg,playground_76.jpg,mountain_212.jpg,highway_196.jpg,highway_196.jpg,highway_196.jpg,1.0,right,0.0069,1.0,playground,playground_72.jpg,6.927083333,0.2716,A2HBCXAK9A7A8D
283,A2HBCXAK9A7A8D,25,MALE,badlands_70.jpg,badlands_102.jpg,badlands_70.jpg,right,playground_108.jpg,badlands_70.jpg,golf_course_166.jpg,bridge_9.jpg,bridge_9.jpg,bridge_9.jpg,1.0,left,0.006900001,0.0,badlands,badlands_102.jpg,7.71875,0.1718,A2HBCXAK9A7A8D
284,A2HBCXAK9A7A8D,25,MALE,badlands_21.jpg,badlands_98.jpg,badlands_21.jpg,right,badlands_21.jpg,bridge_204.jpg,playground_77.jpg,highway_18.jpg,highway_18.jpg,highway_18.jpg,0.0,right,0.006900001,1.0,badlands,badlands_98.jpg,7.3125,0.1677,A2HBCXAK9A7A8D
285,A2HBCXAK9A7A8D,25,MALE,golf_course_217.jpg,golf_course_217.jpg,golf_course_262.jpg,left,golf_course_217.jpg,mountain_179.jpg,badlands_100.jpg,playground_66.jpg,playground_66.jpg,playground_66.jpg,0.0,right,0.0067,1.0,golf,golf_course_262.jpg,5.3125,0.2411,A2HBCXAK9A7A8D
286,A2HBCXAK9A7A8D,25,MALE,playground_219.jpg,playground_219.jpg,playground_205.jpg,left,playground_219.jpg,badlands_200.jpg,highway_357.jpg,bridge_103.jpg,bridge_103.jpg,bridge_103.jpg,0.0,right,0.0069,1.0,playground,playground_205.jpg,5.572916667,0.1772,A2HBCXAK9A7A8D
287,A2HBCXAK9A7A8D,25,MALE,highway_93.jpg,highway_93.jpg,highway_369.jpg,left,badlands_216.jpg,highway_93.jpg,mountain_66.jpg,playground_259.jpg,playground_259.jpg,playground_259.jpg,1.0,left,0.0841,1.0,highway,highway_369.jpg,6.333333333,0.1867,A2HBCXAK9A7A8D
288,A2HBCXAK9A7A8D,25,MALE,bridge_191.jpg,bridge_191.jpg,bridge_184.jpg,left,mountain_15.jpg,golf_course_319.jpg,bridge_191.jpg,playground_209.jpg,playground_209.jpg,playground_209.jpg,2.0,right,0.0076,0.0,bridge,bridge_184.jpg,6.9375,0.176,A2HBCXAK9A7A8D
289,A2HBCXAK9A7A8D,25,MALE,golf_course_309.jpg,golf_course_309.jpg,golf_course_209.jpg,left,badlands_210.jpg,mountain_107.jpg,golf_course_309.jpg,playground_173.jpg,playground_173.jpg,playground_173.jpg,2.0,left,0.006799999,1.0,golf,golf_course_209.jpg,5.333333333,1.838,A2HBCXAK9A7A8D
290,A2HBCXAK9A7A8D,25,MALE,bridge_250.jpg,bridge_250.jpg,bridge_134.jpg,left,highway_263.jpg,bridge_250.jpg,badlands_38.jpg,playground_235.jpg,playground_235.jpg,playground_235.jpg,1.0,left,0.0947,0.0,bridge,bridge_134.jpg,4.416666667,0.1766,A2HBCXAK9A7A8D
291,A2HBCXAK9A7A8D,25,MALE,mountain_293.jpg,mountain_293.jpg,mountain_72.jpg,left,bridge_26.jpg,golf_course_122.jpg,mountain_293.jpg,badlands_153.jpg,badlands_153.jpg,badlands_153.jpg,2.0,right,0.0986,0.0,mountain,mountain_72.jpg,4.927083333,0.2505,A2HBCXAK9A7A8D
292,A2HBCXAK9A7A8D,25,MALE,highway_209.jpg,highway_209.jpg,highway_314.jpg,left,bridge_257.jpg,highway_209.jpg,playground_30.jpg,badlands_104.jpg,badlands_104.jpg,badlands_104.jpg,1.0,right,0.1601,0.0,highway,highway_314.jpg,5.6875,0.1681,A2HBCXAK9A7A8D
293,A2HBCXAK9A7A8D,25,MALE,playground_145.jpg,playground_229.jpg,playground_145.jpg,right,playground_145.jpg,badlands_75.jpg,bridge_169.jpg,mountain_235.jpg,mountain_235.jpg,mountain_235.jpg,0.0,left,0.0068,0.0,playground,playground_229.jpg,6.302083333,0.2715,A2HBCXAK9A7A8D
294,A2HBCXAK9A7A8D,25,MALE,bridge_128.jpg,bridge_128.jpg,bridge_244.jpg,left,bridge_128.jpg,playground_80.jpg,highway_147.jpg,badlands_177.jpg,badlands_177.jpg,badlands_177.jpg,0.0,right,0.0067,1.0,bridge,bridge_244.jpg,6.458333333,0.1026,A2HBCXAK9A7A8D
295,A2HBCXAK9A7A8D,25,MALE,playground_117.jpg,playground_117.jpg,playground_167.jpg,left,playground_117.jpg,badlands_27.jpg,highway_333.jpg,golf_course_173.jpg,golf_course_173.jpg,golf_course_173.jpg,0.0,left,0.0075,0.0,playground,playground_167.jpg,4.802083333,0.2816,A2HBCXAK9A7A8D
296,A2HBCXAK9A7A8D,25,MALE,golf_course_331.jpg,golf_course_331.jpg,golf_course_26.jpg,left,bridge_124.jpg,golf_course_331.jpg,mountain_34.jpg,highway_13.jpg,highway_13.jpg,highway_13.jpg,1.0,left,0.007099999,1.0,golf,golf_course_26.jpg,5.135416667,0.2544,A2HBCXAK9A7A8D
297,A2HBCXAK9A7A8D,25,MALE,badlands_24.jpg,badlands_3.jpg,badlands_24.jpg,right,highway_398.jpg,badlands_24.jpg,playground_95.jpg,mountain_204.jpg,mountain_204.jpg,mountain_204.jpg,1.0,left,0.0095,0.0,badlands,badlands_3.jpg,5.989583333,0.1703,A2HBCXAK9A7A8D
298,A2HBCXAK9A7A8D,25,MALE,bridge_108.jpg,bridge_116.jpg,bridge_108.jpg,right,highway_25.jpg,playground_241.jpg,bridge_108.jpg,golf_course_60.jpg,golf_course_60.jpg,golf_course_60.jpg,2.0,left,0.1623,0.0,bridge,bridge_116.jpg,3.8125,0.6185,A2HBCXAK9A7A8D
299,A2HBCXAK9A7A8D,25,MALE,bridge_65.jpg,bridge_60.jpg,bridge_65.jpg,right,bridge_65.jpg,mountain_91.jpg,badlands_176.jpg,highway_88.jpg,highway_88.jpg,highway_88.jpg,0.0,left,0.0068,1.0,bridge,bridge_60.jpg,4.489583333,0.244599999,A2HBCXAK9A7A8D
300,A256QIR5XUIP8K,29,Female,mountain_154.jpg,mountain_131.jpg,mountain_154.jpg,right,mountain_154.jpg,badlands_35.jpg,bridge_120.jpg,highway_117.jpg,highway_117.jpg,highway_117.jpg,0.0,left,2.125,0.0,mountain,mountain_131.jpg,4.030661079,8.025,A256QIR5XUIP8K
301,A256QIR5XUIP8K,29,Female,golf_course_309.jpg,golf_course_209.jpg,golf_course_309.jpg,right,mountain_105.jpg,golf_course_309.jpg,playground_70.jpg,badlands_210.jpg,badlands_210.jpg,badlands_210.jpg,1.0,right,1.852,1.0,golf,golf_course_209.jpg,6.696168259,4.891,A256QIR5XUIP8K
302,A256QIR5XUIP8K,29,Female,highway_93.jpg,highway_369.jpg,highway_93.jpg,right,highway_93.jpg,mountain_111.jpg,playground_3.jpg,bridge_80.jpg,bridge_80.jpg,bridge_80.jpg,0.0,right,2.229,1.0,highway,highway_369.jpg,6.789877496,1.599,A256QIR5XUIP8K
303,A256QIR5XUIP8K,29,Female,playground_76.jpg,playground_22.jpg,playground_76.jpg,right,playground_76.jpg,golf_course_43.jpg,badlands_64.jpg,mountain_233.jpg,mountain_233.jpg,mountain_233.jpg,0.0,right,1.627,0.0,playground,playground_22.jpg,8.299637422,2.413,A256QIR5XUIP8K
304,A256QIR5XUIP8K,29,Female,highway_415.jpg,highway_60.jpg,highway_415.jpg,right,bridge_48.jpg,highway_415.jpg,golf_course_334.jpg,badlands_136.jpg,badlands_136.jpg,badlands_136.jpg,1.0,left,1.976,0.0,highway,highway_60.jpg,8.903541393,3.86,A256QIR5XUIP8K
305,A256QIR5XUIP8K,29,Female,golf_course_87.jpg,golf_course_87.jpg,golf_course_161.jpg,left,playground_30.jpg,golf_course_87.jpg,badlands_173.jpg,highway_196.jpg,highway_196.jpg,highway_196.jpg,1.0,left,0.008,1.0,golf,golf_course_161.jpg,8.903541393,2.859,A256QIR5XUIP8K
306,A256QIR5XUIP8K,29,Female,bridge_65.jpg,bridge_60.jpg,bridge_65.jpg,right,playground_124.jpg,badlands_143.jpg,bridge_65.jpg,golf_course_122.jpg,golf_course_122.jpg,golf_course_122.jpg,2.0,left,0.011,1.0,bridge,bridge_60.jpg,8.903541393,0.282,A256QIR5XUIP8K
307,A256QIR5XUIP8K,29,Female,golf_course_78.jpg,golf_course_101.jpg,golf_course_78.jpg,right,badlands_200.jpg,golf_course_78.jpg,mountain_292.jpg,playground_41.jpg,playground_41.jpg,playground_41.jpg,1.0,right,0.533,1.0,golf,golf_course_101.jpg,8.903541393,0.879,A256QIR5XUIP8K
308,A256QIR5XUIP8K,29,Female,golf_course_193.jpg,golf_course_193.jpg,golf_course_235.jpg,left,golf_course_193.jpg,badlands_153.jpg,highway_13.jpg,mountain_66.jpg,mountain_66.jpg,mountain_66.jpg,0.0,left,0.009,0.0,golf,golf_course_235.jpg,8.903541393,0.306,A256QIR5XUIP8K
309,A256QIR5XUIP8K,29,Female,badlands_21.jpg,badlands_21.jpg,badlands_1.jpg,left,badlands_21.jpg,playground_7.jpg,golf_course_88.jpg,highway_114.jpg,highway_114.jpg,highway_114.jpg,0.0,right,0.008,0.0,badlands,badlands_1.jpg,8.903541393,0.302,A256QIR5XUIP8K
310,A256QIR5XUIP8K,29,Female,badlands_23.jpg,badlands_114.jpg,badlands_23.jpg,right,badlands_23.jpg,golf_course_1.jpg,mountain_24.jpg,highway_112.jpg,highway_112.jpg,highway_112.jpg,0.0,right,0.011,0.0,badlands,badlands_114.jpg,8.903541393,0.273,A256QIR5XUIP8K
311,A256QIR5XUIP8K,29,Female,playground_144.jpg,playground_144.jpg,playground_137.jpg,left,playground_144.jpg,golf_course_46.jpg,badlands_130.jpg,bridge_25.jpg,bridge_25.jpg,bridge_25.jpg,0.0,left,0.012,0.0,playground,playground_137.jpg,8.903541393,0.275,A256QIR5XUIP8K
312,A256QIR5XUIP8K,29,Female,playground_145.jpg,playground_229.jpg,playground_145.jpg,right,highway_357.jpg,playground_145.jpg,bridge_182.jpg,mountain_179.jpg,mountain_179.jpg,mountain_179.jpg,1.0,left,0.266,0.0,playground,playground_229.jpg,8.903541393,0.263,A256QIR5XUIP8K
313,A256QIR5XUIP8K,29,Female,badlands_184.jpg,badlands_228.jpg,badlands_184.jpg,right,playground_5.jpg,badlands_184.jpg,mountain_224.jpg,bridge_251.jpg,bridge_251.jpg,bridge_251.jpg,1.0,left,0.011,0.0,badlands,badlands_228.jpg,8.903541393,0.294,A256QIR5XUIP8K
314,A256QIR5XUIP8K,29,Female,golf_course_188.jpg,golf_course_188.jpg,golf_course_160.jpg,left,golf_course_188.jpg,badlands_216.jpg,mountain_107.jpg,playground_168.jpg,playground_168.jpg,playground_168.jpg,0.0,right,0.008,1.0,golf,golf_course_160.jpg,8.903541393,0.287,A256QIR5XUIP8K
315,A256QIR5XUIP8K,29,Female,mountain_232.jpg,mountain_54.jpg,mountain_232.jpg,right,bridge_106.jpg,badlands_177.jpg,mountain_232.jpg,highway_166.jpg,highway_166.jpg,highway_166.jpg,2.0,left,0.012,1.0,mountain,mountain_54.jpg,8.903541393,0.294,A256QIR5XUIP8K
316,A256QIR5XUIP8K,29,Female,highway_359.jpg,highway_359.jpg,highway_379.jpg,left,highway_359.jpg,playground_66.jpg,bridge_263.jpg,mountain_132.jpg,mountain_132.jpg,mountain_132.jpg,0.0,left,0.008,1.0,highway,highway_379.jpg,8.903541393,0.81,A256QIR5XUIP8K
317,A256QIR5XUIP8K,29,Female,golf_course_195.jpg,golf_course_25.jpg,golf_course_195.jpg,right,badlands_220.jpg,playground_36.jpg,golf_course_195.jpg,bridge_34.jpg,bridge_34.jpg,bridge_34.jpg,2.0,right,0.008,0.0,golf,golf_course_25.jpg,8.903541393,0.299,A256QIR5XUIP8K
318,A256QIR5XUIP8K,29,Female,highway_177.jpg,highway_177.jpg,highway_278.jpg,left,bridge_264.jpg,playground_183.jpg,highway_177.jpg,mountain_68.jpg,mountain_68.jpg,mountain_68.jpg,2.0,right,0.007,1.0,highway,highway_278.jpg,8.903541393,0.292,A256QIR5XUIP8K
319,A256QIR5XUIP8K,29,Female,bridge_250.jpg,bridge_250.jpg,bridge_205.jpg,left,mountain_44.jpg,bridge_250.jpg,highway_25.jpg,badlands_226.jpg,badlands_226.jpg,badlands_226.jpg,1.0,left,6.467,1.0,bridge,bridge_205.jpg,8.903541393,0.293,A256QIR5XUIP8K
320,A256QIR5XUIP8K,29,Female,playground_117.jpg,playground_127.jpg,playground_117.jpg,right,playground_117.jpg,bridge_10.jpg,badlands_104.jpg,golf_course_229.jpg,golf_course_229.jpg,golf_course_229.jpg,0.0,left,0.009,1.0,playground,playground_127.jpg,8.903541393,0.521,A256QIR5XUIP8K
321,A256QIR5XUIP8K,29,Female,bridge_256.jpg,bridge_256.jpg,bridge_54.jpg,left,playground_172.jpg,highway_342.jpg,bridge_256.jpg,mountain_34.jpg,mountain_34.jpg,mountain_34.jpg,2.0,right,0.007,0.0,bridge,bridge_54.jpg,8.903541393,0.549,A256QIR5XUIP8K
322,A256QIR5XUIP8K,29,Female,highway_273.jpg,highway_273.jpg,highway_384.jpg,left,playground_42.jpg,highway_273.jpg,mountain_166.jpg,bridge_238.jpg,bridge_238.jpg,bridge_238.jpg,1.0,left,0.006,0.0,highway,highway_384.jpg,8.903541393,0.303,A256QIR5XUIP8K
323,A256QIR5XUIP8K,29,Female,mountain_101.jpg,mountain_171.jpg,mountain_101.jpg,right,bridge_162.jpg,badlands_2.jpg,mountain_101.jpg,highway_227.jpg,highway_227.jpg,highway_227.jpg,2.0,right,0.009,0.0,mountain,mountain_171.jpg,8.903541393,0.289,A256QIR5XUIP8K
324,A256QIR5XUIP8K,29,Female,badlands_52.jpg,badlands_63.jpg,badlands_52.jpg,right,bridge_19.jpg,mountain_301.jpg,badlands_52.jpg,golf_course_223.jpg,golf_course_223.jpg,golf_course_223.jpg,2.0,left,0.007,1.0,badlands,badlands_63.jpg,8.903541393,0.329,A256QIR5XUIP8K
325,A256QIR5XUIP8K,29,Female,golf_course_214.jpg,golf_course_317.jpg,golf_course_214.jpg,right,badlands_186.jpg,golf_course_214.jpg,highway_331.jpg,bridge_158.jpg,bridge_158.jpg,bridge_158.jpg,1.0,left,0.009,1.0,golf,golf_course_317.jpg,8.903541393,0.301,A256QIR5XUIP8K
326,A256QIR5XUIP8K,29,Female,mountain_156.jpg,mountain_128.jpg,mountain_156.jpg,right,mountain_156.jpg,badlands_99.jpg,golf_course_173.jpg,playground_46.jpg,playground_46.jpg,playground_46.jpg,0.0,left,0.007,0.0,mountain,mountain_128.jpg,8.903541393,0.289,A256QIR5XUIP8K
327,A256QIR5XUIP8K,29,Female,playground_219.jpg,playground_219.jpg,playground_205.jpg,left,mountain_204.jpg,badlands_149.jpg,playground_219.jpg,golf_course_329.jpg,golf_course_329.jpg,golf_course_329.jpg,2.0,right,0.01,1.0,playground,playground_205.jpg,8.903541393,0.318,A256QIR5XUIP8K
328,A256QIR5XUIP8K,29,Female,golf_course_15.jpg,golf_course_113.jpg,golf_course_15.jpg,right,golf_course_15.jpg,mountain_84.jpg,highway_244.jpg,badlands_13.jpg,badlands_13.jpg,badlands_13.jpg,0.0,left,0.996,0.0,golf,golf_course_113.jpg,8.903541393,0.292,A256QIR5XUIP8K
329,A256QIR5XUIP8K,29,Female,highway_156.jpg,highway_160.jpg,highway_156.jpg,right,mountain_26.jpg,badlands_218.jpg,highway_156.jpg,bridge_52.jpg,bridge_52.jpg,bridge_52.jpg,2.0,right,20.861,0.0,highway,highway_160.jpg,8.903541393,0.304,A256QIR5XUIP8K
330,A256QIR5XUIP8K,29,Female,golf_course_331.jpg,golf_course_331.jpg,golf_course_26.jpg,left,highway_263.jpg,playground_181.jpg,golf_course_331.jpg,bridge_124.jpg,bridge_124.jpg,bridge_124.jpg,2.0,left,1.864,1.0,golf,golf_course_26.jpg,8.903541393,0.597,A256QIR5XUIP8K
331,A256QIR5XUIP8K,29,Female,mountain_230.jpg,mountain_97.jpg,mountain_230.jpg,right,mountain_230.jpg,badlands_30.jpg,golf_course_321.jpg,playground_6.jpg,playground_6.jpg,playground_6.jpg,0.0,right,2.528,1.0,mountain,mountain_97.jpg,8.903541393,0.545,A256QIR5XUIP8K
332,A256QIR5XUIP8K,29,Female,badlands_113.jpg,badlands_225.jpg,badlands_113.jpg,right,golf_course_319.jpg,bridge_259.jpg,badlands_113.jpg,playground_52.jpg,playground_52.jpg,playground_52.jpg,2.0,left,2.835,0.0,badlands,badlands_225.jpg,8.903541393,0.559,A256QIR5XUIP8K
333,A256QIR5XUIP8K,29,Female,bridge_146.jpg,bridge_146.jpg,bridge_121.jpg,left,mountain_253.jpg,bridge_146.jpg,golf_course_102.jpg,playground_209.jpg,playground_209.jpg,playground_209.jpg,1.0,left,2.017,1.0,bridge,bridge_121.jpg,8.903541393,0.302,A256QIR5XUIP8K
334,A256QIR5XUIP8K,29,Female,mountain_57.jpg,mountain_57.jpg,mountain_193.jpg,left,mountain_57.jpg,golf_course_152.jpg,badlands_174.jpg,highway_249.jpg,highway_249.jpg,highway_249.jpg,0.0,left,2.082,0.0,mountain,mountain_193.jpg,8.903541393,0.534,A256QIR5XUIP8K
335,A256QIR5XUIP8K,29,Female,bridge_91.jpg,bridge_82.jpg,bridge_91.jpg,right,mountain_214.jpg,bridge_91.jpg,highway_179.jpg,golf_course_27.jpg,golf_course_27.jpg,golf_course_27.jpg,1.0,right,2.748,1.0,bridge,bridge_82.jpg,8.903541393,0.29,A256QIR5XUIP8K
336,A256QIR5XUIP8K,29,Female,highway_294.jpg,highway_368.jpg,highway_294.jpg,right,badlands_193.jpg,golf_course_83.jpg,highway_294.jpg,bridge_123.jpg,bridge_123.jpg,bridge_123.jpg,2.0,left,2.832,1.0,highway,highway_368.jpg,8.903541393,0.299,A256QIR5XUIP8K
337,A256QIR5XUIP8K,29,Female,badlands_137.jpg,badlands_139.jpg,badlands_137.jpg,right,badlands_137.jpg,playground_249.jpg,bridge_64.jpg,golf_course_260.jpg,golf_course_260.jpg,golf_course_260.jpg,0.0,left,1.361,1.0,badlands,badlands_139.jpg,8.903541393,0.849,A256QIR5XUIP8K
338,A256QIR5XUIP8K,29,Female,bridge_128.jpg,bridge_128.jpg,bridge_244.jpg,left,mountain_296.jpg,bridge_128.jpg,playground_108.jpg,highway_11.jpg,highway_11.jpg,highway_11.jpg,1.0,right,6.31,1.0,bridge,bridge_244.jpg,8.903541393,0.819,A256QIR5XUIP8K
339,A256QIR5XUIP8K,29,Female,playground_10.jpg,playground_10.jpg,playground_122.jpg,left,bridge_130.jpg,playground_10.jpg,mountain_212.jpg,golf_course_21.jpg,golf_course_21.jpg,golf_course_21.jpg,1.0,left,1.78,0.0,playground,playground_122.jpg,8.903541393,0.555,A256QIR5XUIP8K
340,A256QIR5XUIP8K,29,Female,highway_209.jpg,highway_209.jpg,highway_314.jpg,left,highway_209.jpg,golf_course_185.jpg,playground_193.jpg,bridge_179.jpg,bridge_179.jpg,bridge_179.jpg,0.0,left,2.549,0.0,highway,highway_314.jpg,8.903541393,0.272,A256QIR5XUIP8K
341,A256QIR5XUIP8K,29,Female,badlands_24.jpg,badlands_3.jpg,badlands_24.jpg,right,badlands_24.jpg,highway_398.jpg,playground_241.jpg,bridge_49.jpg,bridge_49.jpg,bridge_49.jpg,0.0,right,1.876,0.0,badlands,badlands_3.jpg,8.903541393,0.275,A256QIR5XUIP8K
342,A256QIR5XUIP8K,29,Female,playground_131.jpg,playground_131.jpg,playground_43.jpg,left,playground_131.jpg,highway_336.jpg,golf_course_325.jpg,badlands_176.jpg,badlands_176.jpg,badlands_176.jpg,0.0,left,2.381,0.0,playground,playground_43.jpg,8.903541393,0.296,A256QIR5XUIP8K
343,A256QIR5XUIP8K,29,Female,mountain_293.jpg,mountain_293.jpg,mountain_72.jpg,left,mountain_293.jpg,playground_178.jpg,badlands_38.jpg,bridge_204.jpg,bridge_204.jpg,bridge_204.jpg,0.0,right,2.268,0.0,mountain,mountain_72.jpg,8.903541393,0.584,A256QIR5XUIP8K
344,A256QIR5XUIP8K,29,Female,bridge_108.jpg,bridge_116.jpg,bridge_108.jpg,right,bridge_108.jpg,badlands_27.jpg,golf_course_159.jpg,playground_116.jpg,playground_116.jpg,playground_116.jpg,0.0,left,2.04,0.0,bridge,bridge_116.jpg,8.903541393,0.579,A256QIR5XUIP8K
345,A256QIR5XUIP8K,29,Female,badlands_70.jpg,badlands_119.jpg,badlands_70.jpg,right,badlands_70.jpg,golf_course_204.jpg,bridge_9.jpg,mountain_160.jpg,mountain_160.jpg,mountain_160.jpg,0.0,right,1.738,1.0,badlands,badlands_119.jpg,8.903541393,0.521,A256QIR5XUIP8K
346,A256QIR5XUIP8K,29,Female,bridge_202.jpg,bridge_202.jpg,bridge_38.jpg,left,golf_course_337.jpg,bridge_202.jpg,highway_12.jpg,mountain_202.jpg,mountain_202.jpg,mountain_202.jpg,1.0,left,0.009,1.0,bridge,bridge_38.jpg,5.175996196,1.633,A256QIR5XUIP8K
347,A256QIR5XUIP8K,29,Female,mountain_110.jpg,mountain_157.jpg,mountain_110.jpg,right,badlands_95.jpg,golf_course_33.jpg,mountain_110.jpg,highway_149.jpg,highway_149.jpg,highway_149.jpg,2.0,right,1.535,0.0,mountain,mountain_157.jpg,5.175996196,0.303,A256QIR5XUIP8K
348,A256QIR5XUIP8K,29,Female,badlands_222.jpg,badlands_222.jpg,badlands_34.jpg,left,highway_144.jpg,badlands_222.jpg,playground_80.jpg,bridge_2.jpg,bridge_2.jpg,bridge_2.jpg,1.0,left,1.632,0.0,badlands,badlands_34.jpg,5.175996196,1.041,A256QIR5XUIP8K
349,A256QIR5XUIP8K,29,Female,mountain_123.jpg,mountain_189.jpg,mountain_123.jpg,right,highway_175.jpg,bridge_47.jpg,mountain_123.jpg,playground_90.jpg,playground_90.jpg,playground_90.jpg,2.0,right,1.841,1.0,mountain,mountain_189.jpg,5.175996196,0.273,A256QIR5XUIP8K
350,A256QIR5XUIP8K,29,Female,highway_245.jpg,highway_134.jpg,highway_245.jpg,right,mountain_161.jpg,playground_173.jpg,highway_245.jpg,bridge_218.jpg,bridge_218.jpg,bridge_218.jpg,2.0,left,2.061,0.0,highway,highway_134.jpg,5.175996196,0.273,A256QIR5XUIP8K
351,A256QIR5XUIP8K,29,Female,bridge_191.jpg,bridge_191.jpg,bridge_75.jpg,left,golf_course_128.jpg,playground_25.jpg,bridge_191.jpg,highway_219.jpg,highway_219.jpg,highway_219.jpg,2.0,left,0.006,1.0,bridge,bridge_75.jpg,5.175996196,0.268,A256QIR5XUIP8K
352,A256QIR5XUIP8K,29,Female,playground_257.jpg,playground_257.jpg,playground_214.jpg,left,bridge_26.jpg,playground_257.jpg,badlands_59.jpg,mountain_21.jpg,mountain_21.jpg,mountain_21.jpg,1.0,left,0.008,0.0,playground,playground_214.jpg,5.175996196,0.6,A256QIR5XUIP8K
353,A256QIR5XUIP8K,29,Female,golf_course_217.jpg,golf_course_217.jpg,golf_course_262.jpg,left,bridge_230.jpg,golf_course_217.jpg,badlands_108.jpg,highway_147.jpg,highway_147.jpg,highway_147.jpg,1.0,left,0.26,1.0,golf,golf_course_262.jpg,5.175996196,0.583,A256QIR5XUIP8K
354,A256QIR5XUIP8K,29,Female,playground_240.jpg,playground_240.jpg,playground_2.jpg,left,highway_23.jpg,playground_240.jpg,golf_course_258.jpg,mountain_4.jpg,mountain_4.jpg,mountain_4.jpg,1.0,left,0.277,0.0,playground,playground_2.jpg,5.175996196,0.282,A256QIR5XUIP8K
355,A256QIR5XUIP8K,29,Female,mountain_222.jpg,mountain_222.jpg,mountain_93.jpg,left,badlands_166.jpg,mountain_222.jpg,highway_75.jpg,playground_95.jpg,playground_95.jpg,playground_95.jpg,1.0,right,0.008,1.0,mountain,mountain_93.jpg,5.175996196,0.663,A256QIR5XUIP8K
356,A256QIR5XUIP8K,29,Female,playground_60.jpg,playground_60.jpg,playground_244.jpg,left,highway_333.jpg,bridge_18.jpg,playground_60.jpg,badlands_54.jpg,badlands_54.jpg,badlands_54.jpg,2.0,left,0.008,1.0,playground,playground_244.jpg,5.175996196,0.334,A256QIR5XUIP8K
357,A256QIR5XUIP8K,29,Female,highway_394.jpg,highway_406.jpg,highway_394.jpg,right,mountain_199.jpg,bridge_257.jpg,highway_394.jpg,badlands_180.jpg,badlands_180.jpg,badlands_180.jpg,2.0,right,1.38,1.0,highway,highway_406.jpg,5.175996196,0.31,A256QIR5XUIP8K
358,A256QIR5XUIP8K,29,Female,badlands_221.jpg,badlands_115.jpg,badlands_221.jpg,right,badlands_221.jpg,golf_course_57.jpg,highway_319.jpg,bridge_206.jpg,bridge_206.jpg,bridge_206.jpg,0.0,left,1.045,0.0,badlands,badlands_115.jpg,5.175996196,0.591,A256QIR5XUIP8K
359,A256QIR5XUIP8K,29,Female,bridge_172.jpg,bridge_163.jpg,bridge_172.jpg,right,bridge_172.jpg,mountain_12.jpg,golf_course_52.jpg,playground_191.jpg,playground_191.jpg,playground_191.jpg,0.0,right,2.733,1.0,bridge,bridge_163.jpg,5.175996196,0.432,A256QIR5XUIP8K
360,A1SN7EOZUW5VP3,44,male,bridge_191.jpg,bridge_75.jpg,bridge_191.jpg,right,badlands_174.jpg,bridge_191.jpg,golf_course_152.jpg,highway_227.jpg,highway_227.jpg,highway_227.jpg,1.0,right,1.601,1.0,bridge,bridge_75.jpg,4.989583333,5.251,A1SN7EOZUW5VP3
361,A1SN7EOZUW5VP3,44,male,bridge_65.jpg,bridge_65.jpg,bridge_181.jpg,left,playground_41.jpg,bridge_65.jpg,mountain_307.jpg,highway_263.jpg,highway_263.jpg,highway_263.jpg,1.0,right,1.8,0.0,bridge,bridge_181.jpg,4.604166667,3.962,A1SN7EOZUW5VP3
362,A1SN7EOZUW5VP3,44,male,golf_course_331.jpg,golf_course_114.jpg,golf_course_331.jpg,right,mountain_126.jpg,golf_course_331.jpg,highway_333.jpg,badlands_54.jpg,badlands_54.jpg,badlands_54.jpg,1.0,right,2.197,0.0,golf,golf_course_114.jpg,4.375,3.349,A1SN7EOZUW5VP3
363,A1SN7EOZUW5VP3,44,male,badlands_222.jpg,badlands_62.jpg,badlands_222.jpg,right,mountain_71.jpg,playground_241.jpg,badlands_222.jpg,golf_course_302.jpg,golf_course_302.jpg,golf_course_302.jpg,2.0,right,1.161,1.0,badlands,badlands_62.jpg,7.854166667,2.676,A1SN7EOZUW5VP3
364,A1SN7EOZUW5VP3,44,male,golf_course_87.jpg,golf_course_87.jpg,golf_course_161.jpg,left,badlands_13.jpg,golf_course_87.jpg,bridge_230.jpg,playground_7.jpg,playground_7.jpg,playground_7.jpg,1.0,left,1.861,1.0,golf,golf_course_161.jpg,4.291666667,2.912,A1SN7EOZUW5VP3
365,A1SN7EOZUW5VP3,44,male,golf_course_195.jpg,golf_course_2.jpg,golf_course_195.jpg,right,bridge_177.jpg,golf_course_195.jpg,playground_172.jpg,badlands_108.jpg,badlands_108.jpg,badlands_108.jpg,1.0,right,1.31,1.0,golf,golf_course_2.jpg,5.635416667,2.317,A1SN7EOZUW5VP3
366,A1SN7EOZUW5VP3,44,male,mountain_232.jpg,mountain_232.jpg,mountain_3.jpg,left,bridge_19.jpg,mountain_232.jpg,golf_course_223.jpg,badlands_31.jpg,badlands_31.jpg,badlands_31.jpg,1.0,left,1.641,0.0,mountain,mountain_3.jpg,5.364583333,3.068,A1SN7EOZUW5VP3
367,A1SN7EOZUW5VP3,44,male,playground_117.jpg,playground_167.jpg,playground_117.jpg,right,highway_249.jpg,badlands_152.jpg,playground_117.jpg,bridge_169.jpg,bridge_169.jpg,bridge_169.jpg,2.0,left,1.792,0.0,playground,playground_167.jpg,6.385416667,2.279,A1SN7EOZUW5VP3
368,A1SN7EOZUW5VP3,44,male,bridge_91.jpg,bridge_82.jpg,bridge_91.jpg,right,highway_146.jpg,mountain_224.jpg,bridge_91.jpg,playground_90.jpg,playground_90.jpg,playground_90.jpg,2.0,right,1.442,1.0,bridge,bridge_82.jpg,6.15625,2.296,A1SN7EOZUW5VP3
369,A1SN7EOZUW5VP3,44,male,badlands_52.jpg,badlands_94.jpg,badlands_52.jpg,right,badlands_52.jpg,playground_13.jpg,mountain_301.jpg,bridge_257.jpg,bridge_257.jpg,bridge_257.jpg,0.0,right,1.018,0.0,badlands,badlands_94.jpg,6.020833333,2.724,A1SN7EOZUW5VP3
370,A1SN7EOZUW5VP3,44,male,playground_219.jpg,playground_219.jpg,playground_205.jpg,left,bridge_49.jpg,playground_219.jpg,badlands_75.jpg,golf_course_198.jpg,golf_course_198.jpg,golf_course_198.jpg,1.0,left,1.117,1.0,playground,playground_205.jpg,6.020833333,2.322,A1SN7EOZUW5VP3
371,A1SN7EOZUW5VP3,44,male,golf_course_188.jpg,golf_course_188.jpg,golf_course_160.jpg,left,mountain_179.jpg,bridge_18.jpg,golf_course_188.jpg,highway_261.jpg,highway_261.jpg,highway_261.jpg,2.0,left,1.109,1.0,golf,golf_course_160.jpg,5.927083333,4.469,A1SN7EOZUW5VP3
372,A1SN7EOZUW5VP3,44,male,badlands_23.jpg,badlands_114.jpg,badlands_23.jpg,right,badlands_23.jpg,golf_course_58.jpg,playground_52.jpg,bridge_124.jpg,bridge_124.jpg,bridge_124.jpg,0.0,right,1.112,0.0,badlands,badlands_114.jpg,5.520833333,2.963,A1SN7EOZUW5VP3
373,A1SN7EOZUW5VP3,44,male,mountain_230.jpg,mountain_230.jpg,mountain_97.jpg,left,mountain_230.jpg,highway_342.jpg,golf_course_329.jpg,badlands_38.jpg,badlands_38.jpg,badlands_38.jpg,0.0,left,1.785,1.0,mountain,mountain_97.jpg,5.166666667,2.537,A1SN7EOZUW5VP3
374,A1SN7EOZUW5VP3,44,male,playground_145.jpg,playground_145.jpg,playground_242.jpg,left,playground_145.jpg,highway_117.jpg,golf_course_206.jpg,badlands_176.jpg,badlands_176.jpg,badlands_176.jpg,0.0,left,1.623,1.0,playground,playground_242.jpg,6.395833333,2.559,A1SN7EOZUW5VP3
375,A1SN7EOZUW5VP3,44,male,bridge_202.jpg,bridge_38.jpg,bridge_202.jpg,right,mountain_44.jpg,highway_99.jpg,bridge_202.jpg,playground_6.jpg,playground_6.jpg,playground_6.jpg,2.0,right,0.789,1.0,bridge,bridge_38.jpg,6.322916667,2.849,A1SN7EOZUW5VP3
376,A1SN7EOZUW5VP3,44,male,mountain_293.jpg,mountain_47.jpg,mountain_293.jpg,right,playground_264.jpg,golf_course_320.jpg,mountain_293.jpg,bridge_251.jpg,bridge_251.jpg,bridge_251.jpg,2.0,right,0.702,1.0,mountain,mountain_47.jpg,5.447916667,3.271,A1SN7EOZUW5VP3
