,index,test_encoding_response.keys,test_encoding_response.corr,trials.thisTrialN,target,correct,test_encoding_response.rt,key_resp_end.keys,subject
0,20,,1.0,0.0,highway_93.jpg,,,,A1PS8FTSVOJ4PB
1,21,,1.0,1.0,mountain_101.jpg,,,,A1PS8FTSVOJ4PB
2,22,,1.0,2.0,playground_76.jpg,,,,A1PS8FTSVOJ4PB
3,23,,1.0,3.0,badlands_113.jpg,,,,A1PS8FTSVOJ4PB
4,24,,1.0,4.0,playground_117.jpg,,,,A1PS8FTSVOJ4PB
5,25,,1.0,5.0,golf_course_188.jpg,,,,A1PS8FTSVOJ4PB
6,26,right,1.0,6.0,right.jpg,right,1.919,,A1PS8FTSVOJ4PB
7,27,,1.0,7.0,highway_294.jpg,,,,A1PS8FTSVOJ4PB
8,28,,1.0,8.0,bridge_191.jpg,,,,A1PS8FTSVOJ4PB
9,29,,1.0,9.0,playground_219.jpg,,,,A1PS8FTSVOJ4PB
10,30,,1.0,10.0,golf_course_214.jpg,,,,A1PS8FTSVOJ4PB
11,31,,1.0,11.0,mountain_154.jpg,,,,A1PS8FTSVOJ4PB
12,32,,1.0,12.0,highway_394.jpg,,,,A1PS8FTSVOJ4PB
13,33,,1.0,13.0,golf_course_193.jpg,,,,A1PS8FTSVOJ4PB
14,34,,1.0,14.0,mountain_57.jpg,,,,A1PS8FTSVOJ4PB
15,35,,1.0,15.0,golf_course_15.jpg,,,,A1PS8FTSVOJ4PB
16,36,,1.0,16.0,bridge_108.jpg,,,,A1PS8FTSVOJ4PB
17,37,,1.0,17.0,golf_course_309.jpg,,,,A1PS8FTSVOJ4PB
18,38,,1.0,18.0,bridge_128.jpg,,,,A1PS8FTSVOJ4PB
19,39,,1.0,19.0,mountain_232.jpg,,,,A1PS8FTSVOJ4PB
20,40,,1.0,20.0,playground_144.jpg,,,,A1PS8FTSVOJ4PB
21,41,,1.0,21.0,bridge_146.jpg,,,,A1PS8FTSVOJ4PB
22,42,right,1.0,22.0,right.jpg,right,1.234,,A1PS8FTSVOJ4PB
23,43,,1.0,23.0,bridge_91.jpg,,,,A1PS8FTSVOJ4PB
24,44,,1.0,24.0,mountain_222.jpg,,,,A1PS8FTSVOJ4PB
25,45,,1.0,25.0,golf_course_195.jpg,,,,A1PS8FTSVOJ4PB
26,46,,1.0,26.0,badlands_137.jpg,,,,A1PS8FTSVOJ4PB
27,47,,1.0,27.0,highway_415.jpg,,,,A1PS8FTSVOJ4PB
28,48,,1.0,28.0,mountain_110.jpg,,,,A1PS8FTSVOJ4PB
29,49,,1.0,29.0,bridge_256.jpg,,,,A1PS8FTSVOJ4PB
30,50,,1.0,30.0,golf_course_78.jpg,,,,A1PS8FTSVOJ4PB
31,51,left,1.0,31.0,left.jpg,left,1.524,,A1PS8FTSVOJ4PB
32,52,,1.0,32.0,badlands_24.jpg,,,,A1PS8FTSVOJ4PB
33,53,,1.0,33.0,badlands_23.jpg,,,,A1PS8FTSVOJ4PB
34,54,,1.0,34.0,playground_131.jpg,,,,A1PS8FTSVOJ4PB
35,55,,1.0,35.0,badlands_21.jpg,,,,A1PS8FTSVOJ4PB
36,56,left,1.0,36.0,left.jpg,left,1.27,,A1PS8FTSVOJ4PB
37,57,,1.0,37.0,playground_240.jpg,,,,A1PS8FTSVOJ4PB
38,58,,1.0,38.0,highway_177.jpg,,,,A1PS8FTSVOJ4PB
39,59,,1.0,39.0,golf_course_331.jpg,,,,A1PS8FTSVOJ4PB
40,60,,1.0,40.0,playground_145.jpg,,,,A1PS8FTSVOJ4PB
41,61,,1.0,41.0,playground_257.jpg,,,,A1PS8FTSVOJ4PB
42,62,,1.0,42.0,mountain_230.jpg,,,,A1PS8FTSVOJ4PB
43,63,,1.0,43.0,highway_156.jpg,,,,A1PS8FTSVOJ4PB
44,64,,1.0,44.0,highway_245.jpg,,,,A1PS8FTSVOJ4PB
45,65,,1.0,45.0,golf_course_217.jpg,,,,A1PS8FTSVOJ4PB
46,66,left,1.0,46.0,left.jpg,left,1.201,,A1PS8FTSVOJ4PB
47,67,,1.0,47.0,mountain_123.jpg,,,,A1PS8FTSVOJ4PB
48,68,,1.0,48.0,badlands_52.jpg,,,,A1PS8FTSVOJ4PB
49,69,,1.0,49.0,mountain_156.jpg,,,,A1PS8FTSVOJ4PB
50,70,,1.0,50.0,bridge_65.jpg,,,,A1PS8FTSVOJ4PB
51,71,,1.0,51.0,golf_course_87.jpg,,,,A1PS8FTSVOJ4PB
52,72,,1.0,52.0,bridge_202.jpg,,,,A1PS8FTSVOJ4PB
53,73,,1.0,53.0,bridge_250.jpg,,,,A1PS8FTSVOJ4PB
54,74,,1.0,54.0,playground_10.jpg,,,,A1PS8FTSVOJ4PB
55,75,,1.0,55.0,playground_60.jpg,,,,A1PS8FTSVOJ4PB
56,76,,1.0,56.0,badlands_222.jpg,,,,A1PS8FTSVOJ4PB
57,77,,1.0,57.0,badlands_70.jpg,,,,A1PS8FTSVOJ4PB
58,78,,1.0,58.0,highway_359.jpg,,,,A1PS8FTSVOJ4PB
59,79,,1.0,59.0,highway_209.jpg,,,,A1PS8FTSVOJ4PB
60,80,,1.0,60.0,bridge_172.jpg,,,,A1PS8FTSVOJ4PB
61,81,,1.0,61.0,mountain_293.jpg,,,,A1PS8FTSVOJ4PB
62,82,,1.0,62.0,highway_273.jpg,,,,A1PS8FTSVOJ4PB
63,83,,1.0,63.0,badlands_184.jpg,,,,A1PS8FTSVOJ4PB
64,84,,1.0,64.0,badlands_221.jpg,,,,A1PS8FTSVOJ4PB
65,20,,1.0,0.0,bridge_202.jpg,,,,A1R8Q9KXX4Q5T6
66,21,,1.0,1.0,golf_course_193.jpg,,,,A1R8Q9KXX4Q5T6
67,22,,1.0,2.0,bridge_108.jpg,,,,A1R8Q9KXX4Q5T6
68,23,,1.0,3.0,bridge_191.jpg,,,,A1R8Q9KXX4Q5T6
69,24,,1.0,4.0,badlands_24.jpg,,,,A1R8Q9KXX4Q5T6
70,25,,1.0,5.0,playground_145.jpg,,,,A1R8Q9KXX4Q5T6
71,26,,1.0,6.0,playground_240.jpg,,,,A1R8Q9KXX4Q5T6
72,27,,1.0,7.0,mountain_232.jpg,,,,A1R8Q9KXX4Q5T6
73,28,,1.0,8.0,badlands_23.jpg,,,,A1R8Q9KXX4Q5T6
74,29,,1.0,9.0,highway_273.jpg,,,,A1R8Q9KXX4Q5T6
75,30,,1.0,10.0,badlands_52.jpg,,,,A1R8Q9KXX4Q5T6
76,31,,1.0,11.0,playground_131.jpg,,,,A1R8Q9KXX4Q5T6
77,32,,1.0,12.0,golf_course_188.jpg,,,,A1R8Q9KXX4Q5T6
78,33,,1.0,13.0,highway_394.jpg,,,,A1R8Q9KXX4Q5T6
79,34,right,1.0,14.0,right.jpg,right,0.928,,A1R8Q9KXX4Q5T6
80,35,,1.0,15.0,bridge_250.jpg,,,,A1R8Q9KXX4Q5T6
81,36,,1.0,16.0,playground_10.jpg,,,,A1R8Q9KXX4Q5T6
82,37,,1.0,17.0,mountain_154.jpg,,,,A1R8Q9KXX4Q5T6
83,38,,1.0,18.0,mountain_156.jpg,,,,A1R8Q9KXX4Q5T6
84,39,,1.0,19.0,highway_245.jpg,,,,A1R8Q9KXX4Q5T6
85,40,,1.0,20.0,mountain_101.jpg,,,,A1R8Q9KXX4Q5T6
86,41,,1.0,21.0,playground_219.jpg,,,,A1R8Q9KXX4Q5T6
87,42,,1.0,22.0,playground_76.jpg,,,,A1R8Q9KXX4Q5T6
88,43,,1.0,23.0,mountain_222.jpg,,,,A1R8Q9KXX4Q5T6
89,44,left,1.0,24.0,left.jpg,left,0.958,,A1R8Q9KXX4Q5T6
90,45,,1.0,25.0,highway_209.jpg,,,,A1R8Q9KXX4Q5T6
91,46,,1.0,26.0,playground_144.jpg,,,,A1R8Q9KXX4Q5T6
92,47,,1.0,27.0,playground_60.jpg,,,,A1R8Q9KXX4Q5T6
93,48,,1.0,28.0,playground_117.jpg,,,,A1R8Q9KXX4Q5T6
94,49,left,1.0,29.0,left.jpg,left,1.108,,A1R8Q9KXX4Q5T6
95,50,,1.0,30.0,bridge_256.jpg,,,,A1R8Q9KXX4Q5T6
96,51,,1.0,31.0,mountain_293.jpg,,,,A1R8Q9KXX4Q5T6
97,52,,1.0,32.0,badlands_221.jpg,,,,A1R8Q9KXX4Q5T6
98,53,,1.0,33.0,badlands_184.jpg,,,,A1R8Q9KXX4Q5T6
99,54,,1.0,34.0,highway_294.jpg,,,,A1R8Q9KXX4Q5T6
100,55,,1.0,35.0,bridge_65.jpg,,,,A1R8Q9KXX4Q5T6
101,56,left,1.0,36.0,left.jpg,left,0.984,,A1R8Q9KXX4Q5T6
102,57,,1.0,37.0,badlands_222.jpg,,,,A1R8Q9KXX4Q5T6
103,58,,1.0,38.0,badlands_137.jpg,,,,A1R8Q9KXX4Q5T6
104,59,,1.0,39.0,highway_415.jpg,,,,A1R8Q9KXX4Q5T6
105,60,,1.0,40.0,golf_course_331.jpg,,,,A1R8Q9KXX4Q5T6
106,61,,1.0,41.0,golf_course_15.jpg,,,,A1R8Q9KXX4Q5T6
107,62,,1.0,42.0,bridge_128.jpg,,,,A1R8Q9KXX4Q5T6
108,63,,1.0,43.0,highway_359.jpg,,,,A1R8Q9KXX4Q5T6
109,64,,1.0,44.0,mountain_230.jpg,,,,A1R8Q9KXX4Q5T6
110,65,,1.0,45.0,playground_257.jpg,,,,A1R8Q9KXX4Q5T6
111,66,left,1.0,46.0,left.jpg,left,0.804,,A1R8Q9KXX4Q5T6
112,67,,1.0,47.0,badlands_21.jpg,,,,A1R8Q9KXX4Q5T6
113,68,,1.0,48.0,golf_course_195.jpg,,,,A1R8Q9KXX4Q5T6
114,69,,1.0,49.0,bridge_91.jpg,,,,A1R8Q9KXX4Q5T6
115,70,,1.0,50.0,highway_156.jpg,,,,A1R8Q9KXX4Q5T6
116,71,,1.0,51.0,golf_course_217.jpg,,,,A1R8Q9KXX4Q5T6
117,72,,1.0,52.0,badlands_70.jpg,,,,A1R8Q9KXX4Q5T6
118,73,,1.0,53.0,bridge_172.jpg,,,,A1R8Q9KXX4Q5T6
119,74,,1.0,54.0,golf_course_78.jpg,,,,A1R8Q9KXX4Q5T6
120,75,,1.0,55.0,mountain_57.jpg,,,,A1R8Q9KXX4Q5T6
121,76,,1.0,56.0,highway_177.jpg,,,,A1R8Q9KXX4Q5T6
122,77,,1.0,57.0,badlands_113.jpg,,,,A1R8Q9KXX4Q5T6
123,78,,1.0,58.0,highway_93.jpg,,,,A1R8Q9KXX4Q5T6
124,79,,1.0,59.0,bridge_146.jpg,,,,A1R8Q9KXX4Q5T6
125,80,,1.0,60.0,golf_course_87.jpg,,,,A1R8Q9KXX4Q5T6
126,81,,1.0,61.0,mountain_110.jpg,,,,A1R8Q9KXX4Q5T6
127,82,,1.0,62.0,golf_course_309.jpg,,,,A1R8Q9KXX4Q5T6
128,83,,1.0,63.0,mountain_123.jpg,,,,A1R8Q9KXX4Q5T6
129,84,,1.0,64.0,golf_course_214.jpg,,,,A1R8Q9KXX4Q5T6
130,20,,1.0,0.0,highway_156.jpg,,,,A1TQ9ULE5R842V
131,21,,1.0,1.0,mountain_156.jpg,,,,A1TQ9ULE5R842V
132,22,,1.0,2.0,badlands_52.jpg,,,,A1TQ9ULE5R842V
133,23,,1.0,3.0,badlands_21.jpg,,,,A1TQ9ULE5R842V
134,24,,1.0,4.0,highway_294.jpg,,,,A1TQ9ULE5R842V
135,25,,1.0,5.0,golf_course_214.jpg,,,,A1TQ9ULE5R842V
136,26,,1.0,6.0,playground_145.jpg,,,,A1TQ9ULE5R842V
137,27,,1.0,7.0,golf_course_78.jpg,,,,A1TQ9ULE5R842V
138,28,right,1.0,8.0,right.jpg,right,1.2816,,A1TQ9ULE5R842V
139,29,,1.0,9.0,badlands_137.jpg,,,,A1TQ9ULE5R842V
140,30,,1.0,10.0,highway_93.jpg,,,,A1TQ9ULE5R842V
141,31,,1.0,11.0,badlands_70.jpg,,,,A1TQ9ULE5R842V
142,32,,1.0,12.0,mountain_222.jpg,,,,A1TQ9ULE5R842V
143,33,,1.0,13.0,highway_209.jpg,,,,A1TQ9ULE5R842V
144,34,,1.0,14.0,highway_415.jpg,,,,A1TQ9ULE5R842V
145,35,,1.0,15.0,golf_course_217.jpg,,,,A1TQ9ULE5R842V
146,36,left,1.0,16.0,left.jpg,left,1.0606,,A1TQ9ULE5R842V
147,37,,1.0,17.0,bridge_65.jpg,,,,A1TQ9ULE5R842V
148,38,,1.0,18.0,badlands_221.jpg,,,,A1TQ9ULE5R842V
149,39,,1.0,19.0,highway_394.jpg,,,,A1TQ9ULE5R842V
150,40,,1.0,20.0,golf_course_87.jpg,,,,A1TQ9ULE5R842V
151,41,,1.0,21.0,highway_359.jpg,,,,A1TQ9ULE5R842V
152,42,,1.0,22.0,badlands_113.jpg,,,,A1TQ9ULE5R842V
153,43,,1.0,23.0,mountain_57.jpg,,,,A1TQ9ULE5R842V
154,44,,1.0,24.0,highway_245.jpg,,,,A1TQ9ULE5R842V
155,45,,1.0,25.0,highway_177.jpg,,,,A1TQ9ULE5R842V
156,46,,1.0,26.0,bridge_128.jpg,,,,A1TQ9ULE5R842V
157,47,,1.0,27.0,bridge_202.jpg,,,,A1TQ9ULE5R842V
158,48,,1.0,28.0,bridge_172.jpg,,,,A1TQ9ULE5R842V
159,49,,1.0,29.0,mountain_101.jpg,,,,A1TQ9ULE5R842V
160,50,right,1.0,30.0,right.jpg,right,1.0421,,A1TQ9ULE5R842V
161,51,,1.0,31.0,mountain_110.jpg,,,,A1TQ9ULE5R842V
162,52,,1.0,32.0,playground_257.jpg,,,,A1TQ9ULE5R842V
163,53,,1.0,33.0,golf_course_331.jpg,,,,A1TQ9ULE5R842V
164,54,,1.0,34.0,highway_273.jpg,,,,A1TQ9ULE5R842V
165,55,,1.0,35.0,playground_117.jpg,,,,A1TQ9ULE5R842V
166,56,,1.0,36.0,badlands_184.jpg,,,,A1TQ9ULE5R842V
167,57,left,1.0,37.0,left.jpg,left,0.8179,,A1TQ9ULE5R842V
168,58,,1.0,38.0,playground_60.jpg,,,,A1TQ9ULE5R842V
169,59,,1.0,39.0,mountain_123.jpg,,,,A1TQ9ULE5R842V
170,60,,1.0,40.0,golf_course_188.jpg,,,,A1TQ9ULE5R842V
171,61,,1.0,41.0,playground_10.jpg,,,,A1TQ9ULE5R842V
172,62,,1.0,42.0,bridge_250.jpg,,,,A1TQ9ULE5R842V
173,63,,1.0,43.0,mountain_230.jpg,,,,A1TQ9ULE5R842V
174,64,,1.0,44.0,badlands_23.jpg,,,,A1TQ9ULE5R842V
175,65,,1.0,45.0,playground_219.jpg,,,,A1TQ9ULE5R842V
176,66,,1.0,46.0,playground_144.jpg,,,,A1TQ9ULE5R842V
177,67,,1.0,47.0,badlands_24.jpg,,,,A1TQ9ULE5R842V
178,68,,1.0,48.0,golf_course_15.jpg,,,,A1TQ9ULE5R842V
179,69,,1.0,49.0,bridge_256.jpg,,,,A1TQ9ULE5R842V
180,70,,1.0,50.0,mountain_232.jpg,,,,A1TQ9ULE5R842V
181,71,,0.0,51.0,right.jpg,right,,,A1TQ9ULE5R842V
182,72,,1.0,52.0,playground_76.jpg,,,,A1TQ9ULE5R842V
183,73,,1.0,53.0,playground_131.jpg,,,,A1TQ9ULE5R842V
184,74,,1.0,54.0,bridge_108.jpg,,,,A1TQ9ULE5R842V
185,75,,1.0,55.0,golf_course_309.jpg,,,,A1TQ9ULE5R842V
186,76,,1.0,56.0,bridge_91.jpg,,,,A1TQ9ULE5R842V
187,77,,1.0,57.0,golf_course_195.jpg,,,,A1TQ9ULE5R842V
188,78,,1.0,58.0,bridge_146.jpg,,,,A1TQ9ULE5R842V
189,79,,1.0,59.0,bridge_191.jpg,,,,A1TQ9ULE5R842V
190,80,,1.0,60.0,mountain_293.jpg,,,,A1TQ9ULE5R842V
191,81,,1.0,61.0,mountain_154.jpg,,,,A1TQ9ULE5R842V
192,82,,1.0,62.0,playground_240.jpg,,,,A1TQ9ULE5R842V
193,83,,1.0,63.0,golf_course_193.jpg,,,,A1TQ9ULE5R842V
194,84,,1.0,64.0,badlands_222.jpg,,,,A1TQ9ULE5R842V
195,20,,1.0,0.0,golf_course_331.jpg,,,,A1W7T8V97ZPUH0
196,21,,1.0,1.0,mountain_154.jpg,,,,A1W7T8V97ZPUH0
197,22,,1.0,2.0,mountain_222.jpg,,,,A1W7T8V97ZPUH0
198,23,,1.0,3.0,golf_course_195.jpg,,,,A1W7T8V97ZPUH0
199,24,,1.0,4.0,playground_145.jpg,,,,A1W7T8V97ZPUH0
200,25,,1.0,5.0,golf_course_214.jpg,,,,A1W7T8V97ZPUH0
201,26,,1.0,6.0,bridge_250.jpg,,,,A1W7T8V97ZPUH0
202,27,,1.0,7.0,golf_course_193.jpg,,,,A1W7T8V97ZPUH0
203,28,,1.0,8.0,highway_177.jpg,,,,A1W7T8V97ZPUH0
204,29,,1.0,9.0,playground_219.jpg,,,,A1W7T8V97ZPUH0
205,30,,1.0,10.0,mountain_232.jpg,,,,A1W7T8V97ZPUH0
206,31,,1.0,11.0,bridge_146.jpg,,,,A1W7T8V97ZPUH0
207,32,,1.0,12.0,badlands_52.jpg,,,,A1W7T8V97ZPUH0
208,33,,1.0,13.0,playground_60.jpg,,,,A1W7T8V97ZPUH0
209,34,left,1.0,14.0,left.jpg,left,0.756,,A1W7T8V97ZPUH0
210,35,,1.0,15.0,badlands_21.jpg,,,,A1W7T8V97ZPUH0
211,36,,1.0,16.0,highway_156.jpg,,,,A1W7T8V97ZPUH0
212,37,right,1.0,17.0,right.jpg,right,1.027,,A1W7T8V97ZPUH0
213,38,,1.0,18.0,golf_course_87.jpg,,,,A1W7T8V97ZPUH0
214,39,,1.0,19.0,golf_course_309.jpg,,,,A1W7T8V97ZPUH0
215,40,,1.0,20.0,bridge_108.jpg,,,,A1W7T8V97ZPUH0
216,41,,1.0,21.0,highway_245.jpg,,,,A1W7T8V97ZPUH0
217,42,,1.0,22.0,badlands_23.jpg,,,,A1W7T8V97ZPUH0
218,43,,1.0,23.0,badlands_221.jpg,,,,A1W7T8V97ZPUH0
219,44,,1.0,24.0,bridge_128.jpg,,,,A1W7T8V97ZPUH0
220,45,,1.0,25.0,badlands_222.jpg,,,,A1W7T8V97ZPUH0
221,46,right,1.0,26.0,right.jpg,right,0.849,,A1W7T8V97ZPUH0
222,47,,1.0,27.0,playground_131.jpg,,,,A1W7T8V97ZPUH0
223,48,,1.0,28.0,badlands_137.jpg,,,,A1W7T8V97ZPUH0
224,49,,1.0,29.0,highway_209.jpg,,,,A1W7T8V97ZPUH0
225,50,,1.0,30.0,highway_415.jpg,,,,A1W7T8V97ZPUH0
226,51,,1.0,31.0,bridge_91.jpg,,,,A1W7T8V97ZPUH0
227,52,,1.0,32.0,mountain_101.jpg,,,,A1W7T8V97ZPUH0
228,53,,1.0,33.0,mountain_293.jpg,,,,A1W7T8V97ZPUH0
229,54,,1.0,34.0,bridge_172.jpg,,,,A1W7T8V97ZPUH0
230,55,,1.0,35.0,highway_273.jpg,,,,A1W7T8V97ZPUH0
231,56,,1.0,36.0,playground_10.jpg,,,,A1W7T8V97ZPUH0
232,57,left,1.0,37.0,left.jpg,left,0.844,,A1W7T8V97ZPUH0
233,58,,1.0,38.0,playground_240.jpg,,,,A1W7T8V97ZPUH0
234,59,,1.0,39.0,highway_359.jpg,,,,A1W7T8V97ZPUH0
235,60,,1.0,40.0,badlands_70.jpg,,,,A1W7T8V97ZPUH0
236,61,,1.0,41.0,mountain_57.jpg,,,,A1W7T8V97ZPUH0
237,62,,1.0,42.0,mountain_123.jpg,,,,A1W7T8V97ZPUH0
238,63,,1.0,43.0,bridge_202.jpg,,,,A1W7T8V97ZPUH0
239,64,,1.0,44.0,bridge_256.jpg,,,,A1W7T8V97ZPUH0
240,65,,1.0,45.0,playground_257.jpg,,,,A1W7T8V97ZPUH0
241,66,left,1.0,46.0,left.jpg,left,1.01,,A1W7T8V97ZPUH0
242,67,,1.0,47.0,golf_course_188.jpg,,,,A1W7T8V97ZPUH0
243,68,,1.0,48.0,golf_course_15.jpg,,,,A1W7T8V97ZPUH0
244,69,,1.0,49.0,badlands_24.jpg,,,,A1W7T8V97ZPUH0
245,70,,1.0,50.0,playground_117.jpg,,,,A1W7T8V97ZPUH0
246,71,,1.0,51.0,bridge_65.jpg,,,,A1W7T8V97ZPUH0
247,72,,1.0,52.0,golf_course_217.jpg,,,,A1W7T8V97ZPUH0
248,73,,1.0,53.0,highway_394.jpg,,,,A1W7T8V97ZPUH0
249,74,,1.0,54.0,golf_course_78.jpg,,,,A1W7T8V97ZPUH0
250,75,,1.0,55.0,highway_93.jpg,,,,A1W7T8V97ZPUH0
251,76,,1.0,56.0,highway_294.jpg,,,,A1W7T8V97ZPUH0
252,77,,1.0,57.0,mountain_230.jpg,,,,A1W7T8V97ZPUH0
253,78,,1.0,58.0,mountain_156.jpg,,,,A1W7T8V97ZPUH0
254,79,,1.0,59.0,mountain_110.jpg,,,,A1W7T8V97ZPUH0
255,80,,1.0,60.0,badlands_184.jpg,,,,A1W7T8V97ZPUH0
256,81,,1.0,61.0,bridge_191.jpg,,,,A1W7T8V97ZPUH0
257,82,,1.0,62.0,badlands_113.jpg,,,,A1W7T8V97ZPUH0
258,83,,1.0,63.0,playground_144.jpg,,,,A1W7T8V97ZPUH0
259,84,,1.0,64.0,playground_76.jpg,,,,A1W7T8V97ZPUH0
260,20,,1.0,0.0,badlands_221.jpg,,,,A1XJCKXP143Y94
261,21,,1.0,1.0,badlands_52.jpg,,,,A1XJCKXP143Y94
262,22,,1.0,2.0,bridge_128.jpg,,,,A1XJCKXP143Y94
263,23,,1.0,3.0,golf_course_331.jpg,,,,A1XJCKXP143Y94
264,24,,1.0,4.0,mountain_57.jpg,,,,A1XJCKXP143Y94
265,25,,1.0,5.0,playground_240.jpg,,,,A1XJCKXP143Y94
266,26,,1.0,6.0,mountain_156.jpg,,,,A1XJCKXP143Y94
267,27,right,1.0,7.0,right.jpg,right,1.1503,,A1XJCKXP143Y94
268,28,,1.0,8.0,mountain_232.jpg,,,,A1XJCKXP143Y94
269,29,,1.0,9.0,playground_144.jpg,,,,A1XJCKXP143Y94
270,30,,1.0,10.0,highway_394.jpg,,,,A1XJCKXP143Y94
271,31,,1.0,11.0,highway_177.jpg,,,,A1XJCKXP143Y94
272,32,,1.0,12.0,playground_76.jpg,,,,A1XJCKXP143Y94
273,33,,1.0,13.0,playground_145.jpg,,,,A1XJCKXP143Y94
274,34,,1.0,14.0,bridge_202.jpg,,,,A1XJCKXP143Y94
275,35,,1.0,15.0,highway_245.jpg,,,,A1XJCKXP143Y94
276,36,,1.0,16.0,playground_10.jpg,,,,A1XJCKXP143Y94
277,37,left,1.0,17.0,left.jpg,left,0.609,,A1XJCKXP143Y94
278,38,,1.0,18.0,highway_93.jpg,,,,A1XJCKXP143Y94
279,39,,1.0,19.0,playground_117.jpg,,,,A1XJCKXP143Y94
280,40,,1.0,20.0,golf_course_87.jpg,,,,A1XJCKXP143Y94
281,41,,1.0,21.0,bridge_108.jpg,,,,A1XJCKXP143Y94
282,42,,1.0,22.0,bridge_191.jpg,,,,A1XJCKXP143Y94
283,43,,1.0,23.0,golf_course_195.jpg,,,,A1XJCKXP143Y94
284,44,,1.0,24.0,golf_course_188.jpg,,,,A1XJCKXP143Y94
285,45,,1.0,25.0,badlands_70.jpg,,,,A1XJCKXP143Y94
286,46,,1.0,26.0,highway_294.jpg,,,,A1XJCKXP143Y94
287,47,,1.0,27.0,bridge_65.jpg,,,,A1XJCKXP143Y94
288,48,,1.0,28.0,badlands_137.jpg,,,,A1XJCKXP143Y94
289,49,,1.0,29.0,playground_257.jpg,,,,A1XJCKXP143Y94
290,50,right,0.0,30.0,left.jpg,left,0.4316,,A1XJCKXP143Y94
291,51,,1.0,31.0,mountain_110.jpg,,,,A1XJCKXP143Y94
292,52,,1.0,32.0,golf_course_217.jpg,,,,A1XJCKXP143Y94
293,53,,1.0,33.0,bridge_250.jpg,,,,A1XJCKXP143Y94
294,54,,1.0,34.0,highway_273.jpg,,,,A1XJCKXP143Y94
295,55,,1.0,35.0,badlands_184.jpg,,,,A1XJCKXP143Y94
296,56,,1.0,36.0,mountain_222.jpg,,,,A1XJCKXP143Y94
297,57,,1.0,37.0,bridge_91.jpg,,,,A1XJCKXP143Y94
298,58,,1.0,38.0,badlands_21.jpg,,,,A1XJCKXP143Y94
299,59,,1.0,39.0,highway_415.jpg,,,,A1XJCKXP143Y94
300,60,,1.0,40.0,highway_359.jpg,,,,A1XJCKXP143Y94
301,61,,1.0,41.0,golf_course_15.jpg,,,,A1XJCKXP143Y94
302,62,,1.0,42.0,golf_course_193.jpg,,,,A1XJCKXP143Y94
303,63,left,1.0,43.0,left.jpg,left,0.6138,,A1XJCKXP143Y94
304,64,,1.0,44.0,highway_209.jpg,,,,A1XJCKXP143Y94
305,65,,1.0,45.0,golf_course_78.jpg,,,,A1XJCKXP143Y94
306,66,,1.0,46.0,badlands_222.jpg,,,,A1XJCKXP143Y94
307,67,,1.0,47.0,mountain_101.jpg,,,,A1XJCKXP143Y94
308,68,,1.0,48.0,bridge_146.jpg,,,,A1XJCKXP143Y94
309,69,,1.0,49.0,bridge_256.jpg,,,,A1XJCKXP143Y94
310,70,,1.0,50.0,mountain_154.jpg,,,,A1XJCKXP143Y94
311,71,,1.0,51.0,badlands_23.jpg,,,,A1XJCKXP143Y94
312,72,right,1.0,52.0,right.jpg,right,1.0503,,A1XJCKXP143Y94
313,73,,1.0,53.0,playground_60.jpg,,,,A1XJCKXP143Y94
314,74,,1.0,54.0,badlands_24.jpg,,,,A1XJCKXP143Y94
315,75,,1.0,55.0,badlands_113.jpg,,,,A1XJCKXP143Y94
316,76,,1.0,56.0,mountain_293.jpg,,,,A1XJCKXP143Y94
317,77,,1.0,57.0,golf_course_214.jpg,,,,A1XJCKXP143Y94
318,78,,1.0,58.0,playground_131.jpg,,,,A1XJCKXP143Y94
319,79,,1.0,59.0,mountain_123.jpg,,,,A1XJCKXP143Y94
320,80,,1.0,60.0,golf_course_309.jpg,,,,A1XJCKXP143Y94
321,81,,1.0,61.0,highway_156.jpg,,,,A1XJCKXP143Y94
322,82,,1.0,62.0,playground_219.jpg,,,,A1XJCKXP143Y94
323,83,,1.0,63.0,bridge_172.jpg,,,,A1XJCKXP143Y94
324,84,,1.0,64.0,mountain_230.jpg,,,,A1XJCKXP143Y94
325,20,,1.0,0.0,badlands_21.jpg,,,,A27KTNOX292J1I
326,21,,1.0,1.0,mountain_123.jpg,,,,A27KTNOX292J1I
327,22,,1.0,2.0,playground_131.jpg,,,,A27KTNOX292J1I
328,23,,1.0,3.0,mountain_154.jpg,,,,A27KTNOX292J1I
329,24,,1.0,4.0,golf_course_331.jpg,,,,A27KTNOX292J1I
330,25,,1.0,5.0,playground_144.jpg,,,,A27KTNOX292J1I
331,26,,1.0,6.0,badlands_23.jpg,,,,A27KTNOX292J1I
332,27,,1.0,7.0,bridge_128.jpg,,,,A27KTNOX292J1I
333,28,,1.0,8.0,bridge_65.jpg,,,,A27KTNOX292J1I
334,29,,1.0,9.0,highway_394.jpg,,,,A27KTNOX292J1I
335,30,,1.0,10.0,mountain_156.jpg,,,,A27KTNOX292J1I
336,31,,1.0,11.0,badlands_70.jpg,,,,A27KTNOX292J1I
337,32,,1.0,12.0,playground_10.jpg,,,,A27KTNOX292J1I
338,33,,1.0,13.0,highway_415.jpg,,,,A27KTNOX292J1I
339,34,right,1.0,14.0,right.jpg,right,0.6885,,A27KTNOX292J1I
340,35,,1.0,15.0,badlands_113.jpg,,,,A27KTNOX292J1I
341,36,,1.0,16.0,highway_294.jpg,,,,A27KTNOX292J1I
342,37,,1.0,17.0,golf_course_78.jpg,,,,A27KTNOX292J1I
343,38,left,1.0,18.0,left.jpg,left,0.6995,,A27KTNOX292J1I
344,39,,1.0,19.0,playground_60.jpg,,,,A27KTNOX292J1I
345,40,,1.0,20.0,bridge_256.jpg,,,,A27KTNOX292J1I
346,41,,1.0,21.0,bridge_108.jpg,,,,A27KTNOX292J1I
347,42,,1.0,22.0,mountain_232.jpg,,,,A27KTNOX292J1I
348,43,,1.0,23.0,bridge_172.jpg,,,,A27KTNOX292J1I
349,44,,1.0,24.0,mountain_101.jpg,,,,A27KTNOX292J1I
350,45,,1.0,25.0,golf_course_15.jpg,,,,A27KTNOX292J1I
351,46,,1.0,26.0,golf_course_193.jpg,,,,A27KTNOX292J1I
352,47,,1.0,27.0,golf_course_195.jpg,,,,A27KTNOX292J1I
353,48,,1.0,28.0,golf_course_214.jpg,,,,A27KTNOX292J1I
354,49,,1.0,29.0,badlands_24.jpg,,,,A27KTNOX292J1I
355,50,,1.0,30.0,golf_course_188.jpg,,,,A27KTNOX292J1I
356,51,,1.0,31.0,highway_273.jpg,,,,A27KTNOX292J1I
357,52,right,1.0,32.0,right.jpg,right,0.914299999,,A27KTNOX292J1I
358,53,,1.0,33.0,playground_240.jpg,,,,A27KTNOX292J1I
359,54,,1.0,34.0,playground_76.jpg,,,,A27KTNOX292J1I
360,55,,1.0,35.0,highway_177.jpg,,,,A27KTNOX292J1I
361,56,,1.0,36.0,badlands_221.jpg,,,,A27KTNOX292J1I
362,57,,1.0,37.0,golf_course_87.jpg,,,,A27KTNOX292J1I
363,58,,1.0,38.0,highway_359.jpg,,,,A27KTNOX292J1I
364,59,,1.0,39.0,playground_145.jpg,,,,A27KTNOX292J1I
365,60,,1.0,40.0,playground_219.jpg,,,,A27KTNOX292J1I
366,61,left,1.0,41.0,left.jpg,left,2.282,,A27KTNOX292J1I
367,62,,1.0,42.0,badlands_222.jpg,,,,A27KTNOX292J1I
368,63,,1.0,43.0,highway_156.jpg,,,,A27KTNOX292J1I
369,64,,1.0,44.0,playground_117.jpg,,,,A27KTNOX292J1I
370,65,,1.0,45.0,highway_209.jpg,,,,A27KTNOX292J1I
371,66,,1.0,46.0,badlands_52.jpg,,,,A27KTNOX292J1I
372,67,,1.0,47.0,bridge_91.jpg,,,,A27KTNOX292J1I
373,68,,0.0,48.0,right.jpg,right,,,A27KTNOX292J1I
374,69,,1.0,49.0,golf_course_309.jpg,,,,A27KTNOX292J1I
375,70,,1.0,50.0,golf_course_217.jpg,,,,A27KTNOX292J1I
376,71,,1.0,51.0,highway_93.jpg,,,,A27KTNOX292J1I
377,72,,1.0,52.0,mountain_222.jpg,,,,A27KTNOX292J1I
378,73,,1.0,53.0,mountain_110.jpg,,,,A27KTNOX292J1I
379,74,,1.0,54.0,bridge_202.jpg,,,,A27KTNOX292J1I
380,75,,1.0,55.0,badlands_184.jpg,,,,A27KTNOX292J1I
381,76,,1.0,56.0,bridge_191.jpg,,,,A27KTNOX292J1I
382,77,,1.0,57.0,mountain_57.jpg,,,,A27KTNOX292J1I
383,78,,1.0,58.0,bridge_250.jpg,,,,A27KTNOX292J1I
384,79,,1.0,59.0,playground_257.jpg,,,,A27KTNOX292J1I
385,80,,1.0,60.0,bridge_146.jpg,,,,A27KTNOX292J1I
386,81,,1.0,61.0,highway_245.jpg,,,,A27KTNOX292J1I
387,82,,1.0,62.0,mountain_293.jpg,,,,A27KTNOX292J1I
388,83,,1.0,63.0,mountain_230.jpg,,,,A27KTNOX292J1I
389,84,,1.0,64.0,badlands_137.jpg,,,,A27KTNOX292J1I
390,20,,1.0,0.0,badlands_222.jpg,,,,A2APG8MSLJ6G2K
391,21,,1.0,1.0,playground_257.jpg,,,,A2APG8MSLJ6G2K
392,22,,1.0,2.0,badlands_113.jpg,,,,A2APG8MSLJ6G2K
393,23,,1.0,3.0,golf_course_195.jpg,,,,A2APG8MSLJ6G2K
394,24,,1.0,4.0,badlands_52.jpg,,,,A2APG8MSLJ6G2K
395,25,,1.0,5.0,bridge_65.jpg,,,,A2APG8MSLJ6G2K
396,26,,1.0,6.0,badlands_21.jpg,,,,A2APG8MSLJ6G2K
397,27,,1.0,7.0,golf_course_78.jpg,,,,A2APG8MSLJ6G2K
398,28,,1.0,8.0,golf_course_309.jpg,,,,A2APG8MSLJ6G2K
399,29,right,1.0,9.0,right.jpg,right,0.7429,,A2APG8MSLJ6G2K
400,30,,1.0,10.0,highway_294.jpg,,,,A2APG8MSLJ6G2K
401,31,,1.0,11.0,badlands_221.jpg,,,,A2APG8MSLJ6G2K
402,32,,1.0,12.0,bridge_146.jpg,,,,A2APG8MSLJ6G2K
403,33,,1.0,13.0,mountain_293.jpg,,,,A2APG8MSLJ6G2K
404,34,,1.0,14.0,bridge_172.jpg,,,,A2APG8MSLJ6G2K
405,35,,1.0,15.0,bridge_91.jpg,,,,A2APG8MSLJ6G2K
406,36,,1.0,16.0,mountain_101.jpg,,,,A2APG8MSLJ6G2K
407,37,,1.0,17.0,playground_131.jpg,,,,A2APG8MSLJ6G2K
408,38,,1.0,18.0,golf_course_214.jpg,,,,A2APG8MSLJ6G2K
409,39,,1.0,19.0,playground_60.jpg,,,,A2APG8MSLJ6G2K
410,40,,1.0,20.0,golf_course_193.jpg,,,,A2APG8MSLJ6G2K
411,41,left,1.0,21.0,left.jpg,left,0.7596,,A2APG8MSLJ6G2K
412,42,,1.0,22.0,mountain_154.jpg,,,,A2APG8MSLJ6G2K
413,43,,1.0,23.0,badlands_24.jpg,,,,A2APG8MSLJ6G2K
414,44,,1.0,24.0,playground_145.jpg,,,,A2APG8MSLJ6G2K
415,45,,1.0,25.0,mountain_110.jpg,,,,A2APG8MSLJ6G2K
416,46,,1.0,26.0,mountain_222.jpg,,,,A2APG8MSLJ6G2K
417,47,,1.0,27.0,highway_245.jpg,,,,A2APG8MSLJ6G2K
418,48,,1.0,28.0,golf_course_15.jpg,,,,A2APG8MSLJ6G2K
419,49,,1.0,29.0,golf_course_331.jpg,,,,A2APG8MSLJ6G2K
420,50,,1.0,30.0,badlands_23.jpg,,,,A2APG8MSLJ6G2K
421,51,,1.0,31.0,highway_415.jpg,,,,A2APG8MSLJ6G2K
422,52,left,1.0,32.0,left.jpg,left,0.6953,,A2APG8MSLJ6G2K
423,53,,1.0,33.0,bridge_108.jpg,,,,A2APG8MSLJ6G2K
424,54,,1.0,34.0,playground_240.jpg,,,,A2APG8MSLJ6G2K
425,55,,1.0,35.0,golf_course_87.jpg,,,,A2APG8MSLJ6G2K
426,56,,1.0,36.0,highway_177.jpg,,,,A2APG8MSLJ6G2K
427,57,,1.0,37.0,bridge_128.jpg,,,,A2APG8MSLJ6G2K
428,58,,1.0,38.0,mountain_156.jpg,,,,A2APG8MSLJ6G2K
429,59,,1.0,39.0,highway_93.jpg,,,,A2APG8MSLJ6G2K
430,60,,1.0,40.0,bridge_191.jpg,,,,A2APG8MSLJ6G2K
431,61,,1.0,41.0,highway_156.jpg,,,,A2APG8MSLJ6G2K
432,62,,1.0,42.0,playground_10.jpg,,,,A2APG8MSLJ6G2K
433,63,right,1.0,43.0,right.jpg,right,0.7775,,A2APG8MSLJ6G2K
434,64,,1.0,44.0,highway_273.jpg,,,,A2APG8MSLJ6G2K
435,65,,1.0,45.0,golf_course_188.jpg,,,,A2APG8MSLJ6G2K
436,66,,1.0,46.0,playground_219.jpg,,,,A2APG8MSLJ6G2K
437,67,,1.0,47.0,bridge_256.jpg,,,,A2APG8MSLJ6G2K
438,68,,1.0,48.0,highway_209.jpg,,,,A2APG8MSLJ6G2K
439,69,,1.0,49.0,mountain_232.jpg,,,,A2APG8MSLJ6G2K
440,70,,1.0,50.0,playground_76.jpg,,,,A2APG8MSLJ6G2K
441,71,,1.0,51.0,playground_117.jpg,,,,A2APG8MSLJ6G2K
442,72,right,1.0,52.0,right.jpg,right,0.692,,A2APG8MSLJ6G2K
443,73,,1.0,53.0,badlands_70.jpg,,,,A2APG8MSLJ6G2K
444,74,,1.0,54.0,highway_394.jpg,,,,A2APG8MSLJ6G2K
445,75,,1.0,55.0,badlands_184.jpg,,,,A2APG8MSLJ6G2K
446,76,,1.0,56.0,playground_144.jpg,,,,A2APG8MSLJ6G2K
447,77,,1.0,57.0,mountain_57.jpg,,,,A2APG8MSLJ6G2K
448,78,,1.0,58.0,highway_359.jpg,,,,A2APG8MSLJ6G2K
449,79,,1.0,59.0,mountain_123.jpg,,,,A2APG8MSLJ6G2K
450,80,,1.0,60.0,mountain_230.jpg,,,,A2APG8MSLJ6G2K
451,81,,1.0,61.0,badlands_137.jpg,,,,A2APG8MSLJ6G2K
452,82,,1.0,62.0,bridge_202.jpg,,,,A2APG8MSLJ6G2K
453,83,,1.0,63.0,golf_course_217.jpg,,,,A2APG8MSLJ6G2K
454,84,,1.0,64.0,bridge_250.jpg,,,,A2APG8MSLJ6G2K
455,20,,1.0,0.0,bridge_256.jpg,,,,A2IQ0QCTQ3KWLT
456,21,,1.0,1.0,playground_144.jpg,,,,A2IQ0QCTQ3KWLT
457,22,,1.0,2.0,highway_209.jpg,,,,A2IQ0QCTQ3KWLT
458,23,,1.0,3.0,mountain_123.jpg,,,,A2IQ0QCTQ3KWLT
459,24,,1.0,4.0,playground_257.jpg,,,,A2IQ0QCTQ3KWLT
460,25,,1.0,5.0,highway_273.jpg,,,,A2IQ0QCTQ3KWLT
461,26,,1.0,6.0,highway_156.jpg,,,,A2IQ0QCTQ3KWLT
462,27,,1.0,7.0,mountain_230.jpg,,,,A2IQ0QCTQ3KWLT
463,28,,1.0,8.0,highway_93.jpg,,,,A2IQ0QCTQ3KWLT
464,29,,1.0,9.0,playground_219.jpg,,,,A2IQ0QCTQ3KWLT
465,30,,1.0,10.0,golf_course_87.jpg,,,,A2IQ0QCTQ3KWLT
466,31,,1.0,11.0,bridge_91.jpg,,,,A2IQ0QCTQ3KWLT
467,32,,1.0,12.0,highway_177.jpg,,,,A2IQ0QCTQ3KWLT
468,33,,1.0,13.0,golf_course_188.jpg,,,,A2IQ0QCTQ3KWLT
469,34,right,1.0,14.0,right.jpg,right,0.5889,,A2IQ0QCTQ3KWLT
470,35,,1.0,15.0,playground_117.jpg,,,,A2IQ0QCTQ3KWLT
471,36,right,1.0,16.0,right.jpg,right,0.62,,A2IQ0QCTQ3KWLT
472,37,,1.0,17.0,badlands_52.jpg,,,,A2IQ0QCTQ3KWLT
473,38,,1.0,18.0,badlands_222.jpg,,,,A2IQ0QCTQ3KWLT
474,39,,1.0,19.0,highway_359.jpg,,,,A2IQ0QCTQ3KWLT
475,40,,1.0,20.0,golf_course_78.jpg,,,,A2IQ0QCTQ3KWLT
476,41,,1.0,21.0,mountain_293.jpg,,,,A2IQ0QCTQ3KWLT
477,42,,1.0,22.0,highway_294.jpg,,,,A2IQ0QCTQ3KWLT
478,43,,1.0,23.0,mountain_156.jpg,,,,A2IQ0QCTQ3KWLT
479,44,,1.0,24.0,highway_415.jpg,,,,A2IQ0QCTQ3KWLT
480,45,,1.0,25.0,mountain_222.jpg,,,,A2IQ0QCTQ3KWLT
481,46,,1.0,26.0,badlands_137.jpg,,,,A2IQ0QCTQ3KWLT
482,47,,1.0,27.0,playground_240.jpg,,,,A2IQ0QCTQ3KWLT
483,48,left,1.0,28.0,left.jpg,left,0.6047,,A2IQ0QCTQ3KWLT
484,49,,1.0,29.0,mountain_154.jpg,,,,A2IQ0QCTQ3KWLT
485,50,,1.0,30.0,bridge_146.jpg,,,,A2IQ0QCTQ3KWLT
486,51,,1.0,31.0,playground_76.jpg,,,,A2IQ0QCTQ3KWLT
487,52,,1.0,32.0,playground_60.jpg,,,,A2IQ0QCTQ3KWLT
488,53,,1.0,33.0,golf_course_309.jpg,,,,A2IQ0QCTQ3KWLT
489,54,,1.0,34.0,mountain_110.jpg,,,,A2IQ0QCTQ3KWLT
490,55,,1.0,35.0,badlands_23.jpg,,,,A2IQ0QCTQ3KWLT
491,56,,1.0,36.0,playground_10.jpg,,,,A2IQ0QCTQ3KWLT
492,57,,1.0,37.0,highway_245.jpg,,,,A2IQ0QCTQ3KWLT
493,58,right,1.0,38.0,right.jpg,right,1.1152,,A2IQ0QCTQ3KWLT
494,59,,1.0,39.0,badlands_184.jpg,,,,A2IQ0QCTQ3KWLT
495,60,,1.0,40.0,bridge_250.jpg,,,,A2IQ0QCTQ3KWLT
496,61,,1.0,41.0,golf_course_217.jpg,,,,A2IQ0QCTQ3KWLT
497,62,,1.0,42.0,bridge_108.jpg,,,,A2IQ0QCTQ3KWLT
498,63,,1.0,43.0,badlands_21.jpg,,,,A2IQ0QCTQ3KWLT
499,64,,1.0,44.0,bridge_65.jpg,,,,A2IQ0QCTQ3KWLT
500,65,,1.0,45.0,bridge_202.jpg,,,,A2IQ0QCTQ3KWLT
501,66,,1.0,46.0,golf_course_195.jpg,,,,A2IQ0QCTQ3KWLT
502,67,,1.0,47.0,playground_145.jpg,,,,A2IQ0QCTQ3KWLT
503,68,,1.0,48.0,golf_course_15.jpg,,,,A2IQ0QCTQ3KWLT
504,69,,1.0,49.0,badlands_221.jpg,,,,A2IQ0QCTQ3KWLT
505,70,right,1.0,50.0,right.jpg,right,0.5019,,A2IQ0QCTQ3KWLT
506,71,,1.0,51.0,badlands_24.jpg,,,,A2IQ0QCTQ3KWLT
507,72,,1.0,52.0,bridge_191.jpg,,,,A2IQ0QCTQ3KWLT
508,73,,1.0,53.0,playground_131.jpg,,,,A2IQ0QCTQ3KWLT
509,74,,1.0,54.0,bridge_128.jpg,,,,A2IQ0QCTQ3KWLT
510,75,,1.0,55.0,mountain_232.jpg,,,,A2IQ0QCTQ3KWLT
511,76,,1.0,56.0,golf_course_331.jpg,,,,A2IQ0QCTQ3KWLT
512,77,,1.0,57.0,golf_course_193.jpg,,,,A2IQ0QCTQ3KWLT
513,78,,1.0,58.0,bridge_172.jpg,,,,A2IQ0QCTQ3KWLT
514,79,,1.0,59.0,badlands_70.jpg,,,,A2IQ0QCTQ3KWLT
515,80,,1.0,60.0,badlands_113.jpg,,,,A2IQ0QCTQ3KWLT
516,81,,1.0,61.0,mountain_57.jpg,,,,A2IQ0QCTQ3KWLT
517,82,,1.0,62.0,mountain_101.jpg,,,,A2IQ0QCTQ3KWLT
518,83,,1.0,63.0,highway_394.jpg,,,,A2IQ0QCTQ3KWLT
519,84,,1.0,64.0,golf_course_214.jpg,,,,A2IQ0QCTQ3KWLT
520,20,,1.0,0.0,bridge_65.jpg,,,,A2LQO0696YYC1Q
521,21,,1.0,1.0,badlands_24.jpg,,,,A2LQO0696YYC1Q
522,22,,1.0,2.0,highway_415.jpg,,,,A2LQO0696YYC1Q
523,23,,1.0,3.0,badlands_21.jpg,,,,A2LQO0696YYC1Q
524,24,,1.0,4.0,playground_131.jpg,,,,A2LQO0696YYC1Q
525,25,,1.0,5.0,playground_219.jpg,,,,A2LQO0696YYC1Q
526,26,,1.0,6.0,highway_359.jpg,,,,A2LQO0696YYC1Q
527,27,,1.0,7.0,bridge_256.jpg,,,,A2LQO0696YYC1Q
528,28,,1.0,8.0,mountain_230.jpg,,,,A2LQO0696YYC1Q
529,29,,1.0,9.0,golf_course_195.jpg,,,,A2LQO0696YYC1Q
530,30,,1.0,10.0,playground_144.jpg,,,,A2LQO0696YYC1Q
531,31,,1.0,11.0,bridge_146.jpg,,,,A2LQO0696YYC1Q
532,32,left,1.0,12.0,left.jpg,left,1.106,,A2LQO0696YYC1Q
533,33,,1.0,13.0,playground_117.jpg,,,,A2LQO0696YYC1Q
534,34,,1.0,14.0,bridge_191.jpg,,,,A2LQO0696YYC1Q
535,35,,1.0,15.0,playground_257.jpg,,,,A2LQO0696YYC1Q
536,36,,1.0,16.0,highway_177.jpg,,,,A2LQO0696YYC1Q
537,37,,1.0,17.0,badlands_113.jpg,,,,A2LQO0696YYC1Q
538,38,,1.0,18.0,highway_273.jpg,,,,A2LQO0696YYC1Q
539,39,,1.0,19.0,golf_course_78.jpg,,,,A2LQO0696YYC1Q
540,40,,1.0,20.0,badlands_70.jpg,,,,A2LQO0696YYC1Q
541,41,left,1.0,21.0,left.jpg,left,1.851,,A2LQO0696YYC1Q
542,42,,1.0,22.0,golf_course_217.jpg,,,,A2LQO0696YYC1Q
543,43,,1.0,23.0,bridge_250.jpg,,,,A2LQO0696YYC1Q
544,44,,1.0,24.0,badlands_52.jpg,,,,A2LQO0696YYC1Q
545,45,,1.0,25.0,playground_60.jpg,,,,A2LQO0696YYC1Q
546,46,,1.0,26.0,mountain_123.jpg,,,,A2LQO0696YYC1Q
547,47,,1.0,27.0,mountain_156.jpg,,,,A2LQO0696YYC1Q
548,48,,1.0,28.0,badlands_221.jpg,,,,A2LQO0696YYC1Q
549,49,,1.0,29.0,highway_209.jpg,,,,A2LQO0696YYC1Q
550,50,,1.0,30.0,playground_76.jpg,,,,A2LQO0696YYC1Q
551,51,,1.0,31.0,golf_course_214.jpg,,,,A2LQO0696YYC1Q
552,52,,1.0,32.0,badlands_222.jpg,,,,A2LQO0696YYC1Q
553,53,,1.0,33.0,mountain_110.jpg,,,,A2LQO0696YYC1Q
554,54,,0.0,34.0,right.jpg,right,,,A2LQO0696YYC1Q
555,55,,1.0,35.0,golf_course_193.jpg,,,,A2LQO0696YYC1Q
556,56,,1.0,36.0,highway_294.jpg,,,,A2LQO0696YYC1Q
557,57,,1.0,37.0,bridge_91.jpg,,,,A2LQO0696YYC1Q
558,58,,1.0,38.0,highway_394.jpg,,,,A2LQO0696YYC1Q
559,59,,1.0,39.0,mountain_232.jpg,,,,A2LQO0696YYC1Q
560,60,,0.0,40.0,right.jpg,right,,,A2LQO0696YYC1Q
561,61,,1.0,41.0,mountain_101.jpg,,,,A2LQO0696YYC1Q
562,62,,1.0,42.0,bridge_108.jpg,,,,A2LQO0696YYC1Q
563,63,,1.0,43.0,highway_156.jpg,,,,A2LQO0696YYC1Q
564,64,,1.0,44.0,mountain_293.jpg,,,,A2LQO0696YYC1Q
565,65,,1.0,45.0,playground_10.jpg,,,,A2LQO0696YYC1Q
566,66,,1.0,46.0,badlands_23.jpg,,,,A2LQO0696YYC1Q
567,67,,1.0,47.0,golf_course_15.jpg,,,,A2LQO0696YYC1Q
568,68,,1.0,48.0,badlands_137.jpg,,,,A2LQO0696YYC1Q
569,69,,1.0,49.0,golf_course_331.jpg,,,,A2LQO0696YYC1Q
570,70,,1.0,50.0,bridge_128.jpg,,,,A2LQO0696YYC1Q
571,71,,1.0,51.0,mountain_154.jpg,,,,A2LQO0696YYC1Q
572,72,,1.0,52.0,highway_245.jpg,,,,A2LQO0696YYC1Q
573,73,left,1.0,53.0,left.jpg,left,1.658,,A2LQO0696YYC1Q
574,74,,1.0,54.0,mountain_222.jpg,,,,A2LQO0696YYC1Q
575,75,,1.0,55.0,playground_145.jpg,,,,A2LQO0696YYC1Q
576,76,,1.0,56.0,golf_course_188.jpg,,,,A2LQO0696YYC1Q
577,77,,1.0,57.0,bridge_172.jpg,,,,A2LQO0696YYC1Q
578,78,,1.0,58.0,badlands_184.jpg,,,,A2LQO0696YYC1Q
579,79,,1.0,59.0,bridge_202.jpg,,,,A2LQO0696YYC1Q
580,80,,1.0,60.0,mountain_57.jpg,,,,A2LQO0696YYC1Q
581,81,,1.0,61.0,golf_course_309.jpg,,,,A2LQO0696YYC1Q
582,82,,1.0,62.0,golf_course_87.jpg,,,,A2LQO0696YYC1Q
583,83,,1.0,63.0,highway_93.jpg,,,,A2LQO0696YYC1Q
584,84,,1.0,64.0,playground_240.jpg,,,,A2LQO0696YYC1Q
585,20,,1.0,0.0,golf_course_15.jpg,,,,A2LQSIUU2U0ZT2
586,21,,1.0,1.0,golf_course_217.jpg,,,,A2LQSIUU2U0ZT2
587,22,,1.0,2.0,playground_240.jpg,,,,A2LQSIUU2U0ZT2
588,23,,1.0,3.0,golf_course_188.jpg,,,,A2LQSIUU2U0ZT2
589,24,,1.0,4.0,bridge_250.jpg,,,,A2LQSIUU2U0ZT2
590,25,,1.0,5.0,golf_course_309.jpg,,,,A2LQSIUU2U0ZT2
591,26,,1.0,6.0,badlands_221.jpg,,,,A2LQSIUU2U0ZT2
592,27,left,1.0,7.0,left.jpg,left,1.0907,,A2LQSIUU2U0ZT2
593,28,,1.0,8.0,playground_117.jpg,,,,A2LQSIUU2U0ZT2
594,29,,1.0,9.0,mountain_293.jpg,,,,A2LQSIUU2U0ZT2
595,30,,1.0,10.0,bridge_256.jpg,,,,A2LQSIUU2U0ZT2
596,31,,1.0,11.0,playground_144.jpg,,,,A2LQSIUU2U0ZT2
597,32,,1.0,12.0,highway_93.jpg,,,,A2LQSIUU2U0ZT2
598,33,,1.0,13.0,badlands_70.jpg,,,,A2LQSIUU2U0ZT2
599,34,,1.0,14.0,highway_359.jpg,,,,A2LQSIUU2U0ZT2
600,35,,1.0,15.0,bridge_202.jpg,,,,A2LQSIUU2U0ZT2
601,36,,1.0,16.0,badlands_137.jpg,,,,A2LQSIUU2U0ZT2
602,37,,1.0,17.0,mountain_230.jpg,,,,A2LQSIUU2U0ZT2
603,38,,1.0,18.0,highway_394.jpg,,,,A2LQSIUU2U0ZT2
604,39,,1.0,19.0,playground_131.jpg,,,,A2LQSIUU2U0ZT2
605,40,,1.0,20.0,badlands_113.jpg,,,,A2LQSIUU2U0ZT2
606,41,,1.0,21.0,mountain_123.jpg,,,,A2LQSIUU2U0ZT2
607,42,left,1.0,22.0,left.jpg,left,0.9741,,A2LQSIUU2U0ZT2
608,43,,1.0,23.0,badlands_222.jpg,,,,A2LQSIUU2U0ZT2
609,44,,1.0,24.0,golf_course_78.jpg,,,,A2LQSIUU2U0ZT2
610,45,,1.0,25.0,highway_415.jpg,,,,A2LQSIUU2U0ZT2
611,46,,1.0,26.0,playground_10.jpg,,,,A2LQSIUU2U0ZT2
612,47,,1.0,27.0,playground_219.jpg,,,,A2LQSIUU2U0ZT2
613,48,,1.0,28.0,highway_209.jpg,,,,A2LQSIUU2U0ZT2
614,49,,1.0,29.0,playground_60.jpg,,,,A2LQSIUU2U0ZT2
615,50,,1.0,30.0,bridge_65.jpg,,,,A2LQSIUU2U0ZT2
616,51,,1.0,31.0,badlands_24.jpg,,,,A2LQSIUU2U0ZT2
617,52,,1.0,32.0,mountain_232.jpg,,,,A2LQSIUU2U0ZT2
618,53,left,1.0,33.0,left.jpg,left,1.111,,A2LQSIUU2U0ZT2
619,54,,1.0,34.0,badlands_184.jpg,,,,A2LQSIUU2U0ZT2
620,55,,1.0,35.0,bridge_128.jpg,,,,A2LQSIUU2U0ZT2
621,56,,1.0,36.0,golf_course_195.jpg,,,,A2LQSIUU2U0ZT2
622,57,,1.0,37.0,golf_course_214.jpg,,,,A2LQSIUU2U0ZT2
623,58,,1.0,38.0,badlands_23.jpg,,,,A2LQSIUU2U0ZT2
624,59,,1.0,39.0,highway_177.jpg,,,,A2LQSIUU2U0ZT2
625,60,,1.0,40.0,highway_273.jpg,,,,A2LQSIUU2U0ZT2
626,61,,1.0,41.0,mountain_154.jpg,,,,A2LQSIUU2U0ZT2
627,62,,1.0,42.0,bridge_108.jpg,,,,A2LQSIUU2U0ZT2
628,63,right,1.0,43.0,right.jpg,right,1.0073,,A2LQSIUU2U0ZT2
629,64,,1.0,44.0,golf_course_193.jpg,,,,A2LQSIUU2U0ZT2
630,65,,1.0,45.0,golf_course_331.jpg,,,,A2LQSIUU2U0ZT2
631,66,,1.0,46.0,bridge_146.jpg,,,,A2LQSIUU2U0ZT2
632,67,,1.0,47.0,bridge_172.jpg,,,,A2LQSIUU2U0ZT2
633,68,,1.0,48.0,playground_145.jpg,,,,A2LQSIUU2U0ZT2
634,69,,1.0,49.0,mountain_57.jpg,,,,A2LQSIUU2U0ZT2
635,70,,1.0,50.0,highway_156.jpg,,,,A2LQSIUU2U0ZT2
636,71,,1.0,51.0,highway_294.jpg,,,,A2LQSIUU2U0ZT2
637,72,,1.0,52.0,mountain_222.jpg,,,,A2LQSIUU2U0ZT2
638,73,right,1.0,53.0,right.jpg,right,0.9801,,A2LQSIUU2U0ZT2
639,74,,1.0,54.0,bridge_191.jpg,,,,A2LQSIUU2U0ZT2
640,75,,1.0,55.0,mountain_110.jpg,,,,A2LQSIUU2U0ZT2
641,76,,1.0,56.0,golf_course_87.jpg,,,,A2LQSIUU2U0ZT2
642,77,,1.0,57.0,playground_257.jpg,,,,A2LQSIUU2U0ZT2
643,78,,1.0,58.0,mountain_101.jpg,,,,A2LQSIUU2U0ZT2
644,79,,1.0,59.0,highway_245.jpg,,,,A2LQSIUU2U0ZT2
645,80,,1.0,60.0,bridge_91.jpg,,,,A2LQSIUU2U0ZT2
646,81,,1.0,61.0,badlands_52.jpg,,,,A2LQSIUU2U0ZT2
647,82,,1.0,62.0,badlands_21.jpg,,,,A2LQSIUU2U0ZT2
648,83,,1.0,63.0,playground_76.jpg,,,,A2LQSIUU2U0ZT2
649,84,,1.0,64.0,mountain_156.jpg,,,,A2LQSIUU2U0ZT2
650,20,,1.0,0.0,golf_course_15.jpg,,,,A2NAKIXS3DVGAA
651,21,,1.0,1.0,badlands_221.jpg,,,,A2NAKIXS3DVGAA
652,22,,1.0,2.0,playground_76.jpg,,,,A2NAKIXS3DVGAA
653,23,,1.0,3.0,golf_course_87.jpg,,,,A2NAKIXS3DVGAA
654,24,,1.0,4.0,playground_257.jpg,,,,A2NAKIXS3DVGAA
655,25,,1.0,5.0,mountain_156.jpg,,,,A2NAKIXS3DVGAA
656,26,,1.0,6.0,golf_course_193.jpg,,,,A2NAKIXS3DVGAA
657,27,,1.0,7.0,bridge_65.jpg,,,,A2NAKIXS3DVGAA
658,28,,1.0,8.0,golf_course_309.jpg,,,,A2NAKIXS3DVGAA
659,29,right,1.0,9.0,right.jpg,right,0.802,,A2NAKIXS3DVGAA
660,30,,1.0,10.0,playground_144.jpg,,,,A2NAKIXS3DVGAA
661,31,,1.0,11.0,mountain_57.jpg,,,,A2NAKIXS3DVGAA
662,32,,1.0,12.0,bridge_250.jpg,,,,A2NAKIXS3DVGAA
663,33,,1.0,13.0,highway_245.jpg,,,,A2NAKIXS3DVGAA
664,34,,1.0,14.0,highway_156.jpg,,,,A2NAKIXS3DVGAA
665,35,,1.0,15.0,highway_359.jpg,,,,A2NAKIXS3DVGAA
666,36,,1.0,16.0,highway_177.jpg,,,,A2NAKIXS3DVGAA
667,37,left,1.0,17.0,left.jpg,left,0.671,,A2NAKIXS3DVGAA
668,38,,1.0,18.0,playground_240.jpg,,,,A2NAKIXS3DVGAA
669,39,,1.0,19.0,bridge_256.jpg,,,,A2NAKIXS3DVGAA
670,40,,1.0,20.0,badlands_23.jpg,,,,A2NAKIXS3DVGAA
671,41,,1.0,21.0,badlands_184.jpg,,,,A2NAKIXS3DVGAA
672,42,,1.0,22.0,bridge_128.jpg,,,,A2NAKIXS3DVGAA
673,43,,1.0,23.0,bridge_191.jpg,,,,A2NAKIXS3DVGAA
674,44,,1.0,24.0,badlands_70.jpg,,,,A2NAKIXS3DVGAA
675,45,,1.0,25.0,bridge_108.jpg,,,,A2NAKIXS3DVGAA
676,46,,1.0,26.0,badlands_24.jpg,,,,A2NAKIXS3DVGAA
677,47,,1.0,27.0,badlands_113.jpg,,,,A2NAKIXS3DVGAA
678,48,,1.0,28.0,highway_93.jpg,,,,A2NAKIXS3DVGAA
679,49,,1.0,29.0,golf_course_188.jpg,,,,A2NAKIXS3DVGAA
680,50,,1.0,30.0,mountain_232.jpg,,,,A2NAKIXS3DVGAA
681,51,,1.0,31.0,playground_145.jpg,,,,A2NAKIXS3DVGAA
682,52,,1.0,32.0,mountain_110.jpg,,,,A2NAKIXS3DVGAA
683,53,right,1.0,33.0,right.jpg,right,0.541,,A2NAKIXS3DVGAA
684,54,,1.0,34.0,playground_117.jpg,,,,A2NAKIXS3DVGAA
685,55,,1.0,35.0,golf_course_331.jpg,,,,A2NAKIXS3DVGAA
686,56,,1.0,36.0,badlands_21.jpg,,,,A2NAKIXS3DVGAA
687,57,,1.0,37.0,bridge_172.jpg,,,,A2NAKIXS3DVGAA
688,58,,1.0,38.0,mountain_154.jpg,,,,A2NAKIXS3DVGAA
689,59,,1.0,39.0,highway_415.jpg,,,,A2NAKIXS3DVGAA
690,60,right,1.0,40.0,right.jpg,right,0.534,,A2NAKIXS3DVGAA
691,61,,1.0,41.0,badlands_137.jpg,,,,A2NAKIXS3DVGAA
692,62,,1.0,42.0,highway_273.jpg,,,,A2NAKIXS3DVGAA
693,63,,1.0,43.0,golf_course_214.jpg,,,,A2NAKIXS3DVGAA
694,64,,1.0,44.0,playground_60.jpg,,,,A2NAKIXS3DVGAA
695,65,,1.0,45.0,highway_394.jpg,,,,A2NAKIXS3DVGAA
696,66,,1.0,46.0,badlands_222.jpg,,,,A2NAKIXS3DVGAA
697,67,,1.0,47.0,golf_course_195.jpg,,,,A2NAKIXS3DVGAA
698,68,,1.0,48.0,bridge_146.jpg,,,,A2NAKIXS3DVGAA
699,69,,1.0,49.0,mountain_230.jpg,,,,A2NAKIXS3DVGAA
700,70,,1.0,50.0,mountain_222.jpg,,,,A2NAKIXS3DVGAA
701,71,left,1.0,51.0,left.jpg,left,0.776,,A2NAKIXS3DVGAA
702,72,,1.0,52.0,mountain_293.jpg,,,,A2NAKIXS3DVGAA
703,73,,1.0,53.0,mountain_101.jpg,,,,A2NAKIXS3DVGAA
704,74,,1.0,54.0,golf_course_78.jpg,,,,A2NAKIXS3DVGAA
705,75,,1.0,55.0,highway_209.jpg,,,,A2NAKIXS3DVGAA
706,76,,1.0,56.0,playground_131.jpg,,,,A2NAKIXS3DVGAA
707,77,,1.0,57.0,playground_219.jpg,,,,A2NAKIXS3DVGAA
708,78,,1.0,58.0,playground_10.jpg,,,,A2NAKIXS3DVGAA
709,79,,1.0,59.0,golf_course_217.jpg,,,,A2NAKIXS3DVGAA
710,80,,1.0,60.0,bridge_91.jpg,,,,A2NAKIXS3DVGAA
711,81,,1.0,61.0,bridge_202.jpg,,,,A2NAKIXS3DVGAA
712,82,,1.0,62.0,highway_294.jpg,,,,A2NAKIXS3DVGAA
713,83,,1.0,63.0,mountain_123.jpg,,,,A2NAKIXS3DVGAA
714,84,,1.0,64.0,badlands_52.jpg,,,,A2NAKIXS3DVGAA
715,20,,1.0,0.0,bridge_146.jpg,,,,A2OQ5LQ3YB4HX1
716,21,,1.0,1.0,highway_273.jpg,,,,A2OQ5LQ3YB4HX1
717,22,,1.0,2.0,golf_course_78.jpg,,,,A2OQ5LQ3YB4HX1
718,23,,1.0,3.0,badlands_221.jpg,,,,A2OQ5LQ3YB4HX1
719,24,,1.0,4.0,badlands_137.jpg,,,,A2OQ5LQ3YB4HX1
720,25,,1.0,5.0,bridge_191.jpg,,,,A2OQ5LQ3YB4HX1
721,26,,1.0,6.0,bridge_256.jpg,,,,A2OQ5LQ3YB4HX1
722,27,right,1.0,7.0,right.jpg,right,0.9625,,A2OQ5LQ3YB4HX1
723,28,,1.0,8.0,golf_course_217.jpg,,,,A2OQ5LQ3YB4HX1
724,29,,1.0,9.0,mountain_156.jpg,,,,A2OQ5LQ3YB4HX1
725,30,,1.0,10.0,bridge_172.jpg,,,,A2OQ5LQ3YB4HX1
726,31,,1.0,11.0,highway_415.jpg,,,,A2OQ5LQ3YB4HX1
727,32,,1.0,12.0,golf_course_195.jpg,,,,A2OQ5LQ3YB4HX1
728,33,,1.0,13.0,playground_145.jpg,,,,A2OQ5LQ3YB4HX1
729,34,,1.0,14.0,mountain_293.jpg,,,,A2OQ5LQ3YB4HX1
730,35,,1.0,15.0,mountain_123.jpg,,,,A2OQ5LQ3YB4HX1
731,36,left,1.0,16.0,left.jpg,left,0.7611,,A2OQ5LQ3YB4HX1
732,37,,1.0,17.0,highway_245.jpg,,,,A2OQ5LQ3YB4HX1
733,38,,1.0,18.0,badlands_21.jpg,,,,A2OQ5LQ3YB4HX1
734,39,,1.0,19.0,badlands_113.jpg,,,,A2OQ5LQ3YB4HX1
735,40,,1.0,20.0,golf_course_214.jpg,,,,A2OQ5LQ3YB4HX1
736,41,,1.0,21.0,badlands_52.jpg,,,,A2OQ5LQ3YB4HX1
737,42,,1.0,22.0,badlands_24.jpg,,,,A2OQ5LQ3YB4HX1
738,43,,1.0,23.0,playground_10.jpg,,,,A2OQ5LQ3YB4HX1
739,44,,1.0,24.0,mountain_110.jpg,,,,A2OQ5LQ3YB4HX1
740,45,,1.0,25.0,mountain_230.jpg,,,,A2OQ5LQ3YB4HX1
741,46,,1.0,26.0,highway_93.jpg,,,,A2OQ5LQ3YB4HX1
742,47,,1.0,27.0,golf_course_193.jpg,,,,A2OQ5LQ3YB4HX1
743,48,,1.0,28.0,highway_294.jpg,,,,A2OQ5LQ3YB4HX1
744,49,,1.0,29.0,golf_course_331.jpg,,,,A2OQ5LQ3YB4HX1
745,50,,1.0,30.0,highway_177.jpg,,,,A2OQ5LQ3YB4HX1
746,51,,1.0,31.0,mountain_154.jpg,,,,A2OQ5LQ3YB4HX1
747,52,,1.0,32.0,bridge_91.jpg,,,,A2OQ5LQ3YB4HX1
748,53,,1.0,33.0,mountain_57.jpg,,,,A2OQ5LQ3YB4HX1
749,54,right,1.0,34.0,right.jpg,right,1.0958,,A2OQ5LQ3YB4HX1
750,55,,1.0,35.0,bridge_108.jpg,,,,A2OQ5LQ3YB4HX1
751,56,,1.0,36.0,playground_76.jpg,,,,A2OQ5LQ3YB4HX1
752,57,,1.0,37.0,bridge_202.jpg,,,,A2OQ5LQ3YB4HX1
753,58,left,1.0,38.0,left.jpg,left,0.8103,,A2OQ5LQ3YB4HX1
754,59,,1.0,39.0,golf_course_15.jpg,,,,A2OQ5LQ3YB4HX1
755,60,,1.0,40.0,bridge_65.jpg,,,,A2OQ5LQ3YB4HX1
756,61,,1.0,41.0,highway_209.jpg,,,,A2OQ5LQ3YB4HX1
757,62,,1.0,42.0,bridge_128.jpg,,,,A2OQ5LQ3YB4HX1
758,63,,1.0,43.0,badlands_70.jpg,,,,A2OQ5LQ3YB4HX1
759,64,,1.0,44.0,highway_359.jpg,,,,A2OQ5LQ3YB4HX1
760,65,,1.0,45.0,badlands_23.jpg,,,,A2OQ5LQ3YB4HX1
761,66,,1.0,46.0,playground_117.jpg,,,,A2OQ5LQ3YB4HX1
762,67,,1.0,47.0,playground_131.jpg,,,,A2OQ5LQ3YB4HX1
763,68,right,1.0,48.0,right.jpg,right,2.9359,,A2OQ5LQ3YB4HX1
764,69,,1.0,49.0,playground_60.jpg,,,,A2OQ5LQ3YB4HX1
765,70,,1.0,50.0,badlands_184.jpg,,,,A2OQ5LQ3YB4HX1
766,71,,1.0,51.0,golf_course_87.jpg,,,,A2OQ5LQ3YB4HX1
767,72,,1.0,52.0,badlands_222.jpg,,,,A2OQ5LQ3YB4HX1
768,73,,1.0,53.0,mountain_222.jpg,,,,A2OQ5LQ3YB4HX1
769,74,,1.0,54.0,playground_144.jpg,,,,A2OQ5LQ3YB4HX1
770,75,,1.0,55.0,golf_course_188.jpg,,,,A2OQ5LQ3YB4HX1
771,76,,1.0,56.0,bridge_250.jpg,,,,A2OQ5LQ3YB4HX1
772,77,,1.0,57.0,playground_240.jpg,,,,A2OQ5LQ3YB4HX1
773,78,,1.0,58.0,mountain_101.jpg,,,,A2OQ5LQ3YB4HX1
774,79,,1.0,59.0,golf_course_309.jpg,,,,A2OQ5LQ3YB4HX1
775,80,,1.0,60.0,playground_257.jpg,,,,A2OQ5LQ3YB4HX1
776,81,,1.0,61.0,playground_219.jpg,,,,A2OQ5LQ3YB4HX1
777,82,,1.0,62.0,highway_394.jpg,,,,A2OQ5LQ3YB4HX1
778,83,,1.0,63.0,highway_156.jpg,,,,A2OQ5LQ3YB4HX1
779,84,,1.0,64.0,mountain_232.jpg,,,,A2OQ5LQ3YB4HX1
780,20,,1.0,0.0,badlands_184.jpg,,,,A2U44IH2MUK32A
781,21,,1.0,1.0,badlands_23.jpg,,,,A2U44IH2MUK32A
782,22,,1.0,2.0,bridge_191.jpg,,,,A2U44IH2MUK32A
783,23,,1.0,3.0,badlands_113.jpg,,,,A2U44IH2MUK32A
784,24,,1.0,4.0,mountain_156.jpg,,,,A2U44IH2MUK32A
785,25,,1.0,5.0,mountain_222.jpg,,,,A2U44IH2MUK32A
786,26,,1.0,6.0,bridge_146.jpg,,,,A2U44IH2MUK32A
787,27,,1.0,7.0,playground_60.jpg,,,,A2U44IH2MUK32A
788,28,,1.0,8.0,mountain_57.jpg,,,,A2U44IH2MUK32A
789,29,,1.0,9.0,highway_394.jpg,,,,A2U44IH2MUK32A
790,30,,1.0,10.0,bridge_65.jpg,,,,A2U44IH2MUK32A
791,31,,1.0,11.0,playground_145.jpg,,,,A2U44IH2MUK32A
792,32,right,1.0,12.0,right.jpg,right,1.2992,,A2U44IH2MUK32A
793,33,,1.0,13.0,badlands_137.jpg,,,,A2U44IH2MUK32A
794,34,,1.0,14.0,bridge_256.jpg,,,,A2U44IH2MUK32A
795,35,,1.0,15.0,playground_76.jpg,,,,A2U44IH2MUK32A
796,36,,1.0,16.0,golf_course_188.jpg,,,,A2U44IH2MUK32A
797,37,,1.0,17.0,mountain_154.jpg,,,,A2U44IH2MUK32A
798,38,right,1.0,18.0,right.jpg,right,1.148,,A2U44IH2MUK32A
799,39,,1.0,19.0,bridge_91.jpg,,,,A2U44IH2MUK32A
800,40,,1.0,20.0,playground_219.jpg,,,,A2U44IH2MUK32A
801,41,,1.0,21.0,playground_117.jpg,,,,A2U44IH2MUK32A
802,42,,1.0,22.0,mountain_123.jpg,,,,A2U44IH2MUK32A
803,43,,1.0,23.0,golf_course_217.jpg,,,,A2U44IH2MUK32A
804,44,,1.0,24.0,golf_course_15.jpg,,,,A2U44IH2MUK32A
805,45,,1.0,25.0,mountain_101.jpg,,,,A2U44IH2MUK32A
806,46,,1.0,26.0,highway_359.jpg,,,,A2U44IH2MUK32A
807,47,,1.0,27.0,golf_course_87.jpg,,,,A2U44IH2MUK32A
808,48,,1.0,28.0,playground_240.jpg,,,,A2U44IH2MUK32A
809,49,left,1.0,29.0,left.jpg,left,1.5771,,A2U44IH2MUK32A
810,50,,1.0,30.0,playground_144.jpg,,,,A2U44IH2MUK32A
811,51,,1.0,31.0,badlands_21.jpg,,,,A2U44IH2MUK32A
812,52,,1.0,32.0,bridge_250.jpg,,,,A2U44IH2MUK32A
813,53,,1.0,33.0,playground_257.jpg,,,,A2U44IH2MUK32A
814,54,,1.0,34.0,highway_245.jpg,,,,A2U44IH2MUK32A
815,55,,1.0,35.0,bridge_202.jpg,,,,A2U44IH2MUK32A
816,56,,1.0,36.0,golf_course_214.jpg,,,,A2U44IH2MUK32A
817,57,,1.0,37.0,badlands_24.jpg,,,,A2U44IH2MUK32A
818,58,,1.0,38.0,mountain_230.jpg,,,,A2U44IH2MUK32A
819,59,,1.0,39.0,playground_10.jpg,,,,A2U44IH2MUK32A
820,60,,1.0,40.0,golf_course_193.jpg,,,,A2U44IH2MUK32A
821,61,,1.0,41.0,mountain_293.jpg,,,,A2U44IH2MUK32A
822,62,,1.0,42.0,golf_course_78.jpg,,,,A2U44IH2MUK32A
823,63,,1.0,43.0,bridge_172.jpg,,,,A2U44IH2MUK32A
824,64,right,1.0,44.0,right.jpg,right,1.169,,A2U44IH2MUK32A
825,65,,1.0,45.0,highway_209.jpg,,,,A2U44IH2MUK32A
826,66,,1.0,46.0,bridge_108.jpg,,,,A2U44IH2MUK32A
827,67,,1.0,47.0,highway_273.jpg,,,,A2U44IH2MUK32A
828,68,,1.0,48.0,badlands_52.jpg,,,,A2U44IH2MUK32A
829,69,,1.0,49.0,badlands_221.jpg,,,,A2U44IH2MUK32A
830,70,,1.0,50.0,golf_course_309.jpg,,,,A2U44IH2MUK32A
831,71,,1.0,51.0,badlands_222.jpg,,,,A2U44IH2MUK32A
832,72,,1.0,52.0,highway_156.jpg,,,,A2U44IH2MUK32A
833,73,,1.0,53.0,highway_415.jpg,,,,A2U44IH2MUK32A
834,74,left,1.0,54.0,left.jpg,left,1.1414,,A2U44IH2MUK32A
835,75,,1.0,55.0,mountain_232.jpg,,,,A2U44IH2MUK32A
836,76,,1.0,56.0,highway_177.jpg,,,,A2U44IH2MUK32A
837,77,,1.0,57.0,playground_131.jpg,,,,A2U44IH2MUK32A
838,78,,1.0,58.0,mountain_110.jpg,,,,A2U44IH2MUK32A
839,79,,1.0,59.0,badlands_70.jpg,,,,A2U44IH2MUK32A
840,80,,1.0,60.0,highway_93.jpg,,,,A2U44IH2MUK32A
841,81,,1.0,61.0,bridge_128.jpg,,,,A2U44IH2MUK32A
842,82,,1.0,62.0,highway_294.jpg,,,,A2U44IH2MUK32A
843,83,,1.0,63.0,golf_course_195.jpg,,,,A2U44IH2MUK32A
844,84,,1.0,64.0,golf_course_331.jpg,,,,A2U44IH2MUK32A
845,20,,1.0,0.0,golf_course_195.jpg,,,,A2WHAIUPGYCFN6
846,21,,1.0,1.0,badlands_222.jpg,,,,A2WHAIUPGYCFN6
847,22,,1.0,2.0,mountain_57.jpg,,,,A2WHAIUPGYCFN6
848,23,,1.0,3.0,badlands_184.jpg,,,,A2WHAIUPGYCFN6
849,24,,1.0,4.0,golf_course_78.jpg,,,,A2WHAIUPGYCFN6
850,25,,1.0,5.0,mountain_101.jpg,,,,A2WHAIUPGYCFN6
851,26,,1.0,6.0,bridge_128.jpg,,,,A2WHAIUPGYCFN6
852,27,,1.0,7.0,mountain_156.jpg,,,,A2WHAIUPGYCFN6
853,28,,1.0,8.0,playground_144.jpg,,,,A2WHAIUPGYCFN6
854,29,,1.0,9.0,badlands_21.jpg,,,,A2WHAIUPGYCFN6
855,30,,1.0,10.0,badlands_52.jpg,,,,A2WHAIUPGYCFN6
856,31,,1.0,11.0,highway_359.jpg,,,,A2WHAIUPGYCFN6
857,32,,1.0,12.0,bridge_65.jpg,,,,A2WHAIUPGYCFN6
858,33,,1.0,13.0,bridge_108.jpg,,,,A2WHAIUPGYCFN6
859,34,right,1.0,14.0,right.jpg,right,1.934,,A2WHAIUPGYCFN6
860,35,,1.0,15.0,highway_93.jpg,,,,A2WHAIUPGYCFN6
861,36,,1.0,16.0,mountain_230.jpg,,,,A2WHAIUPGYCFN6
862,37,,1.0,17.0,highway_209.jpg,,,,A2WHAIUPGYCFN6
863,38,,1.0,18.0,playground_131.jpg,,,,A2WHAIUPGYCFN6
864,39,right,1.0,19.0,right.jpg,right,1.085,,A2WHAIUPGYCFN6
865,40,,1.0,20.0,highway_394.jpg,,,,A2WHAIUPGYCFN6
866,41,,1.0,21.0,highway_273.jpg,,,,A2WHAIUPGYCFN6
867,42,,1.0,22.0,playground_76.jpg,,,,A2WHAIUPGYCFN6
868,43,,1.0,23.0,golf_course_309.jpg,,,,A2WHAIUPGYCFN6
869,44,,1.0,24.0,badlands_221.jpg,,,,A2WHAIUPGYCFN6
870,45,,1.0,25.0,badlands_70.jpg,,,,A2WHAIUPGYCFN6
871,46,,1.0,26.0,highway_245.jpg,,,,A2WHAIUPGYCFN6
872,47,,1.0,27.0,mountain_110.jpg,,,,A2WHAIUPGYCFN6
873,48,left,1.0,28.0,left.jpg,left,0.886,,A2WHAIUPGYCFN6
874,49,,1.0,29.0,playground_145.jpg,,,,A2WHAIUPGYCFN6
875,50,,1.0,30.0,highway_294.jpg,,,,A2WHAIUPGYCFN6
876,51,,1.0,31.0,bridge_250.jpg,,,,A2WHAIUPGYCFN6
877,52,,1.0,32.0,mountain_154.jpg,,,,A2WHAIUPGYCFN6
878,53,,1.0,33.0,mountain_222.jpg,,,,A2WHAIUPGYCFN6
879,54,,1.0,34.0,badlands_113.jpg,,,,A2WHAIUPGYCFN6
880,55,,1.0,35.0,playground_257.jpg,,,,A2WHAIUPGYCFN6
881,56,,1.0,36.0,bridge_146.jpg,,,,A2WHAIUPGYCFN6
882,57,,1.0,37.0,bridge_191.jpg,,,,A2WHAIUPGYCFN6
883,58,,1.0,38.0,golf_course_87.jpg,,,,A2WHAIUPGYCFN6
884,59,,1.0,39.0,playground_117.jpg,,,,A2WHAIUPGYCFN6
885,60,,1.0,40.0,mountain_232.jpg,,,,A2WHAIUPGYCFN6
886,61,right,1.0,41.0,right.jpg,right,0.961,,A2WHAIUPGYCFN6
887,62,,1.0,42.0,playground_60.jpg,,,,A2WHAIUPGYCFN6
888,63,,1.0,43.0,bridge_256.jpg,,,,A2WHAIUPGYCFN6
889,64,,1.0,44.0,highway_156.jpg,,,,A2WHAIUPGYCFN6
890,65,,1.0,45.0,golf_course_217.jpg,,,,A2WHAIUPGYCFN6
891,66,,1.0,46.0,playground_240.jpg,,,,A2WHAIUPGYCFN6
892,67,,1.0,47.0,badlands_137.jpg,,,,A2WHAIUPGYCFN6
893,68,,1.0,48.0,playground_10.jpg,,,,A2WHAIUPGYCFN6
894,69,,1.0,49.0,golf_course_331.jpg,,,,A2WHAIUPGYCFN6
895,70,,1.0,50.0,playground_219.jpg,,,,A2WHAIUPGYCFN6
896,71,,1.0,51.0,badlands_23.jpg,,,,A2WHAIUPGYCFN6
897,72,,1.0,52.0,badlands_24.jpg,,,,A2WHAIUPGYCFN6
898,73,right,1.0,53.0,right.jpg,right,1.612,,A2WHAIUPGYCFN6
899,74,,1.0,54.0,bridge_202.jpg,,,,A2WHAIUPGYCFN6
900,75,,1.0,55.0,bridge_91.jpg,,,,A2WHAIUPGYCFN6
901,76,,1.0,56.0,golf_course_193.jpg,,,,A2WHAIUPGYCFN6
902,77,,1.0,57.0,mountain_293.jpg,,,,A2WHAIUPGYCFN6
903,78,,1.0,58.0,mountain_123.jpg,,,,A2WHAIUPGYCFN6
904,79,,1.0,59.0,highway_177.jpg,,,,A2WHAIUPGYCFN6
905,80,,1.0,60.0,golf_course_15.jpg,,,,A2WHAIUPGYCFN6
906,81,,1.0,61.0,golf_course_214.jpg,,,,A2WHAIUPGYCFN6
907,82,,1.0,62.0,bridge_172.jpg,,,,A2WHAIUPGYCFN6
908,83,,1.0,63.0,highway_415.jpg,,,,A2WHAIUPGYCFN6
909,84,,1.0,64.0,golf_course_188.jpg,,,,A2WHAIUPGYCFN6
910,20,,1.0,0.0,badlands_70.jpg,,,,A2Z2WC3DJQ38RH
911,21,,1.0,1.0,highway_394.jpg,,,,A2Z2WC3DJQ38RH
912,22,,1.0,2.0,bridge_191.jpg,,,,A2Z2WC3DJQ38RH
913,23,,1.0,3.0,bridge_250.jpg,,,,A2Z2WC3DJQ38RH
914,24,,1.0,4.0,bridge_256.jpg,,,,A2Z2WC3DJQ38RH
915,25,,1.0,5.0,bridge_146.jpg,,,,A2Z2WC3DJQ38RH
916,26,right,1.0,6.0,right.jpg,right,0.755,,A2Z2WC3DJQ38RH
917,27,,1.0,7.0,golf_course_87.jpg,,,,A2Z2WC3DJQ38RH
918,28,,1.0,8.0,highway_177.jpg,,,,A2Z2WC3DJQ38RH
919,29,,1.0,9.0,playground_144.jpg,,,,A2Z2WC3DJQ38RH
920,30,,1.0,10.0,badlands_184.jpg,,,,A2Z2WC3DJQ38RH
921,31,,1.0,11.0,highway_415.jpg,,,,A2Z2WC3DJQ38RH
922,32,,1.0,12.0,playground_145.jpg,,,,A2Z2WC3DJQ38RH
923,33,,1.0,13.0,badlands_52.jpg,,,,A2Z2WC3DJQ38RH
924,34,,1.0,14.0,badlands_222.jpg,,,,A2Z2WC3DJQ38RH
925,35,,1.0,15.0,highway_245.jpg,,,,A2Z2WC3DJQ38RH
926,36,,1.0,16.0,mountain_110.jpg,,,,A2Z2WC3DJQ38RH
927,37,,1.0,17.0,mountain_123.jpg,,,,A2Z2WC3DJQ38RH
928,38,left,1.0,18.0,left.jpg,left,2.497,,A2Z2WC3DJQ38RH
929,39,,1.0,19.0,mountain_57.jpg,,,,A2Z2WC3DJQ38RH
930,40,,1.0,20.0,playground_60.jpg,,,,A2Z2WC3DJQ38RH
931,41,,1.0,21.0,bridge_108.jpg,,,,A2Z2WC3DJQ38RH
932,42,,1.0,22.0,mountain_101.jpg,,,,A2Z2WC3DJQ38RH
933,43,,1.0,23.0,highway_359.jpg,,,,A2Z2WC3DJQ38RH
934,44,,1.0,24.0,golf_course_15.jpg,,,,A2Z2WC3DJQ38RH
935,45,,1.0,25.0,mountain_230.jpg,,,,A2Z2WC3DJQ38RH
936,46,,1.0,26.0,playground_257.jpg,,,,A2Z2WC3DJQ38RH
937,47,left,1.0,27.0,left.jpg,left,1.139,,A2Z2WC3DJQ38RH
938,48,,1.0,28.0,playground_240.jpg,,,,A2Z2WC3DJQ38RH
939,49,,1.0,29.0,playground_76.jpg,,,,A2Z2WC3DJQ38RH
940,50,,1.0,30.0,badlands_113.jpg,,,,A2Z2WC3DJQ38RH
941,51,,1.0,31.0,highway_156.jpg,,,,A2Z2WC3DJQ38RH
942,52,,1.0,32.0,badlands_24.jpg,,,,A2Z2WC3DJQ38RH
943,53,,1.0,33.0,bridge_172.jpg,,,,A2Z2WC3DJQ38RH
944,54,,1.0,34.0,playground_117.jpg,,,,A2Z2WC3DJQ38RH
945,55,,1.0,35.0,bridge_91.jpg,,,,A2Z2WC3DJQ38RH
946,56,,1.0,36.0,golf_course_331.jpg,,,,A2Z2WC3DJQ38RH
947,57,,1.0,37.0,bridge_202.jpg,,,,A2Z2WC3DJQ38RH
948,58,,1.0,38.0,mountain_156.jpg,,,,A2Z2WC3DJQ38RH
949,59,,1.0,39.0,bridge_65.jpg,,,,A2Z2WC3DJQ38RH
950,60,,1.0,40.0,playground_131.jpg,,,,A2Z2WC3DJQ38RH
951,61,left,1.0,41.0,left.jpg,left,2.127,,A2Z2WC3DJQ38RH
952,62,,1.0,42.0,highway_209.jpg,,,,A2Z2WC3DJQ38RH
953,63,,1.0,43.0,mountain_232.jpg,,,,A2Z2WC3DJQ38RH
954,64,,1.0,44.0,golf_course_188.jpg,,,,A2Z2WC3DJQ38RH
955,65,,1.0,45.0,badlands_221.jpg,,,,A2Z2WC3DJQ38RH
956,66,,1.0,46.0,badlands_23.jpg,,,,A2Z2WC3DJQ38RH
957,67,,1.0,47.0,badlands_137.jpg,,,,A2Z2WC3DJQ38RH
958,68,,1.0,48.0,mountain_154.jpg,,,,A2Z2WC3DJQ38RH
959,69,,1.0,49.0,highway_273.jpg,,,,A2Z2WC3DJQ38RH
960,70,,1.0,50.0,mountain_222.jpg,,,,A2Z2WC3DJQ38RH
961,71,,1.0,51.0,highway_93.jpg,,,,A2Z2WC3DJQ38RH
962,72,,1.0,52.0,badlands_21.jpg,,,,A2Z2WC3DJQ38RH
963,73,left,1.0,53.0,left.jpg,left,1.536,,A2Z2WC3DJQ38RH
964,74,,1.0,54.0,golf_course_217.jpg,,,,A2Z2WC3DJQ38RH
965,75,,1.0,55.0,golf_course_193.jpg,,,,A2Z2WC3DJQ38RH
966,76,,1.0,56.0,golf_course_309.jpg,,,,A2Z2WC3DJQ38RH
967,77,,1.0,57.0,bridge_128.jpg,,,,A2Z2WC3DJQ38RH
968,78,,1.0,58.0,mountain_293.jpg,,,,A2Z2WC3DJQ38RH
969,79,,1.0,59.0,playground_10.jpg,,,,A2Z2WC3DJQ38RH
970,80,,1.0,60.0,golf_course_78.jpg,,,,A2Z2WC3DJQ38RH
971,81,,1.0,61.0,golf_course_195.jpg,,,,A2Z2WC3DJQ38RH
972,82,,1.0,62.0,golf_course_214.jpg,,,,A2Z2WC3DJQ38RH
973,83,,1.0,63.0,playground_219.jpg,,,,A2Z2WC3DJQ38RH
974,84,,1.0,64.0,highway_294.jpg,,,,A2Z2WC3DJQ38RH
975,20,,1.0,0.0,playground_60.jpg,,,,A36U8EYFWM1EL5
976,21,,1.0,1.0,mountain_230.jpg,,,,A36U8EYFWM1EL5
977,22,,1.0,2.0,highway_245.jpg,,,,A36U8EYFWM1EL5
978,23,,1.0,3.0,golf_course_309.jpg,,,,A36U8EYFWM1EL5
979,24,,1.0,4.0,playground_240.jpg,,,,A36U8EYFWM1EL5
980,25,,1.0,5.0,highway_359.jpg,,,,A36U8EYFWM1EL5
981,26,,1.0,6.0,badlands_21.jpg,,,,A36U8EYFWM1EL5
982,27,,1.0,7.0,highway_394.jpg,,,,A36U8EYFWM1EL5
983,28,,1.0,8.0,highway_209.jpg,,,,A36U8EYFWM1EL5
984,29,,1.0,9.0,badlands_23.jpg,,,,A36U8EYFWM1EL5
985,30,,1.0,10.0,playground_219.jpg,,,,A36U8EYFWM1EL5
986,31,,1.0,11.0,bridge_191.jpg,,,,A36U8EYFWM1EL5
987,32,,1.0,12.0,badlands_137.jpg,,,,A36U8EYFWM1EL5
988,33,,1.0,13.0,bridge_91.jpg,,,,A36U8EYFWM1EL5
989,34,right,1.0,14.0,right.jpg,right,1.6513,,A36U8EYFWM1EL5
990,35,,1.0,15.0,highway_156.jpg,,,,A36U8EYFWM1EL5
991,36,,1.0,16.0,badlands_70.jpg,,,,A36U8EYFWM1EL5
992,37,,1.0,17.0,highway_93.jpg,,,,A36U8EYFWM1EL5
993,38,,1.0,18.0,mountain_232.jpg,,,,A36U8EYFWM1EL5
994,39,,1.0,19.0,bridge_256.jpg,,,,A36U8EYFWM1EL5
995,40,,0.0,20.0,right.jpg,right,,,A36U8EYFWM1EL5
996,41,,1.0,21.0,badlands_24.jpg,,,,A36U8EYFWM1EL5
997,42,,1.0,22.0,playground_257.jpg,,,,A36U8EYFWM1EL5
998,43,,1.0,23.0,bridge_128.jpg,,,,A36U8EYFWM1EL5
999,44,,1.0,24.0,highway_294.jpg,,,,A36U8EYFWM1EL5
1000,45,,1.0,25.0,bridge_108.jpg,,,,A36U8EYFWM1EL5
1001,46,,1.0,26.0,badlands_222.jpg,,,,A36U8EYFWM1EL5
1002,47,left,1.0,27.0,left.jpg,left,1.4311,,A36U8EYFWM1EL5
1003,48,,1.0,28.0,playground_145.jpg,,,,A36U8EYFWM1EL5
1004,49,,1.0,29.0,bridge_202.jpg,,,,A36U8EYFWM1EL5
1005,50,,1.0,30.0,golf_course_188.jpg,,,,A36U8EYFWM1EL5
1006,51,,1.0,31.0,mountain_101.jpg,,,,A36U8EYFWM1EL5
1007,52,,1.0,32.0,highway_177.jpg,,,,A36U8EYFWM1EL5
1008,53,,1.0,33.0,highway_415.jpg,,,,A36U8EYFWM1EL5
1009,54,,1.0,34.0,mountain_57.jpg,,,,A36U8EYFWM1EL5
1010,55,,1.0,35.0,mountain_154.jpg,,,,A36U8EYFWM1EL5
1011,56,,1.0,36.0,mountain_110.jpg,,,,A36U8EYFWM1EL5
1012,57,,1.0,37.0,mountain_293.jpg,,,,A36U8EYFWM1EL5
1013,58,left,1.0,38.0,left.jpg,left,1.9851,,A36U8EYFWM1EL5
1014,59,,1.0,39.0,golf_course_331.jpg,,,,A36U8EYFWM1EL5
1015,60,,1.0,40.0,golf_course_217.jpg,,,,A36U8EYFWM1EL5
1016,61,,1.0,41.0,mountain_222.jpg,,,,A36U8EYFWM1EL5
1017,62,,1.0,42.0,highway_273.jpg,,,,A36U8EYFWM1EL5
1018,63,,1.0,43.0,playground_144.jpg,,,,A36U8EYFWM1EL5
1019,64,,1.0,44.0,mountain_123.jpg,,,,A36U8EYFWM1EL5
1020,65,,1.0,45.0,badlands_52.jpg,,,,A36U8EYFWM1EL5
1021,66,,1.0,46.0,golf_course_193.jpg,,,,A36U8EYFWM1EL5
1022,67,,1.0,47.0,playground_76.jpg,,,,A36U8EYFWM1EL5
1023,68,,1.0,48.0,golf_course_214.jpg,,,,A36U8EYFWM1EL5
1024,69,,1.0,49.0,bridge_146.jpg,,,,A36U8EYFWM1EL5
1025,70,,1.0,50.0,playground_10.jpg,,,,A36U8EYFWM1EL5
1026,71,,1.0,51.0,playground_131.jpg,,,,A36U8EYFWM1EL5
1027,72,,1.0,52.0,bridge_172.jpg,,,,A36U8EYFWM1EL5
1028,73,left,1.0,53.0,left.jpg,left,1.4261,,A36U8EYFWM1EL5
1029,74,,1.0,54.0,playground_117.jpg,,,,A36U8EYFWM1EL5
1030,75,,1.0,55.0,golf_course_78.jpg,,,,A36U8EYFWM1EL5
1031,76,,1.0,56.0,badlands_184.jpg,,,,A36U8EYFWM1EL5
1032,77,,1.0,57.0,golf_course_195.jpg,,,,A36U8EYFWM1EL5
1033,78,,1.0,58.0,bridge_250.jpg,,,,A36U8EYFWM1EL5
1034,79,,1.0,59.0,golf_course_15.jpg,,,,A36U8EYFWM1EL5
1035,80,,1.0,60.0,badlands_221.jpg,,,,A36U8EYFWM1EL5
1036,81,,1.0,61.0,golf_course_87.jpg,,,,A36U8EYFWM1EL5
1037,82,,1.0,62.0,mountain_156.jpg,,,,A36U8EYFWM1EL5
1038,83,,1.0,63.0,bridge_65.jpg,,,,A36U8EYFWM1EL5
1039,84,,1.0,64.0,badlands_113.jpg,,,,A36U8EYFWM1EL5
1040,20,,1.0,0.0,playground_257.jpg,,,,A38T8YVJKFPMW5
1041,21,,1.0,1.0,highway_156.jpg,,,,A38T8YVJKFPMW5
1042,22,,1.0,2.0,golf_course_87.jpg,,,,A38T8YVJKFPMW5
1043,23,,1.0,3.0,badlands_24.jpg,,,,A38T8YVJKFPMW5
1044,24,,1.0,4.0,badlands_137.jpg,,,,A38T8YVJKFPMW5
1045,25,,1.0,5.0,mountain_156.jpg,,,,A38T8YVJKFPMW5
1046,26,,1.0,6.0,highway_394.jpg,,,,A38T8YVJKFPMW5
1047,27,,1.0,7.0,golf_course_331.jpg,,,,A38T8YVJKFPMW5
1048,28,right,1.0,8.0,right.jpg,right,1.5029,,A38T8YVJKFPMW5
1049,29,,1.0,9.0,mountain_222.jpg,,,,A38T8YVJKFPMW5
1050,30,,1.0,10.0,playground_219.jpg,,,,A38T8YVJKFPMW5
1051,31,,1.0,11.0,playground_131.jpg,,,,A38T8YVJKFPMW5
1052,32,,1.0,12.0,bridge_172.jpg,,,,A38T8YVJKFPMW5
1053,33,,1.0,13.0,mountain_154.jpg,,,,A38T8YVJKFPMW5
1054,34,,1.0,14.0,bridge_202.jpg,,,,A38T8YVJKFPMW5
1055,35,,1.0,15.0,bridge_108.jpg,,,,A38T8YVJKFPMW5
1056,36,left,1.0,16.0,left.jpg,left,1.1241,,A38T8YVJKFPMW5
1057,37,,1.0,17.0,highway_93.jpg,,,,A38T8YVJKFPMW5
1058,38,,1.0,18.0,mountain_232.jpg,,,,A38T8YVJKFPMW5
1059,39,,1.0,19.0,badlands_113.jpg,,,,A38T8YVJKFPMW5
1060,40,,1.0,20.0,highway_415.jpg,,,,A38T8YVJKFPMW5
1061,41,,1.0,21.0,bridge_128.jpg,,,,A38T8YVJKFPMW5
1062,42,,1.0,22.0,badlands_21.jpg,,,,A38T8YVJKFPMW5
1063,43,,1.0,23.0,badlands_23.jpg,,,,A38T8YVJKFPMW5
1064,44,,1.0,24.0,mountain_101.jpg,,,,A38T8YVJKFPMW5
1065,45,,1.0,25.0,highway_245.jpg,,,,A38T8YVJKFPMW5
1066,46,,1.0,26.0,badlands_184.jpg,,,,A38T8YVJKFPMW5
1067,47,,1.0,27.0,golf_course_15.jpg,,,,A38T8YVJKFPMW5
1068,48,,1.0,28.0,golf_course_214.jpg,,,,A38T8YVJKFPMW5
1069,49,,1.0,29.0,playground_240.jpg,,,,A38T8YVJKFPMW5
1070,50,,1.0,30.0,badlands_70.jpg,,,,A38T8YVJKFPMW5
1071,51,,1.0,31.0,playground_145.jpg,,,,A38T8YVJKFPMW5
1072,52,,1.0,32.0,badlands_52.jpg,,,,A38T8YVJKFPMW5
1073,53,left,1.0,33.0,left.jpg,left,1.0808,,A38T8YVJKFPMW5
1074,54,,1.0,34.0,highway_209.jpg,,,,A38T8YVJKFPMW5
1075,55,,1.0,35.0,playground_76.jpg,,,,A38T8YVJKFPMW5
1076,56,,1.0,36.0,playground_117.jpg,,,,A38T8YVJKFPMW5
1077,57,,1.0,37.0,golf_course_193.jpg,,,,A38T8YVJKFPMW5
1078,58,,1.0,38.0,golf_course_78.jpg,,,,A38T8YVJKFPMW5
1079,59,right,1.0,39.0,right.jpg,right,1.1127,,A38T8YVJKFPMW5
1080,60,,1.0,40.0,bridge_91.jpg,,,,A38T8YVJKFPMW5
1081,61,,1.0,41.0,bridge_191.jpg,,,,A38T8YVJKFPMW5
1082,62,,1.0,42.0,golf_course_188.jpg,,,,A38T8YVJKFPMW5
1083,63,,1.0,43.0,golf_course_217.jpg,,,,A38T8YVJKFPMW5
1084,64,,1.0,44.0,mountain_57.jpg,,,,A38T8YVJKFPMW5
1085,65,,1.0,45.0,bridge_256.jpg,,,,A38T8YVJKFPMW5
1086,66,,1.0,46.0,badlands_222.jpg,,,,A38T8YVJKFPMW5
1087,67,,1.0,47.0,badlands_221.jpg,,,,A38T8YVJKFPMW5
1088,68,right,1.0,48.0,right.jpg,right,1.0922,,A38T8YVJKFPMW5
1089,69,,1.0,49.0,highway_273.jpg,,,,A38T8YVJKFPMW5
1090,70,,1.0,50.0,highway_177.jpg,,,,A38T8YVJKFPMW5
1091,71,,1.0,51.0,mountain_230.jpg,,,,A38T8YVJKFPMW5
1092,72,,1.0,52.0,playground_60.jpg,,,,A38T8YVJKFPMW5
1093,73,,1.0,53.0,golf_course_195.jpg,,,,A38T8YVJKFPMW5
1094,74,,1.0,54.0,highway_294.jpg,,,,A38T8YVJKFPMW5
1095,75,,1.0,55.0,mountain_110.jpg,,,,A38T8YVJKFPMW5
1096,76,,1.0,56.0,bridge_250.jpg,,,,A38T8YVJKFPMW5
1097,77,,1.0,57.0,mountain_293.jpg,,,,A38T8YVJKFPMW5
1098,78,,1.0,58.0,bridge_65.jpg,,,,A38T8YVJKFPMW5
1099,79,,1.0,59.0,golf_course_309.jpg,,,,A38T8YVJKFPMW5
1100,80,,1.0,60.0,highway_359.jpg,,,,A38T8YVJKFPMW5
1101,81,,1.0,61.0,playground_144.jpg,,,,A38T8YVJKFPMW5
1102,82,,1.0,62.0,mountain_123.jpg,,,,A38T8YVJKFPMW5
1103,83,,1.0,63.0,playground_10.jpg,,,,A38T8YVJKFPMW5
1104,84,,1.0,64.0,bridge_146.jpg,,,,A38T8YVJKFPMW5
1105,20,,1.0,0.0,playground_60.jpg,,,,A3G55RJTW3BSGM
1106,21,,1.0,1.0,golf_course_214.jpg,,,,A3G55RJTW3BSGM
1107,22,,1.0,2.0,mountain_232.jpg,,,,A3G55RJTW3BSGM
1108,23,,1.0,3.0,mountain_222.jpg,,,,A3G55RJTW3BSGM
1109,24,,1.0,4.0,playground_240.jpg,,,,A3G55RJTW3BSGM
1110,25,,1.0,5.0,bridge_202.jpg,,,,A3G55RJTW3BSGM
1111,26,,1.0,6.0,badlands_52.jpg,,,,A3G55RJTW3BSGM
1112,27,,1.0,7.0,mountain_101.jpg,,,,A3G55RJTW3BSGM
1113,28,,1.0,8.0,golf_course_331.jpg,,,,A3G55RJTW3BSGM
1114,29,,1.0,9.0,badlands_222.jpg,,,,A3G55RJTW3BSGM
1115,30,,1.0,10.0,golf_course_193.jpg,,,,A3G55RJTW3BSGM
1116,31,right,1.0,11.0,right.jpg,right,0.612,,A3G55RJTW3BSGM
1117,32,,1.0,12.0,playground_131.jpg,,,,A3G55RJTW3BSGM
1118,33,,1.0,13.0,golf_course_309.jpg,,,,A3G55RJTW3BSGM
1119,34,,1.0,14.0,highway_245.jpg,,,,A3G55RJTW3BSGM
1120,35,,1.0,15.0,mountain_123.jpg,,,,A3G55RJTW3BSGM
1121,36,,1.0,16.0,highway_209.jpg,,,,A3G55RJTW3BSGM
1122,37,,1.0,17.0,bridge_128.jpg,,,,A3G55RJTW3BSGM
1123,38,,1.0,18.0,badlands_70.jpg,,,,A3G55RJTW3BSGM
1124,39,,1.0,19.0,mountain_154.jpg,,,,A3G55RJTW3BSGM
1125,40,,1.0,20.0,golf_course_15.jpg,,,,A3G55RJTW3BSGM
1126,41,,1.0,21.0,bridge_91.jpg,,,,A3G55RJTW3BSGM
1127,42,,1.0,22.0,badlands_184.jpg,,,,A3G55RJTW3BSGM
1128,43,right,1.0,23.0,right.jpg,right,0.4883,,A3G55RJTW3BSGM
1129,44,,1.0,24.0,highway_415.jpg,,,,A3G55RJTW3BSGM
1130,45,,1.0,25.0,bridge_250.jpg,,,,A3G55RJTW3BSGM
1131,46,,1.0,26.0,badlands_113.jpg,,,,A3G55RJTW3BSGM
1132,47,,1.0,27.0,mountain_293.jpg,,,,A3G55RJTW3BSGM
1133,48,,1.0,28.0,highway_93.jpg,,,,A3G55RJTW3BSGM
1134,49,,1.0,29.0,highway_156.jpg,,,,A3G55RJTW3BSGM
1135,50,left,0.0,30.0,right.jpg,right,0.42,,A3G55RJTW3BSGM
1136,51,,1.0,31.0,mountain_110.jpg,,,,A3G55RJTW3BSGM
1137,52,,1.0,32.0,bridge_108.jpg,,,,A3G55RJTW3BSGM
1138,53,,1.0,33.0,playground_117.jpg,,,,A3G55RJTW3BSGM
1139,54,,1.0,34.0,mountain_57.jpg,,,,A3G55RJTW3BSGM
1140,55,,1.0,35.0,bridge_172.jpg,,,,A3G55RJTW3BSGM
1141,56,left,1.0,36.0,left.jpg,left,0.5877,,A3G55RJTW3BSGM
1142,57,,1.0,37.0,playground_257.jpg,,,,A3G55RJTW3BSGM
1143,58,,1.0,38.0,mountain_156.jpg,,,,A3G55RJTW3BSGM
1144,59,,1.0,39.0,playground_76.jpg,,,,A3G55RJTW3BSGM
1145,60,,1.0,40.0,highway_394.jpg,,,,A3G55RJTW3BSGM
1146,61,,1.0,41.0,highway_177.jpg,,,,A3G55RJTW3BSGM
1147,62,,1.0,42.0,badlands_23.jpg,,,,A3G55RJTW3BSGM
1148,63,,1.0,43.0,bridge_191.jpg,,,,A3G55RJTW3BSGM
1149,64,,1.0,44.0,playground_10.jpg,,,,A3G55RJTW3BSGM
1150,65,,1.0,45.0,badlands_21.jpg,,,,A3G55RJTW3BSGM
1151,66,,1.0,46.0,highway_359.jpg,,,,A3G55RJTW3BSGM
1152,67,,1.0,47.0,playground_144.jpg,,,,A3G55RJTW3BSGM
1153,68,,1.0,48.0,golf_course_195.jpg,,,,A3G55RJTW3BSGM
1154,69,,1.0,49.0,playground_145.jpg,,,,A3G55RJTW3BSGM
1155,70,,1.0,50.0,badlands_221.jpg,,,,A3G55RJTW3BSGM
1156,71,,1.0,51.0,highway_294.jpg,,,,A3G55RJTW3BSGM
1157,72,right,1.0,52.0,right.jpg,right,0.6181,,A3G55RJTW3BSGM
1158,73,,1.0,53.0,bridge_146.jpg,,,,A3G55RJTW3BSGM
1159,74,,1.0,54.0,golf_course_217.jpg,,,,A3G55RJTW3BSGM
1160,75,,1.0,55.0,golf_course_78.jpg,,,,A3G55RJTW3BSGM
1161,76,,1.0,56.0,badlands_137.jpg,,,,A3G55RJTW3BSGM
1162,77,,1.0,57.0,playground_219.jpg,,,,A3G55RJTW3BSGM
1163,78,,1.0,58.0,golf_course_87.jpg,,,,A3G55RJTW3BSGM
1164,79,,1.0,59.0,bridge_256.jpg,,,,A3G55RJTW3BSGM
1165,80,,1.0,60.0,mountain_230.jpg,,,,A3G55RJTW3BSGM
1166,81,,1.0,61.0,bridge_65.jpg,,,,A3G55RJTW3BSGM
1167,82,,1.0,62.0,highway_273.jpg,,,,A3G55RJTW3BSGM
1168,83,,1.0,63.0,golf_course_188.jpg,,,,A3G55RJTW3BSGM
1169,84,,1.0,64.0,badlands_24.jpg,,,,A3G55RJTW3BSGM
1170,20,,1.0,0.0,playground_257.jpg,,,,A3HQXCWOIQKT4F
1171,21,,1.0,1.0,highway_156.jpg,,,,A3HQXCWOIQKT4F
1172,22,,1.0,2.0,golf_course_87.jpg,,,,A3HQXCWOIQKT4F
1173,23,,1.0,3.0,badlands_24.jpg,,,,A3HQXCWOIQKT4F
1174,24,,1.0,4.0,badlands_137.jpg,,,,A3HQXCWOIQKT4F
1175,25,,1.0,5.0,mountain_156.jpg,,,,A3HQXCWOIQKT4F
1176,26,,1.0,6.0,highway_394.jpg,,,,A3HQXCWOIQKT4F
1177,27,,1.0,7.0,golf_course_331.jpg,,,,A3HQXCWOIQKT4F
1178,28,right,1.0,8.0,right.jpg,right,0.5639,,A3HQXCWOIQKT4F
1179,29,,1.0,9.0,mountain_222.jpg,,,,A3HQXCWOIQKT4F
1180,30,,1.0,10.0,playground_219.jpg,,,,A3HQXCWOIQKT4F
1181,31,,1.0,11.0,playground_131.jpg,,,,A3HQXCWOIQKT4F
1182,32,,1.0,12.0,bridge_172.jpg,,,,A3HQXCWOIQKT4F
1183,33,,1.0,13.0,mountain_154.jpg,,,,A3HQXCWOIQKT4F
1184,34,,1.0,14.0,bridge_202.jpg,,,,A3HQXCWOIQKT4F
1185,35,,1.0,15.0,bridge_108.jpg,,,,A3HQXCWOIQKT4F
1186,36,left,1.0,16.0,left.jpg,left,0.4948,,A3HQXCWOIQKT4F
1187,37,,1.0,17.0,highway_93.jpg,,,,A3HQXCWOIQKT4F
1188,38,,1.0,18.0,mountain_232.jpg,,,,A3HQXCWOIQKT4F
1189,39,,1.0,19.0,badlands_113.jpg,,,,A3HQXCWOIQKT4F
1190,40,,1.0,20.0,highway_415.jpg,,,,A3HQXCWOIQKT4F
1191,41,,1.0,21.0,bridge_128.jpg,,,,A3HQXCWOIQKT4F
1192,42,,1.0,22.0,badlands_21.jpg,,,,A3HQXCWOIQKT4F
1193,43,,1.0,23.0,badlands_23.jpg,,,,A3HQXCWOIQKT4F
1194,44,,1.0,24.0,mountain_101.jpg,,,,A3HQXCWOIQKT4F
1195,45,,1.0,25.0,highway_245.jpg,,,,A3HQXCWOIQKT4F
1196,46,,1.0,26.0,badlands_184.jpg,,,,A3HQXCWOIQKT4F
1197,47,,1.0,27.0,golf_course_15.jpg,,,,A3HQXCWOIQKT4F
1198,48,,1.0,28.0,golf_course_214.jpg,,,,A3HQXCWOIQKT4F
1199,49,,1.0,29.0,playground_240.jpg,,,,A3HQXCWOIQKT4F
1200,50,,1.0,30.0,badlands_70.jpg,,,,A3HQXCWOIQKT4F
1201,51,,1.0,31.0,playground_145.jpg,,,,A3HQXCWOIQKT4F
1202,52,,1.0,32.0,badlands_52.jpg,,,,A3HQXCWOIQKT4F
1203,53,left,1.0,33.0,left.jpg,left,0.4848,,A3HQXCWOIQKT4F
1204,54,,1.0,34.0,highway_209.jpg,,,,A3HQXCWOIQKT4F
1205,55,,1.0,35.0,playground_76.jpg,,,,A3HQXCWOIQKT4F
1206,56,,1.0,36.0,playground_117.jpg,,,,A3HQXCWOIQKT4F
1207,57,,1.0,37.0,golf_course_193.jpg,,,,A3HQXCWOIQKT4F
1208,58,,1.0,38.0,golf_course_78.jpg,,,,A3HQXCWOIQKT4F
1209,59,right,1.0,39.0,right.jpg,right,1.6947,,A3HQXCWOIQKT4F
1210,60,,1.0,40.0,bridge_91.jpg,,,,A3HQXCWOIQKT4F
1211,61,,1.0,41.0,bridge_191.jpg,,,,A3HQXCWOIQKT4F
1212,62,,1.0,42.0,golf_course_188.jpg,,,,A3HQXCWOIQKT4F
1213,63,,1.0,43.0,golf_course_217.jpg,,,,A3HQXCWOIQKT4F
1214,64,,1.0,44.0,mountain_57.jpg,,,,A3HQXCWOIQKT4F
1215,65,,1.0,45.0,bridge_256.jpg,,,,A3HQXCWOIQKT4F
1216,66,,1.0,46.0,badlands_222.jpg,,,,A3HQXCWOIQKT4F
1217,67,,1.0,47.0,badlands_221.jpg,,,,A3HQXCWOIQKT4F
1218,68,right,1.0,48.0,right.jpg,right,0.7193,,A3HQXCWOIQKT4F
1219,69,,1.0,49.0,highway_273.jpg,,,,A3HQXCWOIQKT4F
1220,70,,1.0,50.0,highway_177.jpg,,,,A3HQXCWOIQKT4F
1221,71,,1.0,51.0,mountain_230.jpg,,,,A3HQXCWOIQKT4F
1222,72,,1.0,52.0,playground_60.jpg,,,,A3HQXCWOIQKT4F
1223,73,,1.0,53.0,golf_course_195.jpg,,,,A3HQXCWOIQKT4F
1224,74,,1.0,54.0,highway_294.jpg,,,,A3HQXCWOIQKT4F
1225,75,,1.0,55.0,mountain_110.jpg,,,,A3HQXCWOIQKT4F
1226,76,,1.0,56.0,bridge_250.jpg,,,,A3HQXCWOIQKT4F
1227,77,,1.0,57.0,mountain_293.jpg,,,,A3HQXCWOIQKT4F
1228,78,,1.0,58.0,bridge_65.jpg,,,,A3HQXCWOIQKT4F
1229,79,,1.0,59.0,golf_course_309.jpg,,,,A3HQXCWOIQKT4F
1230,80,,1.0,60.0,highway_359.jpg,,,,A3HQXCWOIQKT4F
1231,81,,1.0,61.0,playground_144.jpg,,,,A3HQXCWOIQKT4F
1232,82,,1.0,62.0,mountain_123.jpg,,,,A3HQXCWOIQKT4F
1233,83,,1.0,63.0,playground_10.jpg,,,,A3HQXCWOIQKT4F
1234,84,,1.0,64.0,bridge_146.jpg,,,,A3HQXCWOIQKT4F
1235,20,,1.0,0.0,bridge_91.jpg,,,,A3PIJBZIF34XR2
1236,21,,1.0,1.0,mountain_110.jpg,,,,A3PIJBZIF34XR2
1237,22,,1.0,2.0,highway_394.jpg,,,,A3PIJBZIF34XR2
1238,23,,1.0,3.0,badlands_137.jpg,,,,A3PIJBZIF34XR2
1239,24,,1.0,4.0,highway_209.jpg,,,,A3PIJBZIF34XR2
1240,25,,1.0,5.0,golf_course_188.jpg,,,,A3PIJBZIF34XR2
1241,26,,1.0,6.0,playground_131.jpg,,,,A3PIJBZIF34XR2
1242,27,,1.0,7.0,golf_course_78.jpg,,,,A3PIJBZIF34XR2
1243,28,,1.0,8.0,bridge_128.jpg,,,,A3PIJBZIF34XR2
1244,29,,1.0,9.0,golf_course_217.jpg,,,,A3PIJBZIF34XR2
1245,30,,1.0,10.0,badlands_24.jpg,,,,A3PIJBZIF34XR2
1246,31,,1.0,11.0,highway_245.jpg,,,,A3PIJBZIF34XR2
1247,32,right,1.0,12.0,right.jpg,right,2.0235,,A3PIJBZIF34XR2
1248,33,,1.0,13.0,highway_177.jpg,,,,A3PIJBZIF34XR2
1249,34,,1.0,14.0,badlands_70.jpg,,,,A3PIJBZIF34XR2
1250,35,,1.0,15.0,badlands_113.jpg,,,,A3PIJBZIF34XR2
1251,36,,1.0,16.0,playground_145.jpg,,,,A3PIJBZIF34XR2
1252,37,,1.0,17.0,highway_93.jpg,,,,A3PIJBZIF34XR2
1253,38,,1.0,18.0,playground_117.jpg,,,,A3PIJBZIF34XR2
1254,39,,1.0,19.0,playground_144.jpg,,,,A3PIJBZIF34XR2
1255,40,,1.0,20.0,badlands_221.jpg,,,,A3PIJBZIF34XR2
1256,41,,1.0,21.0,badlands_23.jpg,,,,A3PIJBZIF34XR2
1257,42,,1.0,22.0,playground_257.jpg,,,,A3PIJBZIF34XR2
1258,43,left,1.0,23.0,left.jpg,left,2.0412,,A3PIJBZIF34XR2
1259,44,,1.0,24.0,golf_course_309.jpg,,,,A3PIJBZIF34XR2
1260,45,,1.0,25.0,highway_359.jpg,,,,A3PIJBZIF34XR2
1261,46,,1.0,26.0,mountain_123.jpg,,,,A3PIJBZIF34XR2
1262,47,,1.0,27.0,mountain_154.jpg,,,,A3PIJBZIF34XR2
1263,48,,1.0,28.0,highway_273.jpg,,,,A3PIJBZIF34XR2
1264,49,,1.0,29.0,playground_10.jpg,,,,A3PIJBZIF34XR2
1265,50,right,1.0,30.0,right.jpg,right,1.2691,,A3PIJBZIF34XR2
1266,51,,1.0,31.0,highway_156.jpg,,,,A3PIJBZIF34XR2
1267,52,,1.0,32.0,mountain_156.jpg,,,,A3PIJBZIF34XR2
1268,53,,1.0,33.0,golf_course_214.jpg,,,,A3PIJBZIF34XR2
1269,54,,1.0,34.0,mountain_101.jpg,,,,A3PIJBZIF34XR2
1270,55,,1.0,35.0,golf_course_193.jpg,,,,A3PIJBZIF34XR2
1271,56,right,1.0,36.0,right.jpg,right,1.5662,,A3PIJBZIF34XR2
1272,57,,1.0,37.0,badlands_222.jpg,,,,A3PIJBZIF34XR2
1273,58,,1.0,38.0,playground_60.jpg,,,,A3PIJBZIF34XR2
1274,59,,1.0,39.0,bridge_191.jpg,,,,A3PIJBZIF34XR2
1275,60,,1.0,40.0,playground_240.jpg,,,,A3PIJBZIF34XR2
1276,61,,1.0,41.0,bridge_256.jpg,,,,A3PIJBZIF34XR2
1277,62,,1.0,42.0,bridge_108.jpg,,,,A3PIJBZIF34XR2
1278,63,,1.0,43.0,mountain_293.jpg,,,,A3PIJBZIF34XR2
1279,64,,1.0,44.0,mountain_230.jpg,,,,A3PIJBZIF34XR2
1280,65,,1.0,45.0,mountain_222.jpg,,,,A3PIJBZIF34XR2
1281,66,,1.0,46.0,highway_415.jpg,,,,A3PIJBZIF34XR2
1282,67,,1.0,47.0,badlands_184.jpg,,,,A3PIJBZIF34XR2
1283,68,,1.0,48.0,bridge_172.jpg,,,,A3PIJBZIF34XR2
1284,69,,1.0,49.0,bridge_65.jpg,,,,A3PIJBZIF34XR2
1285,70,,1.0,50.0,bridge_146.jpg,,,,A3PIJBZIF34XR2
1286,71,,1.0,51.0,bridge_202.jpg,,,,A3PIJBZIF34XR2
1287,72,,0.0,52.0,right.jpg,right,,,A3PIJBZIF34XR2
1288,73,,1.0,53.0,golf_course_195.jpg,,,,A3PIJBZIF34XR2
1289,74,,1.0,54.0,highway_294.jpg,,,,A3PIJBZIF34XR2
1290,75,,1.0,55.0,badlands_52.jpg,,,,A3PIJBZIF34XR2
1291,76,,1.0,56.0,golf_course_87.jpg,,,,A3PIJBZIF34XR2
1292,77,,1.0,57.0,golf_course_15.jpg,,,,A3PIJBZIF34XR2
1293,78,,1.0,58.0,badlands_21.jpg,,,,A3PIJBZIF34XR2
1294,79,,1.0,59.0,playground_76.jpg,,,,A3PIJBZIF34XR2
1295,80,,1.0,60.0,bridge_250.jpg,,,,A3PIJBZIF34XR2
1296,81,,1.0,61.0,playground_219.jpg,,,,A3PIJBZIF34XR2
1297,82,,1.0,62.0,mountain_232.jpg,,,,A3PIJBZIF34XR2
1298,83,,1.0,63.0,golf_course_331.jpg,,,,A3PIJBZIF34XR2
1299,84,,1.0,64.0,mountain_57.jpg,,,,A3PIJBZIF34XR2
1300,20,,1.0,0.0,golf_course_15.jpg,,,,A3SFP9VSFJY2YW
1301,21,,1.0,1.0,bridge_172.jpg,,,,A3SFP9VSFJY2YW
1302,22,,1.0,2.0,playground_76.jpg,,,,A3SFP9VSFJY2YW
1303,23,,1.0,3.0,mountain_156.jpg,,,,A3SFP9VSFJY2YW
1304,24,,1.0,4.0,bridge_191.jpg,,,,A3SFP9VSFJY2YW
1305,25,,1.0,5.0,playground_219.jpg,,,,A3SFP9VSFJY2YW
1306,26,,1.0,6.0,playground_257.jpg,,,,A3SFP9VSFJY2YW
1307,27,,1.0,7.0,badlands_70.jpg,,,,A3SFP9VSFJY2YW
1308,28,,1.0,8.0,highway_156.jpg,,,,A3SFP9VSFJY2YW
1309,29,,1.0,9.0,highway_177.jpg,,,,A3SFP9VSFJY2YW
1310,30,,1.0,10.0,mountain_222.jpg,,,,A3SFP9VSFJY2YW
1311,31,,1.0,11.0,badlands_21.jpg,,,,A3SFP9VSFJY2YW
1312,32,right,1.0,12.0,right.jpg,right,1.022,,A3SFP9VSFJY2YW
1313,33,,1.0,13.0,playground_145.jpg,,,,A3SFP9VSFJY2YW
1314,34,,1.0,14.0,bridge_91.jpg,,,,A3SFP9VSFJY2YW
1315,35,,1.0,15.0,highway_245.jpg,,,,A3SFP9VSFJY2YW
1316,36,,1.0,16.0,playground_117.jpg,,,,A3SFP9VSFJY2YW
1317,37,,1.0,17.0,bridge_202.jpg,,,,A3SFP9VSFJY2YW
1318,38,,1.0,18.0,badlands_113.jpg,,,,A3SFP9VSFJY2YW
1319,39,,1.0,19.0,highway_93.jpg,,,,A3SFP9VSFJY2YW
1320,40,right,1.0,20.0,right.jpg,right,1.0495,,A3SFP9VSFJY2YW
1321,41,,1.0,21.0,highway_359.jpg,,,,A3SFP9VSFJY2YW
1322,42,,1.0,22.0,badlands_184.jpg,,,,A3SFP9VSFJY2YW
1323,43,,1.0,23.0,bridge_128.jpg,,,,A3SFP9VSFJY2YW
1324,44,,1.0,24.0,bridge_146.jpg,,,,A3SFP9VSFJY2YW
1325,45,,1.0,25.0,mountain_57.jpg,,,,A3SFP9VSFJY2YW
1326,46,,1.0,26.0,golf_course_188.jpg,,,,A3SFP9VSFJY2YW
1327,47,,1.0,27.0,highway_209.jpg,,,,A3SFP9VSFJY2YW
1328,48,,1.0,28.0,highway_273.jpg,,,,A3SFP9VSFJY2YW
1329,49,,1.0,29.0,bridge_256.jpg,,,,A3SFP9VSFJY2YW
1330,50,,1.0,30.0,badlands_23.jpg,,,,A3SFP9VSFJY2YW
1331,51,,1.0,31.0,mountain_154.jpg,,,,A3SFP9VSFJY2YW
1332,52,,1.0,32.0,golf_course_87.jpg,,,,A3SFP9VSFJY2YW
1333,53,,1.0,33.0,playground_240.jpg,,,,A3SFP9VSFJY2YW
1334,54,right,1.0,34.0,right.jpg,right,1.2085,,A3SFP9VSFJY2YW
1335,55,,1.0,35.0,badlands_221.jpg,,,,A3SFP9VSFJY2YW
1336,56,,1.0,36.0,mountain_293.jpg,,,,A3SFP9VSFJY2YW
1337,57,,1.0,37.0,mountain_230.jpg,,,,A3SFP9VSFJY2YW
1338,58,,1.0,38.0,golf_course_214.jpg,,,,A3SFP9VSFJY2YW
1339,59,right,1.0,39.0,right.jpg,right,1.6007,,A3SFP9VSFJY2YW
1340,60,,1.0,40.0,highway_294.jpg,,,,A3SFP9VSFJY2YW
1341,61,,1.0,41.0,mountain_110.jpg,,,,A3SFP9VSFJY2YW
1342,62,,1.0,42.0,playground_131.jpg,,,,A3SFP9VSFJY2YW
1343,63,,1.0,43.0,golf_course_217.jpg,,,,A3SFP9VSFJY2YW
1344,64,,1.0,44.0,golf_course_331.jpg,,,,A3SFP9VSFJY2YW
1345,65,,1.0,45.0,mountain_101.jpg,,,,A3SFP9VSFJY2YW
1346,66,,1.0,46.0,mountain_123.jpg,,,,A3SFP9VSFJY2YW
1347,67,right,1.0,47.0,right.jpg,right,1.4664,,A3SFP9VSFJY2YW
1348,68,,1.0,48.0,badlands_24.jpg,,,,A3SFP9VSFJY2YW
1349,69,,1.0,49.0,badlands_222.jpg,,,,A3SFP9VSFJY2YW
1350,70,,1.0,50.0,golf_course_193.jpg,,,,A3SFP9VSFJY2YW
1351,71,,1.0,51.0,highway_415.jpg,,,,A3SFP9VSFJY2YW
1352,72,,1.0,52.0,badlands_52.jpg,,,,A3SFP9VSFJY2YW
1353,73,,1.0,53.0,bridge_250.jpg,,,,A3SFP9VSFJY2YW
1354,74,,1.0,54.0,playground_144.jpg,,,,A3SFP9VSFJY2YW
1355,75,,1.0,55.0,badlands_137.jpg,,,,A3SFP9VSFJY2YW
1356,76,,1.0,56.0,playground_10.jpg,,,,A3SFP9VSFJY2YW
1357,77,,1.0,57.0,playground_60.jpg,,,,A3SFP9VSFJY2YW
1358,78,,1.0,58.0,golf_course_78.jpg,,,,A3SFP9VSFJY2YW
1359,79,,1.0,59.0,golf_course_195.jpg,,,,A3SFP9VSFJY2YW
1360,80,,1.0,60.0,bridge_108.jpg,,,,A3SFP9VSFJY2YW
1361,81,,1.0,61.0,bridge_65.jpg,,,,A3SFP9VSFJY2YW
1362,82,,1.0,62.0,mountain_232.jpg,,,,A3SFP9VSFJY2YW
1363,83,,1.0,63.0,golf_course_309.jpg,,,,A3SFP9VSFJY2YW
1364,84,,1.0,64.0,highway_394.jpg,,,,A3SFP9VSFJY2YW
1365,20,,1.0,0.0,playground_117.jpg,,,,A3UA50A6GKNAMR
1366,21,,1.0,1.0,golf_course_15.jpg,,,,A3UA50A6GKNAMR
1367,22,,1.0,2.0,highway_156.jpg,,,,A3UA50A6GKNAMR
1368,23,,1.0,3.0,badlands_21.jpg,,,,A3UA50A6GKNAMR
1369,24,,1.0,4.0,mountain_156.jpg,,,,A3UA50A6GKNAMR
1370,25,,1.0,5.0,playground_131.jpg,,,,A3UA50A6GKNAMR
1371,26,,0.0,6.0,left.jpg,left,,,A3UA50A6GKNAMR
1372,27,,1.0,7.0,mountain_222.jpg,,,,A3UA50A6GKNAMR
1373,28,,1.0,8.0,badlands_70.jpg,,,,A3UA50A6GKNAMR
1374,29,,1.0,9.0,playground_219.jpg,,,,A3UA50A6GKNAMR
1375,30,,1.0,10.0,mountain_230.jpg,,,,A3UA50A6GKNAMR
1376,31,,1.0,11.0,mountain_123.jpg,,,,A3UA50A6GKNAMR
1377,32,,1.0,12.0,bridge_91.jpg,,,,A3UA50A6GKNAMR
1378,33,,1.0,13.0,bridge_108.jpg,,,,A3UA50A6GKNAMR
1379,34,,1.0,14.0,bridge_256.jpg,,,,A3UA50A6GKNAMR
1380,35,,1.0,15.0,highway_294.jpg,,,,A3UA50A6GKNAMR
1381,36,,1.0,16.0,golf_course_309.jpg,,,,A3UA50A6GKNAMR
1382,37,left,1.0,17.0,left.jpg,left,1.113,,A3UA50A6GKNAMR
1383,38,,1.0,18.0,highway_394.jpg,,,,A3UA50A6GKNAMR
1384,39,,1.0,19.0,golf_course_188.jpg,,,,A3UA50A6GKNAMR
1385,40,,1.0,20.0,golf_course_214.jpg,,,,A3UA50A6GKNAMR
1386,41,,1.0,21.0,golf_course_217.jpg,,,,A3UA50A6GKNAMR
1387,42,,1.0,22.0,mountain_232.jpg,,,,A3UA50A6GKNAMR
1388,43,,1.0,23.0,bridge_191.jpg,,,,A3UA50A6GKNAMR
1389,44,,1.0,24.0,mountain_57.jpg,,,,A3UA50A6GKNAMR
1390,45,,1.0,25.0,playground_145.jpg,,,,A3UA50A6GKNAMR
1391,46,,1.0,26.0,badlands_184.jpg,,,,A3UA50A6GKNAMR
1392,47,,1.0,27.0,badlands_222.jpg,,,,A3UA50A6GKNAMR
1393,48,,1.0,28.0,badlands_24.jpg,,,,A3UA50A6GKNAMR
1394,49,,1.0,29.0,playground_60.jpg,,,,A3UA50A6GKNAMR
1395,50,,1.0,30.0,bridge_250.jpg,,,,A3UA50A6GKNAMR
1396,51,,1.0,31.0,bridge_172.jpg,,,,A3UA50A6GKNAMR
1397,52,left,1.0,32.0,left.jpg,left,1.97,,A3UA50A6GKNAMR
1398,53,,1.0,33.0,highway_359.jpg,,,,A3UA50A6GKNAMR
1399,54,,1.0,34.0,golf_course_195.jpg,,,,A3UA50A6GKNAMR
1400,55,,1.0,35.0,mountain_154.jpg,,,,A3UA50A6GKNAMR
1401,56,,1.0,36.0,golf_course_193.jpg,,,,A3UA50A6GKNAMR
1402,57,right,1.0,37.0,right.jpg,right,1.738,,A3UA50A6GKNAMR
1403,58,,1.0,38.0,playground_257.jpg,,,,A3UA50A6GKNAMR
1404,59,,1.0,39.0,mountain_110.jpg,,,,A3UA50A6GKNAMR
1405,60,,1.0,40.0,playground_10.jpg,,,,A3UA50A6GKNAMR
1406,61,,1.0,41.0,golf_course_87.jpg,,,,A3UA50A6GKNAMR
1407,62,,1.0,42.0,highway_273.jpg,,,,A3UA50A6GKNAMR
1408,63,,1.0,43.0,mountain_293.jpg,,,,A3UA50A6GKNAMR
1409,64,,1.0,44.0,golf_course_78.jpg,,,,A3UA50A6GKNAMR
1410,65,,1.0,45.0,badlands_221.jpg,,,,A3UA50A6GKNAMR
1411,66,right,1.0,46.0,right.jpg,right,0.743,,A3UA50A6GKNAMR
1412,67,,1.0,47.0,highway_177.jpg,,,,A3UA50A6GKNAMR
1413,68,,1.0,48.0,badlands_113.jpg,,,,A3UA50A6GKNAMR
1414,69,,1.0,49.0,highway_93.jpg,,,,A3UA50A6GKNAMR
1415,70,,1.0,50.0,badlands_137.jpg,,,,A3UA50A6GKNAMR
1416,71,,1.0,51.0,playground_240.jpg,,,,A3UA50A6GKNAMR
1417,72,,1.0,52.0,bridge_202.jpg,,,,A3UA50A6GKNAMR
1418,73,,1.0,53.0,playground_144.jpg,,,,A3UA50A6GKNAMR
1419,74,,1.0,54.0,mountain_101.jpg,,,,A3UA50A6GKNAMR
1420,75,,1.0,55.0,bridge_65.jpg,,,,A3UA50A6GKNAMR
1421,76,,1.0,56.0,highway_415.jpg,,,,A3UA50A6GKNAMR
1422,77,,1.0,57.0,playground_76.jpg,,,,A3UA50A6GKNAMR
1423,78,,1.0,58.0,bridge_146.jpg,,,,A3UA50A6GKNAMR
1424,79,,1.0,59.0,highway_209.jpg,,,,A3UA50A6GKNAMR
1425,80,,1.0,60.0,badlands_23.jpg,,,,A3UA50A6GKNAMR
1426,81,,1.0,61.0,golf_course_331.jpg,,,,A3UA50A6GKNAMR
1427,82,,1.0,62.0,badlands_52.jpg,,,,A3UA50A6GKNAMR
1428,83,,1.0,63.0,highway_245.jpg,,,,A3UA50A6GKNAMR
1429,84,,1.0,64.0,bridge_128.jpg,,,,A3UA50A6GKNAMR
1430,20,,1.0,0.0,badlands_184.jpg,,,,A3V7HHS20YFRT4
1431,21,,1.0,1.0,badlands_113.jpg,,,,A3V7HHS20YFRT4
1432,22,,1.0,2.0,highway_156.jpg,,,,A3V7HHS20YFRT4
1433,23,,1.0,3.0,golf_course_15.jpg,,,,A3V7HHS20YFRT4
1434,24,,1.0,4.0,mountain_230.jpg,,,,A3V7HHS20YFRT4
1435,25,,1.0,5.0,highway_394.jpg,,,,A3V7HHS20YFRT4
1436,26,,1.0,6.0,golf_course_188.jpg,,,,A3V7HHS20YFRT4
1437,27,,1.0,7.0,mountain_57.jpg,,,,A3V7HHS20YFRT4
1438,28,,1.0,8.0,golf_course_217.jpg,,,,A3V7HHS20YFRT4
1439,29,,1.0,9.0,playground_145.jpg,,,,A3V7HHS20YFRT4
1440,30,,1.0,10.0,playground_76.jpg,,,,A3V7HHS20YFRT4
1441,31,left,1.0,11.0,left.jpg,left,0.995,,A3V7HHS20YFRT4
1442,32,,1.0,12.0,mountain_293.jpg,,,,A3V7HHS20YFRT4
1443,33,,1.0,13.0,highway_294.jpg,,,,A3V7HHS20YFRT4
1444,34,,1.0,14.0,playground_131.jpg,,,,A3V7HHS20YFRT4
1445,35,,1.0,15.0,badlands_221.jpg,,,,A3V7HHS20YFRT4
1446,36,,1.0,16.0,mountain_154.jpg,,,,A3V7HHS20YFRT4
1447,37,,1.0,17.0,bridge_128.jpg,,,,A3V7HHS20YFRT4
1448,38,,1.0,18.0,bridge_91.jpg,,,,A3V7HHS20YFRT4
1449,39,,1.0,19.0,badlands_24.jpg,,,,A3V7HHS20YFRT4
1450,40,,0.0,20.0,left.jpg,left,,,A3V7HHS20YFRT4
1451,41,,1.0,21.0,golf_course_309.jpg,,,,A3V7HHS20YFRT4
1452,42,,1.0,22.0,golf_course_331.jpg,,,,A3V7HHS20YFRT4
1453,43,,1.0,23.0,badlands_52.jpg,,,,A3V7HHS20YFRT4
1454,44,,1.0,24.0,mountain_110.jpg,,,,A3V7HHS20YFRT4
1455,45,,1.0,25.0,highway_93.jpg,,,,A3V7HHS20YFRT4
1456,46,,1.0,26.0,badlands_70.jpg,,,,A3V7HHS20YFRT4
1457,47,,1.0,27.0,highway_177.jpg,,,,A3V7HHS20YFRT4
1458,48,,1.0,28.0,bridge_256.jpg,,,,A3V7HHS20YFRT4
1459,49,,1.0,29.0,playground_240.jpg,,,,A3V7HHS20YFRT4
1460,50,,1.0,30.0,playground_10.jpg,,,,A3V7HHS20YFRT4
1461,51,right,1.0,31.0,right.jpg,right,1.119,,A3V7HHS20YFRT4
1462,52,,1.0,32.0,bridge_172.jpg,,,,A3V7HHS20YFRT4
1463,53,,1.0,33.0,mountain_222.jpg,,,,A3V7HHS20YFRT4
1464,54,,1.0,34.0,playground_144.jpg,,,,A3V7HHS20YFRT4
1465,55,,1.0,35.0,playground_219.jpg,,,,A3V7HHS20YFRT4
1466,56,,1.0,36.0,highway_245.jpg,,,,A3V7HHS20YFRT4
1467,57,left,1.0,37.0,left.jpg,left,0.924,,A3V7HHS20YFRT4
1468,58,,1.0,38.0,golf_course_195.jpg,,,,A3V7HHS20YFRT4
1469,59,,1.0,39.0,badlands_222.jpg,,,,A3V7HHS20YFRT4
1470,60,,1.0,40.0,playground_117.jpg,,,,A3V7HHS20YFRT4
1471,61,,1.0,41.0,bridge_65.jpg,,,,A3V7HHS20YFRT4
1472,62,,1.0,42.0,highway_415.jpg,,,,A3V7HHS20YFRT4
1473,63,,1.0,43.0,golf_course_193.jpg,,,,A3V7HHS20YFRT4
1474,64,,1.0,44.0,golf_course_87.jpg,,,,A3V7HHS20YFRT4
1475,65,,1.0,45.0,bridge_191.jpg,,,,A3V7HHS20YFRT4
1476,66,,1.0,46.0,mountain_232.jpg,,,,A3V7HHS20YFRT4
1477,67,,1.0,47.0,bridge_202.jpg,,,,A3V7HHS20YFRT4
1478,68,left,1.0,48.0,left.jpg,left,1.095,,A3V7HHS20YFRT4
1479,69,,1.0,49.0,playground_60.jpg,,,,A3V7HHS20YFRT4
1480,70,,1.0,50.0,highway_359.jpg,,,,A3V7HHS20YFRT4
1481,71,,1.0,51.0,bridge_108.jpg,,,,A3V7HHS20YFRT4
1482,72,,1.0,52.0,badlands_137.jpg,,,,A3V7HHS20YFRT4
1483,73,,1.0,53.0,highway_273.jpg,,,,A3V7HHS20YFRT4
1484,74,,1.0,54.0,playground_257.jpg,,,,A3V7HHS20YFRT4
1485,75,,1.0,55.0,highway_209.jpg,,,,A3V7HHS20YFRT4
1486,76,,1.0,56.0,mountain_156.jpg,,,,A3V7HHS20YFRT4
1487,77,,1.0,57.0,golf_course_214.jpg,,,,A3V7HHS20YFRT4
1488,78,,1.0,58.0,badlands_21.jpg,,,,A3V7HHS20YFRT4
1489,79,,1.0,59.0,mountain_101.jpg,,,,A3V7HHS20YFRT4
1490,80,,1.0,60.0,mountain_123.jpg,,,,A3V7HHS20YFRT4
1491,81,,1.0,61.0,bridge_146.jpg,,,,A3V7HHS20YFRT4
1492,82,,1.0,62.0,bridge_250.jpg,,,,A3V7HHS20YFRT4
1493,83,,1.0,63.0,golf_course_78.jpg,,,,A3V7HHS20YFRT4
1494,84,,1.0,64.0,badlands_23.jpg,,,,A3V7HHS20YFRT4
1495,20,,1.0,0.0,playground_10.jpg,,,,A5P12YJP805RG
1496,21,,1.0,1.0,playground_144.jpg,,,,A5P12YJP805RG
1497,22,,1.0,2.0,bridge_202.jpg,,,,A5P12YJP805RG
1498,23,,1.0,3.0,bridge_91.jpg,,,,A5P12YJP805RG
1499,24,,1.0,4.0,golf_course_195.jpg,,,,A5P12YJP805RG
1500,25,,1.0,5.0,bridge_128.jpg,,,,A5P12YJP805RG
1501,26,,1.0,6.0,highway_273.jpg,,,,A5P12YJP805RG
1502,27,,1.0,7.0,playground_257.jpg,,,,A5P12YJP805RG
1503,28,,1.0,8.0,highway_359.jpg,,,,A5P12YJP805RG
1504,29,,1.0,9.0,golf_course_78.jpg,,,,A5P12YJP805RG
1505,30,,1.0,10.0,mountain_101.jpg,,,,A5P12YJP805RG
1506,31,,1.0,11.0,highway_415.jpg,,,,A5P12YJP805RG
1507,32,,1.0,12.0,playground_117.jpg,,,,A5P12YJP805RG
1508,33,left,1.0,13.0,left.jpg,left,0.6787,,A5P12YJP805RG
1509,34,,1.0,14.0,playground_240.jpg,,,,A5P12YJP805RG
1510,35,,1.0,15.0,badlands_23.jpg,,,,A5P12YJP805RG
1511,36,,1.0,16.0,highway_394.jpg,,,,A5P12YJP805RG
1512,37,,1.0,17.0,badlands_221.jpg,,,,A5P12YJP805RG
1513,38,,1.0,18.0,badlands_222.jpg,,,,A5P12YJP805RG
1514,39,,1.0,19.0,mountain_110.jpg,,,,A5P12YJP805RG
1515,40,,1.0,20.0,playground_60.jpg,,,,A5P12YJP805RG
1516,41,right,1.0,21.0,right.jpg,right,0.6202,,A5P12YJP805RG
1517,42,,1.0,22.0,golf_course_15.jpg,,,,A5P12YJP805RG
1518,43,,1.0,23.0,playground_131.jpg,,,,A5P12YJP805RG
1519,44,,1.0,24.0,golf_course_87.jpg,,,,A5P12YJP805RG
1520,45,,1.0,25.0,bridge_65.jpg,,,,A5P12YJP805RG
1521,46,,1.0,26.0,badlands_70.jpg,,,,A5P12YJP805RG
1522,47,,1.0,27.0,mountain_123.jpg,,,,A5P12YJP805RG
1523,48,,1.0,28.0,bridge_108.jpg,,,,A5P12YJP805RG
1524,49,,1.0,29.0,golf_course_309.jpg,,,,A5P12YJP805RG
1525,50,,1.0,30.0,mountain_57.jpg,,,,A5P12YJP805RG
1526,51,,1.0,31.0,badlands_21.jpg,,,,A5P12YJP805RG
1527,52,left,1.0,32.0,left.jpg,left,0.4732,,A5P12YJP805RG
1528,53,,1.0,33.0,mountain_293.jpg,,,,A5P12YJP805RG
1529,54,,1.0,34.0,bridge_146.jpg,,,,A5P12YJP805RG
1530,55,,1.0,35.0,golf_course_217.jpg,,,,A5P12YJP805RG
1531,56,,1.0,36.0,badlands_184.jpg,,,,A5P12YJP805RG
1532,57,,1.0,37.0,mountain_222.jpg,,,,A5P12YJP805RG
1533,58,,1.0,38.0,bridge_250.jpg,,,,A5P12YJP805RG
1534,59,,1.0,39.0,badlands_113.jpg,,,,A5P12YJP805RG
1535,60,,1.0,40.0,mountain_232.jpg,,,,A5P12YJP805RG
1536,61,,1.0,41.0,highway_177.jpg,,,,A5P12YJP805RG
1537,62,,1.0,42.0,highway_294.jpg,,,,A5P12YJP805RG
1538,63,right,1.0,43.0,right.jpg,right,0.6204,,A5P12YJP805RG
1539,64,,1.0,44.0,highway_156.jpg,,,,A5P12YJP805RG
1540,65,,1.0,45.0,golf_course_188.jpg,,,,A5P12YJP805RG
1541,66,,1.0,46.0,highway_209.jpg,,,,A5P12YJP805RG
1542,67,,1.0,47.0,mountain_154.jpg,,,,A5P12YJP805RG
1543,68,,1.0,48.0,mountain_230.jpg,,,,A5P12YJP805RG
1544,69,,1.0,49.0,golf_course_214.jpg,,,,A5P12YJP805RG
1545,70,,1.0,50.0,highway_245.jpg,,,,A5P12YJP805RG
1546,71,left,1.0,51.0,left.jpg,left,0.563,,A5P12YJP805RG
1547,72,,1.0,52.0,playground_145.jpg,,,,A5P12YJP805RG
1548,73,,1.0,53.0,playground_76.jpg,,,,A5P12YJP805RG
1549,74,,1.0,54.0,bridge_256.jpg,,,,A5P12YJP805RG
1550,75,,1.0,55.0,bridge_191.jpg,,,,A5P12YJP805RG
1551,76,,1.0,56.0,playground_219.jpg,,,,A5P12YJP805RG
1552,77,,1.0,57.0,mountain_156.jpg,,,,A5P12YJP805RG
1553,78,,1.0,58.0,golf_course_331.jpg,,,,A5P12YJP805RG
1554,79,,1.0,59.0,badlands_137.jpg,,,,A5P12YJP805RG
1555,80,,1.0,60.0,bridge_172.jpg,,,,A5P12YJP805RG
1556,81,,1.0,61.0,highway_93.jpg,,,,A5P12YJP805RG
1557,82,,1.0,62.0,badlands_52.jpg,,,,A5P12YJP805RG
1558,83,,1.0,63.0,golf_course_193.jpg,,,,A5P12YJP805RG
1559,84,,1.0,64.0,badlands_24.jpg,,,,A5P12YJP805RG
1560,20,,1.0,0.0,highway_273.jpg,,,,A8C3WNWRBWUXO
1561,21,,1.0,1.0,highway_394.jpg,,,,A8C3WNWRBWUXO
1562,22,,1.0,2.0,playground_219.jpg,,,,A8C3WNWRBWUXO
1563,23,,1.0,3.0,highway_209.jpg,,,,A8C3WNWRBWUXO
1564,24,,1.0,4.0,highway_245.jpg,,,,A8C3WNWRBWUXO
1565,25,,1.0,5.0,mountain_154.jpg,,,,A8C3WNWRBWUXO
1566,26,,1.0,6.0,golf_course_193.jpg,,,,A8C3WNWRBWUXO
1567,27,,1.0,7.0,mountain_230.jpg,,,,A8C3WNWRBWUXO
1568,28,,1.0,8.0,mountain_57.jpg,,,,A8C3WNWRBWUXO
1569,29,,1.0,9.0,golf_course_15.jpg,,,,A8C3WNWRBWUXO
1570,30,,1.0,10.0,badlands_137.jpg,,,,A8C3WNWRBWUXO
1571,31,,1.0,11.0,badlands_221.jpg,,,,A8C3WNWRBWUXO
1572,32,right,1.0,12.0,right.jpg,right,0.891,,A8C3WNWRBWUXO
1573,33,,1.0,13.0,playground_257.jpg,,,,A8C3WNWRBWUXO
1574,34,,1.0,14.0,bridge_256.jpg,,,,A8C3WNWRBWUXO
1575,35,,1.0,15.0,bridge_108.jpg,,,,A8C3WNWRBWUXO
1576,36,,1.0,16.0,golf_course_78.jpg,,,,A8C3WNWRBWUXO
1577,37,,1.0,17.0,golf_course_188.jpg,,,,A8C3WNWRBWUXO
1578,38,,1.0,18.0,mountain_156.jpg,,,,A8C3WNWRBWUXO
1579,39,,1.0,19.0,badlands_184.jpg,,,,A8C3WNWRBWUXO
1580,40,right,1.0,20.0,right.jpg,right,0.9545,,A8C3WNWRBWUXO
1581,41,,1.0,21.0,bridge_65.jpg,,,,A8C3WNWRBWUXO
1582,42,,1.0,22.0,playground_76.jpg,,,,A8C3WNWRBWUXO
1583,43,,1.0,23.0,playground_117.jpg,,,,A8C3WNWRBWUXO
1584,44,,1.0,24.0,playground_240.jpg,,,,A8C3WNWRBWUXO
1585,45,,1.0,25.0,golf_course_309.jpg,,,,A8C3WNWRBWUXO
1586,46,,1.0,26.0,mountain_123.jpg,,,,A8C3WNWRBWUXO
1587,47,left,1.0,27.0,left.jpg,left,0.842,,A8C3WNWRBWUXO
1588,48,,1.0,28.0,playground_60.jpg,,,,A8C3WNWRBWUXO
1589,49,,1.0,29.0,highway_177.jpg,,,,A8C3WNWRBWUXO
1590,50,,1.0,30.0,bridge_172.jpg,,,,A8C3WNWRBWUXO
1591,51,,1.0,31.0,golf_course_331.jpg,,,,A8C3WNWRBWUXO
1592,52,,1.0,32.0,highway_415.jpg,,,,A8C3WNWRBWUXO
1593,53,,1.0,33.0,badlands_23.jpg,,,,A8C3WNWRBWUXO
1594,54,,1.0,34.0,highway_93.jpg,,,,A8C3WNWRBWUXO
1595,55,,1.0,35.0,badlands_222.jpg,,,,A8C3WNWRBWUXO
1596,56,,1.0,36.0,playground_10.jpg,,,,A8C3WNWRBWUXO
1597,57,,1.0,37.0,bridge_128.jpg,,,,A8C3WNWRBWUXO
1598,58,,1.0,38.0,playground_144.jpg,,,,A8C3WNWRBWUXO
1599,59,right,1.0,39.0,right.jpg,right,0.9236,,A8C3WNWRBWUXO
1600,60,,1.0,40.0,bridge_191.jpg,,,,A8C3WNWRBWUXO
1601,61,,1.0,41.0,badlands_21.jpg,,,,A8C3WNWRBWUXO
1602,62,,1.0,42.0,badlands_70.jpg,,,,A8C3WNWRBWUXO
1603,63,,1.0,43.0,golf_course_195.jpg,,,,A8C3WNWRBWUXO
1604,64,,1.0,44.0,bridge_146.jpg,,,,A8C3WNWRBWUXO
1605,65,,1.0,45.0,badlands_52.jpg,,,,A8C3WNWRBWUXO
1606,66,,1.0,46.0,highway_294.jpg,,,,A8C3WNWRBWUXO
1607,67,,1.0,47.0,mountain_293.jpg,,,,A8C3WNWRBWUXO
1608,68,,1.0,48.0,playground_131.jpg,,,,A8C3WNWRBWUXO
1609,69,,1.0,49.0,playground_145.jpg,,,,A8C3WNWRBWUXO
1610,70,,1.0,50.0,mountain_222.jpg,,,,A8C3WNWRBWUXO
1611,71,,1.0,51.0,golf_course_87.jpg,,,,A8C3WNWRBWUXO
1612,72,,1.0,52.0,highway_359.jpg,,,,A8C3WNWRBWUXO
1613,73,,1.0,53.0,badlands_24.jpg,,,,A8C3WNWRBWUXO
1614,74,left,1.0,54.0,left.jpg,left,0.4902,,A8C3WNWRBWUXO
1615,75,,1.0,55.0,bridge_250.jpg,,,,A8C3WNWRBWUXO
1616,76,,1.0,56.0,golf_course_217.jpg,,,,A8C3WNWRBWUXO
1617,77,,1.0,57.0,mountain_110.jpg,,,,A8C3WNWRBWUXO
1618,78,,1.0,58.0,highway_156.jpg,,,,A8C3WNWRBWUXO
1619,79,,1.0,59.0,bridge_91.jpg,,,,A8C3WNWRBWUXO
1620,80,,1.0,60.0,mountain_101.jpg,,,,A8C3WNWRBWUXO
1621,81,,1.0,61.0,badlands_113.jpg,,,,A8C3WNWRBWUXO
1622,82,,1.0,62.0,mountain_232.jpg,,,,A8C3WNWRBWUXO
1623,83,,1.0,63.0,golf_course_214.jpg,,,,A8C3WNWRBWUXO
1624,84,,1.0,64.0,bridge_202.jpg,,,,A8C3WNWRBWUXO
1625,20,,1.0,0.0,playground_145.jpg,,,,A9HQ3E0F2AGVO
1626,21,,1.0,1.0,mountain_110.jpg,,,,A9HQ3E0F2AGVO
1627,22,,1.0,2.0,bridge_128.jpg,,,,A9HQ3E0F2AGVO
1628,23,,1.0,3.0,badlands_23.jpg,,,,A9HQ3E0F2AGVO
1629,24,,1.0,4.0,bridge_65.jpg,,,,A9HQ3E0F2AGVO
1630,25,,1.0,5.0,mountain_230.jpg,,,,A9HQ3E0F2AGVO
1631,26,,1.0,6.0,playground_144.jpg,,,,A9HQ3E0F2AGVO
1632,27,,1.0,7.0,mountain_101.jpg,,,,A9HQ3E0F2AGVO
1633,28,,1.0,8.0,highway_209.jpg,,,,A9HQ3E0F2AGVO
1634,29,,1.0,9.0,highway_156.jpg,,,,A9HQ3E0F2AGVO
1635,30,,1.0,10.0,bridge_172.jpg,,,,A9HQ3E0F2AGVO
1636,31,right,1.0,11.0,right.jpg,right,0.4501,,A9HQ3E0F2AGVO
1637,32,,1.0,12.0,bridge_250.jpg,,,,A9HQ3E0F2AGVO
1638,33,,1.0,13.0,golf_course_188.jpg,,,,A9HQ3E0F2AGVO
1639,34,,1.0,14.0,golf_course_193.jpg,,,,A9HQ3E0F2AGVO
1640,35,,1.0,15.0,bridge_191.jpg,,,,A9HQ3E0F2AGVO
1641,36,,1.0,16.0,mountain_154.jpg,,,,A9HQ3E0F2AGVO
1642,37,,1.0,17.0,badlands_113.jpg,,,,A9HQ3E0F2AGVO
1643,38,,1.0,18.0,bridge_146.jpg,,,,A9HQ3E0F2AGVO
1644,39,,1.0,19.0,playground_76.jpg,,,,A9HQ3E0F2AGVO
1645,40,,1.0,20.0,badlands_52.jpg,,,,A9HQ3E0F2AGVO
1646,41,left,1.0,21.0,left.jpg,left,0.4868,,A9HQ3E0F2AGVO
1647,42,,1.0,22.0,bridge_91.jpg,,,,A9HQ3E0F2AGVO
1648,43,,1.0,23.0,badlands_222.jpg,,,,A9HQ3E0F2AGVO
1649,44,,1.0,24.0,playground_117.jpg,,,,A9HQ3E0F2AGVO
1650,45,,1.0,25.0,playground_10.jpg,,,,A9HQ3E0F2AGVO
1651,46,,1.0,26.0,playground_60.jpg,,,,A9HQ3E0F2AGVO
1652,47,left,1.0,27.0,left.jpg,left,0.4801,,A9HQ3E0F2AGVO
1653,48,,1.0,28.0,highway_177.jpg,,,,A9HQ3E0F2AGVO
1654,49,,1.0,29.0,badlands_21.jpg,,,,A9HQ3E0F2AGVO
1655,50,,1.0,30.0,golf_course_15.jpg,,,,A9HQ3E0F2AGVO
1656,51,,1.0,31.0,mountain_156.jpg,,,,A9HQ3E0F2AGVO
1657,52,,1.0,32.0,highway_93.jpg,,,,A9HQ3E0F2AGVO
1658,53,,1.0,33.0,playground_240.jpg,,,,A9HQ3E0F2AGVO
1659,54,,1.0,34.0,bridge_202.jpg,,,,A9HQ3E0F2AGVO
1660,55,,1.0,35.0,golf_course_78.jpg,,,,A9HQ3E0F2AGVO
1661,56,,1.0,36.0,golf_course_331.jpg,,,,A9HQ3E0F2AGVO
1662,57,,1.0,37.0,highway_294.jpg,,,,A9HQ3E0F2AGVO
1663,58,,1.0,38.0,badlands_137.jpg,,,,A9HQ3E0F2AGVO
1664,59,,1.0,39.0,mountain_57.jpg,,,,A9HQ3E0F2AGVO
1665,60,,1.0,40.0,highway_394.jpg,,,,A9HQ3E0F2AGVO
1666,61,right,1.0,41.0,right.jpg,right,0.5005,,A9HQ3E0F2AGVO
1667,62,,1.0,42.0,playground_219.jpg,,,,A9HQ3E0F2AGVO
1668,63,,1.0,43.0,playground_257.jpg,,,,A9HQ3E0F2AGVO
1669,64,,1.0,44.0,golf_course_309.jpg,,,,A9HQ3E0F2AGVO
1670,65,,1.0,45.0,mountain_293.jpg,,,,A9HQ3E0F2AGVO
1671,66,,1.0,46.0,badlands_221.jpg,,,,A9HQ3E0F2AGVO
1672,67,,1.0,47.0,golf_course_87.jpg,,,,A9HQ3E0F2AGVO
1673,68,,1.0,48.0,bridge_256.jpg,,,,A9HQ3E0F2AGVO
1674,69,left,1.0,49.0,left.jpg,left,0.4791,,A9HQ3E0F2AGVO
1675,70,,1.0,50.0,mountain_232.jpg,,,,A9HQ3E0F2AGVO
1676,71,,1.0,51.0,playground_131.jpg,,,,A9HQ3E0F2AGVO
1677,72,,1.0,52.0,bridge_108.jpg,,,,A9HQ3E0F2AGVO
1678,73,,1.0,53.0,golf_course_214.jpg,,,,A9HQ3E0F2AGVO
1679,74,,1.0,54.0,mountain_123.jpg,,,,A9HQ3E0F2AGVO
1680,75,,1.0,55.0,highway_415.jpg,,,,A9HQ3E0F2AGVO
1681,76,,1.0,56.0,highway_245.jpg,,,,A9HQ3E0F2AGVO
1682,77,,1.0,57.0,golf_course_217.jpg,,,,A9HQ3E0F2AGVO
1683,78,,1.0,58.0,badlands_24.jpg,,,,A9HQ3E0F2AGVO
1684,79,,1.0,59.0,badlands_70.jpg,,,,A9HQ3E0F2AGVO
1685,80,,1.0,60.0,highway_359.jpg,,,,A9HQ3E0F2AGVO
1686,81,,1.0,61.0,mountain_222.jpg,,,,A9HQ3E0F2AGVO
1687,82,,1.0,62.0,badlands_184.jpg,,,,A9HQ3E0F2AGVO
1688,83,,1.0,63.0,golf_course_195.jpg,,,,A9HQ3E0F2AGVO
1689,84,,1.0,64.0,highway_273.jpg,,,,A9HQ3E0F2AGVO
1690,20,,1.0,0.0,badlands_222.jpg,,,,AEK2SAEL9GG39
1691,21,,1.0,1.0,playground_60.jpg,,,,AEK2SAEL9GG39
1692,22,,1.0,2.0,badlands_52.jpg,,,,AEK2SAEL9GG39
1693,23,,1.0,3.0,bridge_128.jpg,,,,AEK2SAEL9GG39
1694,24,,1.0,4.0,playground_145.jpg,,,,AEK2SAEL9GG39
1695,25,,1.0,5.0,badlands_184.jpg,,,,AEK2SAEL9GG39
1696,26,,1.0,6.0,highway_156.jpg,,,,AEK2SAEL9GG39
1697,27,left,1.0,7.0,left.jpg,left,0.8375,,AEK2SAEL9GG39
1698,28,,1.0,8.0,highway_394.jpg,,,,AEK2SAEL9GG39
1699,29,,1.0,9.0,mountain_110.jpg,,,,AEK2SAEL9GG39
1700,30,,1.0,10.0,mountain_222.jpg,,,,AEK2SAEL9GG39
1701,31,,1.0,11.0,badlands_221.jpg,,,,AEK2SAEL9GG39
1702,32,,1.0,12.0,bridge_191.jpg,,,,AEK2SAEL9GG39
1703,33,,1.0,13.0,mountain_232.jpg,,,,AEK2SAEL9GG39
1704,34,,1.0,14.0,bridge_146.jpg,,,,AEK2SAEL9GG39
1705,35,,1.0,15.0,bridge_202.jpg,,,,AEK2SAEL9GG39
1706,36,,1.0,16.0,highway_415.jpg,,,,AEK2SAEL9GG39
1707,37,,1.0,17.0,badlands_113.jpg,,,,AEK2SAEL9GG39
1708,38,,1.0,18.0,golf_course_15.jpg,,,,AEK2SAEL9GG39
1709,39,,1.0,19.0,highway_93.jpg,,,,AEK2SAEL9GG39
1710,40,left,1.0,20.0,left.jpg,left,0.6355,,AEK2SAEL9GG39
1711,41,,1.0,21.0,bridge_91.jpg,,,,AEK2SAEL9GG39
1712,42,,1.0,22.0,mountain_156.jpg,,,,AEK2SAEL9GG39
1713,43,,1.0,23.0,playground_144.jpg,,,,AEK2SAEL9GG39
1714,44,,1.0,24.0,playground_219.jpg,,,,AEK2SAEL9GG39
1715,45,,1.0,25.0,playground_117.jpg,,,,AEK2SAEL9GG39
1716,46,,1.0,26.0,badlands_137.jpg,,,,AEK2SAEL9GG39
1717,47,,1.0,27.0,playground_10.jpg,,,,AEK2SAEL9GG39
1718,48,,1.0,28.0,golf_course_309.jpg,,,,AEK2SAEL9GG39
1719,49,,1.0,29.0,highway_209.jpg,,,,AEK2SAEL9GG39
1720,50,,1.0,30.0,bridge_250.jpg,,,,AEK2SAEL9GG39
1721,51,,1.0,31.0,bridge_108.jpg,,,,AEK2SAEL9GG39
1722,52,left,1.0,32.0,left.jpg,left,0.6082,,AEK2SAEL9GG39
1723,53,,1.0,33.0,playground_76.jpg,,,,AEK2SAEL9GG39
1724,54,,1.0,34.0,badlands_23.jpg,,,,AEK2SAEL9GG39
1725,55,,1.0,35.0,playground_240.jpg,,,,AEK2SAEL9GG39
1726,56,,1.0,36.0,highway_245.jpg,,,,AEK2SAEL9GG39
1727,57,,1.0,37.0,bridge_256.jpg,,,,AEK2SAEL9GG39
1728,58,right,1.0,38.0,right.jpg,right,0.635,,AEK2SAEL9GG39
1729,59,,1.0,39.0,golf_course_87.jpg,,,,AEK2SAEL9GG39
1730,60,,1.0,40.0,golf_course_195.jpg,,,,AEK2SAEL9GG39
1731,61,,1.0,41.0,golf_course_214.jpg,,,,AEK2SAEL9GG39
1732,62,,1.0,42.0,mountain_123.jpg,,,,AEK2SAEL9GG39
1733,63,,1.0,43.0,mountain_230.jpg,,,,AEK2SAEL9GG39
1734,64,,1.0,44.0,playground_131.jpg,,,,AEK2SAEL9GG39
1735,65,,1.0,45.0,badlands_21.jpg,,,,AEK2SAEL9GG39
1736,66,,1.0,46.0,mountain_293.jpg,,,,AEK2SAEL9GG39
1737,67,,1.0,47.0,badlands_70.jpg,,,,AEK2SAEL9GG39
1738,68,,1.0,48.0,mountain_57.jpg,,,,AEK2SAEL9GG39
1739,69,,1.0,49.0,highway_177.jpg,,,,AEK2SAEL9GG39
1740,70,,1.0,50.0,highway_359.jpg,,,,AEK2SAEL9GG39
1741,71,,1.0,51.0,badlands_24.jpg,,,,AEK2SAEL9GG39
1742,72,,1.0,52.0,golf_course_78.jpg,,,,AEK2SAEL9GG39
1743,73,,1.0,53.0,highway_294.jpg,,,,AEK2SAEL9GG39
1744,74,right,1.0,54.0,right.jpg,right,0.8069,,AEK2SAEL9GG39
1745,75,,1.0,55.0,golf_course_331.jpg,,,,AEK2SAEL9GG39
1746,76,,1.0,56.0,highway_273.jpg,,,,AEK2SAEL9GG39
1747,77,,1.0,57.0,playground_257.jpg,,,,AEK2SAEL9GG39
1748,78,,1.0,58.0,golf_course_193.jpg,,,,AEK2SAEL9GG39
1749,79,,1.0,59.0,bridge_65.jpg,,,,AEK2SAEL9GG39
1750,80,,1.0,60.0,golf_course_217.jpg,,,,AEK2SAEL9GG39
1751,81,,1.0,61.0,mountain_154.jpg,,,,AEK2SAEL9GG39
1752,82,,1.0,62.0,golf_course_188.jpg,,,,AEK2SAEL9GG39
1753,83,,1.0,63.0,bridge_172.jpg,,,,AEK2SAEL9GG39
1754,84,,1.0,64.0,mountain_101.jpg,,,,AEK2SAEL9GG39
1755,20,,1.0,0.0,playground_60.jpg,,,,AFET5KYTUA4TY
1756,21,,1.0,1.0,playground_240.jpg,,,,AFET5KYTUA4TY
1757,22,,1.0,2.0,mountain_123.jpg,,,,AFET5KYTUA4TY
1758,23,,1.0,3.0,highway_359.jpg,,,,AFET5KYTUA4TY
1759,24,,1.0,4.0,bridge_256.jpg,,,,AFET5KYTUA4TY
1760,25,,1.0,5.0,playground_257.jpg,,,,AFET5KYTUA4TY
1761,26,,1.0,6.0,badlands_21.jpg,,,,AFET5KYTUA4TY
1762,27,left,1.0,7.0,left.jpg,left,1.075,,AFET5KYTUA4TY
1763,28,,1.0,8.0,mountain_57.jpg,,,,AFET5KYTUA4TY
1764,29,,1.0,9.0,highway_177.jpg,,,,AFET5KYTUA4TY
1765,30,,1.0,10.0,golf_course_214.jpg,,,,AFET5KYTUA4TY
1766,31,,1.0,11.0,highway_294.jpg,,,,AFET5KYTUA4TY
1767,32,,1.0,12.0,badlands_221.jpg,,,,AFET5KYTUA4TY
1768,33,,1.0,13.0,highway_209.jpg,,,,AFET5KYTUA4TY
1769,34,,1.0,14.0,mountain_232.jpg,,,,AFET5KYTUA4TY
1770,35,,1.0,15.0,bridge_250.jpg,,,,AFET5KYTUA4TY
1771,36,left,1.0,16.0,left.jpg,left,0.9246,,AFET5KYTUA4TY
1772,37,,1.0,17.0,mountain_156.jpg,,,,AFET5KYTUA4TY
1773,38,,1.0,18.0,playground_131.jpg,,,,AFET5KYTUA4TY
1774,39,,1.0,19.0,bridge_191.jpg,,,,AFET5KYTUA4TY
1775,40,,1.0,20.0,playground_219.jpg,,,,AFET5KYTUA4TY
1776,41,,1.0,21.0,golf_course_217.jpg,,,,AFET5KYTUA4TY
1777,42,,1.0,22.0,bridge_108.jpg,,,,AFET5KYTUA4TY
1778,43,,1.0,23.0,golf_course_309.jpg,,,,AFET5KYTUA4TY
1779,44,,1.0,24.0,playground_144.jpg,,,,AFET5KYTUA4TY
1780,45,,1.0,25.0,highway_273.jpg,,,,AFET5KYTUA4TY
1781,46,,1.0,26.0,highway_156.jpg,,,,AFET5KYTUA4TY
1782,47,,1.0,27.0,golf_course_193.jpg,,,,AFET5KYTUA4TY
1783,48,,1.0,28.0,highway_394.jpg,,,,AFET5KYTUA4TY
1784,49,,1.0,29.0,playground_76.jpg,,,,AFET5KYTUA4TY
1785,50,,1.0,30.0,bridge_128.jpg,,,,AFET5KYTUA4TY
1786,51,,1.0,31.0,golf_course_78.jpg,,,,AFET5KYTUA4TY
1787,52,right,1.0,32.0,right.jpg,right,1.0985,,AFET5KYTUA4TY
1788,53,,1.0,33.0,mountain_230.jpg,,,,AFET5KYTUA4TY
1789,54,,1.0,34.0,mountain_110.jpg,,,,AFET5KYTUA4TY
1790,55,,1.0,35.0,playground_10.jpg,,,,AFET5KYTUA4TY
1791,56,left,1.0,36.0,left.jpg,left,0.9475,,AFET5KYTUA4TY
1792,57,,1.0,37.0,badlands_70.jpg,,,,AFET5KYTUA4TY
1793,58,,1.0,38.0,golf_course_331.jpg,,,,AFET5KYTUA4TY
1794,59,,1.0,39.0,bridge_172.jpg,,,,AFET5KYTUA4TY
1795,60,,1.0,40.0,badlands_113.jpg,,,,AFET5KYTUA4TY
1796,61,,1.0,41.0,bridge_146.jpg,,,,AFET5KYTUA4TY
1797,62,,1.0,42.0,badlands_222.jpg,,,,AFET5KYTUA4TY
1798,63,,1.0,43.0,badlands_184.jpg,,,,AFET5KYTUA4TY
1799,64,,1.0,44.0,mountain_222.jpg,,,,AFET5KYTUA4TY
1800,65,,1.0,45.0,badlands_24.jpg,,,,AFET5KYTUA4TY
1801,66,,1.0,46.0,bridge_202.jpg,,,,AFET5KYTUA4TY
1802,67,,1.0,47.0,highway_415.jpg,,,,AFET5KYTUA4TY
1803,68,,1.0,48.0,mountain_154.jpg,,,,AFET5KYTUA4TY
1804,69,,1.0,49.0,playground_145.jpg,,,,AFET5KYTUA4TY
1805,70,left,1.0,50.0,left.jpg,left,1.0878,,AFET5KYTUA4TY
1806,71,,1.0,51.0,golf_course_188.jpg,,,,AFET5KYTUA4TY
1807,72,,1.0,52.0,highway_93.jpg,,,,AFET5KYTUA4TY
1808,73,,1.0,53.0,playground_117.jpg,,,,AFET5KYTUA4TY
1809,74,,1.0,54.0,golf_course_87.jpg,,,,AFET5KYTUA4TY
1810,75,,1.0,55.0,highway_245.jpg,,,,AFET5KYTUA4TY
1811,76,,1.0,56.0,badlands_52.jpg,,,,AFET5KYTUA4TY
1812,77,,1.0,57.0,bridge_91.jpg,,,,AFET5KYTUA4TY
1813,78,,1.0,58.0,mountain_101.jpg,,,,AFET5KYTUA4TY
1814,79,,1.0,59.0,golf_course_15.jpg,,,,AFET5KYTUA4TY
1815,80,,1.0,60.0,bridge_65.jpg,,,,AFET5KYTUA4TY
1816,81,,1.0,61.0,golf_course_195.jpg,,,,AFET5KYTUA4TY
1817,82,,1.0,62.0,badlands_23.jpg,,,,AFET5KYTUA4TY
1818,83,,1.0,63.0,mountain_293.jpg,,,,AFET5KYTUA4TY
1819,84,,1.0,64.0,badlands_137.jpg,,,,AFET5KYTUA4TY
1820,20,,1.0,0.0,golf_course_309.jpg,,,,AWJKR5GA7BS7V
1821,21,,1.0,1.0,mountain_154.jpg,,,,AWJKR5GA7BS7V
1822,22,,1.0,2.0,playground_10.jpg,,,,AWJKR5GA7BS7V
1823,23,,1.0,3.0,playground_145.jpg,,,,AWJKR5GA7BS7V
1824,24,,1.0,4.0,badlands_24.jpg,,,,AWJKR5GA7BS7V
1825,25,,1.0,5.0,highway_177.jpg,,,,AWJKR5GA7BS7V
1826,26,left,1.0,6.0,left.jpg,left,0.952,,AWJKR5GA7BS7V
1827,27,,1.0,7.0,golf_course_331.jpg,,,,AWJKR5GA7BS7V
1828,28,,1.0,8.0,playground_131.jpg,,,,AWJKR5GA7BS7V
1829,29,,1.0,9.0,mountain_222.jpg,,,,AWJKR5GA7BS7V
1830,30,,1.0,10.0,highway_294.jpg,,,,AWJKR5GA7BS7V
1831,31,,1.0,11.0,badlands_21.jpg,,,,AWJKR5GA7BS7V
1832,32,,1.0,12.0,badlands_184.jpg,,,,AWJKR5GA7BS7V
1833,33,,1.0,13.0,playground_144.jpg,,,,AWJKR5GA7BS7V
1834,34,,1.0,14.0,mountain_123.jpg,,,,AWJKR5GA7BS7V
1835,35,,1.0,15.0,bridge_191.jpg,,,,AWJKR5GA7BS7V
1836,36,,1.0,16.0,badlands_222.jpg,,,,AWJKR5GA7BS7V
1837,37,,1.0,17.0,badlands_137.jpg,,,,AWJKR5GA7BS7V
1838,38,,1.0,18.0,mountain_101.jpg,,,,AWJKR5GA7BS7V
1839,39,,1.0,19.0,bridge_146.jpg,,,,AWJKR5GA7BS7V
1840,40,,1.0,20.0,playground_240.jpg,,,,AWJKR5GA7BS7V
1841,41,right,1.0,21.0,right.jpg,right,1.64,,AWJKR5GA7BS7V
1842,42,,1.0,22.0,highway_273.jpg,,,,AWJKR5GA7BS7V
1843,43,,1.0,23.0,badlands_70.jpg,,,,AWJKR5GA7BS7V
1844,44,,1.0,24.0,mountain_57.jpg,,,,AWJKR5GA7BS7V
1845,45,,1.0,25.0,badlands_113.jpg,,,,AWJKR5GA7BS7V
1846,46,,1.0,26.0,highway_245.jpg,,,,AWJKR5GA7BS7V
1847,47,,1.0,27.0,golf_course_217.jpg,,,,AWJKR5GA7BS7V
1848,48,,1.0,28.0,bridge_108.jpg,,,,AWJKR5GA7BS7V
1849,49,,1.0,29.0,bridge_65.jpg,,,,AWJKR5GA7BS7V
1850,50,right,1.0,30.0,right.jpg,right,0.702,,AWJKR5GA7BS7V
1851,51,,1.0,31.0,playground_257.jpg,,,,AWJKR5GA7BS7V
1852,52,,1.0,32.0,bridge_172.jpg,,,,AWJKR5GA7BS7V
1853,53,,1.0,33.0,bridge_256.jpg,,,,AWJKR5GA7BS7V
1854,54,,1.0,34.0,mountain_156.jpg,,,,AWJKR5GA7BS7V
1855,55,,1.0,35.0,bridge_128.jpg,,,,AWJKR5GA7BS7V
1856,56,,1.0,36.0,playground_60.jpg,,,,AWJKR5GA7BS7V
1857,57,,1.0,37.0,playground_76.jpg,,,,AWJKR5GA7BS7V
1858,58,,1.0,38.0,mountain_230.jpg,,,,AWJKR5GA7BS7V
1859,59,,1.0,39.0,golf_course_214.jpg,,,,AWJKR5GA7BS7V
1860,60,right,0.0,40.0,left.jpg,left,0.977,,AWJKR5GA7BS7V
1861,61,,1.0,41.0,golf_course_195.jpg,,,,AWJKR5GA7BS7V
1862,62,,1.0,42.0,highway_359.jpg,,,,AWJKR5GA7BS7V
1863,63,,1.0,43.0,highway_156.jpg,,,,AWJKR5GA7BS7V
1864,64,,1.0,44.0,bridge_202.jpg,,,,AWJKR5GA7BS7V
1865,65,,1.0,45.0,golf_course_78.jpg,,,,AWJKR5GA7BS7V
1866,66,,1.0,46.0,badlands_221.jpg,,,,AWJKR5GA7BS7V
1867,67,,1.0,47.0,badlands_23.jpg,,,,AWJKR5GA7BS7V
1868,68,,1.0,48.0,bridge_91.jpg,,,,AWJKR5GA7BS7V
1869,69,,1.0,49.0,golf_course_193.jpg,,,,AWJKR5GA7BS7V
1870,70,,1.0,50.0,golf_course_188.jpg,,,,AWJKR5GA7BS7V
1871,71,,1.0,51.0,highway_93.jpg,,,,AWJKR5GA7BS7V
1872,72,left,1.0,52.0,left.jpg,left,0.579,,AWJKR5GA7BS7V
1873,73,,1.0,53.0,highway_415.jpg,,,,AWJKR5GA7BS7V
1874,74,,1.0,54.0,highway_209.jpg,,,,AWJKR5GA7BS7V
1875,75,,1.0,55.0,mountain_293.jpg,,,,AWJKR5GA7BS7V
1876,76,,1.0,56.0,playground_219.jpg,,,,AWJKR5GA7BS7V
1877,77,,1.0,57.0,highway_394.jpg,,,,AWJKR5GA7BS7V
1878,78,,1.0,58.0,mountain_232.jpg,,,,AWJKR5GA7BS7V
1879,79,,1.0,59.0,golf_course_15.jpg,,,,AWJKR5GA7BS7V
1880,80,,1.0,60.0,playground_117.jpg,,,,AWJKR5GA7BS7V
1881,81,,1.0,61.0,mountain_110.jpg,,,,AWJKR5GA7BS7V
1882,82,,1.0,62.0,bridge_250.jpg,,,,AWJKR5GA7BS7V
1883,83,,1.0,63.0,badlands_52.jpg,,,,AWJKR5GA7BS7V
1884,84,,1.0,64.0,golf_course_87.jpg,,,,AWJKR5GA7BS7V
1885,20,,1.0,0.0,bridge_202.jpg,,,,AYECXBANNBYIL
1886,21,,1.0,1.0,mountain_101.jpg,,,,AYECXBANNBYIL
1887,22,,1.0,2.0,badlands_70.jpg,,,,AYECXBANNBYIL
1888,23,,1.0,3.0,mountain_123.jpg,,,,AYECXBANNBYIL
1889,24,,1.0,4.0,bridge_65.jpg,,,,AYECXBANNBYIL
1890,25,,1.0,5.0,bridge_108.jpg,,,,AYECXBANNBYIL
1891,26,,1.0,6.0,playground_76.jpg,,,,AYECXBANNBYIL
1892,27,,1.0,7.0,highway_273.jpg,,,,AYECXBANNBYIL
1893,28,,1.0,8.0,golf_course_78.jpg,,,,AYECXBANNBYIL
1894,29,right,1.0,9.0,right.jpg,right,1.1614,,AYECXBANNBYIL
1895,30,,1.0,10.0,playground_240.jpg,,,,AYECXBANNBYIL
1896,31,,1.0,11.0,highway_245.jpg,,,,AYECXBANNBYIL
