,layer,correct,test_test_response.keys,test_test_response.corr,test_test_response.rt,trials_2.thisRepN,trials_2.thisTrialN,trials_2.thisN,trials_2.thisIndex,trials_2.ran,image1,image2,bar_2.response,subject
0,1.0,left,left,1.0,10.108,0.0,0.0,0.0,0.0,1.0,badlands_70.jpg,badlands_119.jpg,4.0,A1PS8FTSVOJ4PB
1,1.0,left,right,0.0,3.416,0.0,1.0,1.0,1.0,1.0,golf_course_195.jpg,golf_course_2.jpg,8.0,A1PS8FTSVOJ4PB
2,0.0,right,right,1.0,3.471,0.0,2.0,2.0,2.0,1.0,golf_course_114.jpg,golf_course_331.jpg,8.0,A1PS8FTSVOJ4PB
3,0.0,right,right,1.0,6.83,0.0,3.0,3.0,3.0,1.0,playground_22.jpg,playground_76.jpg,6.0,A1PS8FTSVOJ4PB
4,1.0,left,left,1.0,9.3,0.0,4.0,4.0,4.0,1.0,mountain_293.jpg,mountain_47.jpg,5.0,A1PS8FTSVOJ4PB
5,0.0,right,left,0.0,3.118,0.0,5.0,5.0,5.0,1.0,badlands_194.jpg,badlands_137.jpg,6.0,A1PS8FTSVOJ4PB
6,1.0,right,right,1.0,3.784,0.0,6.0,6.0,6.0,1.0,badlands_101.jpg,badlands_23.jpg,4.0,A1PS8FTSVOJ4PB
7,1.0,left,right,0.0,1.938,0.0,7.0,7.0,7.0,1.0,mountain_230.jpg,mountain_97.jpg,7.0,A1PS8FTSVOJ4PB
8,0.0,left,left,1.0,4.301,0.0,8.0,8.0,8.0,1.0,badlands_24.jpg,badlands_3.jpg,5.0,A1PS8FTSVOJ4PB
9,0.0,right,right,1.0,3.279,0.0,9.0,9.0,9.0,1.0,golf_course_130.jpg,golf_course_87.jpg,8.0,A1PS8FTSVOJ4PB
10,0.0,right,right,1.0,4.242,0.0,10.0,10.0,10.0,1.0,playground_167.jpg,playground_117.jpg,8.0,A1PS8FTSVOJ4PB
11,0.0,left,right,0.0,92.497,0.0,11.0,11.0,11.0,1.0,playground_257.jpg,playground_214.jpg,4.0,A1PS8FTSVOJ4PB
12,0.0,right,right,1.0,3.124,0.0,12.0,12.0,12.0,1.0,highway_314.jpg,highway_209.jpg,7.0,A1PS8FTSVOJ4PB
13,1.0,left,left,1.0,4.8,0.0,13.0,13.0,13.0,1.0,playground_219.jpg,playground_205.jpg,6.0,A1PS8FTSVOJ4PB
14,1.0,left,left,1.0,3.529,0.0,14.0,14.0,14.0,1.0,golf_course_309.jpg,golf_course_209.jpg,6.0,A1PS8FTSVOJ4PB
15,1.0,left,left,1.0,2.072,0.0,15.0,15.0,15.0,1.0,badlands_21.jpg,badlands_98.jpg,5.0,A1PS8FTSVOJ4PB
16,1.0,left,left,1.0,3.04,0.0,16.0,16.0,16.0,1.0,playground_240.jpg,playground_40.jpg,8.0,A1PS8FTSVOJ4PB
17,0.0,right,right,1.0,2.625,0.0,17.0,17.0,17.0,1.0,mountain_128.jpg,mountain_156.jpg,6.0,A1PS8FTSVOJ4PB
18,0.0,left,left,1.0,6.942,0.0,18.0,18.0,18.0,1.0,bridge_172.jpg,bridge_17.jpg,8.0,A1PS8FTSVOJ4PB
19,0.0,right,right,1.0,2.112,0.0,19.0,19.0,19.0,1.0,mountain_94.jpg,mountain_123.jpg,6.0,A1PS8FTSVOJ4PB
20,0.0,left,left,1.0,2.563,0.0,20.0,20.0,20.0,1.0,golf_course_188.jpg,golf_course_157.jpg,8.0,A1PS8FTSVOJ4PB
21,1.0,right,right,1.0,2.917,0.0,21.0,21.0,21.0,1.0,bridge_60.jpg,bridge_65.jpg,8.0,A1PS8FTSVOJ4PB
22,1.0,left,right,0.0,2.336,0.0,22.0,22.0,22.0,1.0,golf_course_78.jpg,golf_course_101.jpg,8.0,A1PS8FTSVOJ4PB
23,1.0,right,left,0.0,3.763,0.0,23.0,23.0,23.0,1.0,mountain_223.jpg,mountain_110.jpg,7.0,A1PS8FTSVOJ4PB
24,1.0,left,left,1.0,3.749,0.0,24.0,24.0,24.0,1.0,playground_144.jpg,playground_65.jpg,7.0,A1PS8FTSVOJ4PB
25,0.0,right,left,0.0,5.79,0.0,25.0,25.0,25.0,1.0,mountain_244.jpg,mountain_222.jpg,4.0,A1PS8FTSVOJ4PB
26,1.0,left,left,1.0,3.716,0.0,26.0,26.0,26.0,1.0,mountain_154.jpg,mountain_95.jpg,8.0,A1PS8FTSVOJ4PB
27,0.0,right,left,0.0,6.719,0.0,27.0,27.0,27.0,1.0,playground_268.jpg,playground_60.jpg,3.0,A1PS8FTSVOJ4PB
28,0.0,left,right,0.0,3.197,0.0,28.0,28.0,28.0,1.0,badlands_222.jpg,badlands_34.jpg,7.0,A1PS8FTSVOJ4PB
29,0.0,left,left,1.0,2.391,0.0,29.0,29.0,29.0,1.0,bridge_191.jpg,bridge_184.jpg,8.0,A1PS8FTSVOJ4PB
30,1.0,right,right,1.0,3.361,0.0,30.0,30.0,30.0,1.0,bridge_38.jpg,bridge_202.jpg,8.0,A1PS8FTSVOJ4PB
31,0.0,right,left,0.0,3.415,0.0,31.0,31.0,31.0,1.0,badlands_115.jpg,badlands_221.jpg,4.0,A1PS8FTSVOJ4PB
32,1.0,left,left,1.0,4.642,0.0,32.0,32.0,32.0,1.0,bridge_91.jpg,bridge_82.jpg,2.0,A1PS8FTSVOJ4PB
33,1.0,left,left,1.0,2.909,0.0,33.0,33.0,33.0,1.0,golf_course_214.jpg,golf_course_317.jpg,7.0,A1PS8FTSVOJ4PB
34,0.0,left,left,1.0,15.301,0.0,34.0,34.0,34.0,1.0,highway_273.jpg,highway_384.jpg,7.0,A1PS8FTSVOJ4PB
35,0.0,right,right,1.0,4.43,0.0,35.0,35.0,35.0,1.0,golf_course_35.jpg,golf_course_217.jpg,6.0,A1PS8FTSVOJ4PB
36,1.0,right,right,1.0,2.962,0.0,36.0,36.0,36.0,1.0,highway_368.jpg,highway_294.jpg,8.0,A1PS8FTSVOJ4PB
37,0.0,right,right,1.0,2.159,0.0,37.0,37.0,37.0,1.0,highway_60.jpg,highway_415.jpg,7.0,A1PS8FTSVOJ4PB
38,1.0,right,left,0.0,3.507,0.0,38.0,38.0,38.0,1.0,highway_293.jpg,highway_156.jpg,3.0,A1PS8FTSVOJ4PB
39,1.0,right,left,0.0,3.65,0.0,39.0,39.0,39.0,1.0,mountain_221.jpg,mountain_101.jpg,3.0,A1PS8FTSVOJ4PB
40,1.0,right,right,1.0,2.727,0.0,40.0,40.0,40.0,1.0,playground_164.jpg,playground_131.jpg,7.0,A1PS8FTSVOJ4PB
41,0.0,left,left,1.0,15.83,0.0,41.0,41.0,41.0,1.0,golf_course_193.jpg,golf_course_235.jpg,5.0,A1PS8FTSVOJ4PB
42,0.0,right,left,0.0,6.464,0.0,42.0,42.0,42.0,1.0,playground_229.jpg,playground_145.jpg,2.0,A1PS8FTSVOJ4PB
43,0.0,left,right,0.0,2.823,0.0,43.0,43.0,43.0,1.0,bridge_250.jpg,bridge_134.jpg,7.0,A1PS8FTSVOJ4PB
44,0.0,left,left,1.0,2.502,0.0,44.0,44.0,44.0,1.0,highway_177.jpg,highway_87.jpg,8.0,A1PS8FTSVOJ4PB
45,1.0,left,left,1.0,5.34,0.0,45.0,45.0,45.0,1.0,highway_93.jpg,highway_369.jpg,6.0,A1PS8FTSVOJ4PB
46,1.0,right,right,1.0,4.979,0.0,46.0,46.0,46.0,1.0,badlands_203.jpg,badlands_113.jpg,5.0,A1PS8FTSVOJ4PB
47,0.0,right,left,0.0,3.439,0.0,47.0,47.0,47.0,1.0,badlands_228.jpg,badlands_184.jpg,4.0,A1PS8FTSVOJ4PB
48,0.0,right,right,1.0,1.945,0.0,48.0,48.0,48.0,1.0,bridge_27.jpg,bridge_146.jpg,6.0,A1PS8FTSVOJ4PB
49,1.0,right,right,1.0,4.318,0.0,49.0,49.0,49.0,1.0,highway_379.jpg,highway_359.jpg,6.0,A1PS8FTSVOJ4PB
50,1.0,right,right,1.0,2.75,0.0,50.0,50.0,50.0,1.0,badlands_63.jpg,badlands_52.jpg,3.0,A1PS8FTSVOJ4PB
51,1.0,right,right,1.0,2.146,0.0,51.0,51.0,51.0,1.0,bridge_244.jpg,bridge_128.jpg,8.0,A1PS8FTSVOJ4PB
52,1.0,left,right,0.0,3.75,0.0,52.0,52.0,52.0,1.0,bridge_108.jpg,bridge_148.jpg,3.0,A1PS8FTSVOJ4PB
53,1.0,right,right,1.0,2.828,0.0,53.0,53.0,53.0,1.0,golf_course_97.jpg,golf_course_15.jpg,6.0,A1PS8FTSVOJ4PB
54,0.0,left,left,1.0,2.753,0.0,54.0,54.0,54.0,1.0,bridge_256.jpg,bridge_54.jpg,4.0,A1PS8FTSVOJ4PB
55,0.0,left,left,1.0,3.888,0.0,55.0,55.0,55.0,1.0,highway_245.jpg,highway_134.jpg,7.0,A1PS8FTSVOJ4PB
56,0.0,right,right,1.0,2.672,0.0,56.0,56.0,56.0,1.0,mountain_3.jpg,mountain_232.jpg,7.0,A1PS8FTSVOJ4PB
57,0.0,left,left,1.0,2.739,0.0,57.0,57.0,57.0,1.0,mountain_57.jpg,mountain_193.jpg,6.0,A1PS8FTSVOJ4PB
58,1.0,left,left,1.0,9.192,0.0,58.0,58.0,58.0,1.0,playground_10.jpg,playground_12.jpg,3.0,A1PS8FTSVOJ4PB
59,1.0,left,left,1.0,2.543,0.0,59.0,59.0,59.0,1.0,highway_394.jpg,highway_406.jpg,7.0,A1PS8FTSVOJ4PB
60,0.0,right,right,1.0,9.96,0.0,0.0,0.0,0.0,1.0,playground_21.jpg,playground_219.jpg,8.0,A1R8Q9KXX4Q5T6
61,0.0,right,left,0.0,8.317,0.0,1.0,1.0,1.0,1.0,badlands_225.jpg,badlands_113.jpg,3.0,A1R8Q9KXX4Q5T6
62,0.0,right,right,1.0,19.947,0.0,2.0,2.0,2.0,1.0,badlands_228.jpg,badlands_184.jpg,1.0,A1R8Q9KXX4Q5T6
63,0.0,right,right,1.0,4.479,0.0,3.0,3.0,3.0,1.0,bridge_184.jpg,bridge_191.jpg,8.0,A1R8Q9KXX4Q5T6
64,1.0,left,left,1.0,7.365,0.0,4.0,4.0,4.0,1.0,playground_117.jpg,playground_127.jpg,6.0,A1R8Q9KXX4Q5T6
65,0.0,right,left,0.0,6.527,0.0,5.0,5.0,5.0,1.0,badlands_1.jpg,badlands_21.jpg,1.0,A1R8Q9KXX4Q5T6
66,1.0,right,left,0.0,6.195,0.0,6.0,6.0,6.0,1.0,golf_course_209.jpg,golf_course_309.jpg,8.0,A1R8Q9KXX4Q5T6
67,0.0,right,right,1.0,5.435,0.0,7.0,7.0,7.0,1.0,bridge_27.jpg,bridge_146.jpg,8.0,A1R8Q9KXX4Q5T6
68,0.0,left,left,1.0,4.941,0.0,8.0,8.0,8.0,1.0,highway_209.jpg,highway_314.jpg,2.0,A1R8Q9KXX4Q5T6
69,1.0,right,right,1.0,7.983,0.0,9.0,9.0,9.0,1.0,badlands_63.jpg,badlands_52.jpg,4.0,A1R8Q9KXX4Q5T6
70,0.0,left,left,1.0,5.227,0.0,10.0,10.0,10.0,1.0,mountain_293.jpg,mountain_72.jpg,2.0,A1R8Q9KXX4Q5T6
71,1.0,right,left,0.0,4.528,0.0,11.0,11.0,11.0,1.0,highway_368.jpg,highway_294.jpg,2.0,A1R8Q9KXX4Q5T6
72,0.0,left,left,1.0,3.423,0.0,12.0,12.0,12.0,1.0,golf_course_195.jpg,golf_course_25.jpg,2.0,A1R8Q9KXX4Q5T6
73,0.0,right,right,1.0,4.399,0.0,13.0,13.0,13.0,1.0,mountain_244.jpg,mountain_222.jpg,2.0,A1R8Q9KXX4Q5T6
74,1.0,right,left,0.0,21.884,0.0,14.0,14.0,14.0,1.0,badlands_139.jpg,badlands_137.jpg,2.0,A1R8Q9KXX4Q5T6
75,1.0,right,right,1.0,5.466,0.0,15.0,15.0,15.0,1.0,badlands_62.jpg,badlands_222.jpg,2.0,A1R8Q9KXX4Q5T6
76,1.0,right,left,0.0,6.908,0.0,16.0,16.0,16.0,1.0,golf_course_101.jpg,golf_course_78.jpg,6.0,A1R8Q9KXX4Q5T6
77,0.0,left,left,1.0,8.484,0.0,17.0,17.0,17.0,1.0,bridge_128.jpg,bridge_61.jpg,7.0,A1R8Q9KXX4Q5T6
78,1.0,right,left,0.0,3.908,0.0,18.0,18.0,18.0,1.0,mountain_295.jpg,mountain_156.jpg,3.0,A1R8Q9KXX4Q5T6
79,1.0,left,right,0.0,6.372,0.0,19.0,19.0,19.0,1.0,golf_course_217.jpg,golf_course_262.jpg,2.0,A1R8Q9KXX4Q5T6
80,1.0,right,left,0.0,8.407,0.0,20.0,20.0,20.0,1.0,mountain_138.jpg,mountain_57.jpg,2.0,A1R8Q9KXX4Q5T6
81,1.0,right,left,0.0,11.825,0.0,21.0,21.0,21.0,1.0,bridge_82.jpg,bridge_91.jpg,1.0,A1R8Q9KXX4Q5T6
82,1.0,left,right,0.0,10.993,0.0,22.0,22.0,22.0,1.0,bridge_108.jpg,bridge_148.jpg,2.0,A1R8Q9KXX4Q5T6
83,0.0,right,left,0.0,4.157,0.0,23.0,23.0,23.0,1.0,mountain_171.jpg,mountain_101.jpg,2.0,A1R8Q9KXX4Q5T6
84,0.0,left,right,0.0,5.299,0.0,24.0,24.0,24.0,1.0,playground_60.jpg,playground_268.jpg,4.0,A1R8Q9KXX4Q5T6
85,1.0,left,left,1.0,4.577,0.0,25.0,25.0,25.0,1.0,highway_415.jpg,highway_174.jpg,3.0,A1R8Q9KXX4Q5T6
86,0.0,right,left,0.0,4.056,0.0,26.0,26.0,26.0,1.0,highway_384.jpg,highway_273.jpg,2.0,A1R8Q9KXX4Q5T6
87,1.0,left,left,1.0,5.474,0.0,27.0,27.0,27.0,1.0,bridge_256.jpg,bridge_211.jpg,2.0,A1R8Q9KXX4Q5T6
88,0.0,right,right,1.0,13.834,0.0,28.0,28.0,28.0,1.0,highway_134.jpg,highway_245.jpg,2.0,A1R8Q9KXX4Q5T6
89,0.0,left,left,1.0,5.627,0.0,29.0,29.0,29.0,1.0,highway_359.jpg,highway_389.jpg,2.0,A1R8Q9KXX4Q5T6
90,1.0,left,left,1.0,4.695,0.0,30.0,30.0,30.0,1.0,bridge_172.jpg,bridge_163.jpg,4.0,A1R8Q9KXX4Q5T6
91,1.0,left,left,1.0,2.983,0.0,31.0,31.0,31.0,1.0,highway_156.jpg,highway_293.jpg,2.0,A1R8Q9KXX4Q5T6
92,1.0,right,right,1.0,4.917,0.0,32.0,32.0,32.0,1.0,highway_278.jpg,highway_177.jpg,2.0,A1R8Q9KXX4Q5T6
93,1.0,right,left,0.0,13.495,0.0,33.0,33.0,33.0,1.0,golf_course_161.jpg,golf_course_87.jpg,2.0,A1R8Q9KXX4Q5T6
94,0.0,left,left,1.0,11.2,0.0,34.0,34.0,34.0,1.0,golf_course_188.jpg,golf_course_157.jpg,1.0,A1R8Q9KXX4Q5T6
95,0.0,left,left,1.0,5.019,0.0,35.0,35.0,35.0,1.0,golf_course_331.jpg,golf_course_114.jpg,7.0,A1R8Q9KXX4Q5T6
96,0.0,right,right,1.0,4.571,0.0,36.0,36.0,36.0,1.0,playground_137.jpg,playground_144.jpg,7.0,A1R8Q9KXX4Q5T6
97,1.0,left,left,1.0,3.774,0.0,37.0,37.0,37.0,1.0,bridge_202.jpg,bridge_38.jpg,7.0,A1R8Q9KXX4Q5T6
98,1.0,right,left,0.0,26.77,0.0,38.0,38.0,38.0,1.0,golf_course_317.jpg,golf_course_214.jpg,2.0,A1R8Q9KXX4Q5T6
99,1.0,left,left,1.0,3.751,0.0,39.0,39.0,39.0,1.0,playground_240.jpg,playground_40.jpg,1.0,A1R8Q9KXX4Q5T6
100,1.0,left,right,0.0,4.236,0.0,40.0,40.0,40.0,1.0,mountain_154.jpg,mountain_95.jpg,1.0,A1R8Q9KXX4Q5T6
101,0.0,right,left,0.0,3.568,0.0,41.0,41.0,41.0,1.0,mountain_94.jpg,mountain_123.jpg,1.0,A1R8Q9KXX4Q5T6
102,0.0,right,left,0.0,5.926,0.0,42.0,42.0,42.0,1.0,highway_204.jpg,highway_394.jpg,1.0,A1R8Q9KXX4Q5T6
103,1.0,right,right,1.0,4.665,0.0,43.0,43.0,43.0,1.0,playground_164.jpg,playground_131.jpg,8.0,A1R8Q9KXX4Q5T6
104,1.0,right,left,0.0,7.392,0.0,44.0,44.0,44.0,1.0,mountain_97.jpg,mountain_230.jpg,4.0,A1R8Q9KXX4Q5T6
105,0.0,right,left,0.0,5.923,0.0,45.0,45.0,45.0,1.0,bridge_134.jpg,bridge_250.jpg,7.0,A1R8Q9KXX4Q5T6
106,1.0,left,right,0.0,4.283,0.0,46.0,46.0,46.0,1.0,highway_93.jpg,highway_369.jpg,7.0,A1R8Q9KXX4Q5T6
107,1.0,left,left,1.0,22.733,0.0,47.0,47.0,47.0,1.0,badlands_24.jpg,badlands_53.jpg,6.0,A1R8Q9KXX4Q5T6
108,0.0,right,right,1.0,8.823,0.0,48.0,48.0,48.0,1.0,playground_22.jpg,playground_76.jpg,7.0,A1R8Q9KXX4Q5T6
109,0.0,right,left,0.0,5.589,0.0,49.0,49.0,49.0,1.0,golf_course_235.jpg,golf_course_193.jpg,5.0,A1R8Q9KXX4Q5T6
110,0.0,right,left,0.0,9.671,0.0,50.0,50.0,50.0,1.0,golf_course_113.jpg,golf_course_15.jpg,6.0,A1R8Q9KXX4Q5T6
111,1.0,right,left,0.0,6.712,0.0,51.0,51.0,51.0,1.0,playground_12.jpg,playground_10.jpg,6.0,A1R8Q9KXX4Q5T6
112,1.0,left,left,1.0,10.201,0.0,52.0,52.0,52.0,1.0,playground_257.jpg,playground_215.jpg,5.0,A1R8Q9KXX4Q5T6
113,0.0,right,right,1.0,22.162,0.0,53.0,53.0,53.0,1.0,playground_229.jpg,playground_145.jpg,5.0,A1R8Q9KXX4Q5T6
114,0.0,right,left,0.0,12.816,0.0,54.0,54.0,54.0,1.0,badlands_102.jpg,badlands_70.jpg,4.0,A1R8Q9KXX4Q5T6
115,1.0,right,left,0.0,8.337,0.0,55.0,55.0,55.0,1.0,badlands_101.jpg,badlands_23.jpg,4.0,A1R8Q9KXX4Q5T6
116,0.0,right,right,1.0,7.065,0.0,56.0,56.0,56.0,1.0,badlands_115.jpg,badlands_221.jpg,4.0,A1R8Q9KXX4Q5T6
117,0.0,right,left,0.0,4.22,0.0,57.0,57.0,57.0,1.0,mountain_3.jpg,mountain_232.jpg,3.0,A1R8Q9KXX4Q5T6
118,1.0,right,left,0.0,12.89,0.0,58.0,58.0,58.0,1.0,mountain_223.jpg,mountain_110.jpg,3.0,A1R8Q9KXX4Q5T6
119,0.0,left,left,1.0,4.334,0.0,59.0,59.0,59.0,1.0,bridge_65.jpg,bridge_181.jpg,2.0,A1R8Q9KXX4Q5T6
120,0.0,left,right,0.0,3.3926,0.0,0.0,0.0,0.0,1.0,badlands_221.jpg,badlands_115.jpg,7.0,A1TQ9ULE5R842V
121,0.0,left,left,1.0,2.1886,0.0,1.0,1.0,1.0,1.0,bridge_65.jpg,bridge_181.jpg,7.0,A1TQ9ULE5R842V
122,1.0,left,right,0.0,2.1651,0.0,2.0,2.0,2.0,1.0,mountain_230.jpg,mountain_97.jpg,7.0,A1TQ9ULE5R842V
123,0.0,left,left,1.0,9.6816,0.0,3.0,3.0,3.0,1.0,bridge_172.jpg,bridge_17.jpg,7.0,A1TQ9ULE5R842V
124,0.0,right,right,1.0,4.1744,0.0,4.0,4.0,4.0,1.0,bridge_116.jpg,bridge_108.jpg,7.0,A1TQ9ULE5R842V
125,0.0,right,right,1.0,4.4566,0.0,5.0,5.0,5.0,1.0,golf_course_113.jpg,golf_course_15.jpg,7.0,A1TQ9ULE5R842V
126,1.0,left,right,0.0,3.0445,0.0,6.0,6.0,6.0,1.0,golf_course_193.jpg,golf_course_123.jpg,7.0,A1TQ9ULE5R842V
127,0.0,right,right,1.0,6.8679,0.0,7.0,7.0,7.0,1.0,bridge_253.jpg,bridge_91.jpg,7.0,A1TQ9ULE5R842V
128,0.0,left,left,1.0,2.8159,0.0,8.0,8.0,8.0,1.0,highway_245.jpg,highway_134.jpg,7.0,A1TQ9ULE5R842V
129,1.0,left,right,0.0,2.4022,0.0,9.0,9.0,9.0,1.0,playground_219.jpg,playground_205.jpg,7.0,A1TQ9ULE5R842V
130,1.0,left,right,0.0,2.4071,0.0,10.0,10.0,10.0,1.0,golf_course_188.jpg,golf_course_160.jpg,7.0,A1TQ9ULE5R842V
131,1.0,right,right,1.0,3.3471,0.0,11.0,11.0,11.0,1.0,playground_127.jpg,playground_117.jpg,6.0,A1TQ9ULE5R842V
132,0.0,right,left,0.0,20.9015,0.0,12.0,12.0,12.0,1.0,highway_87.jpg,highway_177.jpg,5.0,A1TQ9ULE5R842V
133,1.0,right,left,0.0,2.7171,0.0,13.0,13.0,13.0,1.0,badlands_139.jpg,badlands_137.jpg,5.0,A1TQ9ULE5R842V
134,1.0,left,left,1.0,2.029,0.0,14.0,14.0,14.0,1.0,mountain_154.jpg,mountain_95.jpg,5.0,A1TQ9ULE5R842V
135,0.0,left,right,0.0,1.9484,0.0,15.0,15.0,15.0,1.0,highway_273.jpg,highway_384.jpg,5.0,A1TQ9ULE5R842V
136,0.0,right,right,1.0,1.8963,0.0,16.0,16.0,16.0,1.0,playground_137.jpg,playground_144.jpg,7.0,A1TQ9ULE5R842V
137,1.0,right,left,0.0,19.8063,0.0,17.0,17.0,17.0,1.0,playground_215.jpg,playground_257.jpg,6.0,A1TQ9ULE5R842V
138,0.0,right,right,1.0,1.9799,0.0,18.0,18.0,18.0,1.0,mountain_3.jpg,mountain_232.jpg,6.0,A1TQ9ULE5R842V
139,0.0,left,left,1.0,1.8925,0.0,19.0,19.0,19.0,1.0,golf_course_87.jpg,golf_course_130.jpg,7.0,A1TQ9ULE5R842V
140,1.0,left,left,1.0,1.8311,0.0,20.0,20.0,20.0,1.0,bridge_128.jpg,bridge_244.jpg,7.0,A1TQ9ULE5R842V
141,0.0,left,right,0.0,1.8936,0.0,21.0,21.0,21.0,1.0,golf_course_309.jpg,golf_course_16.jpg,7.0,A1TQ9ULE5R842V
142,1.0,right,left,0.0,23.1567,0.0,22.0,22.0,22.0,1.0,highway_369.jpg,highway_93.jpg,6.0,A1TQ9ULE5R842V
143,1.0,right,right,1.0,3.1299,0.0,23.0,23.0,23.0,1.0,badlands_101.jpg,badlands_23.jpg,6.0,A1TQ9ULE5R842V
144,1.0,left,right,0.0,1.8055,0.0,24.0,24.0,24.0,1.0,highway_156.jpg,highway_293.jpg,6.0,A1TQ9ULE5R842V
145,1.0,right,right,1.0,2.6443,0.0,25.0,25.0,25.0,1.0,bridge_75.jpg,bridge_191.jpg,6.0,A1TQ9ULE5R842V
146,0.0,left,right,0.0,140.4907,0.0,26.0,26.0,26.0,1.0,mountain_101.jpg,mountain_171.jpg,6.0,A1TQ9ULE5R842V
147,1.0,left,right,0.0,1.7142,0.0,27.0,27.0,27.0,1.0,playground_76.jpg,playground_72.jpg,5.0,A1TQ9ULE5R842V
148,1.0,right,right,1.0,2.0589,0.0,28.0,28.0,28.0,1.0,badlands_119.jpg,badlands_70.jpg,6.0,A1TQ9ULE5R842V
149,1.0,left,right,0.0,2.3075,0.0,29.0,29.0,29.0,1.0,golf_course_217.jpg,golf_course_262.jpg,6.0,A1TQ9ULE5R842V
150,1.0,right,left,0.0,1.8054,0.0,30.0,30.0,30.0,1.0,mountain_295.jpg,mountain_156.jpg,6.0,A1TQ9ULE5R842V
151,0.0,left,right,0.0,1.8433,0.0,31.0,31.0,31.0,1.0,badlands_24.jpg,badlands_3.jpg,6.0,A1TQ9ULE5R842V
152,1.0,left,left,1.0,1.621,0.0,32.0,32.0,32.0,1.0,mountain_293.jpg,mountain_47.jpg,6.0,A1TQ9ULE5R842V
153,1.0,right,right,1.0,83.5683,0.0,33.0,33.0,33.0,1.0,badlands_98.jpg,badlands_21.jpg,6.0,A1TQ9ULE5R842V
154,0.0,left,right,0.0,6.0518,0.0,34.0,34.0,34.0,1.0,golf_course_195.jpg,golf_course_25.jpg,5.0,A1TQ9ULE5R842V
155,1.0,left,right,0.0,9.0022,0.0,35.0,35.0,35.0,1.0,golf_course_78.jpg,golf_course_101.jpg,5.0,A1TQ9ULE5R842V
156,0.0,right,right,1.0,1.8927,0.0,36.0,36.0,36.0,1.0,highway_60.jpg,highway_415.jpg,5.0,A1TQ9ULE5R842V
157,1.0,left,right,0.0,1.6473,0.0,37.0,37.0,37.0,1.0,badlands_222.jpg,badlands_62.jpg,5.0,A1TQ9ULE5R842V
158,1.0,right,right,1.0,2.0256,0.0,38.0,38.0,38.0,1.0,mountain_138.jpg,mountain_57.jpg,5.0,A1TQ9ULE5R842V
159,0.0,right,right,1.0,1.9106,0.0,39.0,39.0,39.0,1.0,golf_course_114.jpg,golf_course_331.jpg,5.0,A1TQ9ULE5R842V
160,1.0,right,left,0.0,6.2083,0.0,40.0,40.0,40.0,1.0,bridge_121.jpg,bridge_146.jpg,6.0,A1TQ9ULE5R842V
161,0.0,right,right,1.0,2.0674,0.0,41.0,41.0,41.0,1.0,badlands_94.jpg,badlands_52.jpg,6.0,A1TQ9ULE5R842V
162,0.0,left,right,0.0,2.223,0.0,42.0,42.0,42.0,1.0,playground_145.jpg,playground_229.jpg,6.0,A1TQ9ULE5R842V
163,0.0,right,right,1.0,1.7516,0.0,43.0,43.0,43.0,1.0,playground_122.jpg,playground_10.jpg,6.0,A1TQ9ULE5R842V
164,0.0,right,right,1.0,1.8071,0.0,44.0,44.0,44.0,1.0,playground_2.jpg,playground_240.jpg,6.0,A1TQ9ULE5R842V
165,0.0,right,right,1.0,3.3914,0.0,45.0,45.0,45.0,1.0,mountain_94.jpg,mountain_123.jpg,6.0,A1TQ9ULE5R842V
166,1.0,right,left,0.0,2.1488,0.0,46.0,46.0,46.0,1.0,golf_course_317.jpg,golf_course_214.jpg,5.0,A1TQ9ULE5R842V
167,0.0,right,right,1.0,2700.8048,0.0,47.0,47.0,47.0,1.0,bridge_134.jpg,bridge_250.jpg,6.0,A1TQ9ULE5R842V
168,0.0,left,left,1.0,2.8546,0.0,48.0,48.0,48.0,1.0,badlands_184.jpg,badlands_228.jpg,5.0,A1TQ9ULE5R842V
169,0.0,right,right,1.0,1.9044,0.0,49.0,49.0,49.0,1.0,highway_203.jpg,highway_294.jpg,6.0,A1TQ9ULE5R842V
170,1.0,left,right,0.0,1.9623,0.0,50.0,50.0,50.0,1.0,bridge_202.jpg,bridge_38.jpg,6.0,A1TQ9ULE5R842V
171,0.0,left,left,1.0,1.4132,0.0,51.0,51.0,51.0,1.0,badlands_113.jpg,badlands_225.jpg,5.0,A1TQ9ULE5R842V
172,0.0,left,left,1.0,7.1706,0.0,52.0,52.0,52.0,1.0,mountain_222.jpg,mountain_244.jpg,6.0,A1TQ9ULE5R842V
173,0.0,right,right,1.0,1.4307,0.0,53.0,53.0,53.0,1.0,mountain_157.jpg,mountain_110.jpg,6.0,A1TQ9ULE5R842V
174,0.0,left,left,1.0,1.5432,0.0,54.0,54.0,54.0,1.0,playground_131.jpg,playground_43.jpg,6.0,A1TQ9ULE5R842V
175,1.0,right,left,0.0,3.0715,0.0,55.0,55.0,55.0,1.0,highway_379.jpg,highway_359.jpg,6.0,A1TQ9ULE5R842V
176,1.0,left,right,0.0,1.8859,0.0,56.0,56.0,56.0,1.0,highway_209.jpg,highway_122.jpg,5.0,A1TQ9ULE5R842V
177,1.0,left,right,0.0,1.5727,0.0,57.0,57.0,57.0,1.0,bridge_256.jpg,bridge_211.jpg,7.0,A1TQ9ULE5R842V
178,1.0,right,right,1.0,2.1114,0.0,58.0,58.0,58.0,1.0,highway_406.jpg,highway_394.jpg,5.0,A1TQ9ULE5R842V
179,1.0,right,left,0.0,1.7529,0.0,59.0,59.0,59.0,1.0,playground_244.jpg,playground_60.jpg,6.0,A1TQ9ULE5R842V
180,1.0,right,right,1.0,4.552,0.0,0.0,0.0,0.0,1.0,bridge_244.jpg,bridge_128.jpg,7.0,A1W7T8V97ZPUH0
181,1.0,left,right,0.0,3.147,0.0,1.0,1.0,1.0,1.0,highway_245.jpg,highway_206.jpg,7.0,A1W7T8V97ZPUH0
182,0.0,right,left,0.0,8.22,0.0,2.0,2.0,2.0,1.0,mountain_184.jpg,mountain_230.jpg,3.0,A1W7T8V97ZPUH0
183,1.0,right,left,0.0,3.001,0.0,3.0,3.0,3.0,1.0,badlands_119.jpg,badlands_70.jpg,3.0,A1W7T8V97ZPUH0
184,0.0,right,right,1.0,2.728,0.0,4.0,4.0,4.0,1.0,golf_course_130.jpg,golf_course_87.jpg,5.0,A1W7T8V97ZPUH0
185,0.0,right,left,0.0,4.85,0.0,5.0,5.0,5.0,1.0,playground_229.jpg,playground_145.jpg,6.0,A1W7T8V97ZPUH0
186,1.0,right,left,0.0,2.329,0.0,6.0,6.0,6.0,1.0,golf_course_209.jpg,golf_course_309.jpg,6.0,A1W7T8V97ZPUH0
187,0.0,left,right,0.0,2.278,0.0,7.0,7.0,7.0,1.0,badlands_21.jpg,badlands_1.jpg,4.0,A1W7T8V97ZPUH0
188,0.0,left,left,1.0,3.991,0.0,8.0,8.0,8.0,1.0,golf_course_217.jpg,golf_course_35.jpg,6.0,A1W7T8V97ZPUH0
189,1.0,left,right,0.0,4.854,0.0,9.0,9.0,9.0,1.0,bridge_256.jpg,bridge_211.jpg,7.0,A1W7T8V97ZPUH0
190,0.0,left,left,1.0,2.582,0.0,10.0,10.0,10.0,1.0,mountain_101.jpg,mountain_171.jpg,4.0,A1W7T8V97ZPUH0
191,0.0,left,left,1.0,2.495,0.0,11.0,11.0,11.0,1.0,playground_144.jpg,playground_137.jpg,3.0,A1W7T8V97ZPUH0
192,1.0,right,left,0.0,3.227,0.0,12.0,12.0,12.0,1.0,bridge_148.jpg,bridge_108.jpg,3.0,A1W7T8V97ZPUH0
193,0.0,left,right,0.0,3.2,0.0,13.0,13.0,13.0,1.0,mountain_156.jpg,mountain_128.jpg,3.0,A1W7T8V97ZPUH0
194,1.0,left,right,0.0,5.092,0.0,14.0,14.0,14.0,1.0,highway_415.jpg,highway_174.jpg,4.0,A1W7T8V97ZPUH0
195,1.0,left,left,1.0,2.284,0.0,15.0,15.0,15.0,1.0,mountain_154.jpg,mountain_95.jpg,5.0,A1W7T8V97ZPUH0
196,1.0,left,left,1.0,3.888,0.0,16.0,16.0,16.0,1.0,mountain_57.jpg,mountain_138.jpg,3.0,A1W7T8V97ZPUH0
197,1.0,right,left,0.0,2.757,0.0,17.0,17.0,17.0,1.0,golf_course_2.jpg,golf_course_195.jpg,3.0,A1W7T8V97ZPUH0
198,1.0,right,right,1.0,3.291,0.0,18.0,18.0,18.0,1.0,golf_course_317.jpg,golf_course_214.jpg,7.0,A1W7T8V97ZPUH0
199,1.0,right,right,1.0,2.453,0.0,19.0,19.0,19.0,1.0,highway_122.jpg,highway_209.jpg,4.0,A1W7T8V97ZPUH0
200,0.0,right,left,0.0,2.536,0.0,20.0,20.0,20.0,1.0,badlands_3.jpg,badlands_24.jpg,3.0,A1W7T8V97ZPUH0
201,1.0,right,right,1.0,6.054,0.0,21.0,21.0,21.0,1.0,mountain_93.jpg,mountain_222.jpg,5.0,A1W7T8V97ZPUH0
202,0.0,right,right,1.0,2.832,0.0,22.0,22.0,22.0,1.0,playground_2.jpg,playground_240.jpg,5.0,A1W7T8V97ZPUH0
203,0.0,right,left,0.0,3.283,0.0,23.0,23.0,23.0,1.0,highway_204.jpg,highway_394.jpg,4.0,A1W7T8V97ZPUH0
204,1.0,left,right,0.0,2.011,0.0,24.0,24.0,24.0,1.0,playground_219.jpg,playground_205.jpg,7.0,A1W7T8V97ZPUH0
205,0.0,right,left,0.0,3.437,0.0,25.0,25.0,25.0,1.0,badlands_194.jpg,badlands_137.jpg,3.0,A1W7T8V97ZPUH0
206,0.0,right,right,1.0,15.023,0.0,26.0,26.0,26.0,1.0,playground_43.jpg,playground_131.jpg,6.0,A1W7T8V97ZPUH0
207,0.0,left,left,1.0,4.507,0.0,27.0,27.0,27.0,1.0,badlands_222.jpg,badlands_34.jpg,5.0,A1W7T8V97ZPUH0
208,1.0,left,right,0.0,2.145,0.0,28.0,28.0,28.0,1.0,mountain_110.jpg,mountain_223.jpg,5.0,A1W7T8V97ZPUH0
209,1.0,right,right,1.0,4.402,0.0,29.0,29.0,29.0,1.0,badlands_63.jpg,badlands_52.jpg,4.0,A1W7T8V97ZPUH0
210,1.0,left,left,1.0,2.608,0.0,30.0,30.0,30.0,1.0,highway_177.jpg,highway_278.jpg,3.0,A1W7T8V97ZPUH0
211,1.0,left,right,0.0,3.713,0.0,31.0,31.0,31.0,1.0,playground_60.jpg,playground_244.jpg,6.0,A1W7T8V97ZPUH0
212,1.0,right,right,1.0,3.325,0.0,32.0,32.0,32.0,1.0,playground_72.jpg,playground_76.jpg,6.0,A1W7T8V97ZPUH0
213,0.0,right,left,0.0,2.12,0.0,33.0,33.0,33.0,1.0,badlands_228.jpg,badlands_184.jpg,7.0,A1W7T8V97ZPUH0
214,0.0,left,right,0.0,8.035,0.0,34.0,34.0,34.0,1.0,bridge_202.jpg,bridge_31.jpg,4.0,A1W7T8V97ZPUH0
215,0.0,right,right,1.0,2.751,0.0,35.0,35.0,35.0,1.0,bridge_27.jpg,bridge_146.jpg,4.0,A1W7T8V97ZPUH0
216,0.0,right,right,1.0,3.554,0.0,36.0,36.0,36.0,1.0,bridge_181.jpg,bridge_65.jpg,3.0,A1W7T8V97ZPUH0
217,1.0,left,right,0.0,3.348,0.0,37.0,37.0,37.0,1.0,mountain_123.jpg,mountain_189.jpg,3.0,A1W7T8V97ZPUH0
218,0.0,left,right,0.0,6.324,0.0,38.0,38.0,38.0,1.0,highway_273.jpg,highway_384.jpg,3.0,A1W7T8V97ZPUH0
219,1.0,right,right,1.0,2.435,0.0,39.0,39.0,39.0,1.0,playground_215.jpg,playground_257.jpg,3.0,A1W7T8V97ZPUH0
220,0.0,left,right,0.0,1.053,0.0,40.0,40.0,40.0,1.0,mountain_293.jpg,mountain_72.jpg,6.0,A1W7T8V97ZPUH0
221,1.0,left,left,1.0,12.042,0.0,41.0,41.0,41.0,1.0,bridge_172.jpg,bridge_163.jpg,6.0,A1W7T8V97ZPUH0
222,1.0,right,right,1.0,2.477,0.0,42.0,42.0,42.0,1.0,bridge_205.jpg,bridge_250.jpg,6.0,A1W7T8V97ZPUH0
223,0.0,right,right,1.0,6.111,0.0,43.0,43.0,43.0,1.0,mountain_3.jpg,mountain_232.jpg,3.0,A1W7T8V97ZPUH0
224,0.0,left,left,1.0,18.182,0.0,44.0,44.0,44.0,1.0,bridge_91.jpg,bridge_253.jpg,2.0,A1W7T8V97ZPUH0
225,0.0,right,right,1.0,2.996,0.0,45.0,45.0,45.0,1.0,golf_course_134.jpg,golf_course_78.jpg,4.0,A1W7T8V97ZPUH0
226,0.0,left,left,1.0,3.352,0.0,46.0,46.0,46.0,1.0,highway_359.jpg,highway_389.jpg,4.0,A1W7T8V97ZPUH0
227,1.0,right,right,1.0,2.259,0.0,47.0,47.0,47.0,1.0,highway_368.jpg,highway_294.jpg,4.0,A1W7T8V97ZPUH0
228,1.0,left,left,1.0,2.824,0.0,48.0,48.0,48.0,1.0,golf_course_193.jpg,golf_course_123.jpg,6.0,A1W7T8V97ZPUH0
229,1.0,right,left,0.0,1.324,0.0,49.0,49.0,49.0,1.0,badlands_207.jpg,badlands_221.jpg,6.0,A1W7T8V97ZPUH0
230,0.0,left,left,1.0,2.906,0.0,50.0,50.0,50.0,1.0,bridge_191.jpg,bridge_184.jpg,6.0,A1W7T8V97ZPUH0
231,1.0,right,right,1.0,1.677,0.0,51.0,51.0,51.0,1.0,playground_127.jpg,playground_117.jpg,7.0,A1W7T8V97ZPUH0
232,0.0,left,right,0.0,2.33,0.0,52.0,52.0,52.0,1.0,highway_156.jpg,highway_160.jpg,6.0,A1W7T8V97ZPUH0
233,0.0,right,right,1.0,1.175,0.0,53.0,53.0,53.0,1.0,highway_85.jpg,highway_93.jpg,6.0,A1W7T8V97ZPUH0
234,1.0,right,right,1.0,2.328,0.0,54.0,54.0,54.0,1.0,golf_course_97.jpg,golf_course_15.jpg,6.0,A1W7T8V97ZPUH0
235,0.0,left,left,1.0,1.873,0.0,55.0,55.0,55.0,1.0,playground_10.jpg,playground_122.jpg,6.0,A1W7T8V97ZPUH0
236,1.0,left,right,0.0,1.556,0.0,56.0,56.0,56.0,1.0,badlands_113.jpg,badlands_203.jpg,7.0,A1W7T8V97ZPUH0
237,1.0,right,right,1.0,3.646,0.0,57.0,57.0,57.0,1.0,badlands_101.jpg,badlands_23.jpg,8.0,A1W7T8V97ZPUH0
238,0.0,right,right,1.0,4.307,0.0,58.0,58.0,58.0,1.0,golf_course_157.jpg,golf_course_188.jpg,5.0,A1W7T8V97ZPUH0
239,0.0,right,right,1.0,1.648,0.0,59.0,59.0,59.0,1.0,golf_course_114.jpg,golf_course_331.jpg,7.0,A1W7T8V97ZPUH0
240,1.0,right,right,1.0,2.1091,0.0,0.0,0.0,0.0,1.0,highway_379.jpg,highway_359.jpg,7.0,A1XJCKXP143Y94
241,0.0,left,left,1.0,1.7859,0.0,1.0,1.0,1.0,1.0,playground_257.jpg,playground_214.jpg,6.0,A1XJCKXP143Y94
242,0.0,right,left,0.0,1.8957,0.0,2.0,2.0,2.0,1.0,highway_203.jpg,highway_294.jpg,5.0,A1XJCKXP143Y94
243,0.0,left,left,1.0,1.0294,0.0,3.0,3.0,3.0,1.0,highway_209.jpg,highway_314.jpg,5.0,A1XJCKXP143Y94
244,0.0,right,right,1.0,1.118,0.0,4.0,4.0,4.0,1.0,highway_60.jpg,highway_415.jpg,5.0,A1XJCKXP143Y94
245,1.0,left,left,1.0,0.5488,0.0,5.0,5.0,5.0,1.0,badlands_70.jpg,badlands_119.jpg,6.0,A1XJCKXP143Y94
246,0.0,right,left,0.0,0.6264,0.0,6.0,6.0,6.0,1.0,golf_course_134.jpg,golf_course_78.jpg,7.0,A1XJCKXP143Y94
247,0.0,left,left,1.0,1.1278,0.0,7.0,7.0,7.0,1.0,bridge_172.jpg,bridge_17.jpg,5.0,A1XJCKXP143Y94
248,0.0,left,left,1.0,1.3676,0.0,8.0,8.0,8.0,1.0,bridge_191.jpg,bridge_184.jpg,7.0,A1XJCKXP143Y94
249,1.0,left,left,1.0,0.6973,0.0,9.0,9.0,9.0,1.0,highway_156.jpg,highway_293.jpg,5.0,A1XJCKXP143Y94
250,1.0,left,right,0.0,0.5254,0.0,10.0,10.0,10.0,1.0,highway_245.jpg,highway_206.jpg,5.0,A1XJCKXP143Y94
251,1.0,left,left,1.0,0.8241,0.0,11.0,11.0,11.0,1.0,highway_177.jpg,highway_278.jpg,4.0,A1XJCKXP143Y94
252,1.0,right,right,1.0,0.8059,0.0,12.0,12.0,12.0,1.0,highway_406.jpg,highway_394.jpg,6.0,A1XJCKXP143Y94
253,0.0,left,left,1.0,0.8682,0.0,13.0,13.0,13.0,1.0,golf_course_15.jpg,golf_course_113.jpg,4.0,A1XJCKXP143Y94
254,0.0,right,right,1.0,0.8781,0.0,14.0,14.0,14.0,1.0,mountain_171.jpg,mountain_101.jpg,7.0,A1XJCKXP143Y94
255,0.0,left,left,1.0,1.2232,0.0,15.0,15.0,15.0,1.0,bridge_108.jpg,bridge_116.jpg,6.0,A1XJCKXP143Y94
256,1.0,left,left,1.0,0.9167,0.0,16.0,16.0,16.0,1.0,badlands_21.jpg,badlands_98.jpg,6.0,A1XJCKXP143Y94
257,1.0,left,left,1.0,1.1253,0.0,17.0,17.0,17.0,1.0,bridge_146.jpg,bridge_121.jpg,6.0,A1XJCKXP143Y94
258,1.0,right,left,0.0,0.7107,0.0,18.0,18.0,18.0,1.0,golf_course_262.jpg,golf_course_217.jpg,5.0,A1XJCKXP143Y94
259,0.0,right,left,0.0,0.9719,0.0,19.0,19.0,19.0,1.0,playground_167.jpg,playground_117.jpg,8.0,A1XJCKXP143Y94
260,0.0,right,right,1.0,1.0265,0.0,20.0,20.0,20.0,1.0,mountain_3.jpg,mountain_232.jpg,6.0,A1XJCKXP143Y94
261,1.0,left,left,1.0,0.7305,0.0,21.0,21.0,21.0,1.0,bridge_65.jpg,bridge_60.jpg,3.0,A1XJCKXP143Y94
262,0.0,right,right,1.0,0.9075,0.0,22.0,22.0,22.0,1.0,mountain_193.jpg,mountain_57.jpg,8.0,A1XJCKXP143Y94
263,0.0,left,right,0.0,1.6363,0.0,23.0,23.0,23.0,1.0,bridge_91.jpg,bridge_253.jpg,6.0,A1XJCKXP143Y94
264,0.0,left,left,1.0,0.8797,0.0,24.0,24.0,24.0,1.0,golf_course_195.jpg,golf_course_25.jpg,5.0,A1XJCKXP143Y94
265,0.0,right,left,0.0,0.9539,0.0,25.0,25.0,25.0,1.0,playground_2.jpg,playground_240.jpg,5.0,A1XJCKXP143Y94
266,0.0,left,right,0.0,1.343,0.0,26.0,26.0,26.0,1.0,badlands_221.jpg,badlands_115.jpg,8.0,A1XJCKXP143Y94
267,1.0,right,left,0.0,1.0173,0.0,27.0,27.0,27.0,1.0,badlands_62.jpg,badlands_222.jpg,5.0,A1XJCKXP143Y94
268,1.0,left,right,0.0,42.817,0.0,28.0,28.0,28.0,1.0,bridge_256.jpg,bridge_211.jpg,6.0,A1XJCKXP143Y94
269,0.0,left,left,1.0,1.1823,0.0,29.0,29.0,29.0,1.0,mountain_293.jpg,mountain_72.jpg,5.0,A1XJCKXP143Y94
270,1.0,right,right,1.0,1.3121,0.0,30.0,30.0,30.0,1.0,golf_course_209.jpg,golf_course_309.jpg,7.0,A1XJCKXP143Y94
271,1.0,left,left,1.0,3.0891,0.0,31.0,31.0,31.0,1.0,mountain_156.jpg,mountain_295.jpg,8.0,A1XJCKXP143Y94
272,0.0,left,left,1.0,1.0452,0.0,32.0,32.0,32.0,1.0,golf_course_87.jpg,golf_course_130.jpg,6.0,A1XJCKXP143Y94
273,1.0,right,left,0.0,10.3859,0.0,33.0,33.0,33.0,1.0,playground_244.jpg,playground_60.jpg,5.0,A1XJCKXP143Y94
274,0.0,left,left,1.0,1.4945,0.0,34.0,34.0,34.0,1.0,bridge_250.jpg,bridge_134.jpg,5.0,A1XJCKXP143Y94
275,1.0,left,left,1.0,1.6008,0.0,35.0,35.0,35.0,1.0,mountain_123.jpg,mountain_189.jpg,5.0,A1XJCKXP143Y94
276,1.0,left,left,1.0,42.4059,0.0,36.0,36.0,36.0,1.0,golf_course_214.jpg,golf_course_317.jpg,7.0,A1XJCKXP143Y94
277,0.0,left,left,1.0,1.3408,0.0,37.0,37.0,37.0,1.0,badlands_113.jpg,badlands_225.jpg,6.0,A1XJCKXP143Y94
278,1.0,left,left,1.0,8.6646,0.0,38.0,38.0,38.0,1.0,playground_131.jpg,playground_164.jpg,5.0,A1XJCKXP143Y94
279,1.0,left,left,1.0,1.2322,0.0,39.0,39.0,39.0,1.0,badlands_23.jpg,badlands_101.jpg,6.0,A1XJCKXP143Y94
280,0.0,right,right,1.0,1.8143,0.0,40.0,40.0,40.0,1.0,badlands_94.jpg,badlands_52.jpg,6.0,A1XJCKXP143Y94
281,0.0,left,left,1.0,29.4492,0.0,41.0,41.0,41.0,1.0,playground_144.jpg,playground_137.jpg,6.0,A1XJCKXP143Y94
282,1.0,left,right,0.0,1.272,0.0,42.0,42.0,42.0,1.0,bridge_202.jpg,bridge_38.jpg,7.0,A1XJCKXP143Y94
283,1.0,left,left,1.0,1.1226,0.0,43.0,43.0,43.0,1.0,mountain_222.jpg,mountain_93.jpg,7.0,A1XJCKXP143Y94
284,1.0,right,right,1.0,1.5311,0.0,44.0,44.0,44.0,1.0,playground_72.jpg,playground_76.jpg,3.0,A1XJCKXP143Y94
285,1.0,right,left,0.0,1.8048,0.0,45.0,45.0,45.0,1.0,playground_12.jpg,playground_10.jpg,5.0,A1XJCKXP143Y94
286,1.0,right,left,0.0,1.2735,0.0,46.0,46.0,46.0,1.0,mountain_223.jpg,mountain_110.jpg,6.0,A1XJCKXP143Y94
287,1.0,left,left,1.0,2.5065,0.0,47.0,47.0,47.0,1.0,bridge_128.jpg,bridge_244.jpg,5.0,A1XJCKXP143Y94
288,0.0,right,left,0.0,26.6437,0.0,48.0,48.0,48.0,1.0,playground_229.jpg,playground_145.jpg,6.0,A1XJCKXP143Y94
289,1.0,right,left,0.0,1.5177,0.0,49.0,49.0,49.0,1.0,golf_course_123.jpg,golf_course_193.jpg,5.0,A1XJCKXP143Y94
290,0.0,right,right,1.0,1.1863,0.0,50.0,50.0,50.0,1.0,golf_course_114.jpg,golf_course_331.jpg,7.0,A1XJCKXP143Y94
291,0.0,left,left,1.0,1.6428,0.0,51.0,51.0,51.0,1.0,mountain_230.jpg,mountain_184.jpg,7.0,A1XJCKXP143Y94
292,0.0,right,right,1.0,4.8751,0.0,52.0,52.0,52.0,1.0,highway_85.jpg,highway_93.jpg,7.0,A1XJCKXP143Y94
293,0.0,right,right,1.0,1.243,0.0,53.0,53.0,53.0,1.0,badlands_3.jpg,badlands_24.jpg,8.0,A1XJCKXP143Y94
294,0.0,left,right,0.0,2.1524,0.0,54.0,54.0,54.0,1.0,badlands_137.jpg,badlands_194.jpg,8.0,A1XJCKXP143Y94
295,1.0,right,left,0.0,3.1963,0.0,55.0,55.0,55.0,1.0,playground_205.jpg,playground_219.jpg,3.0,A1XJCKXP143Y94
296,0.0,right,right,1.0,0.9972,0.0,56.0,56.0,56.0,1.0,highway_384.jpg,highway_273.jpg,8.0,A1XJCKXP143Y94
297,1.0,right,left,0.0,3.409,0.0,57.0,57.0,57.0,1.0,golf_course_160.jpg,golf_course_188.jpg,7.0,A1XJCKXP143Y94
298,1.0,left,right,0.0,28.2154,0.0,58.0,58.0,58.0,1.0,badlands_184.jpg,badlands_103.jpg,7.0,A1XJCKXP143Y94
299,1.0,right,left,0.0,1.2369,0.0,59.0,59.0,59.0,1.0,mountain_95.jpg,mountain_154.jpg,6.0,A1XJCKXP143Y94
300,0.0,left,left,1.0,6.364300001,0.0,0.0,0.0,0.0,1.0,playground_144.jpg,playground_137.jpg,7.0,A27KTNOX292J1I
301,0.0,left,left,1.0,9.2705,0.0,1.0,1.0,1.0,1.0,badlands_21.jpg,badlands_1.jpg,8.0,A27KTNOX292J1I
302,1.0,right,left,0.0,1.7734,0.0,2.0,2.0,2.0,1.0,bridge_163.jpg,bridge_172.jpg,8.0,A27KTNOX292J1I
303,0.0,left,right,0.0,2.3569,0.0,3.0,3.0,3.0,1.0,badlands_70.jpg,badlands_102.jpg,8.0,A27KTNOX292J1I
304,1.0,right,left,0.0,1.7951,0.0,4.0,4.0,4.0,1.0,playground_127.jpg,playground_117.jpg,4.0,A27KTNOX292J1I
305,1.0,right,left,0.0,2.033800001,0.0,5.0,5.0,5.0,1.0,highway_368.jpg,highway_294.jpg,8.0,A27KTNOX292J1I
306,1.0,left,right,0.0,2.5891,0.0,6.0,6.0,6.0,1.0,bridge_191.jpg,bridge_75.jpg,8.0,A27KTNOX292J1I
307,1.0,left,right,0.0,2.2111,0.0,7.0,7.0,7.0,1.0,badlands_222.jpg,badlands_62.jpg,9.0,A27KTNOX292J1I
308,0.0,left,right,0.0,5.430799999,0.0,8.0,8.0,8.0,1.0,mountain_230.jpg,mountain_184.jpg,8.0,A27KTNOX292J1I
309,0.0,left,left,1.0,1.8819,0.0,9.0,9.0,9.0,1.0,golf_course_193.jpg,golf_course_235.jpg,9.0,A27KTNOX292J1I
310,1.0,right,left,0.0,2.2741,0.0,10.0,10.0,10.0,1.0,bridge_244.jpg,bridge_128.jpg,9.0,A27KTNOX292J1I
311,0.0,left,right,0.0,3.9449,0.0,11.0,11.0,11.0,1.0,playground_219.jpg,playground_21.jpg,8.0,A27KTNOX292J1I
312,0.0,right,right,1.0,1.772800001,0.0,12.0,12.0,12.0,1.0,bridge_253.jpg,bridge_91.jpg,8.0,A27KTNOX292J1I
313,0.0,left,left,1.0,2.644800001,0.0,13.0,13.0,13.0,1.0,golf_course_331.jpg,golf_course_114.jpg,8.0,A27KTNOX292J1I
314,1.0,right,right,1.0,1.8479,0.0,14.0,14.0,14.0,1.0,golf_course_317.jpg,golf_course_214.jpg,8.0,A27KTNOX292J1I
315,0.0,left,left,1.0,1.7924,0.0,15.0,15.0,15.0,1.0,badlands_113.jpg,badlands_225.jpg,8.0,A27KTNOX292J1I
316,1.0,left,right,0.0,2.0411,0.0,16.0,16.0,16.0,1.0,bridge_250.jpg,bridge_205.jpg,8.0,A27KTNOX292J1I
317,0.0,right,left,0.0,1.357799999,0.0,17.0,17.0,17.0,1.0,mountain_157.jpg,mountain_110.jpg,8.0,A27KTNOX292J1I
318,0.0,left,right,0.0,1.252300001,0.0,18.0,18.0,18.0,1.0,bridge_146.jpg,bridge_27.jpg,8.0,A27KTNOX292J1I
319,0.0,left,left,1.0,1.1471,0.0,19.0,19.0,19.0,1.0,highway_245.jpg,highway_134.jpg,8.0,A27KTNOX292J1I
320,0.0,left,left,1.0,1.147699999,0.0,20.0,20.0,20.0,1.0,golf_course_217.jpg,golf_course_35.jpg,6.0,A27KTNOX292J1I
321,0.0,left,left,1.0,1.8626,0.0,21.0,21.0,21.0,1.0,playground_10.jpg,playground_122.jpg,5.0,A27KTNOX292J1I
322,1.0,left,right,0.0,2.002200001,0.0,22.0,22.0,22.0,1.0,highway_415.jpg,highway_174.jpg,9.0,A27KTNOX292J1I
323,1.0,right,right,1.0,2.146299999,0.0,23.0,23.0,23.0,1.0,badlands_103.jpg,badlands_184.jpg,9.0,A27KTNOX292J1I
324,0.0,right,right,1.0,1.5801,0.0,24.0,24.0,24.0,1.0,playground_22.jpg,playground_76.jpg,9.0,A27KTNOX292J1I
325,0.0,right,left,0.0,1.381400002,0.0,25.0,25.0,25.0,1.0,golf_course_157.jpg,golf_course_188.jpg,9.0,A27KTNOX292J1I
326,1.0,right,left,0.0,1.066799999,0.0,26.0,26.0,26.0,1.0,mountain_95.jpg,mountain_154.jpg,9.0,A27KTNOX292J1I
327,0.0,left,right,0.0,2.3994,0.0,27.0,27.0,27.0,1.0,highway_273.jpg,highway_384.jpg,9.0,A27KTNOX292J1I
328,0.0,right,right,1.0,1.071299999,0.0,28.0,28.0,28.0,1.0,bridge_54.jpg,bridge_256.jpg,9.0,A27KTNOX292J1I
329,1.0,right,left,0.0,1.018200001,0.0,29.0,29.0,29.0,1.0,mountain_54.jpg,mountain_232.jpg,9.0,A27KTNOX292J1I
330,1.0,right,right,1.0,1.6535,0.0,30.0,30.0,30.0,1.0,highway_379.jpg,highway_359.jpg,9.0,A27KTNOX292J1I
331,0.0,left,right,0.0,3.812400002,0.0,31.0,31.0,31.0,1.0,highway_156.jpg,highway_160.jpg,9.0,A27KTNOX292J1I
332,1.0,left,left,1.0,1.321400002,0.0,32.0,32.0,32.0,1.0,playground_240.jpg,playground_40.jpg,9.0,A27KTNOX292J1I
333,0.0,right,right,1.0,1.4054,0.0,33.0,33.0,33.0,1.0,golf_course_113.jpg,golf_course_15.jpg,9.0,A27KTNOX292J1I
334,0.0,left,right,0.0,1.3489,0.0,34.0,34.0,34.0,1.0,mountain_57.jpg,mountain_193.jpg,9.0,A27KTNOX292J1I
335,1.0,right,left,0.0,1.5234,0.0,35.0,35.0,35.0,1.0,mountain_93.jpg,mountain_222.jpg,9.0,A27KTNOX292J1I
336,0.0,right,right,1.0,1.2209,0.0,36.0,36.0,36.0,1.0,bridge_116.jpg,bridge_108.jpg,9.0,A27KTNOX292J1I
337,0.0,left,left,1.0,2.746200001,0.0,37.0,37.0,37.0,1.0,highway_394.jpg,highway_204.jpg,8.0,A27KTNOX292J1I
338,1.0,left,right,0.0,1.843,0.0,38.0,38.0,38.0,1.0,playground_145.jpg,playground_242.jpg,8.0,A27KTNOX292J1I
339,0.0,right,right,1.0,1.925,0.0,39.0,39.0,39.0,1.0,mountain_72.jpg,mountain_293.jpg,8.0,A27KTNOX292J1I
340,0.0,right,right,1.0,1.2034,0.0,40.0,40.0,40.0,1.0,mountain_171.jpg,mountain_101.jpg,8.0,A27KTNOX292J1I
341,1.0,right,right,1.0,2.8606,0.0,41.0,41.0,41.0,1.0,golf_course_161.jpg,golf_course_87.jpg,9.0,A27KTNOX292J1I
342,0.0,left,left,1.0,2.2051,0.0,42.0,42.0,42.0,1.0,badlands_24.jpg,badlands_3.jpg,9.0,A27KTNOX292J1I
343,1.0,left,right,0.0,1.056699999,0.0,43.0,43.0,43.0,1.0,badlands_137.jpg,badlands_139.jpg,9.0,A27KTNOX292J1I
344,1.0,right,right,1.0,0.913,0.0,44.0,44.0,44.0,1.0,golf_course_2.jpg,golf_course_195.jpg,9.0,A27KTNOX292J1I
345,1.0,left,left,1.0,0.6711,0.0,45.0,45.0,45.0,1.0,playground_257.jpg,playground_215.jpg,9.0,A27KTNOX292J1I
346,0.0,left,left,1.0,2.154300001,0.0,46.0,46.0,46.0,1.0,bridge_202.jpg,bridge_31.jpg,9.0,A27KTNOX292J1I
347,1.0,right,right,1.0,1.2079,0.0,47.0,47.0,47.0,1.0,highway_122.jpg,highway_209.jpg,9.0,A27KTNOX292J1I
348,0.0,left,right,0.0,0.9426,0.0,48.0,48.0,48.0,1.0,playground_60.jpg,playground_268.jpg,9.0,A27KTNOX292J1I
349,1.0,left,left,1.0,1.195900002,0.0,49.0,49.0,49.0,1.0,golf_course_309.jpg,golf_course_209.jpg,9.0,A27KTNOX292J1I
350,0.0,right,right,1.0,1.370199999,0.0,50.0,50.0,50.0,1.0,highway_87.jpg,highway_177.jpg,9.0,A27KTNOX292J1I
351,1.0,right,left,0.0,1.2149,0.0,51.0,51.0,51.0,1.0,mountain_189.jpg,mountain_123.jpg,9.0,A27KTNOX292J1I
352,1.0,left,right,0.0,0.906400002,0.0,52.0,52.0,52.0,1.0,golf_course_78.jpg,golf_course_101.jpg,9.0,A27KTNOX292J1I
353,1.0,left,left,1.0,0.8711,0.0,53.0,53.0,53.0,1.0,badlands_221.jpg,badlands_207.jpg,9.0,A27KTNOX292J1I
354,1.0,left,left,1.0,1.7645,0.0,54.0,54.0,54.0,1.0,highway_93.jpg,highway_369.jpg,9.0,A27KTNOX292J1I
355,1.0,right,right,1.0,1.708799999,0.0,55.0,55.0,55.0,1.0,bridge_60.jpg,bridge_65.jpg,8.0,A27KTNOX292J1I
356,1.0,right,left,0.0,1.5105,0.0,56.0,56.0,56.0,1.0,playground_164.jpg,playground_131.jpg,8.0,A27KTNOX292J1I
357,1.0,right,right,1.0,0.9396,0.0,57.0,57.0,57.0,1.0,mountain_295.jpg,mountain_156.jpg,8.0,A27KTNOX292J1I
358,1.0,right,right,1.0,0.893099998,0.0,58.0,58.0,58.0,1.0,badlands_101.jpg,badlands_23.jpg,8.0,A27KTNOX292J1I
359,0.0,right,right,1.0,1.4206,0.0,59.0,59.0,59.0,1.0,badlands_94.jpg,badlands_52.jpg,8.0,A27KTNOX292J1I
360,1.0,right,right,1.0,1.8667,0.0,0.0,0.0,0.0,1.0,mountain_93.jpg,mountain_222.jpg,9.0,A2APG8MSLJ6G2K
361,0.0,right,right,1.0,4.0984,0.0,1.0,1.0,1.0,1.0,mountain_171.jpg,mountain_101.jpg,8.0,A2APG8MSLJ6G2K
362,1.0,left,left,1.0,4.5261,0.0,2.0,2.0,2.0,1.0,badlands_70.jpg,badlands_119.jpg,8.0,A2APG8MSLJ6G2K
363,1.0,left,left,1.0,6.4145,0.0,3.0,3.0,3.0,1.0,playground_131.jpg,playground_164.jpg,7.0,A2APG8MSLJ6G2K
364,0.0,left,left,1.0,3.9457,0.0,4.0,4.0,4.0,1.0,bridge_172.jpg,bridge_17.jpg,2.0,A2APG8MSLJ6G2K
365,1.0,left,right,0.0,4.407,0.0,5.0,5.0,5.0,1.0,highway_294.jpg,highway_368.jpg,5.0,A2APG8MSLJ6G2K
366,1.0,left,left,1.0,2.8445,0.0,6.0,6.0,6.0,1.0,badlands_24.jpg,badlands_53.jpg,8.0,A2APG8MSLJ6G2K
367,0.0,left,left,1.0,3.775,0.0,7.0,7.0,7.0,1.0,bridge_91.jpg,bridge_253.jpg,4.0,A2APG8MSLJ6G2K
368,1.0,left,left,1.0,3.0576,0.0,8.0,8.0,8.0,1.0,mountain_57.jpg,mountain_138.jpg,5.0,A2APG8MSLJ6G2K
369,0.0,right,right,1.0,4.1341,0.0,9.0,9.0,9.0,1.0,badlands_114.jpg,badlands_23.jpg,6.0,A2APG8MSLJ6G2K
370,1.0,right,right,1.0,2.5231,0.0,10.0,10.0,10.0,1.0,golf_course_101.jpg,golf_course_78.jpg,5.0,A2APG8MSLJ6G2K
371,1.0,left,right,0.0,2.7641,0.0,11.0,11.0,11.0,1.0,mountain_293.jpg,mountain_47.jpg,7.0,A2APG8MSLJ6G2K
372,0.0,left,left,1.0,8.3987,0.0,12.0,12.0,12.0,1.0,golf_course_15.jpg,golf_course_113.jpg,4.0,A2APG8MSLJ6G2K
373,1.0,left,left,1.0,3.7323,0.0,13.0,13.0,13.0,1.0,bridge_250.jpg,bridge_205.jpg,7.0,A2APG8MSLJ6G2K
374,1.0,right,left,0.0,6.1783,0.0,14.0,14.0,14.0,1.0,badlands_103.jpg,badlands_184.jpg,6.0,A2APG8MSLJ6G2K
375,0.0,left,left,1.0,3.4913,0.0,15.0,15.0,15.0,1.0,mountain_232.jpg,mountain_3.jpg,4.0,A2APG8MSLJ6G2K
376,0.0,left,left,1.0,2.5216,0.0,16.0,16.0,16.0,1.0,golf_course_87.jpg,golf_course_130.jpg,7.0,A2APG8MSLJ6G2K
377,0.0,right,right,1.0,5.5068,0.0,17.0,17.0,17.0,1.0,mountain_157.jpg,mountain_110.jpg,6.0,A2APG8MSLJ6G2K
378,0.0,right,right,1.0,3.001,0.0,18.0,18.0,18.0,1.0,golf_course_35.jpg,golf_course_217.jpg,5.0,A2APG8MSLJ6G2K
379,1.0,left,left,1.0,2.3606,0.0,19.0,19.0,19.0,1.0,highway_273.jpg,highway_171.jpg,6.0,A2APG8MSLJ6G2K
380,1.0,right,right,1.0,3.6692,0.0,20.0,20.0,20.0,1.0,highway_174.jpg,highway_415.jpg,7.0,A2APG8MSLJ6G2K
381,1.0,left,left,1.0,3.1098,0.0,21.0,21.0,21.0,1.0,bridge_108.jpg,bridge_148.jpg,6.0,A2APG8MSLJ6G2K
382,1.0,left,left,1.0,1.4611,0.0,22.0,22.0,22.0,1.0,playground_144.jpg,playground_65.jpg,7.0,A2APG8MSLJ6G2K
383,0.0,left,right,0.0,11.4382,0.0,23.0,23.0,23.0,1.0,highway_156.jpg,highway_160.jpg,5.0,A2APG8MSLJ6G2K
384,1.0,right,right,1.0,6.9285,0.0,24.0,24.0,24.0,1.0,playground_127.jpg,playground_117.jpg,7.0,A2APG8MSLJ6G2K
385,1.0,right,right,1.0,3.0416,0.0,25.0,25.0,25.0,1.0,mountain_295.jpg,mountain_156.jpg,6.0,A2APG8MSLJ6G2K
386,1.0,right,right,1.0,4.7241,0.0,26.0,26.0,26.0,1.0,highway_278.jpg,highway_177.jpg,6.0,A2APG8MSLJ6G2K
387,1.0,right,right,1.0,2.6728,0.0,27.0,27.0,27.0,1.0,golf_course_2.jpg,golf_course_195.jpg,6.0,A2APG8MSLJ6G2K
388,0.0,left,right,0.0,2.3306,0.0,28.0,28.0,28.0,1.0,badlands_137.jpg,badlands_194.jpg,6.0,A2APG8MSLJ6G2K
389,0.0,left,left,1.0,2.1822,0.0,29.0,29.0,29.0,1.0,playground_10.jpg,playground_122.jpg,6.0,A2APG8MSLJ6G2K
390,1.0,right,left,0.0,3.1413,0.0,30.0,30.0,30.0,1.0,playground_40.jpg,playground_240.jpg,7.0,A2APG8MSLJ6G2K
391,1.0,left,left,1.0,8.533,0.0,31.0,31.0,31.0,1.0,golf_course_331.jpg,golf_course_26.jpg,5.0,A2APG8MSLJ6G2K
392,1.0,left,left,1.0,6.3526,0.0,32.0,32.0,32.0,1.0,mountain_230.jpg,mountain_97.jpg,5.0,A2APG8MSLJ6G2K
393,0.0,right,left,0.0,4.2619,0.0,33.0,33.0,33.0,1.0,bridge_61.jpg,bridge_128.jpg,4.0,A2APG8MSLJ6G2K
394,0.0,right,right,1.0,6.2168,0.0,34.0,34.0,34.0,1.0,playground_214.jpg,playground_257.jpg,8.0,A2APG8MSLJ6G2K
395,1.0,left,left,1.0,1.9751,0.0,35.0,35.0,35.0,1.0,bridge_256.jpg,bridge_211.jpg,5.0,A2APG8MSLJ6G2K
396,0.0,left,left,1.0,4.2363,0.0,36.0,36.0,36.0,1.0,highway_209.jpg,highway_314.jpg,5.0,A2APG8MSLJ6G2K
397,0.0,left,left,1.0,3.07,0.0,37.0,37.0,37.0,1.0,bridge_65.jpg,bridge_181.jpg,6.0,A2APG8MSLJ6G2K
398,0.0,left,left,1.0,5.6086,0.0,38.0,38.0,38.0,1.0,playground_76.jpg,playground_22.jpg,7.0,A2APG8MSLJ6G2K
399,1.0,left,left,1.0,5.4706,0.0,39.0,39.0,39.0,1.0,highway_245.jpg,highway_206.jpg,5.0,A2APG8MSLJ6G2K
400,0.0,left,left,1.0,3.6649,0.0,40.0,40.0,40.0,1.0,badlands_113.jpg,badlands_225.jpg,7.0,A2APG8MSLJ6G2K
401,0.0,right,right,1.0,4.0065,0.0,41.0,41.0,41.0,1.0,playground_229.jpg,playground_145.jpg,6.0,A2APG8MSLJ6G2K
402,0.0,left,left,1.0,2.032,0.0,42.0,42.0,42.0,1.0,highway_93.jpg,highway_85.jpg,6.0,A2APG8MSLJ6G2K
403,0.0,left,left,1.0,1.6924,0.0,43.0,43.0,43.0,1.0,bridge_191.jpg,bridge_184.jpg,4.0,A2APG8MSLJ6G2K
404,0.0,right,right,1.0,2.0774,0.0,44.0,44.0,44.0,1.0,badlands_94.jpg,badlands_52.jpg,6.0,A2APG8MSLJ6G2K
405,0.0,right,left,0.0,10.222,0.0,45.0,45.0,45.0,1.0,mountain_131.jpg,mountain_154.jpg,4.0,A2APG8MSLJ6G2K
406,0.0,left,left,1.0,3.1286,0.0,46.0,46.0,46.0,1.0,highway_394.jpg,highway_204.jpg,4.0,A2APG8MSLJ6G2K
407,1.0,right,left,0.0,2.6102,0.0,47.0,47.0,47.0,1.0,playground_244.jpg,playground_60.jpg,7.0,A2APG8MSLJ6G2K
408,0.0,right,right,1.0,5.2743,0.0,48.0,48.0,48.0,1.0,highway_389.jpg,highway_359.jpg,5.0,A2APG8MSLJ6G2K
409,0.0,right,right,1.0,1.3483,0.0,49.0,49.0,49.0,1.0,golf_course_16.jpg,golf_course_309.jpg,5.0,A2APG8MSLJ6G2K
410,1.0,left,left,1.0,2.2333,0.0,50.0,50.0,50.0,1.0,badlands_21.jpg,badlands_98.jpg,5.0,A2APG8MSLJ6G2K
411,0.0,right,right,1.0,1.9719,0.0,51.0,51.0,51.0,1.0,mountain_94.jpg,mountain_123.jpg,3.0,A2APG8MSLJ6G2K
412,1.0,left,left,1.0,3.7357,0.0,52.0,52.0,52.0,1.0,bridge_146.jpg,bridge_121.jpg,4.0,A2APG8MSLJ6G2K
413,1.0,left,left,1.0,1.4707,0.0,53.0,53.0,53.0,1.0,golf_course_193.jpg,golf_course_123.jpg,5.0,A2APG8MSLJ6G2K
414,1.0,left,left,1.0,9.3975,0.0,54.0,54.0,54.0,1.0,golf_course_214.jpg,golf_course_317.jpg,6.0,A2APG8MSLJ6G2K
415,0.0,right,right,1.0,4.1555,0.0,55.0,55.0,55.0,1.0,golf_course_157.jpg,golf_course_188.jpg,4.0,A2APG8MSLJ6G2K
416,0.0,right,right,1.0,3.3817,0.0,56.0,56.0,56.0,1.0,badlands_34.jpg,badlands_222.jpg,6.0,A2APG8MSLJ6G2K
417,1.0,right,right,1.0,4.672,0.0,57.0,57.0,57.0,1.0,bridge_38.jpg,bridge_202.jpg,6.0,A2APG8MSLJ6G2K
418,0.0,left,left,1.0,3.5473,0.0,58.0,58.0,58.0,1.0,playground_219.jpg,playground_21.jpg,6.0,A2APG8MSLJ6G2K
419,1.0,left,left,1.0,1.8841,0.0,59.0,59.0,59.0,1.0,badlands_221.jpg,badlands_207.jpg,5.0,A2APG8MSLJ6G2K
420,1.0,left,left,1.0,3.7345,0.0,0.0,0.0,0.0,1.0,bridge_65.jpg,bridge_60.jpg,3.0,A2IQ0QCTQ3KWLT
421,1.0,right,right,1.0,3.1262,0.0,1.0,1.0,1.0,1.0,mountain_223.jpg,mountain_110.jpg,6.0,A2IQ0QCTQ3KWLT
422,1.0,right,right,1.0,3.7537,0.0,2.0,2.0,2.0,1.0,golf_course_161.jpg,golf_course_87.jpg,7.0,A2IQ0QCTQ3KWLT
423,1.0,left,left,1.0,2.7509,0.0,3.0,3.0,3.0,1.0,highway_394.jpg,highway_406.jpg,7.0,A2IQ0QCTQ3KWLT
424,0.0,left,left,1.0,2.5764,0.0,4.0,4.0,4.0,1.0,golf_course_217.jpg,golf_course_35.jpg,7.0,A2IQ0QCTQ3KWLT
425,0.0,left,left,1.0,2.483,0.0,5.0,5.0,5.0,1.0,badlands_21.jpg,badlands_1.jpg,4.0,A2IQ0QCTQ3KWLT
426,0.0,left,left,1.0,2.7985,0.0,6.0,6.0,6.0,1.0,mountain_230.jpg,mountain_184.jpg,4.0,A2IQ0QCTQ3KWLT
427,0.0,right,right,1.0,4.0368,0.0,7.0,7.0,7.0,1.0,playground_214.jpg,playground_257.jpg,7.0,A2IQ0QCTQ3KWLT
428,0.0,left,left,1.0,1.9649,0.0,8.0,8.0,8.0,1.0,bridge_172.jpg,bridge_17.jpg,2.0,A2IQ0QCTQ3KWLT
429,1.0,right,right,1.0,2.2619,0.0,9.0,9.0,9.0,1.0,bridge_148.jpg,bridge_108.jpg,5.0,A2IQ0QCTQ3KWLT
430,0.0,left,left,1.0,3.7615,0.0,10.0,10.0,10.0,1.0,badlands_184.jpg,badlands_228.jpg,8.0,A2IQ0QCTQ3KWLT
431,1.0,left,right,0.0,2.3427,0.0,11.0,11.0,11.0,1.0,golf_course_195.jpg,golf_course_2.jpg,7.0,A2IQ0QCTQ3KWLT
432,0.0,right,right,1.0,1.8364,0.0,12.0,12.0,12.0,1.0,bridge_253.jpg,bridge_91.jpg,3.0,A2IQ0QCTQ3KWLT
433,0.0,right,right,1.0,3.7987,0.0,13.0,13.0,13.0,1.0,highway_203.jpg,highway_294.jpg,5.0,A2IQ0QCTQ3KWLT
434,1.0,left,left,1.0,1.851,0.0,14.0,14.0,14.0,1.0,playground_117.jpg,playground_127.jpg,8.0,A2IQ0QCTQ3KWLT
435,0.0,left,left,1.0,2.1364,0.0,15.0,15.0,15.0,1.0,mountain_154.jpg,mountain_131.jpg,6.0,A2IQ0QCTQ3KWLT
436,0.0,left,left,1.0,1.3588,0.0,16.0,16.0,16.0,1.0,badlands_70.jpg,badlands_102.jpg,5.0,A2IQ0QCTQ3KWLT
437,1.0,left,left,1.0,1.9179,0.0,17.0,17.0,17.0,1.0,mountain_57.jpg,mountain_138.jpg,6.0,A2IQ0QCTQ3KWLT
438,1.0,left,left,1.0,1.3979,0.0,18.0,18.0,18.0,1.0,golf_course_193.jpg,golf_course_123.jpg,7.0,A2IQ0QCTQ3KWLT
439,0.0,right,right,1.0,1.7775,0.0,19.0,19.0,19.0,1.0,highway_85.jpg,highway_93.jpg,5.0,A2IQ0QCTQ3KWLT
440,0.0,right,right,1.0,2.099,0.0,20.0,20.0,20.0,1.0,bridge_27.jpg,bridge_146.jpg,6.0,A2IQ0QCTQ3KWLT
441,0.0,right,right,1.0,1.7743,0.0,21.0,21.0,21.0,1.0,bridge_184.jpg,bridge_191.jpg,3.0,A2IQ0QCTQ3KWLT
442,1.0,right,right,1.0,6.3787,0.0,22.0,22.0,22.0,1.0,highway_278.jpg,highway_177.jpg,8.0,A2IQ0QCTQ3KWLT
443,1.0,right,right,1.0,37.3815,0.0,23.0,23.0,23.0,1.0,highway_293.jpg,highway_156.jpg,8.0,A2IQ0QCTQ3KWLT
444,1.0,left,left,1.0,2.8155,0.0,24.0,24.0,24.0,1.0,badlands_222.jpg,badlands_62.jpg,8.0,A2IQ0QCTQ3KWLT
445,0.0,left,right,0.0,2.0782,0.0,25.0,25.0,25.0,1.0,golf_course_15.jpg,golf_course_113.jpg,6.0,A2IQ0QCTQ3KWLT
446,1.0,right,right,1.0,15.1062,0.0,26.0,26.0,26.0,1.0,highway_379.jpg,highway_359.jpg,8.0,A2IQ0QCTQ3KWLT
447,1.0,right,left,0.0,2.8558,0.0,27.0,27.0,27.0,1.0,playground_12.jpg,playground_10.jpg,7.0,A2IQ0QCTQ3KWLT
448,1.0,right,left,0.0,1.8558,0.0,28.0,28.0,28.0,1.0,badlands_53.jpg,badlands_24.jpg,8.0,A2IQ0QCTQ3KWLT
449,0.0,left,left,1.0,1.6429,0.0,29.0,29.0,29.0,1.0,mountain_293.jpg,mountain_72.jpg,8.0,A2IQ0QCTQ3KWLT
450,0.0,right,right,1.0,30.7468,0.0,30.0,30.0,30.0,1.0,highway_314.jpg,highway_209.jpg,5.0,A2IQ0QCTQ3KWLT
451,0.0,left,left,1.0,1.2883,0.0,31.0,31.0,31.0,1.0,mountain_232.jpg,mountain_3.jpg,3.0,A2IQ0QCTQ3KWLT
452,0.0,left,left,1.0,1.8698,0.0,32.0,32.0,32.0,1.0,playground_76.jpg,playground_22.jpg,8.0,A2IQ0QCTQ3KWLT
453,1.0,right,right,1.0,2.1454,0.0,33.0,33.0,33.0,1.0,bridge_38.jpg,bridge_202.jpg,5.0,A2IQ0QCTQ3KWLT
454,0.0,right,left,0.0,2.0131,0.0,34.0,34.0,34.0,1.0,badlands_115.jpg,badlands_221.jpg,6.0,A2IQ0QCTQ3KWLT
455,1.0,left,left,1.0,1.9258,0.0,35.0,35.0,35.0,1.0,badlands_137.jpg,badlands_139.jpg,7.0,A2IQ0QCTQ3KWLT
456,1.0,left,left,1.0,17.7049,0.0,36.0,36.0,36.0,1.0,golf_course_331.jpg,golf_course_26.jpg,4.0,A2IQ0QCTQ3KWLT
457,0.0,left,right,0.0,2.4629,0.0,37.0,37.0,37.0,1.0,bridge_250.jpg,bridge_134.jpg,6.0,A2IQ0QCTQ3KWLT
458,1.0,left,left,1.0,1.7288,0.0,38.0,38.0,38.0,1.0,playground_131.jpg,playground_164.jpg,8.0,A2IQ0QCTQ3KWLT
459,1.0,left,left,1.0,2.5915,0.0,39.0,39.0,39.0,1.0,mountain_222.jpg,mountain_93.jpg,6.0,A2IQ0QCTQ3KWLT
460,0.0,right,right,1.0,2.439,0.0,40.0,40.0,40.0,1.0,highway_60.jpg,highway_415.jpg,6.0,A2IQ0QCTQ3KWLT
461,0.0,right,right,1.0,1.7606,0.0,41.0,41.0,41.0,1.0,badlands_114.jpg,badlands_23.jpg,7.0,A2IQ0QCTQ3KWLT
462,0.0,left,left,1.0,2.0065,0.0,42.0,42.0,42.0,1.0,golf_course_309.jpg,golf_course_16.jpg,4.0,A2IQ0QCTQ3KWLT
463,0.0,right,right,1.0,2.2008,0.0,43.0,43.0,43.0,1.0,playground_21.jpg,playground_219.jpg,7.0,A2IQ0QCTQ3KWLT
464,0.0,left,left,1.0,1.5012,0.0,44.0,44.0,44.0,1.0,mountain_123.jpg,mountain_94.jpg,2.0,A2IQ0QCTQ3KWLT
465,0.0,right,right,1.0,2.1026,0.0,45.0,45.0,45.0,1.0,playground_268.jpg,playground_60.jpg,6.0,A2IQ0QCTQ3KWLT
466,1.0,left,right,0.0,2.3428,0.0,46.0,46.0,46.0,1.0,golf_course_78.jpg,golf_course_101.jpg,4.0,A2IQ0QCTQ3KWLT
467,0.0,right,right,1.0,1.778,0.0,47.0,47.0,47.0,1.0,playground_137.jpg,playground_144.jpg,7.0,A2IQ0QCTQ3KWLT
468,0.0,right,right,1.0,1.8963,0.0,48.0,48.0,48.0,1.0,golf_course_157.jpg,golf_course_188.jpg,3.0,A2IQ0QCTQ3KWLT
469,0.0,left,left,1.0,3.711,0.0,49.0,49.0,49.0,1.0,highway_245.jpg,highway_134.jpg,4.0,A2IQ0QCTQ3KWLT
470,1.0,right,right,1.0,2.2405,0.0,50.0,50.0,50.0,1.0,bridge_244.jpg,bridge_128.jpg,6.0,A2IQ0QCTQ3KWLT
471,1.0,left,right,0.0,1.7093,0.0,51.0,51.0,51.0,1.0,playground_145.jpg,playground_242.jpg,7.0,A2IQ0QCTQ3KWLT
472,1.0,left,right,0.0,1.6972,0.0,52.0,52.0,52.0,1.0,badlands_113.jpg,badlands_203.jpg,8.0,A2IQ0QCTQ3KWLT
473,1.0,right,right,1.0,1.6426,0.0,53.0,53.0,53.0,1.0,playground_40.jpg,playground_240.jpg,6.0,A2IQ0QCTQ3KWLT
474,1.0,right,right,1.0,2.3123,0.0,54.0,54.0,54.0,1.0,mountain_295.jpg,mountain_156.jpg,5.0,A2IQ0QCTQ3KWLT
475,1.0,right,left,0.0,4.1433,0.0,55.0,55.0,55.0,1.0,highway_171.jpg,highway_273.jpg,6.0,A2IQ0QCTQ3KWLT
476,1.0,right,right,1.0,1.4214,0.0,56.0,56.0,56.0,1.0,badlands_63.jpg,badlands_52.jpg,7.0,A2IQ0QCTQ3KWLT
477,1.0,left,right,0.0,1.4627,0.0,57.0,57.0,57.0,1.0,bridge_256.jpg,bridge_211.jpg,4.0,A2IQ0QCTQ3KWLT
478,0.0,left,right,0.0,1.7932,0.0,58.0,58.0,58.0,1.0,golf_course_214.jpg,golf_course_312.jpg,6.0,A2IQ0QCTQ3KWLT
479,1.0,right,right,1.0,2.6438,0.0,59.0,59.0,59.0,1.0,mountain_221.jpg,mountain_101.jpg,4.0,A2IQ0QCTQ3KWLT
480,1.0,right,right,1.0,7.777,0.0,0.0,0.0,0.0,1.0,mountain_97.jpg,mountain_230.jpg,7.0,A2LQO0696YYC1Q
481,1.0,left,left,1.0,6.856,0.0,1.0,1.0,1.0,1.0,highway_209.jpg,highway_122.jpg,7.0,A2LQO0696YYC1Q
482,0.0,right,right,1.0,5.051,0.0,2.0,2.0,2.0,1.0,bridge_17.jpg,bridge_172.jpg,7.0,A2LQO0696YYC1Q
483,0.0,left,left,1.0,3.849,0.0,3.0,3.0,3.0,1.0,mountain_101.jpg,mountain_171.jpg,6.0,A2LQO0696YYC1Q
484,1.0,left,left,1.0,2.624,0.0,4.0,4.0,4.0,1.0,playground_144.jpg,playground_65.jpg,8.0,A2LQO0696YYC1Q
485,0.0,right,left,0.0,2.581,0.0,5.0,5.0,5.0,1.0,bridge_116.jpg,bridge_108.jpg,6.0,A2LQO0696YYC1Q
486,0.0,right,right,1.0,2.729,0.0,6.0,6.0,6.0,1.0,playground_43.jpg,playground_131.jpg,8.0,A2LQO0696YYC1Q
487,0.0,left,left,1.0,2.077,0.0,7.0,7.0,7.0,1.0,golf_course_331.jpg,golf_course_114.jpg,5.0,A2LQO0696YYC1Q
488,1.0,right,left,0.0,3.26,0.0,8.0,8.0,8.0,1.0,bridge_38.jpg,bridge_202.jpg,4.0,A2LQO0696YYC1Q
489,0.0,left,right,0.0,3.485,0.0,9.0,9.0,9.0,1.0,badlands_113.jpg,badlands_225.jpg,5.0,A2LQO0696YYC1Q
490,1.0,left,left,1.0,2.223,0.0,10.0,10.0,10.0,1.0,golf_course_15.jpg,golf_course_97.jpg,5.0,A2LQO0696YYC1Q
491,1.0,right,right,1.0,6.285,0.0,11.0,11.0,11.0,1.0,highway_206.jpg,highway_245.jpg,8.0,A2LQO0696YYC1Q
492,0.0,left,left,1.0,2.639,0.0,12.0,12.0,12.0,1.0,mountain_110.jpg,mountain_157.jpg,6.0,A2LQO0696YYC1Q
493,1.0,right,right,1.0,2.542,0.0,13.0,13.0,13.0,1.0,playground_40.jpg,playground_240.jpg,8.0,A2LQO0696YYC1Q
494,0.0,left,right,0.0,4.642,0.0,14.0,14.0,14.0,1.0,highway_273.jpg,highway_384.jpg,7.0,A2LQO0696YYC1Q
495,1.0,left,left,1.0,1.961,0.0,15.0,15.0,15.0,1.0,badlands_23.jpg,badlands_101.jpg,6.0,A2LQO0696YYC1Q
496,1.0,left,left,1.0,2.977,0.0,16.0,16.0,16.0,1.0,mountain_123.jpg,mountain_189.jpg,5.0,A2LQO0696YYC1Q
497,0.0,left,left,1.0,1.588,0.0,17.0,17.0,17.0,1.0,mountain_232.jpg,mountain_3.jpg,7.0,A2LQO0696YYC1Q
498,1.0,left,left,1.0,2.021,0.0,18.0,18.0,18.0,1.0,highway_93.jpg,highway_369.jpg,5.0,A2LQO0696YYC1Q
499,1.0,left,left,1.0,2.572,0.0,19.0,19.0,19.0,1.0,mountain_222.jpg,mountain_93.jpg,7.0,A2LQO0696YYC1Q
500,1.0,left,left,1.0,2.055,0.0,20.0,20.0,20.0,1.0,highway_156.jpg,highway_293.jpg,8.0,A2LQO0696YYC1Q
501,0.0,right,right,1.0,2.081,0.0,21.0,21.0,21.0,1.0,highway_389.jpg,highway_359.jpg,6.0,A2LQO0696YYC1Q
502,0.0,right,right,1.0,1.779,0.0,22.0,22.0,22.0,1.0,badlands_3.jpg,badlands_24.jpg,6.0,A2LQO0696YYC1Q
503,0.0,left,right,0.0,2.684,0.0,23.0,23.0,23.0,1.0,badlands_221.jpg,badlands_115.jpg,8.0,A2LQO0696YYC1Q
504,0.0,left,left,1.0,1.434,0.0,24.0,24.0,24.0,1.0,golf_course_78.jpg,golf_course_134.jpg,6.0,A2LQO0696YYC1Q
505,0.0,right,right,1.0,2.15,0.0,25.0,25.0,25.0,1.0,highway_87.jpg,highway_177.jpg,7.0,A2LQO0696YYC1Q
506,1.0,right,right,1.0,2.757,0.0,26.0,26.0,26.0,1.0,playground_215.jpg,playground_257.jpg,6.0,A2LQO0696YYC1Q
507,0.0,left,left,1.0,2.479,0.0,27.0,27.0,27.0,1.0,highway_415.jpg,highway_60.jpg,5.0,A2LQO0696YYC1Q
508,1.0,right,right,1.0,2.244,0.0,28.0,28.0,28.0,1.0,golf_course_209.jpg,golf_course_309.jpg,7.0,A2LQO0696YYC1Q
509,0.0,right,right,1.0,2.681,0.0,29.0,29.0,29.0,1.0,bridge_61.jpg,bridge_128.jpg,5.0,A2LQO0696YYC1Q
510,1.0,left,right,0.0,2.596,0.0,30.0,30.0,30.0,1.0,badlands_137.jpg,badlands_139.jpg,7.0,A2LQO0696YYC1Q
511,1.0,right,right,1.0,2.34,0.0,31.0,31.0,31.0,1.0,highway_368.jpg,highway_294.jpg,6.0,A2LQO0696YYC1Q
512,1.0,left,left,1.0,3.056,0.0,32.0,32.0,32.0,1.0,bridge_65.jpg,bridge_60.jpg,6.0,A2LQO0696YYC1Q
513,1.0,left,right,0.0,2.948,0.0,33.0,33.0,33.0,1.0,bridge_250.jpg,bridge_205.jpg,7.0,A2LQO0696YYC1Q
514,1.0,right,left,0.0,1.999,0.0,34.0,34.0,34.0,1.0,badlands_119.jpg,badlands_70.jpg,6.0,A2LQO0696YYC1Q
515,0.0,right,right,1.0,2.849,0.0,35.0,35.0,35.0,1.0,bridge_54.jpg,bridge_256.jpg,7.0,A2LQO0696YYC1Q
516,0.0,right,right,1.0,2.42,0.0,36.0,36.0,36.0,1.0,highway_204.jpg,highway_394.jpg,6.0,A2LQO0696YYC1Q
517,1.0,left,right,0.0,2.125,0.0,37.0,37.0,37.0,1.0,badlands_52.jpg,badlands_63.jpg,7.0,A2LQO0696YYC1Q
518,1.0,left,left,1.0,2.139,0.0,38.0,38.0,38.0,1.0,golf_course_217.jpg,golf_course_262.jpg,5.0,A2LQO0696YYC1Q
519,1.0,right,right,1.0,3.987,0.0,39.0,39.0,39.0,1.0,mountain_95.jpg,mountain_154.jpg,7.0,A2LQO0696YYC1Q
520,0.0,right,right,1.0,5.58,0.0,40.0,40.0,40.0,1.0,mountain_72.jpg,mountain_293.jpg,6.0,A2LQO0696YYC1Q
521,0.0,left,right,0.0,11.907,0.0,41.0,41.0,41.0,1.0,playground_76.jpg,playground_22.jpg,7.0,A2LQO0696YYC1Q
522,1.0,left,right,0.0,4.344,0.0,42.0,42.0,42.0,1.0,golf_course_193.jpg,golf_course_123.jpg,6.0,A2LQO0696YYC1Q
523,0.0,left,left,1.0,3.939,0.0,43.0,43.0,43.0,1.0,playground_145.jpg,playground_229.jpg,5.0,A2LQO0696YYC1Q
524,0.0,right,left,0.0,3.259,0.0,44.0,44.0,44.0,1.0,playground_122.jpg,playground_10.jpg,7.0,A2LQO0696YYC1Q
525,1.0,left,left,1.0,2.008,0.0,45.0,45.0,45.0,1.0,badlands_21.jpg,badlands_98.jpg,6.0,A2LQO0696YYC1Q
526,0.0,left,left,1.0,3.33,0.0,46.0,46.0,46.0,1.0,golf_course_188.jpg,golf_course_157.jpg,5.0,A2LQO0696YYC1Q
527,0.0,right,left,0.0,3.616,0.0,47.0,47.0,47.0,1.0,golf_course_130.jpg,golf_course_87.jpg,6.0,A2LQO0696YYC1Q
528,0.0,right,left,0.0,2.37,0.0,48.0,48.0,48.0,1.0,playground_268.jpg,playground_60.jpg,7.0,A2LQO0696YYC1Q
529,1.0,right,left,0.0,4.194,0.0,49.0,49.0,49.0,1.0,mountain_295.jpg,mountain_156.jpg,5.0,A2LQO0696YYC1Q
530,1.0,right,right,1.0,2.47,0.0,50.0,50.0,50.0,1.0,playground_127.jpg,playground_117.jpg,8.0,A2LQO0696YYC1Q
531,1.0,left,left,1.0,3.533,0.0,51.0,51.0,51.0,1.0,bridge_146.jpg,bridge_121.jpg,8.0,A2LQO0696YYC1Q
532,0.0,left,right,0.0,2.917,0.0,52.0,52.0,52.0,1.0,badlands_222.jpg,badlands_34.jpg,6.0,A2LQO0696YYC1Q
533,1.0,right,left,0.0,3.055,0.0,53.0,53.0,53.0,1.0,golf_course_2.jpg,golf_course_195.jpg,7.0,A2LQO0696YYC1Q
534,1.0,left,right,0.0,3.485,0.0,54.0,54.0,54.0,1.0,playground_219.jpg,playground_205.jpg,7.0,A2LQO0696YYC1Q
535,0.0,right,left,0.0,5.907,0.0,55.0,55.0,55.0,1.0,badlands_228.jpg,badlands_184.jpg,7.0,A2LQO0696YYC1Q
536,1.0,right,left,0.0,2.607,0.0,56.0,56.0,56.0,1.0,bridge_75.jpg,bridge_191.jpg,6.0,A2LQO0696YYC1Q
537,0.0,right,left,0.0,2.239,0.0,57.0,57.0,57.0,1.0,golf_course_312.jpg,golf_course_214.jpg,7.0,A2LQO0696YYC1Q
538,0.0,left,right,0.0,3.937,0.0,58.0,58.0,58.0,1.0,mountain_57.jpg,mountain_193.jpg,6.0,A2LQO0696YYC1Q
539,0.0,left,left,1.0,3.605,0.0,59.0,59.0,59.0,1.0,bridge_91.jpg,bridge_253.jpg,8.0,A2LQO0696YYC1Q
540,0.0,left,left,1.0,10.5673,0.0,0.0,0.0,0.0,1.0,mountain_123.jpg,mountain_94.jpg,2.0,A2LQSIUU2U0ZT2
541,1.0,right,left,0.0,2.4125,0.0,1.0,1.0,1.0,1.0,golf_course_160.jpg,golf_course_188.jpg,3.0,A2LQSIUU2U0ZT2
542,0.0,right,left,0.0,1.16,0.0,2.0,2.0,2.0,1.0,golf_course_35.jpg,golf_course_217.jpg,5.0,A2LQSIUU2U0ZT2
543,1.0,left,left,1.0,2.162,0.0,3.0,3.0,3.0,1.0,badlands_70.jpg,badlands_119.jpg,8.0,A2LQSIUU2U0ZT2
544,1.0,right,left,0.0,57.7218,0.0,4.0,4.0,4.0,1.0,highway_368.jpg,highway_294.jpg,7.0,A2LQSIUU2U0ZT2
545,0.0,right,left,0.0,2.0658,0.0,5.0,5.0,5.0,1.0,golf_course_134.jpg,golf_course_78.jpg,7.0,A2LQSIUU2U0ZT2
546,1.0,right,left,0.0,4.1808,0.0,6.0,6.0,6.0,1.0,highway_278.jpg,highway_177.jpg,5.0,A2LQSIUU2U0ZT2
547,0.0,left,left,1.0,2.1727,0.0,7.0,7.0,7.0,1.0,highway_245.jpg,highway_134.jpg,4.0,A2LQSIUU2U0ZT2
548,0.0,right,left,0.0,1.4319,0.0,8.0,8.0,8.0,1.0,mountain_171.jpg,mountain_101.jpg,7.0,A2LQSIUU2U0ZT2
549,0.0,right,left,0.0,1.3038,0.0,9.0,9.0,9.0,1.0,bridge_17.jpg,bridge_172.jpg,3.0,A2LQSIUU2U0ZT2
550,0.0,left,left,1.0,0.9647,0.0,10.0,10.0,10.0,1.0,mountain_110.jpg,mountain_157.jpg,3.0,A2LQSIUU2U0ZT2
551,0.0,right,left,0.0,1.2042,0.0,11.0,11.0,11.0,1.0,highway_384.jpg,highway_273.jpg,4.0,A2LQSIUU2U0ZT2
552,0.0,left,left,1.0,1.656,0.0,12.0,12.0,12.0,1.0,playground_240.jpg,playground_2.jpg,6.0,A2LQSIUU2U0ZT2
553,1.0,left,left,1.0,1.2713,0.0,13.0,13.0,13.0,1.0,highway_415.jpg,highway_174.jpg,6.0,A2LQSIUU2U0ZT2
554,0.0,left,left,1.0,3.5802,0.0,14.0,14.0,14.0,1.0,playground_131.jpg,playground_43.jpg,4.0,A2LQSIUU2U0ZT2
555,1.0,right,left,0.0,6.0323,0.0,15.0,15.0,15.0,1.0,playground_215.jpg,playground_257.jpg,5.0,A2LQSIUU2U0ZT2
556,1.0,right,left,0.0,1.5984,0.0,16.0,16.0,16.0,1.0,badlands_98.jpg,badlands_21.jpg,8.0,A2LQSIUU2U0ZT2
557,1.0,left,left,1.0,1.2671,0.0,17.0,17.0,17.0,1.0,badlands_137.jpg,badlands_139.jpg,8.0,A2LQSIUU2U0ZT2
558,0.0,left,left,1.0,1.3897,0.0,18.0,18.0,18.0,1.0,highway_209.jpg,highway_314.jpg,2.0,A2LQSIUU2U0ZT2
559,0.0,right,left,0.0,2.8953,0.0,19.0,19.0,19.0,1.0,badlands_225.jpg,badlands_113.jpg,8.0,A2LQSIUU2U0ZT2
560,0.0,right,left,0.0,1.1742,0.0,20.0,20.0,20.0,1.0,highway_160.jpg,highway_156.jpg,4.0,A2LQSIUU2U0ZT2
561,0.0,right,left,0.0,1.4515,0.0,21.0,21.0,21.0,1.0,playground_229.jpg,playground_145.jpg,4.0,A2LQSIUU2U0ZT2
562,1.0,right,left,0.0,1.3087,0.0,22.0,22.0,22.0,1.0,badlands_207.jpg,badlands_221.jpg,7.0,A2LQSIUU2U0ZT2
563,0.0,right,left,0.0,2.2876,0.0,23.0,23.0,23.0,1.0,badlands_34.jpg,badlands_222.jpg,7.0,A2LQSIUU2U0ZT2
564,1.0,right,left,0.0,1.6589,0.0,24.0,24.0,24.0,1.0,bridge_38.jpg,bridge_202.jpg,7.0,A2LQSIUU2U0ZT2
565,0.0,left,left,1.0,1.1672,0.0,25.0,25.0,25.0,1.0,badlands_52.jpg,badlands_94.jpg,7.0,A2LQSIUU2U0ZT2
566,0.0,right,left,0.0,2.1024,0.0,26.0,26.0,26.0,1.0,mountain_131.jpg,mountain_154.jpg,3.0,A2LQSIUU2U0ZT2
567,1.0,right,left,0.0,2.1651,0.0,27.0,27.0,27.0,1.0,mountain_295.jpg,mountain_156.jpg,5.0,A2LQSIUU2U0ZT2
568,1.0,left,left,1.0,1.2736,0.0,28.0,28.0,28.0,1.0,playground_10.jpg,playground_12.jpg,8.0,A2LQSIUU2U0ZT2
569,0.0,right,left,0.0,1.355,0.0,29.0,29.0,29.0,1.0,golf_course_16.jpg,golf_course_309.jpg,7.0,A2LQSIUU2U0ZT2
570,0.0,left,left,1.0,2.1177,0.0,30.0,30.0,30.0,1.0,playground_219.jpg,playground_21.jpg,3.0,A2LQSIUU2U0ZT2
571,0.0,right,left,0.0,2.1043,0.0,31.0,31.0,31.0,1.0,bridge_54.jpg,bridge_256.jpg,8.0,A2LQSIUU2U0ZT2
572,1.0,right,left,0.0,13.8685,0.0,32.0,32.0,32.0,1.0,golf_course_97.jpg,golf_course_15.jpg,3.0,A2LQSIUU2U0ZT2
573,1.0,left,left,1.0,3.206,0.0,33.0,33.0,33.0,1.0,playground_76.jpg,playground_72.jpg,7.0,A2LQSIUU2U0ZT2
574,0.0,left,left,1.0,7.1625,0.0,34.0,34.0,34.0,1.0,mountain_222.jpg,mountain_244.jpg,3.0,A2LQSIUU2U0ZT2
575,1.0,right,left,0.0,1.2576,0.0,35.0,35.0,35.0,1.0,highway_406.jpg,highway_394.jpg,8.0,A2LQSIUU2U0ZT2
576,1.0,right,left,0.0,27.0469,0.0,36.0,36.0,36.0,1.0,golf_course_2.jpg,golf_course_195.jpg,6.0,A2LQSIUU2U0ZT2
577,1.0,left,left,1.0,1.5609,0.0,37.0,37.0,37.0,1.0,golf_course_331.jpg,golf_course_26.jpg,4.0,A2LQSIUU2U0ZT2
578,1.0,left,left,1.0,1.1305,0.0,38.0,38.0,38.0,1.0,mountain_293.jpg,mountain_47.jpg,8.0,A2LQSIUU2U0ZT2
579,0.0,right,left,0.0,1.0092,0.0,39.0,39.0,39.0,1.0,golf_course_130.jpg,golf_course_87.jpg,3.0,A2LQSIUU2U0ZT2
580,0.0,left,left,1.0,1.1663,0.0,40.0,40.0,40.0,1.0,bridge_128.jpg,bridge_61.jpg,3.0,A2LQSIUU2U0ZT2
581,0.0,right,left,0.0,1.045,0.0,41.0,41.0,41.0,1.0,highway_85.jpg,highway_93.jpg,3.0,A2LQSIUU2U0ZT2
582,0.0,right,left,0.0,1.536,0.0,42.0,42.0,42.0,1.0,bridge_27.jpg,bridge_146.jpg,3.0,A2LQSIUU2U0ZT2
583,1.0,left,left,1.0,1.5463,0.0,43.0,43.0,43.0,1.0,playground_117.jpg,playground_127.jpg,6.0,A2LQSIUU2U0ZT2
584,1.0,right,left,0.0,1.0513,0.0,44.0,44.0,44.0,1.0,bridge_60.jpg,bridge_65.jpg,5.0,A2LQSIUU2U0ZT2
585,1.0,left,left,1.0,1.0354,0.0,45.0,45.0,45.0,1.0,badlands_24.jpg,badlands_53.jpg,8.0,A2LQSIUU2U0ZT2
586,0.0,left,left,1.0,1.0382,0.0,46.0,46.0,46.0,1.0,golf_course_214.jpg,golf_course_312.jpg,3.0,A2LQSIUU2U0ZT2
587,0.0,right,left,0.0,1.0753,0.0,47.0,47.0,47.0,1.0,bridge_134.jpg,bridge_250.jpg,4.0,A2LQSIUU2U0ZT2
588,1.0,right,left,0.0,1.3644,0.0,48.0,48.0,48.0,1.0,golf_course_123.jpg,golf_course_193.jpg,3.0,A2LQSIUU2U0ZT2
589,1.0,right,left,0.0,1.217,0.0,49.0,49.0,49.0,1.0,playground_244.jpg,playground_60.jpg,7.0,A2LQSIUU2U0ZT2
590,1.0,right,left,0.0,25.7942,0.0,50.0,50.0,50.0,1.0,highway_379.jpg,highway_359.jpg,8.0,A2LQSIUU2U0ZT2
591,1.0,right,left,0.0,1.262,0.0,51.0,51.0,51.0,1.0,mountain_97.jpg,mountain_230.jpg,7.0,A2LQSIUU2U0ZT2
592,0.0,right,left,0.0,1.3062,0.0,52.0,52.0,52.0,1.0,badlands_114.jpg,badlands_23.jpg,8.0,A2LQSIUU2U0ZT2
593,1.0,left,left,1.0,5.9509,0.0,53.0,53.0,53.0,1.0,bridge_108.jpg,bridge_148.jpg,8.0,A2LQSIUU2U0ZT2
594,1.0,left,left,1.0,1.3802,0.0,54.0,54.0,54.0,1.0,bridge_191.jpg,bridge_75.jpg,8.0,A2LQSIUU2U0ZT2
595,1.0,left,left,1.0,1.1334,0.0,55.0,55.0,55.0,1.0,mountain_232.jpg,mountain_54.jpg,8.0,A2LQSIUU2U0ZT2
596,0.0,left,left,1.0,0.8942,0.0,56.0,56.0,56.0,1.0,playground_144.jpg,playground_137.jpg,3.0,A2LQSIUU2U0ZT2
597,0.0,right,left,0.0,1.2153,0.0,57.0,57.0,57.0,1.0,badlands_228.jpg,badlands_184.jpg,8.0,A2LQSIUU2U0ZT2
598,1.0,left,left,1.0,1.4601,0.0,58.0,58.0,58.0,1.0,mountain_57.jpg,mountain_138.jpg,4.0,A2LQSIUU2U0ZT2
599,1.0,left,left,1.0,1.2113,0.0,59.0,59.0,59.0,1.0,bridge_91.jpg,bridge_82.jpg,3.0,A2LQSIUU2U0ZT2
600,1.0,right,left,0.0,5.079,0.0,0.0,0.0,0.0,1.0,bridge_75.jpg,bridge_191.jpg,7.0,A2NAKIXS3DVGAA
601,0.0,left,right,0.0,1.846,0.0,1.0,1.0,1.0,1.0,badlands_24.jpg,badlands_3.jpg,7.0,A2NAKIXS3DVGAA
602,0.0,right,right,1.0,1.438,0.0,2.0,2.0,2.0,1.0,golf_course_113.jpg,golf_course_15.jpg,7.0,A2NAKIXS3DVGAA
603,0.0,right,right,1.0,2.41,0.0,3.0,3.0,3.0,1.0,playground_21.jpg,playground_219.jpg,7.0,A2NAKIXS3DVGAA
604,0.0,left,right,0.0,1.256,0.0,4.0,4.0,4.0,1.0,mountain_110.jpg,mountain_157.jpg,7.0,A2NAKIXS3DVGAA
605,1.0,right,right,1.0,3.352,0.0,5.0,5.0,5.0,1.0,badlands_101.jpg,badlands_23.jpg,7.0,A2NAKIXS3DVGAA
606,0.0,left,left,1.0,2.023,0.0,6.0,6.0,6.0,1.0,highway_273.jpg,highway_384.jpg,7.0,A2NAKIXS3DVGAA
607,0.0,left,right,0.0,2.142,0.0,7.0,7.0,7.0,1.0,mountain_222.jpg,mountain_244.jpg,6.0,A2NAKIXS3DVGAA
608,1.0,left,right,0.0,2.477,0.0,8.0,8.0,8.0,1.0,golf_course_193.jpg,golf_course_123.jpg,6.0,A2NAKIXS3DVGAA
609,0.0,left,left,1.0,1.847,0.0,9.0,9.0,9.0,1.0,badlands_21.jpg,badlands_1.jpg,6.0,A2NAKIXS3DVGAA
610,0.0,right,right,1.0,1.573,0.0,10.0,10.0,10.0,1.0,playground_229.jpg,playground_145.jpg,7.0,A2NAKIXS3DVGAA
611,0.0,left,left,1.0,1.34,0.0,11.0,11.0,11.0,1.0,highway_93.jpg,highway_85.jpg,7.0,A2NAKIXS3DVGAA
612,1.0,left,left,1.0,2.27,0.0,12.0,12.0,12.0,1.0,highway_359.jpg,highway_379.jpg,7.0,A2NAKIXS3DVGAA
613,0.0,left,right,0.0,1.182,0.0,13.0,13.0,13.0,1.0,badlands_70.jpg,badlands_102.jpg,5.0,A2NAKIXS3DVGAA
614,0.0,right,right,1.0,1.887,0.0,14.0,14.0,14.0,1.0,golf_course_114.jpg,golf_course_331.jpg,7.0,A2NAKIXS3DVGAA
615,0.0,left,left,1.0,1.944,0.0,15.0,15.0,15.0,1.0,mountain_123.jpg,mountain_94.jpg,4.0,A2NAKIXS3DVGAA
616,0.0,right,left,0.0,1.618,0.0,16.0,16.0,16.0,1.0,badlands_34.jpg,badlands_222.jpg,6.0,A2NAKIXS3DVGAA
617,0.0,left,right,0.0,1.716,0.0,17.0,17.0,17.0,1.0,bridge_108.jpg,bridge_116.jpg,7.0,A2NAKIXS3DVGAA
618,0.0,left,left,1.0,1.447,0.0,18.0,18.0,18.0,1.0,mountain_156.jpg,mountain_128.jpg,7.0,A2NAKIXS3DVGAA
619,0.0,left,left,1.0,1.819,0.0,19.0,19.0,19.0,1.0,highway_294.jpg,highway_203.jpg,7.0,A2NAKIXS3DVGAA
620,1.0,left,right,0.0,3.431,0.0,20.0,20.0,20.0,1.0,highway_415.jpg,highway_174.jpg,7.0,A2NAKIXS3DVGAA
621,0.0,left,left,1.0,2.149,0.0,21.0,21.0,21.0,1.0,bridge_202.jpg,bridge_31.jpg,7.0,A2NAKIXS3DVGAA
622,1.0,left,left,1.0,1.799,0.0,22.0,22.0,22.0,1.0,badlands_52.jpg,badlands_63.jpg,7.0,A2NAKIXS3DVGAA
623,1.0,right,left,0.0,2.109,0.0,23.0,23.0,23.0,1.0,playground_127.jpg,playground_117.jpg,7.0,A2NAKIXS3DVGAA
624,1.0,left,left,1.0,2.807,0.0,24.0,24.0,24.0,1.0,golf_course_87.jpg,golf_course_161.jpg,7.0,A2NAKIXS3DVGAA
625,1.0,left,right,0.0,2.065,0.0,25.0,25.0,25.0,1.0,playground_240.jpg,playground_40.jpg,7.0,A2NAKIXS3DVGAA
626,1.0,right,right,1.0,1.676,0.0,26.0,26.0,26.0,1.0,bridge_205.jpg,bridge_250.jpg,7.0,A2NAKIXS3DVGAA
627,1.0,left,right,0.0,5.162,0.0,27.0,27.0,27.0,1.0,highway_209.jpg,highway_122.jpg,7.0,A2NAKIXS3DVGAA
628,1.0,left,left,1.0,1.729,0.0,28.0,28.0,28.0,1.0,mountain_232.jpg,mountain_54.jpg,7.0,A2NAKIXS3DVGAA
629,0.0,right,right,1.0,2.404,0.0,29.0,29.0,29.0,1.0,golf_course_312.jpg,golf_course_214.jpg,7.0,A2NAKIXS3DVGAA
630,1.0,left,left,1.0,1.539,0.0,30.0,30.0,30.0,1.0,mountain_57.jpg,mountain_138.jpg,7.0,A2NAKIXS3DVGAA
631,0.0,left,left,1.0,2.799,0.0,31.0,31.0,31.0,1.0,bridge_256.jpg,bridge_54.jpg,7.0,A2NAKIXS3DVGAA
632,1.0,left,left,1.0,2.761,0.0,32.0,32.0,32.0,1.0,bridge_91.jpg,bridge_82.jpg,7.0,A2NAKIXS3DVGAA
633,1.0,left,right,0.0,1.789,0.0,33.0,33.0,33.0,1.0,playground_60.jpg,playground_244.jpg,7.0,A2NAKIXS3DVGAA
634,1.0,right,left,0.0,5.126,0.0,34.0,34.0,34.0,1.0,highway_406.jpg,highway_394.jpg,7.0,A2NAKIXS3DVGAA
635,1.0,right,right,1.0,1.962,0.0,35.0,35.0,35.0,1.0,mountain_47.jpg,mountain_293.jpg,7.0,A2NAKIXS3DVGAA
636,1.0,left,left,1.0,2.646,0.0,36.0,36.0,36.0,1.0,golf_course_217.jpg,golf_course_262.jpg,7.0,A2NAKIXS3DVGAA
637,1.0,right,left,0.0,1.569,0.0,37.0,37.0,37.0,1.0,badlands_139.jpg,badlands_137.jpg,7.0,A2NAKIXS3DVGAA
638,0.0,right,left,0.0,1.581,0.0,38.0,38.0,38.0,1.0,highway_134.jpg,highway_245.jpg,7.0,A2NAKIXS3DVGAA
639,1.0,right,right,1.0,2.217,0.0,39.0,39.0,39.0,1.0,playground_164.jpg,playground_131.jpg,7.0,A2NAKIXS3DVGAA
640,1.0,right,right,1.0,4.346,0.0,40.0,40.0,40.0,1.0,highway_278.jpg,highway_177.jpg,7.0,A2NAKIXS3DVGAA
641,1.0,left,right,0.0,2.525,0.0,41.0,41.0,41.0,1.0,golf_course_195.jpg,golf_course_2.jpg,7.0,A2NAKIXS3DVGAA
642,0.0,left,right,0.0,2.799,0.0,42.0,42.0,42.0,1.0,golf_course_309.jpg,golf_course_16.jpg,7.0,A2NAKIXS3DVGAA
643,1.0,left,right,0.0,1.536,0.0,43.0,43.0,43.0,1.0,badlands_113.jpg,badlands_203.jpg,7.0,A2NAKIXS3DVGAA
644,1.0,right,right,1.0,2.135,0.0,44.0,44.0,44.0,1.0,badlands_207.jpg,badlands_221.jpg,6.0,A2NAKIXS3DVGAA
645,0.0,right,left,0.0,2.87,0.0,45.0,45.0,45.0,1.0,bridge_27.jpg,bridge_146.jpg,7.0,A2NAKIXS3DVGAA
646,0.0,left,right,0.0,1.824,0.0,46.0,46.0,46.0,1.0,playground_257.jpg,playground_214.jpg,7.0,A2NAKIXS3DVGAA
647,0.0,right,right,1.0,1.434,0.0,47.0,47.0,47.0,1.0,bridge_61.jpg,bridge_128.jpg,7.0,A2NAKIXS3DVGAA
648,0.0,right,right,1.0,1.827,0.0,48.0,48.0,48.0,1.0,highway_160.jpg,highway_156.jpg,7.0,A2NAKIXS3DVGAA
649,0.0,right,right,1.0,1.149,0.0,49.0,49.0,49.0,1.0,playground_137.jpg,playground_144.jpg,6.0,A2NAKIXS3DVGAA
650,1.0,left,left,1.0,3.461,0.0,50.0,50.0,50.0,1.0,bridge_65.jpg,bridge_60.jpg,7.0,A2NAKIXS3DVGAA
651,1.0,right,right,1.0,1.965,0.0,51.0,51.0,51.0,1.0,mountain_95.jpg,mountain_154.jpg,7.0,A2NAKIXS3DVGAA
652,0.0,right,left,0.0,1.442,0.0,52.0,52.0,52.0,1.0,mountain_184.jpg,mountain_230.jpg,7.0,A2NAKIXS3DVGAA
653,0.0,left,left,1.0,1.39,0.0,53.0,53.0,53.0,1.0,golf_course_188.jpg,golf_course_157.jpg,7.0,A2NAKIXS3DVGAA
654,1.0,right,right,1.0,2.3,0.0,54.0,54.0,54.0,1.0,golf_course_101.jpg,golf_course_78.jpg,7.0,A2NAKIXS3DVGAA
655,1.0,right,left,0.0,1.95,0.0,55.0,55.0,55.0,1.0,mountain_221.jpg,mountain_101.jpg,7.0,A2NAKIXS3DVGAA
656,0.0,left,right,0.0,1.56,0.0,56.0,56.0,56.0,1.0,badlands_184.jpg,badlands_228.jpg,7.0,A2NAKIXS3DVGAA
657,1.0,right,left,0.0,1.886,0.0,57.0,57.0,57.0,1.0,playground_12.jpg,playground_10.jpg,7.0,A2NAKIXS3DVGAA
658,0.0,right,left,0.0,1.818,0.0,58.0,58.0,58.0,1.0,playground_22.jpg,playground_76.jpg,7.0,A2NAKIXS3DVGAA
659,1.0,left,left,1.0,2.239,0.0,59.0,59.0,59.0,1.0,bridge_172.jpg,bridge_163.jpg,7.0,A2NAKIXS3DVGAA
660,1.0,left,left,1.0,9.0685,0.0,0.0,0.0,0.0,1.0,mountain_293.jpg,mountain_47.jpg,8.0,A2OQ5LQ3YB4HX1
661,1.0,left,right,0.0,5.2995,0.0,1.0,1.0,1.0,1.0,bridge_172.jpg,bridge_163.jpg,7.0,A2OQ5LQ3YB4HX1
662,1.0,right,right,1.0,5.1219,0.0,2.0,2.0,2.0,1.0,badlands_53.jpg,badlands_24.jpg,7.0,A2OQ5LQ3YB4HX1
663,0.0,right,right,1.0,13.0588,0.0,3.0,3.0,3.0,1.0,highway_85.jpg,highway_93.jpg,8.0,A2OQ5LQ3YB4HX1
664,0.0,left,right,0.0,9.0257,0.0,4.0,4.0,4.0,1.0,golf_course_78.jpg,golf_course_134.jpg,8.0,A2OQ5LQ3YB4HX1
665,0.0,right,right,1.0,2.8968,0.0,5.0,5.0,5.0,1.0,mountain_3.jpg,mountain_232.jpg,7.0,A2OQ5LQ3YB4HX1
666,1.0,left,right,0.0,3.6544,0.0,6.0,6.0,6.0,1.0,mountain_101.jpg,mountain_221.jpg,7.0,A2OQ5LQ3YB4HX1
667,0.0,right,right,1.0,1.4166,0.0,7.0,7.0,7.0,1.0,golf_course_130.jpg,golf_course_87.jpg,7.0,A2OQ5LQ3YB4HX1
668,0.0,right,left,0.0,2.1645,0.0,8.0,8.0,8.0,1.0,bridge_134.jpg,bridge_250.jpg,7.0,A2OQ5LQ3YB4HX1
669,1.0,left,left,1.0,2.0462,0.0,9.0,9.0,9.0,1.0,highway_394.jpg,highway_406.jpg,7.0,A2OQ5LQ3YB4HX1
670,1.0,left,right,0.0,2.2005,0.0,10.0,10.0,10.0,1.0,bridge_108.jpg,bridge_148.jpg,7.0,A2OQ5LQ3YB4HX1
671,0.0,left,left,1.0,2.6815,0.0,11.0,11.0,11.0,1.0,playground_10.jpg,playground_122.jpg,6.0,A2OQ5LQ3YB4HX1
672,0.0,left,right,0.0,1.5469,0.0,12.0,12.0,12.0,1.0,golf_course_188.jpg,golf_course_157.jpg,7.0,A2OQ5LQ3YB4HX1
673,1.0,right,left,0.0,1.7217,0.0,13.0,13.0,13.0,1.0,highway_379.jpg,highway_359.jpg,7.0,A2OQ5LQ3YB4HX1
674,1.0,left,right,0.0,2.096,0.0,14.0,14.0,14.0,1.0,highway_156.jpg,highway_293.jpg,7.0,A2OQ5LQ3YB4HX1
675,1.0,right,right,1.0,1.6609,0.0,15.0,15.0,15.0,1.0,badlands_119.jpg,badlands_70.jpg,7.0,A2OQ5LQ3YB4HX1
676,0.0,left,left,1.0,1.0308,0.0,16.0,16.0,16.0,1.0,playground_240.jpg,playground_2.jpg,7.0,A2OQ5LQ3YB4HX1
677,0.0,right,right,1.0,2.0637,0.0,17.0,17.0,17.0,1.0,bridge_31.jpg,bridge_202.jpg,8.0,A2OQ5LQ3YB4HX1
678,1.0,left,right,0.0,0.3656,0.0,18.0,18.0,18.0,1.0,playground_144.jpg,playground_65.jpg,7.0,A2OQ5LQ3YB4HX1
679,1.0,right,left,0.0,1.1956,0.0,19.0,19.0,19.0,1.0,badlands_98.jpg,badlands_21.jpg,7.0,A2OQ5LQ3YB4HX1
680,1.0,left,right,0.0,0.8609,0.0,20.0,20.0,20.0,1.0,playground_60.jpg,playground_244.jpg,7.0,A2OQ5LQ3YB4HX1
681,1.0,right,right,1.0,1.5423,0.0,21.0,21.0,21.0,1.0,highway_122.jpg,highway_209.jpg,8.0,A2OQ5LQ3YB4HX1
682,1.0,left,left,1.0,1.3573,0.0,22.0,22.0,22.0,1.0,highway_294.jpg,highway_368.jpg,7.0,A2OQ5LQ3YB4HX1
683,0.0,left,right,0.0,1.0073,0.0,23.0,23.0,23.0,1.0,mountain_156.jpg,mountain_128.jpg,8.0,A2OQ5LQ3YB4HX1
684,0.0,right,right,1.0,1.0578,0.0,24.0,24.0,24.0,1.0,badlands_34.jpg,badlands_222.jpg,8.0,A2OQ5LQ3YB4HX1
685,0.0,left,right,0.0,2.0305,0.0,25.0,25.0,25.0,1.0,mountain_110.jpg,mountain_157.jpg,7.0,A2OQ5LQ3YB4HX1
686,1.0,right,left,0.0,1.2333,0.0,26.0,26.0,26.0,1.0,bridge_60.jpg,bridge_65.jpg,6.0,A2OQ5LQ3YB4HX1
687,0.0,left,right,0.0,1.016,0.0,27.0,27.0,27.0,1.0,highway_245.jpg,highway_134.jpg,8.0,A2OQ5LQ3YB4HX1
688,0.0,right,left,0.0,1.1954,0.0,28.0,28.0,28.0,1.0,badlands_225.jpg,badlands_113.jpg,6.0,A2OQ5LQ3YB4HX1
689,1.0,right,right,1.0,0.6861,0.0,29.0,29.0,29.0,1.0,bridge_121.jpg,bridge_146.jpg,8.0,A2OQ5LQ3YB4HX1
690,1.0,left,left,1.0,0.9661,0.0,30.0,30.0,30.0,1.0,badlands_221.jpg,badlands_207.jpg,6.0,A2OQ5LQ3YB4HX1
691,0.0,left,right,0.0,0.6981,0.0,31.0,31.0,31.0,1.0,bridge_256.jpg,bridge_54.jpg,7.0,A2OQ5LQ3YB4HX1
692,0.0,left,right,0.0,1.231,0.0,32.0,32.0,32.0,1.0,highway_273.jpg,highway_384.jpg,7.0,A2OQ5LQ3YB4HX1
693,0.0,right,right,1.0,0.9968,0.0,33.0,33.0,33.0,1.0,badlands_94.jpg,badlands_52.jpg,7.0,A2OQ5LQ3YB4HX1
694,1.0,left,left,1.0,0.6796,0.0,34.0,34.0,34.0,1.0,mountain_57.jpg,mountain_138.jpg,6.0,A2OQ5LQ3YB4HX1
695,1.0,left,right,0.0,0.8154,0.0,35.0,35.0,35.0,1.0,playground_257.jpg,playground_215.jpg,7.0,A2OQ5LQ3YB4HX1
696,0.0,left,right,0.0,1.449,0.0,36.0,36.0,36.0,1.0,badlands_23.jpg,badlands_114.jpg,7.0,A2OQ5LQ3YB4HX1
697,0.0,left,right,0.0,1.0902,0.0,37.0,37.0,37.0,1.0,mountain_154.jpg,mountain_131.jpg,8.0,A2OQ5LQ3YB4HX1
698,0.0,right,left,0.0,1.8343,0.0,38.0,38.0,38.0,1.0,bridge_184.jpg,bridge_191.jpg,6.0,A2OQ5LQ3YB4HX1
699,1.0,left,right,0.0,0.7458,0.0,39.0,39.0,39.0,1.0,mountain_222.jpg,mountain_93.jpg,7.0,A2OQ5LQ3YB4HX1
700,1.0,left,left,1.0,0.8896,0.0,40.0,40.0,40.0,1.0,mountain_230.jpg,mountain_97.jpg,7.0,A2OQ5LQ3YB4HX1
701,1.0,right,right,1.0,0.9759,0.0,41.0,41.0,41.0,1.0,golf_course_209.jpg,golf_course_309.jpg,8.0,A2OQ5LQ3YB4HX1
702,1.0,left,left,1.0,0.9145,0.0,42.0,42.0,42.0,1.0,badlands_137.jpg,badlands_139.jpg,7.0,A2OQ5LQ3YB4HX1
703,1.0,left,right,0.0,0.8864,0.0,43.0,43.0,43.0,1.0,playground_76.jpg,playground_72.jpg,8.0,A2OQ5LQ3YB4HX1
704,1.0,left,left,1.0,1.6515,0.0,44.0,44.0,44.0,1.0,bridge_128.jpg,bridge_244.jpg,6.0,A2OQ5LQ3YB4HX1
705,0.0,left,right,0.0,0.8079,0.0,45.0,45.0,45.0,1.0,bridge_91.jpg,bridge_253.jpg,7.0,A2OQ5LQ3YB4HX1
706,0.0,right,right,1.0,0.9692,0.0,46.0,46.0,46.0,1.0,playground_43.jpg,playground_131.jpg,8.0,A2OQ5LQ3YB4HX1
707,1.0,right,right,1.0,1.0796,0.0,47.0,47.0,47.0,1.0,golf_course_97.jpg,golf_course_15.jpg,8.0,A2OQ5LQ3YB4HX1
708,1.0,left,left,1.0,0.901,0.0,48.0,48.0,48.0,1.0,golf_course_193.jpg,golf_course_123.jpg,6.0,A2OQ5LQ3YB4HX1
709,0.0,left,right,0.0,1.4007,0.0,49.0,49.0,49.0,1.0,highway_415.jpg,highway_60.jpg,7.0,A2OQ5LQ3YB4HX1
710,0.0,right,left,0.0,1.3196,0.0,50.0,50.0,50.0,1.0,badlands_228.jpg,badlands_184.jpg,6.0,A2OQ5LQ3YB4HX1
711,0.0,right,right,1.0,1.7422,0.0,51.0,51.0,51.0,1.0,playground_21.jpg,playground_219.jpg,8.0,A2OQ5LQ3YB4HX1
712,1.0,left,right,0.0,1.4418,0.0,52.0,52.0,52.0,1.0,playground_117.jpg,playground_127.jpg,7.0,A2OQ5LQ3YB4HX1
713,1.0,left,left,1.0,1.1489,0.0,53.0,53.0,53.0,1.0,golf_course_217.jpg,golf_course_262.jpg,7.0,A2OQ5LQ3YB4HX1
714,0.0,right,right,1.0,0.8754,0.0,54.0,54.0,54.0,1.0,highway_87.jpg,highway_177.jpg,8.0,A2OQ5LQ3YB4HX1
715,0.0,left,right,0.0,1.5067,0.0,55.0,55.0,55.0,1.0,golf_course_195.jpg,golf_course_25.jpg,7.0,A2OQ5LQ3YB4HX1
716,0.0,left,right,0.0,0.3089,0.0,56.0,56.0,56.0,1.0,playground_145.jpg,playground_229.jpg,8.0,A2OQ5LQ3YB4HX1
717,1.0,left,left,1.0,0.8508,0.0,57.0,57.0,57.0,1.0,golf_course_214.jpg,golf_course_317.jpg,7.0,A2OQ5LQ3YB4HX1
718,0.0,right,right,1.0,1.3392,0.0,58.0,58.0,58.0,1.0,mountain_94.jpg,mountain_123.jpg,7.0,A2OQ5LQ3YB4HX1
719,0.0,left,right,0.0,0.7602,0.0,59.0,59.0,59.0,1.0,golf_course_331.jpg,golf_course_114.jpg,8.0,A2OQ5LQ3YB4HX1
720,1.0,right,right,1.0,4.8785,0.0,0.0,0.0,0.0,1.0,highway_122.jpg,highway_209.jpg,8.0,A2U44IH2MUK32A
721,0.0,left,left,1.0,2.6919,0.0,1.0,1.0,1.0,1.0,bridge_172.jpg,bridge_17.jpg,3.0,A2U44IH2MUK32A
722,1.0,left,left,1.0,4.7142,0.0,2.0,2.0,2.0,1.0,badlands_113.jpg,badlands_203.jpg,8.0,A2U44IH2MUK32A
723,1.0,right,right,1.0,8.9302,0.0,3.0,3.0,3.0,1.0,playground_205.jpg,playground_219.jpg,7.0,A2U44IH2MUK32A
724,1.0,right,right,1.0,3.7772,0.0,4.0,4.0,4.0,1.0,golf_course_26.jpg,golf_course_331.jpg,7.0,A2U44IH2MUK32A
725,1.0,left,right,0.0,3.4104,0.0,5.0,5.0,5.0,1.0,mountain_293.jpg,mountain_47.jpg,6.0,A2U44IH2MUK32A
726,0.0,right,right,1.0,3.223,0.0,6.0,6.0,6.0,1.0,playground_2.jpg,playground_240.jpg,8.0,A2U44IH2MUK32A
727,0.0,left,left,1.0,1.6174,0.0,7.0,7.0,7.0,1.0,bridge_128.jpg,bridge_61.jpg,8.0,A2U44IH2MUK32A
728,1.0,right,left,0.0,2.6338,0.0,8.0,8.0,8.0,1.0,bridge_121.jpg,bridge_146.jpg,8.0,A2U44IH2MUK32A
729,1.0,left,left,1.0,6.7003,0.0,9.0,9.0,9.0,1.0,golf_course_217.jpg,golf_course_262.jpg,6.0,A2U44IH2MUK32A
730,1.0,right,right,1.0,4.9104,0.0,10.0,10.0,10.0,1.0,golf_course_123.jpg,golf_course_193.jpg,7.0,A2U44IH2MUK32A
731,0.0,left,right,0.0,3.0727,0.0,11.0,11.0,11.0,1.0,badlands_184.jpg,badlands_228.jpg,7.0,A2U44IH2MUK32A
732,1.0,left,right,0.0,5.5423,0.0,12.0,12.0,12.0,1.0,golf_course_214.jpg,golf_course_317.jpg,8.0,A2U44IH2MUK32A
733,0.0,right,right,1.0,3.4734,0.0,13.0,13.0,13.0,1.0,playground_229.jpg,playground_145.jpg,8.0,A2U44IH2MUK32A
734,1.0,right,left,0.0,3.0497,0.0,14.0,14.0,14.0,1.0,highway_206.jpg,highway_245.jpg,5.0,A2U44IH2MUK32A
735,1.0,left,left,1.0,3.0315,0.0,15.0,15.0,15.0,1.0,bridge_191.jpg,bridge_75.jpg,7.0,A2U44IH2MUK32A
736,1.0,left,left,1.0,1.6995,0.0,16.0,16.0,16.0,1.0,badlands_23.jpg,badlands_101.jpg,7.0,A2U44IH2MUK32A
737,0.0,left,left,1.0,3.3689,0.0,17.0,17.0,17.0,1.0,playground_60.jpg,playground_268.jpg,8.0,A2U44IH2MUK32A
738,1.0,left,left,1.0,3.9199,0.0,18.0,18.0,18.0,1.0,highway_294.jpg,highway_368.jpg,5.0,A2U44IH2MUK32A
739,1.0,left,left,1.0,2.3209,0.0,19.0,19.0,19.0,1.0,bridge_202.jpg,bridge_38.jpg,7.0,A2U44IH2MUK32A
740,0.0,left,right,0.0,2.0009,0.0,20.0,20.0,20.0,1.0,badlands_137.jpg,badlands_194.jpg,7.0,A2U44IH2MUK32A
741,1.0,right,right,1.0,2.5562,0.0,21.0,21.0,21.0,1.0,mountain_54.jpg,mountain_232.jpg,7.0,A2U44IH2MUK32A
742,1.0,right,right,1.0,2.3323,0.0,22.0,22.0,22.0,1.0,highway_406.jpg,highway_394.jpg,6.0,A2U44IH2MUK32A
743,0.0,right,right,1.0,2.937,0.0,23.0,23.0,23.0,1.0,mountain_94.jpg,mountain_123.jpg,2.0,A2U44IH2MUK32A
744,0.0,left,left,1.0,3.0658,0.0,24.0,24.0,24.0,1.0,golf_course_188.jpg,golf_course_157.jpg,5.0,A2U44IH2MUK32A
745,1.0,left,left,1.0,2.3053,0.0,25.0,25.0,25.0,1.0,badlands_21.jpg,badlands_98.jpg,3.0,A2U44IH2MUK32A
746,0.0,right,left,0.0,2.6848,0.0,26.0,26.0,26.0,1.0,highway_160.jpg,highway_156.jpg,3.0,A2U44IH2MUK32A
747,0.0,left,left,1.0,2.4575,0.0,27.0,27.0,27.0,1.0,mountain_154.jpg,mountain_131.jpg,4.0,A2U44IH2MUK32A
748,1.0,right,left,0.0,2.0881,0.0,28.0,28.0,28.0,1.0,mountain_221.jpg,mountain_101.jpg,3.0,A2U44IH2MUK32A
749,0.0,right,right,1.0,1.9225,0.0,29.0,29.0,29.0,1.0,badlands_34.jpg,badlands_222.jpg,6.0,A2U44IH2MUK32A
750,0.0,right,right,1.0,2.2822,0.0,30.0,30.0,30.0,1.0,badlands_3.jpg,badlands_24.jpg,4.0,A2U44IH2MUK32A
751,0.0,left,left,1.0,5.0462,0.0,31.0,31.0,31.0,1.0,golf_course_15.jpg,golf_course_113.jpg,6.0,A2U44IH2MUK32A
752,0.0,left,left,1.0,2.2362,0.0,32.0,32.0,32.0,1.0,mountain_110.jpg,mountain_157.jpg,5.0,A2U44IH2MUK32A
753,1.0,left,left,1.0,1.7395,0.0,33.0,33.0,33.0,1.0,badlands_70.jpg,badlands_119.jpg,5.0,A2U44IH2MUK32A
754,1.0,right,left,0.0,3.0374,0.0,34.0,34.0,34.0,1.0,playground_215.jpg,playground_257.jpg,5.0,A2U44IH2MUK32A
755,1.0,right,left,0.0,3.0303,0.0,35.0,35.0,35.0,1.0,badlands_207.jpg,badlands_221.jpg,4.0,A2U44IH2MUK32A
756,0.0,left,right,0.0,2.2066,0.0,36.0,36.0,36.0,1.0,golf_course_309.jpg,golf_course_16.jpg,7.0,A2U44IH2MUK32A
757,0.0,right,right,1.0,1.8984,0.0,37.0,37.0,37.0,1.0,highway_60.jpg,highway_415.jpg,4.0,A2U44IH2MUK32A
758,0.0,left,left,1.0,4.0204,0.0,38.0,38.0,38.0,1.0,bridge_65.jpg,bridge_181.jpg,7.0,A2U44IH2MUK32A
759,0.0,right,left,0.0,4.1219,0.0,39.0,39.0,39.0,1.0,highway_384.jpg,highway_273.jpg,4.0,A2U44IH2MUK32A
760,1.0,left,left,1.0,5.4237,0.0,40.0,40.0,40.0,1.0,playground_144.jpg,playground_65.jpg,6.0,A2U44IH2MUK32A
761,0.0,left,left,1.0,2.5008,0.0,41.0,41.0,41.0,1.0,mountain_156.jpg,mountain_128.jpg,6.0,A2U44IH2MUK32A
762,1.0,left,left,1.0,1.7264,0.0,42.0,42.0,42.0,1.0,mountain_57.jpg,mountain_138.jpg,6.0,A2U44IH2MUK32A
763,1.0,left,left,1.0,3.5146,0.0,43.0,43.0,43.0,1.0,highway_93.jpg,highway_369.jpg,7.0,A2U44IH2MUK32A
764,0.0,right,right,1.0,1.4988,0.0,44.0,44.0,44.0,1.0,highway_87.jpg,highway_177.jpg,4.0,A2U44IH2MUK32A
765,1.0,right,right,1.0,2.3348,0.0,45.0,45.0,45.0,1.0,bridge_148.jpg,bridge_108.jpg,7.0,A2U44IH2MUK32A
766,0.0,left,left,1.0,2.3662,0.0,46.0,46.0,46.0,1.0,mountain_230.jpg,mountain_184.jpg,5.0,A2U44IH2MUK32A
767,1.0,right,right,1.0,2.7422,0.0,47.0,47.0,47.0,1.0,playground_72.jpg,playground_76.jpg,7.0,A2U44IH2MUK32A
768,0.0,right,left,0.0,2.5597,0.0,48.0,48.0,48.0,1.0,playground_167.jpg,playground_117.jpg,7.0,A2U44IH2MUK32A
769,1.0,left,left,1.0,2.0241,0.0,49.0,49.0,49.0,1.0,golf_course_78.jpg,golf_course_101.jpg,5.0,A2U44IH2MUK32A
770,0.0,left,left,1.0,2.812,0.0,50.0,50.0,50.0,1.0,badlands_52.jpg,badlands_94.jpg,5.0,A2U44IH2MUK32A
771,1.0,right,right,1.0,1.9436,0.0,51.0,51.0,51.0,1.0,bridge_205.jpg,bridge_250.jpg,6.0,A2U44IH2MUK32A
772,1.0,left,right,0.0,1.7323,0.0,52.0,52.0,52.0,1.0,mountain_222.jpg,mountain_93.jpg,7.0,A2U44IH2MUK32A
773,0.0,left,left,1.0,1.6972,0.0,53.0,53.0,53.0,1.0,highway_359.jpg,highway_389.jpg,4.0,A2U44IH2MUK32A
774,0.0,right,right,1.0,2.1666,0.0,54.0,54.0,54.0,1.0,golf_course_130.jpg,golf_course_87.jpg,6.0,A2U44IH2MUK32A
775,0.0,right,right,1.0,2.6606,0.0,55.0,55.0,55.0,1.0,playground_43.jpg,playground_131.jpg,4.0,A2U44IH2MUK32A
776,0.0,right,right,1.0,1.7474,0.0,56.0,56.0,56.0,1.0,bridge_54.jpg,bridge_256.jpg,4.0,A2U44IH2MUK32A
777,1.0,left,right,0.0,2.169,0.0,57.0,57.0,57.0,1.0,playground_10.jpg,playground_12.jpg,6.0,A2U44IH2MUK32A
778,0.0,right,right,1.0,2.4324,0.0,58.0,58.0,58.0,1.0,golf_course_25.jpg,golf_course_195.jpg,4.0,A2U44IH2MUK32A
779,0.0,left,left,1.0,5.7253,0.0,59.0,59.0,59.0,1.0,bridge_91.jpg,bridge_253.jpg,4.0,A2U44IH2MUK32A
780,1.0,left,right,0.0,5.009,0.0,0.0,0.0,0.0,1.0,mountain_293.jpg,mountain_47.jpg,7.0,A2WHAIUPGYCFN6
781,0.0,right,right,1.0,2.171,0.0,1.0,1.0,1.0,1.0,playground_2.jpg,playground_240.jpg,6.0,A2WHAIUPGYCFN6
782,1.0,left,left,1.0,1.764,0.0,2.0,2.0,2.0,1.0,golf_course_78.jpg,golf_course_101.jpg,6.0,A2WHAIUPGYCFN6
783,0.0,right,right,1.0,2.922,0.0,3.0,3.0,3.0,1.0,playground_167.jpg,playground_117.jpg,9.0,A2WHAIUPGYCFN6
784,0.0,left,right,0.0,2.885,0.0,4.0,4.0,4.0,1.0,bridge_108.jpg,bridge_116.jpg,8.0,A2WHAIUPGYCFN6
785,0.0,left,left,1.0,7.712,0.0,5.0,5.0,5.0,1.0,golf_course_309.jpg,golf_course_16.jpg,7.0,A2WHAIUPGYCFN6
786,0.0,right,right,1.0,6.055,0.0,6.0,6.0,6.0,1.0,playground_137.jpg,playground_144.jpg,8.0,A2WHAIUPGYCFN6
787,1.0,left,left,1.0,1.781,0.0,7.0,7.0,7.0,1.0,bridge_65.jpg,bridge_60.jpg,7.0,A2WHAIUPGYCFN6
788,0.0,left,left,1.0,2.389,0.0,8.0,8.0,8.0,1.0,bridge_91.jpg,bridge_253.jpg,8.0,A2WHAIUPGYCFN6
789,0.0,left,right,0.0,1.482,0.0,9.0,9.0,9.0,1.0,playground_145.jpg,playground_229.jpg,7.0,A2WHAIUPGYCFN6
790,1.0,right,left,0.0,1.78,0.0,10.0,10.0,10.0,1.0,bridge_163.jpg,bridge_172.jpg,9.0,A2WHAIUPGYCFN6
791,1.0,left,left,1.0,2.472,0.0,11.0,11.0,11.0,1.0,bridge_202.jpg,bridge_38.jpg,8.0,A2WHAIUPGYCFN6
792,1.0,left,right,0.0,1.401,0.0,12.0,12.0,12.0,1.0,bridge_128.jpg,bridge_244.jpg,8.0,A2WHAIUPGYCFN6
793,1.0,right,right,1.0,1.618,0.0,13.0,13.0,13.0,1.0,badlands_98.jpg,badlands_21.jpg,8.0,A2WHAIUPGYCFN6
794,0.0,right,right,1.0,1.549,0.0,14.0,14.0,14.0,1.0,badlands_228.jpg,badlands_184.jpg,8.0,A2WHAIUPGYCFN6
795,0.0,right,left,0.0,2.083,0.0,15.0,15.0,15.0,1.0,badlands_102.jpg,badlands_70.jpg,8.0,A2WHAIUPGYCFN6
796,0.0,right,right,1.0,1.743,0.0,16.0,16.0,16.0,1.0,golf_course_113.jpg,golf_course_15.jpg,6.0,A2WHAIUPGYCFN6
797,1.0,right,right,1.0,1.358,0.0,17.0,17.0,17.0,1.0,highway_122.jpg,highway_209.jpg,9.0,A2WHAIUPGYCFN6
798,0.0,left,left,1.0,1.905,0.0,18.0,18.0,18.0,1.0,highway_294.jpg,highway_203.jpg,8.0,A2WHAIUPGYCFN6
799,1.0,right,left,0.0,2.814,0.0,19.0,19.0,19.0,1.0,highway_171.jpg,highway_273.jpg,8.0,A2WHAIUPGYCFN6
800,1.0,left,right,0.0,3.535,0.0,20.0,20.0,20.0,1.0,badlands_113.jpg,badlands_203.jpg,8.0,A2WHAIUPGYCFN6
801,0.0,right,right,1.0,3.458,0.0,21.0,21.0,21.0,1.0,playground_214.jpg,playground_257.jpg,8.0,A2WHAIUPGYCFN6
802,1.0,left,right,0.0,3.156,0.0,22.0,22.0,22.0,1.0,playground_10.jpg,playground_12.jpg,8.0,A2WHAIUPGYCFN6
803,1.0,right,right,1.0,3.419,0.0,23.0,23.0,23.0,1.0,golf_course_123.jpg,golf_course_193.jpg,8.0,A2WHAIUPGYCFN6
804,1.0,left,left,1.0,1.278,0.0,24.0,24.0,24.0,1.0,mountain_57.jpg,mountain_138.jpg,8.0,A2WHAIUPGYCFN6
805,0.0,right,left,0.0,2.601,0.0,25.0,25.0,25.0,1.0,mountain_3.jpg,mountain_232.jpg,8.0,A2WHAIUPGYCFN6
806,1.0,left,right,0.0,1.349,0.0,26.0,26.0,26.0,1.0,highway_93.jpg,highway_369.jpg,8.0,A2WHAIUPGYCFN6
807,1.0,right,right,1.0,1.53,0.0,27.0,27.0,27.0,1.0,playground_72.jpg,playground_76.jpg,8.0,A2WHAIUPGYCFN6
808,1.0,right,right,1.0,1.186,0.0,28.0,28.0,28.0,1.0,golf_course_161.jpg,golf_course_87.jpg,8.0,A2WHAIUPGYCFN6
809,0.0,right,right,1.0,1.44,0.0,29.0,29.0,29.0,1.0,badlands_194.jpg,badlands_137.jpg,8.0,A2WHAIUPGYCFN6
810,1.0,right,left,0.0,1.544,0.0,30.0,30.0,30.0,1.0,highway_206.jpg,highway_245.jpg,8.0,A2WHAIUPGYCFN6
811,1.0,right,right,1.0,1.336,0.0,31.0,31.0,31.0,1.0,highway_406.jpg,highway_394.jpg,8.0,A2WHAIUPGYCFN6
812,0.0,right,left,0.0,1.59,0.0,32.0,32.0,32.0,1.0,badlands_34.jpg,badlands_222.jpg,7.0,A2WHAIUPGYCFN6
813,1.0,right,left,0.0,1.745,0.0,33.0,33.0,33.0,1.0,golf_course_262.jpg,golf_course_217.jpg,8.0,A2WHAIUPGYCFN6
814,0.0,left,left,1.0,2.981,0.0,34.0,34.0,34.0,1.0,golf_course_195.jpg,golf_course_25.jpg,8.0,A2WHAIUPGYCFN6
815,0.0,left,right,0.0,6.184,0.0,35.0,35.0,35.0,1.0,mountain_156.jpg,mountain_128.jpg,8.0,A2WHAIUPGYCFN6
816,0.0,right,left,0.0,3.386,0.0,36.0,36.0,36.0,1.0,highway_60.jpg,highway_415.jpg,8.0,A2WHAIUPGYCFN6
817,0.0,left,left,1.0,3.177,0.0,37.0,37.0,37.0,1.0,golf_course_214.jpg,golf_course_312.jpg,8.0,A2WHAIUPGYCFN6
818,0.0,left,right,0.0,5.357,0.0,38.0,38.0,38.0,1.0,highway_156.jpg,highway_160.jpg,8.0,A2WHAIUPGYCFN6
819,1.0,left,right,0.0,1.395,0.0,39.0,39.0,39.0,1.0,badlands_24.jpg,badlands_53.jpg,7.0,A2WHAIUPGYCFN6
820,1.0,left,left,1.0,2.445,0.0,40.0,40.0,40.0,1.0,badlands_221.jpg,badlands_207.jpg,8.0,A2WHAIUPGYCFN6
821,1.0,right,right,1.0,7.289,0.0,41.0,41.0,41.0,1.0,playground_244.jpg,playground_60.jpg,8.0,A2WHAIUPGYCFN6
822,0.0,right,right,1.0,1.685,0.0,42.0,42.0,42.0,1.0,golf_course_114.jpg,golf_course_331.jpg,7.0,A2WHAIUPGYCFN6
823,0.0,right,right,1.0,4.714,0.0,43.0,43.0,43.0,1.0,bridge_27.jpg,bridge_146.jpg,7.0,A2WHAIUPGYCFN6
824,0.0,left,right,0.0,5.465,0.0,44.0,44.0,44.0,1.0,highway_177.jpg,highway_87.jpg,7.0,A2WHAIUPGYCFN6
825,1.0,left,right,0.0,1.296,0.0,45.0,45.0,45.0,1.0,bridge_256.jpg,bridge_211.jpg,8.0,A2WHAIUPGYCFN6
826,1.0,left,left,1.0,2.103,0.0,46.0,46.0,46.0,1.0,golf_course_188.jpg,golf_course_160.jpg,7.0,A2WHAIUPGYCFN6
827,0.0,right,left,0.0,5.116,0.0,47.0,47.0,47.0,1.0,badlands_114.jpg,badlands_23.jpg,8.0,A2WHAIUPGYCFN6
828,0.0,right,right,1.0,1.998,0.0,48.0,48.0,48.0,1.0,mountain_184.jpg,mountain_230.jpg,8.0,A2WHAIUPGYCFN6
829,1.0,right,left,0.0,1.582,0.0,49.0,49.0,49.0,1.0,mountain_93.jpg,mountain_222.jpg,7.0,A2WHAIUPGYCFN6
830,0.0,right,right,1.0,1.668,0.0,50.0,50.0,50.0,1.0,bridge_184.jpg,bridge_191.jpg,5.0,A2WHAIUPGYCFN6
831,1.0,right,right,1.0,1.615,0.0,51.0,51.0,51.0,1.0,mountain_223.jpg,mountain_110.jpg,8.0,A2WHAIUPGYCFN6
832,0.0,left,right,0.0,2.171,0.0,52.0,52.0,52.0,1.0,bridge_250.jpg,bridge_134.jpg,8.0,A2WHAIUPGYCFN6
833,1.0,left,left,1.0,1.498,0.0,53.0,53.0,53.0,1.0,badlands_52.jpg,badlands_63.jpg,7.0,A2WHAIUPGYCFN6
834,1.0,left,left,1.0,8.15,0.0,54.0,54.0,54.0,1.0,playground_219.jpg,playground_205.jpg,8.0,A2WHAIUPGYCFN6
835,0.0,right,right,1.0,28.554,0.0,55.0,55.0,55.0,1.0,highway_389.jpg,highway_359.jpg,8.0,A2WHAIUPGYCFN6
836,0.0,right,right,1.0,3.743,0.0,56.0,56.0,56.0,1.0,mountain_131.jpg,mountain_154.jpg,8.0,A2WHAIUPGYCFN6
837,0.0,right,right,1.0,2.235,0.0,57.0,57.0,57.0,1.0,mountain_171.jpg,mountain_101.jpg,7.0,A2WHAIUPGYCFN6
838,1.0,right,right,1.0,1.932,0.0,58.0,58.0,58.0,1.0,playground_164.jpg,playground_131.jpg,8.0,A2WHAIUPGYCFN6
839,1.0,left,left,1.0,1.75,0.0,59.0,59.0,59.0,1.0,mountain_123.jpg,mountain_189.jpg,7.0,A2WHAIUPGYCFN6
840,1.0,left,left,1.0,14.524,0.0,0.0,0.0,0.0,1.0,mountain_101.jpg,mountain_221.jpg,5.0,A2Z2WC3DJQ38RH
841,1.0,left,left,1.0,11.698,0.0,1.0,1.0,1.0,1.0,mountain_57.jpg,mountain_138.jpg,6.0,A2Z2WC3DJQ38RH
842,1.0,left,left,1.0,2.953,0.0,2.0,2.0,2.0,1.0,badlands_221.jpg,badlands_207.jpg,4.0,A2Z2WC3DJQ38RH
843,1.0,left,right,0.0,3.15,0.0,3.0,3.0,3.0,1.0,golf_course_193.jpg,golf_course_123.jpg,7.0,A2Z2WC3DJQ38RH
844,0.0,left,left,1.0,1.948,0.0,4.0,4.0,4.0,1.0,badlands_24.jpg,badlands_3.jpg,6.0,A2Z2WC3DJQ38RH
845,0.0,left,right,0.0,3.142,0.0,5.0,5.0,5.0,1.0,highway_156.jpg,highway_160.jpg,6.0,A2Z2WC3DJQ38RH
846,1.0,right,left,0.0,2.705,0.0,6.0,6.0,6.0,1.0,playground_242.jpg,playground_145.jpg,6.0,A2Z2WC3DJQ38RH
847,0.0,right,right,1.0,2.675,0.0,7.0,7.0,7.0,1.0,mountain_244.jpg,mountain_222.jpg,7.0,A2Z2WC3DJQ38RH
848,1.0,right,left,0.0,1.719,0.0,8.0,8.0,8.0,1.0,golf_course_97.jpg,golf_course_15.jpg,5.0,A2Z2WC3DJQ38RH
849,1.0,left,right,0.0,2.644,0.0,9.0,9.0,9.0,1.0,golf_course_309.jpg,golf_course_209.jpg,6.0,A2Z2WC3DJQ38RH
850,0.0,right,right,1.0,0.192,0.0,10.0,10.0,10.0,1.0,bridge_184.jpg,bridge_191.jpg,6.0,A2Z2WC3DJQ38RH
851,0.0,right,right,1.0,1.766,0.0,11.0,11.0,11.0,1.0,golf_course_114.jpg,golf_course_331.jpg,7.0,A2Z2WC3DJQ38RH
852,1.0,right,right,1.0,2.712,0.0,12.0,12.0,12.0,1.0,mountain_95.jpg,mountain_154.jpg,7.0,A2Z2WC3DJQ38RH
853,1.0,right,right,1.0,0.857,0.0,13.0,13.0,13.0,1.0,badlands_101.jpg,badlands_23.jpg,7.0,A2Z2WC3DJQ38RH
854,0.0,left,right,0.0,0.782,0.0,14.0,14.0,14.0,1.0,golf_course_87.jpg,golf_course_130.jpg,7.0,A2Z2WC3DJQ38RH
855,1.0,left,left,1.0,2.276,0.0,15.0,15.0,15.0,1.0,badlands_52.jpg,badlands_63.jpg,7.0,A2Z2WC3DJQ38RH
856,0.0,right,right,1.0,0.223,0.0,16.0,16.0,16.0,1.0,badlands_228.jpg,badlands_184.jpg,4.0,A2Z2WC3DJQ38RH
857,0.0,right,right,1.0,3.355,0.0,17.0,17.0,17.0,1.0,bridge_31.jpg,bridge_202.jpg,7.0,A2Z2WC3DJQ38RH
858,1.0,right,left,0.0,1.578,0.0,18.0,18.0,18.0,1.0,bridge_205.jpg,bridge_250.jpg,6.0,A2Z2WC3DJQ38RH
859,1.0,right,left,0.0,1.88,0.0,19.0,19.0,19.0,1.0,bridge_82.jpg,bridge_91.jpg,6.0,A2Z2WC3DJQ38RH
860,0.0,right,right,1.0,2.152,0.0,20.0,20.0,20.0,1.0,highway_87.jpg,highway_177.jpg,4.0,A2Z2WC3DJQ38RH
861,0.0,left,right,0.0,3.069,0.0,21.0,21.0,21.0,1.0,golf_course_188.jpg,golf_course_157.jpg,7.0,A2Z2WC3DJQ38RH
862,0.0,left,left,1.0,1.785,0.0,22.0,22.0,22.0,1.0,mountain_232.jpg,mountain_3.jpg,6.0,A2Z2WC3DJQ38RH
863,1.0,left,left,1.0,0.734,0.0,23.0,23.0,23.0,1.0,badlands_222.jpg,badlands_62.jpg,7.0,A2Z2WC3DJQ38RH
864,0.0,left,left,1.0,2.046,0.0,24.0,24.0,24.0,1.0,badlands_70.jpg,badlands_102.jpg,6.0,A2Z2WC3DJQ38RH
865,1.0,right,right,1.0,2.453,0.0,25.0,25.0,25.0,1.0,bridge_163.jpg,bridge_172.jpg,7.0,A2Z2WC3DJQ38RH
866,0.0,left,right,0.0,0.69,0.0,26.0,26.0,26.0,1.0,mountain_293.jpg,mountain_72.jpg,6.0,A2Z2WC3DJQ38RH
867,1.0,left,right,0.0,0.57,0.0,27.0,27.0,27.0,1.0,highway_93.jpg,highway_369.jpg,8.0,A2Z2WC3DJQ38RH
868,0.0,right,left,0.0,2.18,0.0,28.0,28.0,28.0,1.0,golf_course_312.jpg,golf_course_214.jpg,6.0,A2Z2WC3DJQ38RH
869,0.0,left,left,1.0,1.121,0.0,29.0,29.0,29.0,1.0,highway_294.jpg,highway_203.jpg,7.0,A2Z2WC3DJQ38RH
870,1.0,right,left,0.0,2.035,0.0,30.0,30.0,30.0,1.0,golf_course_101.jpg,golf_course_78.jpg,5.0,A2Z2WC3DJQ38RH
871,1.0,right,left,0.0,3.033,0.0,31.0,31.0,31.0,1.0,bridge_60.jpg,bridge_65.jpg,4.0,A2Z2WC3DJQ38RH
872,0.0,left,right,0.0,1.656,0.0,32.0,32.0,32.0,1.0,badlands_137.jpg,badlands_194.jpg,6.0,A2Z2WC3DJQ38RH
873,0.0,left,right,0.0,1.198,0.0,33.0,33.0,33.0,1.0,playground_76.jpg,playground_22.jpg,7.0,A2Z2WC3DJQ38RH
874,0.0,left,left,1.0,6.577,0.0,34.0,34.0,34.0,1.0,bridge_108.jpg,bridge_116.jpg,5.0,A2Z2WC3DJQ38RH
875,0.0,right,left,0.0,0.28,0.0,35.0,35.0,35.0,1.0,golf_course_35.jpg,golf_course_217.jpg,6.0,A2Z2WC3DJQ38RH
876,0.0,left,right,0.0,0.929,0.0,36.0,36.0,36.0,1.0,badlands_21.jpg,badlands_1.jpg,7.0,A2Z2WC3DJQ38RH
877,0.0,right,left,0.0,0.97,0.0,37.0,37.0,37.0,1.0,bridge_54.jpg,bridge_256.jpg,6.0,A2Z2WC3DJQ38RH
878,0.0,left,right,0.0,1.695,0.0,38.0,38.0,38.0,1.0,mountain_156.jpg,mountain_128.jpg,7.0,A2Z2WC3DJQ38RH
879,1.0,right,left,0.0,0.77,0.0,39.0,39.0,39.0,1.0,mountain_223.jpg,mountain_110.jpg,6.0,A2Z2WC3DJQ38RH
880,1.0,right,left,0.0,0.821,0.0,40.0,40.0,40.0,1.0,highway_122.jpg,highway_209.jpg,7.0,A2Z2WC3DJQ38RH
881,1.0,right,right,1.0,1.591,0.0,41.0,41.0,41.0,1.0,badlands_203.jpg,badlands_113.jpg,7.0,A2Z2WC3DJQ38RH
882,0.0,right,left,0.0,1.411,0.0,42.0,42.0,42.0,1.0,highway_134.jpg,highway_245.jpg,7.0,A2Z2WC3DJQ38RH
883,0.0,right,left,0.0,1.812,0.0,43.0,43.0,43.0,1.0,playground_122.jpg,playground_10.jpg,6.0,A2Z2WC3DJQ38RH
884,1.0,right,right,1.0,1.454,0.0,44.0,44.0,44.0,1.0,highway_406.jpg,highway_394.jpg,7.0,A2Z2WC3DJQ38RH
885,1.0,right,left,0.0,1.217,0.0,45.0,45.0,45.0,1.0,highway_174.jpg,highway_415.jpg,6.0,A2Z2WC3DJQ38RH
886,1.0,right,right,1.0,3.149,0.0,46.0,46.0,46.0,1.0,playground_215.jpg,playground_257.jpg,7.0,A2Z2WC3DJQ38RH
887,1.0,right,left,0.0,1.096,0.0,47.0,47.0,47.0,1.0,highway_379.jpg,highway_359.jpg,7.0,A2Z2WC3DJQ38RH
888,1.0,right,right,1.0,0.423,0.0,48.0,48.0,48.0,1.0,golf_course_2.jpg,golf_course_195.jpg,6.0,A2Z2WC3DJQ38RH
889,1.0,right,right,1.0,3.526,0.0,49.0,49.0,49.0,1.0,mountain_97.jpg,mountain_230.jpg,7.0,A2Z2WC3DJQ38RH
890,1.0,right,left,0.0,2.876,0.0,50.0,50.0,50.0,1.0,playground_127.jpg,playground_117.jpg,6.0,A2Z2WC3DJQ38RH
891,0.0,right,right,1.0,0.969,0.0,51.0,51.0,51.0,1.0,playground_2.jpg,playground_240.jpg,7.0,A2Z2WC3DJQ38RH
892,0.0,left,right,0.0,0.367,0.0,52.0,52.0,52.0,1.0,playground_131.jpg,playground_43.jpg,6.0,A2Z2WC3DJQ38RH
893,1.0,left,right,0.0,2.11,0.0,53.0,53.0,53.0,1.0,playground_219.jpg,playground_205.jpg,7.0,A2Z2WC3DJQ38RH
894,1.0,left,left,1.0,1.522,0.0,54.0,54.0,54.0,1.0,bridge_146.jpg,bridge_121.jpg,6.0,A2Z2WC3DJQ38RH
895,0.0,left,right,0.0,2.635,0.0,55.0,55.0,55.0,1.0,bridge_128.jpg,bridge_61.jpg,7.0,A2Z2WC3DJQ38RH
896,0.0,left,right,0.0,1.75,0.0,56.0,56.0,56.0,1.0,highway_273.jpg,highway_384.jpg,7.0,A2Z2WC3DJQ38RH
897,0.0,left,left,1.0,1.506,0.0,57.0,57.0,57.0,1.0,playground_60.jpg,playground_268.jpg,6.0,A2Z2WC3DJQ38RH
898,0.0,left,left,1.0,1.947,0.0,58.0,58.0,58.0,1.0,mountain_123.jpg,mountain_94.jpg,7.0,A2Z2WC3DJQ38RH
899,1.0,right,left,0.0,3.118,0.0,59.0,59.0,59.0,1.0,playground_65.jpg,playground_144.jpg,6.0,A2Z2WC3DJQ38RH
900,1.0,right,left,0.0,14.3964,0.0,0.0,0.0,0.0,1.0,playground_72.jpg,playground_76.jpg,4.0,A36U8EYFWM1EL5
901,0.0,right,right,1.0,5.8057,0.0,1.0,1.0,1.0,1.0,golf_course_16.jpg,golf_course_309.jpg,7.0,A36U8EYFWM1EL5
902,1.0,left,left,1.0,4.6187,0.0,2.0,2.0,2.0,1.0,playground_60.jpg,playground_244.jpg,6.0,A36U8EYFWM1EL5
903,0.0,right,right,1.0,3.8849,0.0,3.0,3.0,3.0,1.0,bridge_17.jpg,bridge_172.jpg,6.0,A36U8EYFWM1EL5
904,1.0,right,left,0.0,13.452,0.0,4.0,4.0,4.0,1.0,mountain_54.jpg,mountain_232.jpg,5.0,A36U8EYFWM1EL5
905,0.0,left,left,1.0,2.6019,0.0,5.0,5.0,5.0,1.0,golf_course_217.jpg,golf_course_35.jpg,5.0,A36U8EYFWM1EL5
906,0.0,right,right,1.0,2.4018,0.0,6.0,6.0,6.0,1.0,highway_85.jpg,highway_93.jpg,5.0,A36U8EYFWM1EL5
907,1.0,left,left,1.0,2.5229,0.0,7.0,7.0,7.0,1.0,mountain_101.jpg,mountain_221.jpg,6.0,A36U8EYFWM1EL5
908,1.0,right,left,0.0,4.5879,0.0,8.0,8.0,8.0,1.0,bridge_148.jpg,bridge_108.jpg,6.0,A36U8EYFWM1EL5
909,0.0,left,left,1.0,2.0096,0.0,9.0,9.0,9.0,1.0,highway_209.jpg,highway_314.jpg,6.0,A36U8EYFWM1EL5
910,0.0,right,right,1.0,2.3302,0.0,10.0,10.0,10.0,1.0,playground_167.jpg,playground_117.jpg,6.0,A36U8EYFWM1EL5
911,1.0,right,right,1.0,2.9679,0.0,11.0,11.0,11.0,1.0,bridge_38.jpg,bridge_202.jpg,6.0,A36U8EYFWM1EL5
912,0.0,right,left,0.0,4.784,0.0,12.0,12.0,12.0,1.0,badlands_102.jpg,badlands_70.jpg,7.0,A36U8EYFWM1EL5
913,1.0,left,right,0.0,2.4914,0.0,13.0,13.0,13.0,1.0,mountain_293.jpg,mountain_47.jpg,7.0,A36U8EYFWM1EL5
914,1.0,right,right,1.0,1.6805,0.0,14.0,14.0,14.0,1.0,bridge_244.jpg,bridge_128.jpg,7.0,A36U8EYFWM1EL5
915,1.0,right,right,1.0,2.7076,0.0,15.0,15.0,15.0,1.0,highway_293.jpg,highway_156.jpg,7.0,A36U8EYFWM1EL5
916,1.0,right,right,1.0,18.3975,0.0,16.0,16.0,16.0,1.0,playground_40.jpg,playground_240.jpg,7.0,A36U8EYFWM1EL5
917,1.0,left,left,1.0,74.6907,0.0,17.0,17.0,17.0,1.0,golf_course_193.jpg,golf_course_123.jpg,6.0,A36U8EYFWM1EL5
918,0.0,right,right,1.0,6.5319,0.0,18.0,18.0,18.0,1.0,playground_137.jpg,playground_144.jpg,6.0,A36U8EYFWM1EL5
919,0.0,right,left,0.0,2.5909,0.0,19.0,19.0,19.0,1.0,playground_214.jpg,playground_257.jpg,6.0,A36U8EYFWM1EL5
920,0.0,right,right,1.0,1.4296,0.0,20.0,20.0,20.0,1.0,mountain_157.jpg,mountain_110.jpg,6.0,A36U8EYFWM1EL5
921,1.0,left,left,1.0,1.6839,0.0,21.0,21.0,21.0,1.0,badlands_23.jpg,badlands_101.jpg,6.0,A36U8EYFWM1EL5
922,1.0,left,right,0.0,1.7176,0.0,22.0,22.0,22.0,1.0,highway_273.jpg,highway_171.jpg,6.0,A36U8EYFWM1EL5
923,1.0,left,right,0.0,3.4933,0.0,23.0,23.0,23.0,1.0,bridge_250.jpg,bridge_205.jpg,6.0,A36U8EYFWM1EL5
924,0.0,right,right,1.0,1.4856,0.0,24.0,24.0,24.0,1.0,highway_204.jpg,highway_394.jpg,6.0,A36U8EYFWM1EL5
925,1.0,right,right,1.0,1.7368,0.0,25.0,25.0,25.0,1.0,badlands_103.jpg,badlands_184.jpg,6.0,A36U8EYFWM1EL5
926,1.0,right,left,0.0,1.7093,0.0,26.0,26.0,26.0,1.0,highway_368.jpg,highway_294.jpg,6.0,A36U8EYFWM1EL5
927,0.0,left,left,1.0,1.6836,0.0,27.0,27.0,27.0,1.0,bridge_191.jpg,bridge_184.jpg,6.0,A36U8EYFWM1EL5
928,1.0,left,left,1.0,1.7464,0.0,28.0,28.0,28.0,1.0,golf_course_214.jpg,golf_course_317.jpg,6.0,A36U8EYFWM1EL5
929,0.0,left,right,0.0,2.3617,0.0,29.0,29.0,29.0,1.0,badlands_52.jpg,badlands_94.jpg,6.0,A36U8EYFWM1EL5
930,0.0,left,left,1.0,1.7935,0.0,30.0,30.0,30.0,1.0,mountain_123.jpg,mountain_94.jpg,6.0,A36U8EYFWM1EL5
931,1.0,left,right,0.0,1.3693,0.0,31.0,31.0,31.0,1.0,badlands_221.jpg,badlands_207.jpg,6.0,A36U8EYFWM1EL5
932,0.0,left,right,0.0,1.5388,0.0,32.0,32.0,32.0,1.0,golf_course_331.jpg,golf_course_114.jpg,6.0,A36U8EYFWM1EL5
933,0.0,right,right,1.0,3.9358,0.0,33.0,33.0,33.0,1.0,golf_course_25.jpg,golf_course_195.jpg,6.0,A36U8EYFWM1EL5
934,0.0,left,right,0.0,1.5455,0.0,34.0,34.0,34.0,1.0,playground_145.jpg,playground_229.jpg,6.0,A36U8EYFWM1EL5
935,0.0,right,left,0.0,1.4189,0.0,35.0,35.0,35.0,1.0,golf_course_157.jpg,golf_course_188.jpg,6.0,A36U8EYFWM1EL5
936,0.0,left,left,1.0,1.963,0.0,36.0,36.0,36.0,1.0,badlands_137.jpg,badlands_194.jpg,7.0,A36U8EYFWM1EL5
937,0.0,left,left,1.0,1.638,0.0,37.0,37.0,37.0,1.0,bridge_256.jpg,bridge_54.jpg,7.0,A36U8EYFWM1EL5
938,0.0,left,left,1.0,1.3477,0.0,38.0,38.0,38.0,1.0,highway_415.jpg,highway_60.jpg,6.0,A36U8EYFWM1EL5
939,0.0,left,left,1.0,9.8483,0.0,39.0,39.0,39.0,1.0,highway_245.jpg,highway_134.jpg,6.0,A36U8EYFWM1EL5
940,0.0,right,left,0.0,1.6907,0.0,40.0,40.0,40.0,1.0,badlands_3.jpg,badlands_24.jpg,6.0,A36U8EYFWM1EL5
941,1.0,left,right,0.0,2.0245,0.0,41.0,41.0,41.0,1.0,playground_131.jpg,playground_164.jpg,6.0,A36U8EYFWM1EL5
942,1.0,right,left,0.0,1.7311,0.0,42.0,42.0,42.0,1.0,badlands_203.jpg,badlands_113.jpg,6.0,A36U8EYFWM1EL5
943,1.0,right,right,1.0,1.8705,0.0,43.0,43.0,43.0,1.0,golf_course_101.jpg,golf_course_78.jpg,6.0,A36U8EYFWM1EL5
944,1.0,right,right,1.0,5.8332,0.0,44.0,44.0,44.0,1.0,mountain_93.jpg,mountain_222.jpg,6.0,A36U8EYFWM1EL5
945,1.0,left,left,1.0,1.6425,0.0,45.0,45.0,45.0,1.0,playground_219.jpg,playground_205.jpg,6.0,A36U8EYFWM1EL5
946,1.0,left,right,0.0,1.3744,0.0,46.0,46.0,46.0,1.0,highway_177.jpg,highway_278.jpg,6.0,A36U8EYFWM1EL5
947,1.0,right,right,1.0,32.7502,0.0,47.0,47.0,47.0,1.0,highway_379.jpg,highway_359.jpg,6.0,A36U8EYFWM1EL5
948,0.0,right,right,1.0,2.2168,0.0,48.0,48.0,48.0,1.0,badlands_1.jpg,badlands_21.jpg,6.0,A36U8EYFWM1EL5
949,0.0,left,right,0.0,1.9881,0.0,49.0,49.0,49.0,1.0,bridge_146.jpg,bridge_27.jpg,6.0,A36U8EYFWM1EL5
