,layer,correct,test_test_response.keys,test_test_response.corr,test_test_response.rt,trials_2.thisRepN,trials_2.thisTrialN,trials_2.thisN,trials_2.thisIndex,trials_2.ran,image1,image2,bar_2.response,subject
0,1.0,right,left,0.0,5.079,0.0,0.0,0.0,0.0,1.0,bridge_75.jpg,bridge_191.jpg,7.0,A2NAKIXS3DVGAA
1,0.0,left,right,0.0,1.846,0.0,1.0,1.0,1.0,1.0,badlands_24.jpg,badlands_3.jpg,7.0,A2NAKIXS3DVGAA
2,0.0,right,right,1.0,1.438,0.0,2.0,2.0,2.0,1.0,golf_course_113.jpg,golf_course_15.jpg,7.0,A2NAKIXS3DVGAA
3,0.0,right,right,1.0,2.41,0.0,3.0,3.0,3.0,1.0,playground_21.jpg,playground_219.jpg,7.0,A2NAKIXS3DVGAA
4,0.0,left,right,0.0,1.256,0.0,4.0,4.0,4.0,1.0,mountain_110.jpg,mountain_157.jpg,7.0,A2NAKIXS3DVGAA
5,1.0,right,right,1.0,3.352,0.0,5.0,5.0,5.0,1.0,badlands_101.jpg,badlands_23.jpg,7.0,A2NAKIXS3DVGAA
6,0.0,left,left,1.0,2.023,0.0,6.0,6.0,6.0,1.0,highway_273.jpg,highway_384.jpg,7.0,A2NAKIXS3DVGAA
7,0.0,left,right,0.0,2.142,0.0,7.0,7.0,7.0,1.0,mountain_222.jpg,mountain_244.jpg,6.0,A2NAKIXS3DVGAA
8,1.0,left,right,0.0,2.477,0.0,8.0,8.0,8.0,1.0,golf_course_193.jpg,golf_course_123.jpg,6.0,A2NAKIXS3DVGAA
9,0.0,left,left,1.0,1.847,0.0,9.0,9.0,9.0,1.0,badlands_21.jpg,badlands_1.jpg,6.0,A2NAKIXS3DVGAA
10,0.0,right,right,1.0,1.573,0.0,10.0,10.0,10.0,1.0,playground_229.jpg,playground_145.jpg,7.0,A2NAKIXS3DVGAA
11,0.0,left,left,1.0,1.34,0.0,11.0,11.0,11.0,1.0,highway_93.jpg,highway_85.jpg,7.0,A2NAKIXS3DVGAA
12,1.0,left,left,1.0,2.27,0.0,12.0,12.0,12.0,1.0,highway_359.jpg,highway_379.jpg,7.0,A2NAKIXS3DVGAA
13,0.0,left,right,0.0,1.182,0.0,13.0,13.0,13.0,1.0,badlands_70.jpg,badlands_102.jpg,5.0,A2NAKIXS3DVGAA
14,0.0,right,right,1.0,1.887,0.0,14.0,14.0,14.0,1.0,golf_course_114.jpg,golf_course_331.jpg,7.0,A2NAKIXS3DVGAA
15,0.0,left,left,1.0,1.944,0.0,15.0,15.0,15.0,1.0,mountain_123.jpg,mountain_94.jpg,4.0,A2NAKIXS3DVGAA
16,0.0,right,left,0.0,1.618,0.0,16.0,16.0,16.0,1.0,badlands_34.jpg,badlands_222.jpg,6.0,A2NAKIXS3DVGAA
17,0.0,left,right,0.0,1.716,0.0,17.0,17.0,17.0,1.0,bridge_108.jpg,bridge_116.jpg,7.0,A2NAKIXS3DVGAA
18,0.0,left,left,1.0,1.447,0.0,18.0,18.0,18.0,1.0,mountain_156.jpg,mountain_128.jpg,7.0,A2NAKIXS3DVGAA
19,0.0,left,left,1.0,1.819,0.0,19.0,19.0,19.0,1.0,highway_294.jpg,highway_203.jpg,7.0,A2NAKIXS3DVGAA
20,1.0,left,right,0.0,3.431,0.0,20.0,20.0,20.0,1.0,highway_415.jpg,highway_174.jpg,7.0,A2NAKIXS3DVGAA
21,0.0,left,left,1.0,2.149,0.0,21.0,21.0,21.0,1.0,bridge_202.jpg,bridge_31.jpg,7.0,A2NAKIXS3DVGAA
22,1.0,left,left,1.0,1.799,0.0,22.0,22.0,22.0,1.0,badlands_52.jpg,badlands_63.jpg,7.0,A2NAKIXS3DVGAA
23,1.0,right,left,0.0,2.109,0.0,23.0,23.0,23.0,1.0,playground_127.jpg,playground_117.jpg,7.0,A2NAKIXS3DVGAA
24,1.0,left,left,1.0,2.807,0.0,24.0,24.0,24.0,1.0,golf_course_87.jpg,golf_course_161.jpg,7.0,A2NAKIXS3DVGAA
25,1.0,left,right,0.0,2.065,0.0,25.0,25.0,25.0,1.0,playground_240.jpg,playground_40.jpg,7.0,A2NAKIXS3DVGAA
26,1.0,right,right,1.0,1.676,0.0,26.0,26.0,26.0,1.0,bridge_205.jpg,bridge_250.jpg,7.0,A2NAKIXS3DVGAA
27,1.0,left,right,0.0,5.162,0.0,27.0,27.0,27.0,1.0,highway_209.jpg,highway_122.jpg,7.0,A2NAKIXS3DVGAA
28,1.0,left,left,1.0,1.729,0.0,28.0,28.0,28.0,1.0,mountain_232.jpg,mountain_54.jpg,7.0,A2NAKIXS3DVGAA
29,0.0,right,right,1.0,2.404,0.0,29.0,29.0,29.0,1.0,golf_course_312.jpg,golf_course_214.jpg,7.0,A2NAKIXS3DVGAA
30,1.0,left,left,1.0,1.539,0.0,30.0,30.0,30.0,1.0,mountain_57.jpg,mountain_138.jpg,7.0,A2NAKIXS3DVGAA
31,0.0,left,left,1.0,2.799,0.0,31.0,31.0,31.0,1.0,bridge_256.jpg,bridge_54.jpg,7.0,A2NAKIXS3DVGAA
32,1.0,left,left,1.0,2.761,0.0,32.0,32.0,32.0,1.0,bridge_91.jpg,bridge_82.jpg,7.0,A2NAKIXS3DVGAA
33,1.0,left,right,0.0,1.789,0.0,33.0,33.0,33.0,1.0,playground_60.jpg,playground_244.jpg,7.0,A2NAKIXS3DVGAA
34,1.0,right,left,0.0,5.126,0.0,34.0,34.0,34.0,1.0,highway_406.jpg,highway_394.jpg,7.0,A2NAKIXS3DVGAA
35,1.0,right,right,1.0,1.962,0.0,35.0,35.0,35.0,1.0,mountain_47.jpg,mountain_293.jpg,7.0,A2NAKIXS3DVGAA
36,1.0,left,left,1.0,2.646,0.0,36.0,36.0,36.0,1.0,golf_course_217.jpg,golf_course_262.jpg,7.0,A2NAKIXS3DVGAA
37,1.0,right,left,0.0,1.569,0.0,37.0,37.0,37.0,1.0,badlands_139.jpg,badlands_137.jpg,7.0,A2NAKIXS3DVGAA
38,0.0,right,left,0.0,1.581,0.0,38.0,38.0,38.0,1.0,highway_134.jpg,highway_245.jpg,7.0,A2NAKIXS3DVGAA
39,1.0,right,right,1.0,2.217,0.0,39.0,39.0,39.0,1.0,playground_164.jpg,playground_131.jpg,7.0,A2NAKIXS3DVGAA
40,1.0,right,right,1.0,4.346,0.0,40.0,40.0,40.0,1.0,highway_278.jpg,highway_177.jpg,7.0,A2NAKIXS3DVGAA
41,1.0,left,right,0.0,2.525,0.0,41.0,41.0,41.0,1.0,golf_course_195.jpg,golf_course_2.jpg,7.0,A2NAKIXS3DVGAA
42,0.0,left,right,0.0,2.799,0.0,42.0,42.0,42.0,1.0,golf_course_309.jpg,golf_course_16.jpg,7.0,A2NAKIXS3DVGAA
43,1.0,left,right,0.0,1.536,0.0,43.0,43.0,43.0,1.0,badlands_113.jpg,badlands_203.jpg,7.0,A2NAKIXS3DVGAA
44,1.0,right,right,1.0,2.135,0.0,44.0,44.0,44.0,1.0,badlands_207.jpg,badlands_221.jpg,6.0,A2NAKIXS3DVGAA
45,0.0,right,left,0.0,2.87,0.0,45.0,45.0,45.0,1.0,bridge_27.jpg,bridge_146.jpg,7.0,A2NAKIXS3DVGAA
46,0.0,left,right,0.0,1.824,0.0,46.0,46.0,46.0,1.0,playground_257.jpg,playground_214.jpg,7.0,A2NAKIXS3DVGAA
47,0.0,right,right,1.0,1.434,0.0,47.0,47.0,47.0,1.0,bridge_61.jpg,bridge_128.jpg,7.0,A2NAKIXS3DVGAA
48,0.0,right,right,1.0,1.827,0.0,48.0,48.0,48.0,1.0,highway_160.jpg,highway_156.jpg,7.0,A2NAKIXS3DVGAA
49,0.0,right,right,1.0,1.149,0.0,49.0,49.0,49.0,1.0,playground_137.jpg,playground_144.jpg,6.0,A2NAKIXS3DVGAA
50,1.0,left,left,1.0,3.461,0.0,50.0,50.0,50.0,1.0,bridge_65.jpg,bridge_60.jpg,7.0,A2NAKIXS3DVGAA
51,1.0,right,right,1.0,1.965,0.0,51.0,51.0,51.0,1.0,mountain_95.jpg,mountain_154.jpg,7.0,A2NAKIXS3DVGAA
52,0.0,right,left,0.0,1.442,0.0,52.0,52.0,52.0,1.0,mountain_184.jpg,mountain_230.jpg,7.0,A2NAKIXS3DVGAA
53,0.0,left,left,1.0,1.39,0.0,53.0,53.0,53.0,1.0,golf_course_188.jpg,golf_course_157.jpg,7.0,A2NAKIXS3DVGAA
54,1.0,right,right,1.0,2.3,0.0,54.0,54.0,54.0,1.0,golf_course_101.jpg,golf_course_78.jpg,7.0,A2NAKIXS3DVGAA
55,1.0,right,left,0.0,1.95,0.0,55.0,55.0,55.0,1.0,mountain_221.jpg,mountain_101.jpg,7.0,A2NAKIXS3DVGAA
56,0.0,left,right,0.0,1.56,0.0,56.0,56.0,56.0,1.0,badlands_184.jpg,badlands_228.jpg,7.0,A2NAKIXS3DVGAA
57,1.0,right,left,0.0,1.886,0.0,57.0,57.0,57.0,1.0,playground_12.jpg,playground_10.jpg,7.0,A2NAKIXS3DVGAA
58,0.0,right,left,0.0,1.818,0.0,58.0,58.0,58.0,1.0,playground_22.jpg,playground_76.jpg,7.0,A2NAKIXS3DVGAA
59,1.0,left,left,1.0,2.239,0.0,59.0,59.0,59.0,1.0,bridge_172.jpg,bridge_163.jpg,7.0,A2NAKIXS3DVGAA
60,0.0,left,left,1.0,6.364300001,0.0,0.0,0.0,0.0,1.0,playground_144.jpg,playground_137.jpg,7.0,A27KTNOX292J1I
61,0.0,left,left,1.0,9.2705,0.0,1.0,1.0,1.0,1.0,badlands_21.jpg,badlands_1.jpg,8.0,A27KTNOX292J1I
62,1.0,right,left,0.0,1.7734,0.0,2.0,2.0,2.0,1.0,bridge_163.jpg,bridge_172.jpg,8.0,A27KTNOX292J1I
63,0.0,left,right,0.0,2.3569,0.0,3.0,3.0,3.0,1.0,badlands_70.jpg,badlands_102.jpg,8.0,A27KTNOX292J1I
64,1.0,right,left,0.0,1.7951,0.0,4.0,4.0,4.0,1.0,playground_127.jpg,playground_117.jpg,4.0,A27KTNOX292J1I
65,1.0,right,left,0.0,2.033800001,0.0,5.0,5.0,5.0,1.0,highway_368.jpg,highway_294.jpg,8.0,A27KTNOX292J1I
66,1.0,left,right,0.0,2.5891,0.0,6.0,6.0,6.0,1.0,bridge_191.jpg,bridge_75.jpg,8.0,A27KTNOX292J1I
67,1.0,left,right,0.0,2.2111,0.0,7.0,7.0,7.0,1.0,badlands_222.jpg,badlands_62.jpg,9.0,A27KTNOX292J1I
68,0.0,left,right,0.0,5.430799999,0.0,8.0,8.0,8.0,1.0,mountain_230.jpg,mountain_184.jpg,8.0,A27KTNOX292J1I
69,0.0,left,left,1.0,1.8819,0.0,9.0,9.0,9.0,1.0,golf_course_193.jpg,golf_course_235.jpg,9.0,A27KTNOX292J1I
70,1.0,right,left,0.0,2.2741,0.0,10.0,10.0,10.0,1.0,bridge_244.jpg,bridge_128.jpg,9.0,A27KTNOX292J1I
71,0.0,left,right,0.0,3.9449,0.0,11.0,11.0,11.0,1.0,playground_219.jpg,playground_21.jpg,8.0,A27KTNOX292J1I
72,0.0,right,right,1.0,1.772800001,0.0,12.0,12.0,12.0,1.0,bridge_253.jpg,bridge_91.jpg,8.0,A27KTNOX292J1I
73,0.0,left,left,1.0,2.644800001,0.0,13.0,13.0,13.0,1.0,golf_course_331.jpg,golf_course_114.jpg,8.0,A27KTNOX292J1I
74,1.0,right,right,1.0,1.8479,0.0,14.0,14.0,14.0,1.0,golf_course_317.jpg,golf_course_214.jpg,8.0,A27KTNOX292J1I
75,0.0,left,left,1.0,1.7924,0.0,15.0,15.0,15.0,1.0,badlands_113.jpg,badlands_225.jpg,8.0,A27KTNOX292J1I
76,1.0,left,right,0.0,2.0411,0.0,16.0,16.0,16.0,1.0,bridge_250.jpg,bridge_205.jpg,8.0,A27KTNOX292J1I
77,0.0,right,left,0.0,1.357799999,0.0,17.0,17.0,17.0,1.0,mountain_157.jpg,mountain_110.jpg,8.0,A27KTNOX292J1I
78,0.0,left,right,0.0,1.252300001,0.0,18.0,18.0,18.0,1.0,bridge_146.jpg,bridge_27.jpg,8.0,A27KTNOX292J1I
79,0.0,left,left,1.0,1.1471,0.0,19.0,19.0,19.0,1.0,highway_245.jpg,highway_134.jpg,8.0,A27KTNOX292J1I
80,0.0,left,left,1.0,1.147699999,0.0,20.0,20.0,20.0,1.0,golf_course_217.jpg,golf_course_35.jpg,6.0,A27KTNOX292J1I
81,0.0,left,left,1.0,1.8626,0.0,21.0,21.0,21.0,1.0,playground_10.jpg,playground_122.jpg,5.0,A27KTNOX292J1I
82,1.0,left,right,0.0,2.002200001,0.0,22.0,22.0,22.0,1.0,highway_415.jpg,highway_174.jpg,9.0,A27KTNOX292J1I
83,1.0,right,right,1.0,2.146299999,0.0,23.0,23.0,23.0,1.0,badlands_103.jpg,badlands_184.jpg,9.0,A27KTNOX292J1I
84,0.0,right,right,1.0,1.5801,0.0,24.0,24.0,24.0,1.0,playground_22.jpg,playground_76.jpg,9.0,A27KTNOX292J1I
85,0.0,right,left,0.0,1.381400002,0.0,25.0,25.0,25.0,1.0,golf_course_157.jpg,golf_course_188.jpg,9.0,A27KTNOX292J1I
86,1.0,right,left,0.0,1.066799999,0.0,26.0,26.0,26.0,1.0,mountain_95.jpg,mountain_154.jpg,9.0,A27KTNOX292J1I
87,0.0,left,right,0.0,2.3994,0.0,27.0,27.0,27.0,1.0,highway_273.jpg,highway_384.jpg,9.0,A27KTNOX292J1I
88,0.0,right,right,1.0,1.071299999,0.0,28.0,28.0,28.0,1.0,bridge_54.jpg,bridge_256.jpg,9.0,A27KTNOX292J1I
89,1.0,right,left,0.0,1.018200001,0.0,29.0,29.0,29.0,1.0,mountain_54.jpg,mountain_232.jpg,9.0,A27KTNOX292J1I
90,1.0,right,right,1.0,1.6535,0.0,30.0,30.0,30.0,1.0,highway_379.jpg,highway_359.jpg,9.0,A27KTNOX292J1I
91,0.0,left,right,0.0,3.812400002,0.0,31.0,31.0,31.0,1.0,highway_156.jpg,highway_160.jpg,9.0,A27KTNOX292J1I
92,1.0,left,left,1.0,1.321400002,0.0,32.0,32.0,32.0,1.0,playground_240.jpg,playground_40.jpg,9.0,A27KTNOX292J1I
93,0.0,right,right,1.0,1.4054,0.0,33.0,33.0,33.0,1.0,golf_course_113.jpg,golf_course_15.jpg,9.0,A27KTNOX292J1I
94,0.0,left,right,0.0,1.3489,0.0,34.0,34.0,34.0,1.0,mountain_57.jpg,mountain_193.jpg,9.0,A27KTNOX292J1I
95,1.0,right,left,0.0,1.5234,0.0,35.0,35.0,35.0,1.0,mountain_93.jpg,mountain_222.jpg,9.0,A27KTNOX292J1I
96,0.0,right,right,1.0,1.2209,0.0,36.0,36.0,36.0,1.0,bridge_116.jpg,bridge_108.jpg,9.0,A27KTNOX292J1I
97,0.0,left,left,1.0,2.746200001,0.0,37.0,37.0,37.0,1.0,highway_394.jpg,highway_204.jpg,8.0,A27KTNOX292J1I
98,1.0,left,right,0.0,1.843,0.0,38.0,38.0,38.0,1.0,playground_145.jpg,playground_242.jpg,8.0,A27KTNOX292J1I
99,0.0,right,right,1.0,1.925,0.0,39.0,39.0,39.0,1.0,mountain_72.jpg,mountain_293.jpg,8.0,A27KTNOX292J1I
100,0.0,right,right,1.0,1.2034,0.0,40.0,40.0,40.0,1.0,mountain_171.jpg,mountain_101.jpg,8.0,A27KTNOX292J1I
101,1.0,right,right,1.0,2.8606,0.0,41.0,41.0,41.0,1.0,golf_course_161.jpg,golf_course_87.jpg,9.0,A27KTNOX292J1I
102,0.0,left,left,1.0,2.2051,0.0,42.0,42.0,42.0,1.0,badlands_24.jpg,badlands_3.jpg,9.0,A27KTNOX292J1I
103,1.0,left,right,0.0,1.056699999,0.0,43.0,43.0,43.0,1.0,badlands_137.jpg,badlands_139.jpg,9.0,A27KTNOX292J1I
104,1.0,right,right,1.0,0.913,0.0,44.0,44.0,44.0,1.0,golf_course_2.jpg,golf_course_195.jpg,9.0,A27KTNOX292J1I
105,1.0,left,left,1.0,0.6711,0.0,45.0,45.0,45.0,1.0,playground_257.jpg,playground_215.jpg,9.0,A27KTNOX292J1I
106,0.0,left,left,1.0,2.154300001,0.0,46.0,46.0,46.0,1.0,bridge_202.jpg,bridge_31.jpg,9.0,A27KTNOX292J1I
107,1.0,right,right,1.0,1.2079,0.0,47.0,47.0,47.0,1.0,highway_122.jpg,highway_209.jpg,9.0,A27KTNOX292J1I
108,0.0,left,right,0.0,0.9426,0.0,48.0,48.0,48.0,1.0,playground_60.jpg,playground_268.jpg,9.0,A27KTNOX292J1I
109,1.0,left,left,1.0,1.195900002,0.0,49.0,49.0,49.0,1.0,golf_course_309.jpg,golf_course_209.jpg,9.0,A27KTNOX292J1I
110,0.0,right,right,1.0,1.370199999,0.0,50.0,50.0,50.0,1.0,highway_87.jpg,highway_177.jpg,9.0,A27KTNOX292J1I
111,1.0,right,left,0.0,1.2149,0.0,51.0,51.0,51.0,1.0,mountain_189.jpg,mountain_123.jpg,9.0,A27KTNOX292J1I
112,1.0,left,right,0.0,0.906400002,0.0,52.0,52.0,52.0,1.0,golf_course_78.jpg,golf_course_101.jpg,9.0,A27KTNOX292J1I
113,1.0,left,left,1.0,0.8711,0.0,53.0,53.0,53.0,1.0,badlands_221.jpg,badlands_207.jpg,9.0,A27KTNOX292J1I
114,1.0,left,left,1.0,1.7645,0.0,54.0,54.0,54.0,1.0,highway_93.jpg,highway_369.jpg,9.0,A27KTNOX292J1I
115,1.0,right,right,1.0,1.708799999,0.0,55.0,55.0,55.0,1.0,bridge_60.jpg,bridge_65.jpg,8.0,A27KTNOX292J1I
116,1.0,right,left,0.0,1.5105,0.0,56.0,56.0,56.0,1.0,playground_164.jpg,playground_131.jpg,8.0,A27KTNOX292J1I
117,1.0,right,right,1.0,0.9396,0.0,57.0,57.0,57.0,1.0,mountain_295.jpg,mountain_156.jpg,8.0,A27KTNOX292J1I
118,1.0,right,right,1.0,0.893099998,0.0,58.0,58.0,58.0,1.0,badlands_101.jpg,badlands_23.jpg,8.0,A27KTNOX292J1I
119,0.0,right,right,1.0,1.4206,0.0,59.0,59.0,59.0,1.0,badlands_94.jpg,badlands_52.jpg,8.0,A27KTNOX292J1I
120,0.0,left,right,0.0,6.851,0.0,0.0,0.0,0.0,1.0,bridge_202.jpg,bridge_31.jpg,4.0,AWJKR5GA7BS7V
121,1.0,left,num_4,0.0,0.448,0.0,1.0,1.0,1.0,1.0,mountain_101.jpg,mountain_221.jpg,8.0,AWJKR5GA7BS7V
122,1.0,left,right,0.0,5.444,0.0,2.0,2.0,2.0,1.0,playground_144.jpg,playground_65.jpg,8.0,AWJKR5GA7BS7V
123,1.0,right,left,0.0,4.692,0.0,3.0,3.0,3.0,1.0,badlands_119.jpg,badlands_70.jpg,6.0,AWJKR5GA7BS7V
124,0.0,left,left,1.0,4.764,0.0,4.0,4.0,4.0,1.0,bridge_65.jpg,bridge_181.jpg,6.0,AWJKR5GA7BS7V
125,1.0,left,left,1.0,7.791,0.0,5.0,5.0,5.0,1.0,mountain_110.jpg,mountain_223.jpg,6.0,AWJKR5GA7BS7V
126,0.0,left,left,1.0,5.015,0.0,6.0,6.0,6.0,1.0,golf_course_309.jpg,golf_course_16.jpg,4.0,AWJKR5GA7BS7V
127,0.0,right,right,1.0,5.504,0.0,7.0,7.0,7.0,1.0,badlands_94.jpg,badlands_52.jpg,5.0,AWJKR5GA7BS7V
128,0.0,left,right,0.0,5.848,0.0,8.0,8.0,8.0,1.0,highway_415.jpg,highway_60.jpg,5.0,AWJKR5GA7BS7V
129,1.0,left,left,1.0,5.202,0.0,9.0,9.0,9.0,1.0,mountain_293.jpg,mountain_47.jpg,6.0,AWJKR5GA7BS7V
130,0.0,left,left,1.0,7.87,0.0,10.0,10.0,10.0,1.0,playground_240.jpg,playground_2.jpg,5.0,AWJKR5GA7BS7V
131,0.0,left,right,0.0,4.912,0.0,11.0,11.0,11.0,1.0,mountain_222.jpg,mountain_244.jpg,4.0,AWJKR5GA7BS7V
132,1.0,right,left,0.0,3.604,0.0,12.0,12.0,12.0,1.0,badlands_203.jpg,badlands_113.jpg,6.0,AWJKR5GA7BS7V
133,1.0,left,left,1.0,4.952,0.0,13.0,13.0,13.0,1.0,playground_117.jpg,playground_127.jpg,7.0,AWJKR5GA7BS7V
134,1.0,left,left,1.0,3.032,0.0,14.0,14.0,14.0,1.0,bridge_172.jpg,bridge_163.jpg,6.0,AWJKR5GA7BS7V
135,1.0,right,right,1.0,3.253,0.0,15.0,15.0,15.0,1.0,golf_course_101.jpg,golf_course_78.jpg,5.0,AWJKR5GA7BS7V
136,1.0,left,right,0.0,5.997,0.0,16.0,16.0,16.0,1.0,golf_course_188.jpg,golf_course_160.jpg,6.0,AWJKR5GA7BS7V
137,0.0,right,left,0.0,3.591,0.0,17.0,17.0,17.0,1.0,badlands_228.jpg,badlands_184.jpg,8.0,AWJKR5GA7BS7V
138,0.0,right,right,1.0,9.032,0.0,18.0,18.0,18.0,1.0,playground_214.jpg,playground_257.jpg,7.0,AWJKR5GA7BS7V
139,0.0,left,left,1.0,3.042,0.0,19.0,19.0,19.0,1.0,mountain_232.jpg,mountain_3.jpg,2.0,AWJKR5GA7BS7V
140,0.0,right,right,1.0,4.017,0.0,20.0,20.0,20.0,1.0,highway_204.jpg,highway_394.jpg,6.0,AWJKR5GA7BS7V
141,0.0,left,left,1.0,7.318,0.0,21.0,21.0,21.0,1.0,mountain_57.jpg,mountain_193.jpg,2.0,AWJKR5GA7BS7V
142,0.0,right,right,1.0,5.121,0.0,22.0,22.0,22.0,1.0,golf_course_35.jpg,golf_course_217.jpg,4.0,AWJKR5GA7BS7V
143,0.0,right,left,0.0,4.109,0.0,23.0,23.0,23.0,1.0,badlands_1.jpg,badlands_21.jpg,7.0,AWJKR5GA7BS7V
144,1.0,right,left,0.0,3.824,0.0,24.0,24.0,24.0,1.0,golf_course_161.jpg,golf_course_87.jpg,6.0,AWJKR5GA7BS7V
145,0.0,left,left,1.0,3.956,0.0,25.0,25.0,25.0,1.0,golf_course_331.jpg,golf_course_114.jpg,2.0,AWJKR5GA7BS7V
146,0.0,right,right,1.0,10.263,0.0,26.0,26.0,26.0,1.0,bridge_54.jpg,bridge_256.jpg,6.0,AWJKR5GA7BS7V
147,0.0,right,left,0.0,5.785,0.0,27.0,27.0,27.0,1.0,bridge_253.jpg,bridge_91.jpg,3.0,AWJKR5GA7BS7V
148,1.0,left,left,1.0,4.808,0.0,28.0,28.0,28.0,1.0,highway_209.jpg,highway_122.jpg,6.0,AWJKR5GA7BS7V
149,0.0,left,left,1.0,3.656,0.0,29.0,29.0,29.0,1.0,mountain_154.jpg,mountain_131.jpg,4.0,AWJKR5GA7BS7V
150,0.0,right,right,1.0,3.892,0.0,30.0,30.0,30.0,1.0,bridge_184.jpg,bridge_191.jpg,3.0,AWJKR5GA7BS7V
151,0.0,right,left,0.0,5.009,0.0,31.0,31.0,31.0,1.0,playground_122.jpg,playground_10.jpg,6.0,AWJKR5GA7BS7V
152,1.0,left,right,0.0,4.971,0.0,32.0,32.0,32.0,1.0,badlands_137.jpg,badlands_139.jpg,5.0,AWJKR5GA7BS7V
153,1.0,right,right,1.0,4.715,0.0,33.0,33.0,33.0,1.0,playground_205.jpg,playground_219.jpg,8.0,AWJKR5GA7BS7V
154,0.0,left,left,1.0,3.6,0.0,34.0,34.0,34.0,1.0,mountain_230.jpg,mountain_184.jpg,3.0,AWJKR5GA7BS7V
155,0.0,left,left,1.0,6.545,0.0,35.0,35.0,35.0,1.0,playground_76.jpg,playground_22.jpg,5.0,AWJKR5GA7BS7V
156,1.0,left,right,0.0,11.359,0.0,36.0,36.0,36.0,1.0,mountain_156.jpg,mountain_295.jpg,6.0,AWJKR5GA7BS7V
157,1.0,left,right,0.0,5.826,0.0,37.0,37.0,37.0,1.0,highway_93.jpg,highway_369.jpg,7.0,AWJKR5GA7BS7V
158,0.0,right,right,1.0,4.728,0.0,38.0,38.0,38.0,1.0,badlands_3.jpg,badlands_24.jpg,4.0,AWJKR5GA7BS7V
159,1.0,right,left,0.0,5.127,0.0,39.0,39.0,39.0,1.0,highway_171.jpg,highway_273.jpg,5.0,AWJKR5GA7BS7V
160,1.0,right,right,1.0,4.123,0.0,40.0,40.0,40.0,1.0,badlands_62.jpg,badlands_222.jpg,7.0,AWJKR5GA7BS7V
161,0.0,left,left,1.0,3.488,0.0,41.0,41.0,41.0,1.0,highway_177.jpg,highway_87.jpg,4.0,AWJKR5GA7BS7V
162,1.0,right,left,0.0,3.895,0.0,42.0,42.0,42.0,1.0,highway_368.jpg,highway_294.jpg,6.0,AWJKR5GA7BS7V
163,1.0,right,right,1.0,2.634,0.0,43.0,43.0,43.0,1.0,badlands_101.jpg,badlands_23.jpg,5.0,AWJKR5GA7BS7V
164,1.0,right,right,1.0,3.43,0.0,44.0,44.0,44.0,1.0,playground_164.jpg,playground_131.jpg,7.0,AWJKR5GA7BS7V
165,0.0,left,left,1.0,3.698,0.0,45.0,45.0,45.0,1.0,golf_course_214.jpg,golf_course_312.jpg,8.0,AWJKR5GA7BS7V
166,1.0,right,right,1.0,2.699,0.0,46.0,46.0,46.0,1.0,bridge_121.jpg,bridge_146.jpg,6.0,AWJKR5GA7BS7V
167,1.0,right,right,1.0,9.093,0.0,47.0,47.0,47.0,1.0,bridge_205.jpg,bridge_250.jpg,5.0,AWJKR5GA7BS7V
168,1.0,left,right,0.0,6.356,0.0,48.0,48.0,48.0,1.0,playground_60.jpg,playground_244.jpg,6.0,AWJKR5GA7BS7V
169,1.0,left,left,1.0,5.648,0.0,49.0,49.0,49.0,1.0,bridge_108.jpg,bridge_148.jpg,9.0,AWJKR5GA7BS7V
170,0.0,left,right,0.0,4.902,0.0,50.0,50.0,50.0,1.0,highway_156.jpg,highway_160.jpg,3.0,AWJKR5GA7BS7V
171,0.0,left,left,1.0,4.097,0.0,51.0,51.0,51.0,1.0,highway_359.jpg,highway_389.jpg,3.0,AWJKR5GA7BS7V
172,1.0,left,left,1.0,30.6,0.0,52.0,52.0,52.0,1.0,golf_course_195.jpg,golf_course_2.jpg,6.0,AWJKR5GA7BS7V
173,1.0,right,left,0.0,4.688,0.0,53.0,53.0,53.0,1.0,highway_206.jpg,highway_245.jpg,3.0,AWJKR5GA7BS7V
174,0.0,right,right,1.0,11.069,0.0,54.0,54.0,54.0,1.0,badlands_115.jpg,badlands_221.jpg,7.0,AWJKR5GA7BS7V
175,1.0,left,right,0.0,10.294,0.0,55.0,55.0,55.0,1.0,bridge_128.jpg,bridge_244.jpg,6.0,AWJKR5GA7BS7V
176,1.0,left,right,0.0,11.444,0.0,56.0,56.0,56.0,1.0,golf_course_193.jpg,golf_course_123.jpg,7.0,AWJKR5GA7BS7V
177,0.0,left,left,1.0,15.78,0.0,57.0,57.0,57.0,1.0,playground_145.jpg,playground_229.jpg,5.0,AWJKR5GA7BS7V
178,1.0,left,right,0.0,29.338,0.0,58.0,58.0,58.0,1.0,mountain_123.jpg,mountain_189.jpg,7.0,AWJKR5GA7BS7V
179,0.0,left,left,1.0,26.389,0.0,59.0,59.0,59.0,1.0,golf_course_15.jpg,golf_course_113.jpg,4.0,AWJKR5GA7BS7V
180,1.0,right,left,0.0,4.2212,0.0,0.0,0.0,0.0,1.0,highway_379.jpg,highway_359.jpg,7.0,A3PIJBZIF34XR2
181,0.0,left,left,1.0,3.4511,0.0,1.0,1.0,1.0,1.0,bridge_128.jpg,bridge_61.jpg,7.0,A3PIJBZIF34XR2
182,0.0,left,left,1.0,3.1895,0.0,2.0,2.0,2.0,1.0,golf_course_188.jpg,golf_course_157.jpg,6.0,A3PIJBZIF34XR2
183,1.0,right,right,1.0,3.2323,0.0,3.0,3.0,3.0,1.0,golf_course_26.jpg,golf_course_331.jpg,8.0,A3PIJBZIF34XR2
184,0.0,left,left,1.0,2.7928,0.0,4.0,4.0,4.0,1.0,golf_course_193.jpg,golf_course_235.jpg,9.0,A3PIJBZIF34XR2
185,0.0,right,right,1.0,2.8858,0.0,5.0,5.0,5.0,1.0,playground_43.jpg,playground_131.jpg,7.0,A3PIJBZIF34XR2
186,1.0,right,right,1.0,3.6733,0.0,6.0,6.0,6.0,1.0,golf_course_317.jpg,golf_course_214.jpg,7.0,A3PIJBZIF34XR2
187,1.0,right,right,1.0,2.5568,0.0,7.0,7.0,7.0,1.0,highway_171.jpg,highway_273.jpg,8.0,A3PIJBZIF34XR2
188,1.0,left,right,0.0,4.0398,0.0,8.0,8.0,8.0,1.0,mountain_101.jpg,mountain_221.jpg,8.0,A3PIJBZIF34XR2
189,0.0,left,left,1.0,3.2546,0.0,9.0,9.0,9.0,1.0,badlands_222.jpg,badlands_34.jpg,7.0,A3PIJBZIF34XR2
190,0.0,left,right,0.0,4.0397,0.0,10.0,10.0,10.0,1.0,highway_294.jpg,highway_203.jpg,8.0,A3PIJBZIF34XR2
191,0.0,left,right,0.0,2.6643,0.0,11.0,11.0,11.0,1.0,mountain_232.jpg,mountain_3.jpg,3.0,A3PIJBZIF34XR2
192,1.0,right,right,1.0,3.3927,0.0,12.0,12.0,12.0,1.0,mountain_223.jpg,mountain_110.jpg,7.0,A3PIJBZIF34XR2
193,1.0,right,right,1.0,2.305,0.0,13.0,13.0,13.0,1.0,badlands_207.jpg,badlands_221.jpg,8.0,A3PIJBZIF34XR2
194,0.0,left,left,1.0,2.2835,0.0,14.0,14.0,14.0,1.0,highway_394.jpg,highway_204.jpg,8.0,A3PIJBZIF34XR2
195,0.0,right,right,1.0,2.186,0.0,15.0,15.0,15.0,1.0,highway_87.jpg,highway_177.jpg,8.0,A3PIJBZIF34XR2
196,1.0,right,left,0.0,2.4074,0.0,16.0,16.0,16.0,1.0,bridge_163.jpg,bridge_172.jpg,8.0,A3PIJBZIF34XR2
197,0.0,right,right,1.0,4.0391,0.0,17.0,17.0,17.0,1.0,bridge_253.jpg,bridge_91.jpg,9.0,A3PIJBZIF34XR2
198,0.0,left,left,1.0,4.6661,0.0,18.0,18.0,18.0,1.0,badlands_23.jpg,badlands_114.jpg,6.0,A3PIJBZIF34XR2
199,0.0,right,right,1.0,2.1281,0.0,19.0,19.0,19.0,1.0,highway_60.jpg,highway_415.jpg,8.0,A3PIJBZIF34XR2
200,0.0,left,left,1.0,4.1937,0.0,20.0,20.0,20.0,1.0,playground_76.jpg,playground_22.jpg,7.0,A3PIJBZIF34XR2
201,1.0,right,right,1.0,4.5752,0.0,21.0,21.0,21.0,1.0,mountain_97.jpg,mountain_230.jpg,6.0,A3PIJBZIF34XR2
202,0.0,left,right,0.0,2.7101,0.0,22.0,22.0,22.0,1.0,mountain_154.jpg,mountain_131.jpg,4.0,A3PIJBZIF34XR2
203,0.0,left,right,0.0,3.9715,0.0,23.0,23.0,23.0,1.0,badlands_70.jpg,badlands_102.jpg,5.0,A3PIJBZIF34XR2
204,1.0,left,left,1.0,3.6203,0.0,24.0,24.0,24.0,1.0,golf_course_309.jpg,golf_course_209.jpg,5.0,A3PIJBZIF34XR2
205,1.0,left,right,0.0,2.2967,0.0,25.0,25.0,25.0,1.0,highway_245.jpg,highway_206.jpg,7.0,A3PIJBZIF34XR2
206,0.0,left,left,1.0,2.5442,0.0,26.0,26.0,26.0,1.0,bridge_191.jpg,bridge_184.jpg,5.0,A3PIJBZIF34XR2
207,0.0,right,right,1.0,3.2307,0.0,27.0,27.0,27.0,1.0,badlands_3.jpg,badlands_24.jpg,5.0,A3PIJBZIF34XR2
208,0.0,right,right,1.0,1.9485,0.0,28.0,28.0,28.0,1.0,badlands_228.jpg,badlands_184.jpg,5.0,A3PIJBZIF34XR2
209,1.0,right,right,1.0,2.5773,0.0,29.0,29.0,29.0,1.0,playground_40.jpg,playground_240.jpg,9.0,A3PIJBZIF34XR2
210,1.0,right,left,0.0,2.8952,0.0,30.0,30.0,30.0,1.0,bridge_148.jpg,bridge_108.jpg,8.0,A3PIJBZIF34XR2
211,0.0,left,right,0.0,2.3823,0.0,31.0,31.0,31.0,1.0,golf_course_15.jpg,golf_course_113.jpg,2.0,A3PIJBZIF34XR2
212,1.0,right,left,0.0,5.7317,0.0,32.0,32.0,32.0,1.0,badlands_203.jpg,badlands_113.jpg,5.0,A3PIJBZIF34XR2
213,1.0,left,left,1.0,3.0723,0.0,33.0,33.0,33.0,1.0,playground_144.jpg,playground_65.jpg,9.0,A3PIJBZIF34XR2
214,1.0,right,left,0.0,1.8854,0.0,34.0,34.0,34.0,1.0,golf_course_2.jpg,golf_course_195.jpg,5.0,A3PIJBZIF34XR2
215,0.0,right,left,0.0,2.8728,0.0,35.0,35.0,35.0,1.0,mountain_72.jpg,mountain_293.jpg,5.0,A3PIJBZIF34XR2
216,1.0,right,right,1.0,2.5009,0.0,36.0,36.0,36.0,1.0,mountain_138.jpg,mountain_57.jpg,7.0,A3PIJBZIF34XR2
217,1.0,right,left,0.0,4.7099,0.0,37.0,37.0,37.0,1.0,playground_242.jpg,playground_145.jpg,7.0,A3PIJBZIF34XR2
218,0.0,left,right,0.0,6.9307,0.0,38.0,38.0,38.0,1.0,highway_156.jpg,highway_160.jpg,8.0,A3PIJBZIF34XR2
219,0.0,right,left,0.0,2.5232,0.0,39.0,39.0,39.0,1.0,golf_course_134.jpg,golf_course_78.jpg,7.0,A3PIJBZIF34XR2
220,1.0,left,left,1.0,3.6713,0.0,40.0,40.0,40.0,1.0,playground_10.jpg,playground_12.jpg,6.0,A3PIJBZIF34XR2
221,0.0,right,right,1.0,3.2478,0.0,41.0,41.0,41.0,1.0,mountain_94.jpg,mountain_123.jpg,5.0,A3PIJBZIF34XR2
222,0.0,right,right,1.0,3.1239,0.0,42.0,42.0,42.0,1.0,bridge_54.jpg,bridge_256.jpg,6.0,A3PIJBZIF34XR2
223,0.0,right,left,0.0,2.9024,0.0,43.0,43.0,43.0,1.0,golf_course_35.jpg,golf_course_217.jpg,5.0,A3PIJBZIF34XR2
224,1.0,left,right,0.0,1.9537,0.0,44.0,44.0,44.0,1.0,badlands_137.jpg,badlands_139.jpg,7.0,A3PIJBZIF34XR2
225,0.0,right,right,1.0,2.4929,0.0,45.0,45.0,45.0,1.0,mountain_244.jpg,mountain_222.jpg,6.0,A3PIJBZIF34XR2
226,1.0,left,right,0.0,2.587,0.0,46.0,46.0,46.0,1.0,badlands_52.jpg,badlands_63.jpg,6.0,A3PIJBZIF34XR2
227,1.0,left,left,1.0,4.1867,0.0,47.0,47.0,47.0,1.0,golf_course_87.jpg,golf_course_161.jpg,6.0,A3PIJBZIF34XR2
228,0.0,left,left,1.0,4.8559,0.0,48.0,48.0,48.0,1.0,playground_60.jpg,playground_268.jpg,7.0,A3PIJBZIF34XR2
229,1.0,left,left,1.0,3.1237,0.0,49.0,49.0,49.0,1.0,bridge_146.jpg,bridge_121.jpg,6.0,A3PIJBZIF34XR2
230,0.0,right,right,1.0,2.9829,0.0,50.0,50.0,50.0,1.0,bridge_31.jpg,bridge_202.jpg,8.0,A3PIJBZIF34XR2
231,1.0,right,right,1.0,3.8835,0.0,51.0,51.0,51.0,1.0,playground_205.jpg,playground_219.jpg,8.0,A3PIJBZIF34XR2
232,1.0,right,right,1.0,1.8494,0.0,52.0,52.0,52.0,1.0,badlands_98.jpg,badlands_21.jpg,4.0,A3PIJBZIF34XR2
233,1.0,left,left,1.0,2.3134,0.0,53.0,53.0,53.0,1.0,highway_93.jpg,highway_369.jpg,7.0,A3PIJBZIF34XR2
234,1.0,right,right,1.0,2.9728,0.0,54.0,54.0,54.0,1.0,bridge_205.jpg,bridge_250.jpg,7.0,A3PIJBZIF34XR2
235,1.0,right,right,1.0,2.7455,0.0,55.0,55.0,55.0,1.0,highway_122.jpg,highway_209.jpg,4.0,A3PIJBZIF34XR2
236,0.0,right,left,0.0,2.3889,0.0,56.0,56.0,56.0,1.0,playground_214.jpg,playground_257.jpg,6.0,A3PIJBZIF34XR2
237,1.0,left,right,0.0,2.4853,0.0,57.0,57.0,57.0,1.0,mountain_156.jpg,mountain_295.jpg,7.0,A3PIJBZIF34XR2
238,0.0,right,right,1.0,5.4352,0.0,58.0,58.0,58.0,1.0,playground_167.jpg,playground_117.jpg,5.0,A3PIJBZIF34XR2
239,1.0,left,left,1.0,4.5454,0.0,59.0,59.0,59.0,1.0,bridge_65.jpg,bridge_60.jpg,3.0,A3PIJBZIF34XR2
240,1.0,right,right,1.0,1.8667,0.0,0.0,0.0,0.0,1.0,mountain_93.jpg,mountain_222.jpg,9.0,A2APG8MSLJ6G2K
241,0.0,right,right,1.0,4.0984,0.0,1.0,1.0,1.0,1.0,mountain_171.jpg,mountain_101.jpg,8.0,A2APG8MSLJ6G2K
242,1.0,left,left,1.0,4.5261,0.0,2.0,2.0,2.0,1.0,badlands_70.jpg,badlands_119.jpg,8.0,A2APG8MSLJ6G2K
243,1.0,left,left,1.0,6.4145,0.0,3.0,3.0,3.0,1.0,playground_131.jpg,playground_164.jpg,7.0,A2APG8MSLJ6G2K
244,0.0,left,left,1.0,3.9457,0.0,4.0,4.0,4.0,1.0,bridge_172.jpg,bridge_17.jpg,2.0,A2APG8MSLJ6G2K
245,1.0,left,right,0.0,4.407,0.0,5.0,5.0,5.0,1.0,highway_294.jpg,highway_368.jpg,5.0,A2APG8MSLJ6G2K
246,1.0,left,left,1.0,2.8445,0.0,6.0,6.0,6.0,1.0,badlands_24.jpg,badlands_53.jpg,8.0,A2APG8MSLJ6G2K
247,0.0,left,left,1.0,3.775,0.0,7.0,7.0,7.0,1.0,bridge_91.jpg,bridge_253.jpg,4.0,A2APG8MSLJ6G2K
248,1.0,left,left,1.0,3.0576,0.0,8.0,8.0,8.0,1.0,mountain_57.jpg,mountain_138.jpg,5.0,A2APG8MSLJ6G2K
249,0.0,right,right,1.0,4.1341,0.0,9.0,9.0,9.0,1.0,badlands_114.jpg,badlands_23.jpg,6.0,A2APG8MSLJ6G2K
250,1.0,right,right,1.0,2.5231,0.0,10.0,10.0,10.0,1.0,golf_course_101.jpg,golf_course_78.jpg,5.0,A2APG8MSLJ6G2K
251,1.0,left,right,0.0,2.7641,0.0,11.0,11.0,11.0,1.0,mountain_293.jpg,mountain_47.jpg,7.0,A2APG8MSLJ6G2K
252,0.0,left,left,1.0,8.3987,0.0,12.0,12.0,12.0,1.0,golf_course_15.jpg,golf_course_113.jpg,4.0,A2APG8MSLJ6G2K
253,1.0,left,left,1.0,3.7323,0.0,13.0,13.0,13.0,1.0,bridge_250.jpg,bridge_205.jpg,7.0,A2APG8MSLJ6G2K
254,1.0,right,left,0.0,6.1783,0.0,14.0,14.0,14.0,1.0,badlands_103.jpg,badlands_184.jpg,6.0,A2APG8MSLJ6G2K
255,0.0,left,left,1.0,3.4913,0.0,15.0,15.0,15.0,1.0,mountain_232.jpg,mountain_3.jpg,4.0,A2APG8MSLJ6G2K
256,0.0,left,left,1.0,2.5216,0.0,16.0,16.0,16.0,1.0,golf_course_87.jpg,golf_course_130.jpg,7.0,A2APG8MSLJ6G2K
257,0.0,right,right,1.0,5.5068,0.0,17.0,17.0,17.0,1.0,mountain_157.jpg,mountain_110.jpg,6.0,A2APG8MSLJ6G2K
258,0.0,right,right,1.0,3.001,0.0,18.0,18.0,18.0,1.0,golf_course_35.jpg,golf_course_217.jpg,5.0,A2APG8MSLJ6G2K
259,1.0,left,left,1.0,2.3606,0.0,19.0,19.0,19.0,1.0,highway_273.jpg,highway_171.jpg,6.0,A2APG8MSLJ6G2K
260,1.0,right,right,1.0,3.6692,0.0,20.0,20.0,20.0,1.0,highway_174.jpg,highway_415.jpg,7.0,A2APG8MSLJ6G2K
261,1.0,left,left,1.0,3.1098,0.0,21.0,21.0,21.0,1.0,bridge_108.jpg,bridge_148.jpg,6.0,A2APG8MSLJ6G2K
262,1.0,left,left,1.0,1.4611,0.0,22.0,22.0,22.0,1.0,playground_144.jpg,playground_65.jpg,7.0,A2APG8MSLJ6G2K
263,0.0,left,right,0.0,11.4382,0.0,23.0,23.0,23.0,1.0,highway_156.jpg,highway_160.jpg,5.0,A2APG8MSLJ6G2K
264,1.0,right,right,1.0,6.9285,0.0,24.0,24.0,24.0,1.0,playground_127.jpg,playground_117.jpg,7.0,A2APG8MSLJ6G2K
265,1.0,right,right,1.0,3.0416,0.0,25.0,25.0,25.0,1.0,mountain_295.jpg,mountain_156.jpg,6.0,A2APG8MSLJ6G2K
266,1.0,right,right,1.0,4.7241,0.0,26.0,26.0,26.0,1.0,highway_278.jpg,highway_177.jpg,6.0,A2APG8MSLJ6G2K
267,1.0,right,right,1.0,2.6728,0.0,27.0,27.0,27.0,1.0,golf_course_2.jpg,golf_course_195.jpg,6.0,A2APG8MSLJ6G2K
268,0.0,left,right,0.0,2.3306,0.0,28.0,28.0,28.0,1.0,badlands_137.jpg,badlands_194.jpg,6.0,A2APG8MSLJ6G2K
269,0.0,left,left,1.0,2.1822,0.0,29.0,29.0,29.0,1.0,playground_10.jpg,playground_122.jpg,6.0,A2APG8MSLJ6G2K
270,1.0,right,left,0.0,3.1413,0.0,30.0,30.0,30.0,1.0,playground_40.jpg,playground_240.jpg,7.0,A2APG8MSLJ6G2K
271,1.0,left,left,1.0,8.533,0.0,31.0,31.0,31.0,1.0,golf_course_331.jpg,golf_course_26.jpg,5.0,A2APG8MSLJ6G2K
272,1.0,left,left,1.0,6.3526,0.0,32.0,32.0,32.0,1.0,mountain_230.jpg,mountain_97.jpg,5.0,A2APG8MSLJ6G2K
273,0.0,right,left,0.0,4.2619,0.0,33.0,33.0,33.0,1.0,bridge_61.jpg,bridge_128.jpg,4.0,A2APG8MSLJ6G2K
274,0.0,right,right,1.0,6.2168,0.0,34.0,34.0,34.0,1.0,playground_214.jpg,playground_257.jpg,8.0,A2APG8MSLJ6G2K
275,1.0,left,left,1.0,1.9751,0.0,35.0,35.0,35.0,1.0,bridge_256.jpg,bridge_211.jpg,5.0,A2APG8MSLJ6G2K
276,0.0,left,left,1.0,4.2363,0.0,36.0,36.0,36.0,1.0,highway_209.jpg,highway_314.jpg,5.0,A2APG8MSLJ6G2K
277,0.0,left,left,1.0,3.07,0.0,37.0,37.0,37.0,1.0,bridge_65.jpg,bridge_181.jpg,6.0,A2APG8MSLJ6G2K
278,0.0,left,left,1.0,5.6086,0.0,38.0,38.0,38.0,1.0,playground_76.jpg,playground_22.jpg,7.0,A2APG8MSLJ6G2K
279,1.0,left,left,1.0,5.4706,0.0,39.0,39.0,39.0,1.0,highway_245.jpg,highway_206.jpg,5.0,A2APG8MSLJ6G2K
280,0.0,left,left,1.0,3.6649,0.0,40.0,40.0,40.0,1.0,badlands_113.jpg,badlands_225.jpg,7.0,A2APG8MSLJ6G2K
281,0.0,right,right,1.0,4.0065,0.0,41.0,41.0,41.0,1.0,playground_229.jpg,playground_145.jpg,6.0,A2APG8MSLJ6G2K
282,0.0,left,left,1.0,2.032,0.0,42.0,42.0,42.0,1.0,highway_93.jpg,highway_85.jpg,6.0,A2APG8MSLJ6G2K
283,0.0,left,left,1.0,1.6924,0.0,43.0,43.0,43.0,1.0,bridge_191.jpg,bridge_184.jpg,4.0,A2APG8MSLJ6G2K
284,0.0,right,right,1.0,2.0774,0.0,44.0,44.0,44.0,1.0,badlands_94.jpg,badlands_52.jpg,6.0,A2APG8MSLJ6G2K
285,0.0,right,left,0.0,10.222,0.0,45.0,45.0,45.0,1.0,mountain_131.jpg,mountain_154.jpg,4.0,A2APG8MSLJ6G2K
286,0.0,left,left,1.0,3.1286,0.0,46.0,46.0,46.0,1.0,highway_394.jpg,highway_204.jpg,4.0,A2APG8MSLJ6G2K
287,1.0,right,left,0.0,2.6102,0.0,47.0,47.0,47.0,1.0,playground_244.jpg,playground_60.jpg,7.0,A2APG8MSLJ6G2K
288,0.0,right,right,1.0,5.2743,0.0,48.0,48.0,48.0,1.0,highway_389.jpg,highway_359.jpg,5.0,A2APG8MSLJ6G2K
289,0.0,right,right,1.0,1.3483,0.0,49.0,49.0,49.0,1.0,golf_course_16.jpg,golf_course_309.jpg,5.0,A2APG8MSLJ6G2K
290,1.0,left,left,1.0,2.2333,0.0,50.0,50.0,50.0,1.0,badlands_21.jpg,badlands_98.jpg,5.0,A2APG8MSLJ6G2K
291,0.0,right,right,1.0,1.9719,0.0,51.0,51.0,51.0,1.0,mountain_94.jpg,mountain_123.jpg,3.0,A2APG8MSLJ6G2K
292,1.0,left,left,1.0,3.7357,0.0,52.0,52.0,52.0,1.0,bridge_146.jpg,bridge_121.jpg,4.0,A2APG8MSLJ6G2K
293,1.0,left,left,1.0,1.4707,0.0,53.0,53.0,53.0,1.0,golf_course_193.jpg,golf_course_123.jpg,5.0,A2APG8MSLJ6G2K
294,1.0,left,left,1.0,9.3975,0.0,54.0,54.0,54.0,1.0,golf_course_214.jpg,golf_course_317.jpg,6.0,A2APG8MSLJ6G2K
295,0.0,right,right,1.0,4.1555,0.0,55.0,55.0,55.0,1.0,golf_course_157.jpg,golf_course_188.jpg,4.0,A2APG8MSLJ6G2K
296,0.0,right,right,1.0,3.3817,0.0,56.0,56.0,56.0,1.0,badlands_34.jpg,badlands_222.jpg,6.0,A2APG8MSLJ6G2K
297,1.0,right,right,1.0,4.672,0.0,57.0,57.0,57.0,1.0,bridge_38.jpg,bridge_202.jpg,6.0,A2APG8MSLJ6G2K
298,0.0,left,left,1.0,3.5473,0.0,58.0,58.0,58.0,1.0,playground_219.jpg,playground_21.jpg,6.0,A2APG8MSLJ6G2K
299,1.0,left,left,1.0,1.8841,0.0,59.0,59.0,59.0,1.0,badlands_221.jpg,badlands_207.jpg,5.0,A2APG8MSLJ6G2K
300,0.0,right,right,1.0,24.6362,0.0,0.0,0.0,0.0,1.0,badlands_1.jpg,badlands_21.jpg,7.0,A3SFP9VSFJY2YW
301,1.0,right,left,0.0,4.7947,0.0,1.0,1.0,1.0,1.0,playground_215.jpg,playground_257.jpg,8.0,A3SFP9VSFJY2YW
302,1.0,right,left,0.0,3.3854,0.0,2.0,2.0,2.0,1.0,badlands_119.jpg,badlands_70.jpg,8.0,A3SFP9VSFJY2YW
303,1.0,right,left,0.0,3.2751,0.0,3.0,3.0,3.0,1.0,golf_course_262.jpg,golf_course_217.jpg,7.0,A3SFP9VSFJY2YW
304,0.0,left,right,0.0,3.0443,0.0,4.0,4.0,4.0,1.0,playground_76.jpg,playground_22.jpg,7.0,A3SFP9VSFJY2YW
305,1.0,left,right,0.0,2.8929,0.0,5.0,5.0,5.0,1.0,highway_294.jpg,highway_368.jpg,7.0,A3SFP9VSFJY2YW
306,0.0,right,right,1.0,2.7555,0.0,6.0,6.0,6.0,1.0,bridge_184.jpg,bridge_191.jpg,7.0,A3SFP9VSFJY2YW
307,1.0,right,right,1.0,3.5994,0.0,7.0,7.0,7.0,1.0,mountain_97.jpg,mountain_230.jpg,7.0,A3SFP9VSFJY2YW
308,0.0,left,left,1.0,2.9405,0.0,8.0,8.0,8.0,1.0,badlands_24.jpg,badlands_3.jpg,8.0,A3SFP9VSFJY2YW
309,1.0,left,right,0.0,3.7509,0.0,9.0,9.0,9.0,1.0,bridge_146.jpg,bridge_121.jpg,7.0,A3SFP9VSFJY2YW
310,1.0,left,left,1.0,2.7903,0.0,10.0,10.0,10.0,1.0,golf_course_331.jpg,golf_course_26.jpg,8.0,A3SFP9VSFJY2YW
311,1.0,left,left,1.0,3.6465,0.0,11.0,11.0,11.0,1.0,mountain_232.jpg,mountain_54.jpg,8.0,A3SFP9VSFJY2YW
312,1.0,right,right,1.0,2.2019,0.0,12.0,12.0,12.0,1.0,bridge_205.jpg,bridge_250.jpg,7.0,A3SFP9VSFJY2YW
313,0.0,left,right,0.0,3.122,0.0,13.0,13.0,13.0,1.0,badlands_184.jpg,badlands_228.jpg,7.0,A3SFP9VSFJY2YW
314,0.0,left,right,0.0,2.628,0.0,14.0,14.0,14.0,1.0,mountain_222.jpg,mountain_244.jpg,7.0,A3SFP9VSFJY2YW
315,0.0,right,left,0.0,2.3505,0.0,15.0,15.0,15.0,1.0,bridge_116.jpg,bridge_108.jpg,7.0,A3SFP9VSFJY2YW
316,1.0,right,right,1.0,2.6107,0.0,16.0,16.0,16.0,1.0,badlands_63.jpg,badlands_52.jpg,7.0,A3SFP9VSFJY2YW
317,0.0,right,right,1.0,7.4309,0.0,17.0,17.0,17.0,1.0,playground_137.jpg,playground_144.jpg,7.0,A3SFP9VSFJY2YW
318,1.0,right,right,1.0,2.4819,0.0,18.0,18.0,18.0,1.0,bridge_244.jpg,bridge_128.jpg,7.0,A3SFP9VSFJY2YW
319,0.0,left,left,1.0,2.8553,0.0,19.0,19.0,19.0,1.0,badlands_221.jpg,badlands_115.jpg,7.0,A3SFP9VSFJY2YW
320,1.0,right,right,1.0,4.5404,0.0,20.0,20.0,20.0,1.0,golf_course_123.jpg,golf_course_193.jpg,7.0,A3SFP9VSFJY2YW
321,0.0,right,right,1.0,3.3877,0.0,21.0,21.0,21.0,1.0,bridge_253.jpg,bridge_91.jpg,8.0,A3SFP9VSFJY2YW
322,1.0,left,left,1.0,2.6197,0.0,22.0,22.0,22.0,1.0,playground_219.jpg,playground_205.jpg,8.0,A3SFP9VSFJY2YW
323,0.0,right,right,1.0,2.6527,0.0,23.0,23.0,23.0,1.0,playground_43.jpg,playground_131.jpg,8.0,A3SFP9VSFJY2YW
324,1.0,right,right,1.0,2.1394,0.0,24.0,24.0,24.0,1.0,bridge_163.jpg,bridge_172.jpg,8.0,A3SFP9VSFJY2YW
325,1.0,left,right,0.0,4.3292,0.0,25.0,25.0,25.0,1.0,badlands_113.jpg,badlands_203.jpg,8.0,A3SFP9VSFJY2YW
326,1.0,left,right,0.0,2.4625,0.0,26.0,26.0,26.0,1.0,badlands_137.jpg,badlands_139.jpg,7.0,A3SFP9VSFJY2YW
327,0.0,left,right,0.0,3.4582,0.0,27.0,27.0,27.0,1.0,golf_course_214.jpg,golf_course_312.jpg,7.0,A3SFP9VSFJY2YW
328,0.0,left,right,0.0,5.6997,0.0,28.0,28.0,28.0,1.0,playground_10.jpg,playground_122.jpg,8.0,A3SFP9VSFJY2YW
329,0.0,right,left,0.0,3.6615,0.0,29.0,29.0,29.0,1.0,playground_268.jpg,playground_60.jpg,8.0,A3SFP9VSFJY2YW
330,0.0,right,right,1.0,2.5082,0.0,30.0,30.0,30.0,1.0,mountain_128.jpg,mountain_156.jpg,8.0,A3SFP9VSFJY2YW
331,0.0,right,left,0.0,3.4351,0.0,31.0,31.0,31.0,1.0,mountain_94.jpg,mountain_123.jpg,8.0,A3SFP9VSFJY2YW
332,1.0,left,right,0.0,2.4719,0.0,32.0,32.0,32.0,1.0,mountain_110.jpg,mountain_223.jpg,8.0,A3SFP9VSFJY2YW
333,0.0,left,left,1.0,3.7449,0.0,33.0,33.0,33.0,1.0,bridge_202.jpg,bridge_31.jpg,8.0,A3SFP9VSFJY2YW
334,1.0,right,right,1.0,1.9502,0.0,34.0,34.0,34.0,1.0,mountain_138.jpg,mountain_57.jpg,8.0,A3SFP9VSFJY2YW
335,0.0,left,left,1.0,2.501,0.0,35.0,35.0,35.0,1.0,golf_course_87.jpg,golf_course_130.jpg,8.0,A3SFP9VSFJY2YW
336,1.0,right,right,1.0,2.219,0.0,36.0,36.0,36.0,1.0,playground_40.jpg,playground_240.jpg,8.0,A3SFP9VSFJY2YW
337,1.0,right,right,1.0,2.9813,0.0,37.0,37.0,37.0,1.0,playground_127.jpg,playground_117.jpg,8.0,A3SFP9VSFJY2YW
338,0.0,right,right,1.0,2.3567,0.0,38.0,38.0,38.0,1.0,highway_85.jpg,highway_93.jpg,8.0,A3SFP9VSFJY2YW
339,1.0,right,left,0.0,4.5922,0.0,39.0,39.0,39.0,1.0,highway_293.jpg,highway_156.jpg,8.0,A3SFP9VSFJY2YW
340,0.0,left,left,1.0,2.9842,0.0,40.0,40.0,40.0,1.0,golf_course_15.jpg,golf_course_113.jpg,8.0,A3SFP9VSFJY2YW
341,1.0,left,right,0.0,2.6167,0.0,41.0,41.0,41.0,1.0,playground_145.jpg,playground_242.jpg,8.0,A3SFP9VSFJY2YW
342,1.0,left,left,1.0,3.1148,0.0,42.0,42.0,42.0,1.0,badlands_23.jpg,badlands_101.jpg,8.0,A3SFP9VSFJY2YW
343,0.0,left,right,0.0,2.2776,0.0,43.0,43.0,43.0,1.0,mountain_101.jpg,mountain_171.jpg,8.0,A3SFP9VSFJY2YW
344,0.0,left,left,1.0,2.3774,0.0,44.0,44.0,44.0,1.0,golf_course_195.jpg,golf_course_25.jpg,8.0,A3SFP9VSFJY2YW
345,0.0,right,left,0.0,2.3693,0.0,45.0,45.0,45.0,1.0,highway_134.jpg,highway_245.jpg,8.0,A3SFP9VSFJY2YW
346,1.0,left,right,0.0,2.0793,0.0,46.0,46.0,46.0,1.0,golf_course_309.jpg,golf_course_209.jpg,8.0,A3SFP9VSFJY2YW
347,1.0,left,left,1.0,2.1905,0.0,47.0,47.0,47.0,1.0,mountain_293.jpg,mountain_47.jpg,8.0,A3SFP9VSFJY2YW
348,1.0,left,right,0.0,1.7041,0.0,48.0,48.0,48.0,1.0,golf_course_188.jpg,golf_course_160.jpg,8.0,A3SFP9VSFJY2YW
349,0.0,left,right,0.0,1.5648,0.0,49.0,49.0,49.0,1.0,bridge_65.jpg,bridge_181.jpg,8.0,A3SFP9VSFJY2YW
350,0.0,left,left,1.0,1.806,0.0,50.0,50.0,50.0,1.0,highway_177.jpg,highway_87.jpg,8.0,A3SFP9VSFJY2YW
351,1.0,right,right,1.0,1.5933,0.0,51.0,51.0,51.0,1.0,bridge_211.jpg,bridge_256.jpg,8.0,A3SFP9VSFJY2YW
352,0.0,left,right,0.0,3.884,0.0,52.0,52.0,52.0,1.0,golf_course_78.jpg,golf_course_134.jpg,7.0,A3SFP9VSFJY2YW
353,0.0,left,left,1.0,2.8793,0.0,53.0,53.0,53.0,1.0,mountain_154.jpg,mountain_131.jpg,7.0,A3SFP9VSFJY2YW
354,1.0,left,right,0.0,3.6735,0.0,54.0,54.0,54.0,1.0,highway_394.jpg,highway_406.jpg,7.0,A3SFP9VSFJY2YW
355,1.0,right,right,1.0,2.5036,0.0,55.0,55.0,55.0,1.0,highway_171.jpg,highway_273.jpg,7.0,A3SFP9VSFJY2YW
356,0.0,right,right,1.0,2.4535,0.0,56.0,56.0,56.0,1.0,highway_314.jpg,highway_209.jpg,7.0,A3SFP9VSFJY2YW
357,0.0,left,left,1.0,5.9141,0.0,57.0,57.0,57.0,1.0,highway_359.jpg,highway_389.jpg,7.0,A3SFP9VSFJY2YW
358,1.0,right,right,1.0,2.9629,0.0,58.0,58.0,58.0,1.0,highway_174.jpg,highway_415.jpg,8.0,A3SFP9VSFJY2YW
359,0.0,right,left,0.0,2.3524,0.0,59.0,59.0,59.0,1.0,badlands_34.jpg,badlands_222.jpg,8.0,A3SFP9VSFJY2YW
360,1.0,left,left,1.0,1.7296,0.0,0.0,0.0,0.0,1.0,mountain_57.jpg,mountain_138.jpg,5.0,A8C3WNWRBWUXO
361,1.0,right,right,1.0,3.0876,0.0,1.0,1.0,1.0,1.0,mountain_189.jpg,mountain_123.jpg,8.0,A8C3WNWRBWUXO
362,0.0,left,left,1.0,1.7089,0.0,2.0,2.0,2.0,1.0,playground_60.jpg,playground_268.jpg,7.0,A8C3WNWRBWUXO
363,1.0,right,left,0.0,4.9837,0.0,3.0,3.0,3.0,1.0,golf_course_209.jpg,golf_course_309.jpg,6.0,A8C3WNWRBWUXO
364,1.0,right,right,1.0,2.3385,0.0,4.0,4.0,4.0,1.0,bridge_163.jpg,bridge_172.jpg,7.0,A8C3WNWRBWUXO
365,0.0,right,right,1.0,2.5291,0.0,5.0,5.0,5.0,1.0,highway_203.jpg,highway_294.jpg,8.0,A8C3WNWRBWUXO
366,1.0,left,left,1.0,3.5874,0.0,6.0,6.0,6.0,1.0,highway_245.jpg,highway_206.jpg,8.0,A8C3WNWRBWUXO
367,0.0,left,left,1.0,1.6726,0.0,7.0,7.0,7.0,1.0,playground_10.jpg,playground_122.jpg,8.0,A8C3WNWRBWUXO
368,1.0,left,left,1.0,3.6048,0.0,8.0,8.0,8.0,1.0,mountain_232.jpg,mountain_54.jpg,8.0,A8C3WNWRBWUXO
369,0.0,left,left,1.0,2.1436,0.0,9.0,9.0,9.0,1.0,playground_144.jpg,playground_137.jpg,7.0,A8C3WNWRBWUXO
370,1.0,left,right,0.0,3.1481,0.0,10.0,10.0,10.0,1.0,badlands_70.jpg,badlands_119.jpg,6.0,A8C3WNWRBWUXO
371,0.0,left,left,1.0,4.4266,0.0,11.0,11.0,11.0,1.0,golf_course_195.jpg,golf_course_25.jpg,6.0,A8C3WNWRBWUXO
372,1.0,right,left,0.0,2.8064,0.0,12.0,12.0,12.0,1.0,playground_40.jpg,playground_240.jpg,8.0,A8C3WNWRBWUXO
373,1.0,right,right,1.0,2.68,0.0,13.0,13.0,13.0,1.0,badlands_98.jpg,badlands_21.jpg,6.0,A8C3WNWRBWUXO
374,1.0,right,right,1.0,3.0669,0.0,14.0,14.0,14.0,1.0,golf_course_101.jpg,golf_course_78.jpg,6.0,A8C3WNWRBWUXO
375,0.0,right,right,1.0,2.2045,0.0,15.0,15.0,15.0,1.0,playground_21.jpg,playground_219.jpg,8.0,A8C3WNWRBWUXO
376,0.0,left,left,1.0,2.2049,0.0,16.0,16.0,16.0,1.0,bridge_108.jpg,bridge_116.jpg,6.0,A8C3WNWRBWUXO
377,1.0,left,left,1.0,2.5347,0.0,17.0,17.0,17.0,1.0,mountain_154.jpg,mountain_95.jpg,8.0,A8C3WNWRBWUXO
378,1.0,right,right,1.0,3.5615,0.0,18.0,18.0,18.0,1.0,bridge_121.jpg,bridge_146.jpg,7.0,A8C3WNWRBWUXO
379,0.0,left,left,1.0,2.275,0.0,19.0,19.0,19.0,1.0,golf_course_331.jpg,golf_course_114.jpg,6.0,A8C3WNWRBWUXO
380,0.0,right,right,1.0,1.7529,0.0,20.0,20.0,20.0,1.0,mountain_128.jpg,mountain_156.jpg,8.0,A8C3WNWRBWUXO
381,1.0,right,right,1.0,3.4805,0.0,21.0,21.0,21.0,1.0,playground_127.jpg,playground_117.jpg,8.0,A8C3WNWRBWUXO
382,0.0,left,left,1.0,2.5188,0.0,22.0,22.0,22.0,1.0,bridge_202.jpg,bridge_31.jpg,5.0,A8C3WNWRBWUXO
383,1.0,left,left,1.0,2.4846,0.0,23.0,23.0,23.0,1.0,bridge_250.jpg,bridge_205.jpg,8.0,A8C3WNWRBWUXO
384,0.0,left,left,1.0,1.654,0.0,24.0,24.0,24.0,1.0,badlands_222.jpg,badlands_34.jpg,7.0,A8C3WNWRBWUXO
385,0.0,right,right,1.0,1.6467,0.0,25.0,25.0,25.0,1.0,golf_course_235.jpg,golf_course_193.jpg,7.0,A8C3WNWRBWUXO
386,0.0,right,left,0.0,2.7637,0.0,26.0,26.0,26.0,1.0,highway_160.jpg,highway_156.jpg,7.0,A8C3WNWRBWUXO
387,1.0,right,right,1.0,2.132,0.0,27.0,27.0,27.0,1.0,golf_course_317.jpg,golf_course_214.jpg,8.0,A8C3WNWRBWUXO
388,1.0,left,left,1.0,4.2402,0.0,28.0,28.0,28.0,1.0,highway_93.jpg,highway_369.jpg,8.0,A8C3WNWRBWUXO
389,0.0,left,left,1.0,2.8787,0.0,29.0,29.0,29.0,1.0,badlands_184.jpg,badlands_228.jpg,8.0,A8C3WNWRBWUXO
390,0.0,right,right,1.0,2.3398,0.0,30.0,30.0,30.0,1.0,highway_389.jpg,highway_359.jpg,6.0,A8C3WNWRBWUXO
391,0.0,left,left,1.0,2.1553,0.0,31.0,31.0,31.0,1.0,bridge_128.jpg,bridge_61.jpg,6.0,A8C3WNWRBWUXO
392,1.0,right,right,1.0,2.2151,0.0,32.0,32.0,32.0,1.0,badlands_203.jpg,badlands_113.jpg,8.0,A8C3WNWRBWUXO
393,1.0,left,left,1.0,3.9467,0.0,33.0,33.0,33.0,1.0,highway_209.jpg,highway_122.jpg,8.0,A8C3WNWRBWUXO
394,1.0,left,left,1.0,3.0941,0.0,34.0,34.0,34.0,1.0,highway_177.jpg,highway_278.jpg,8.0,A8C3WNWRBWUXO
395,0.0,right,right,1.0,1.9081,0.0,35.0,35.0,35.0,1.0,mountain_157.jpg,mountain_110.jpg,8.0,A8C3WNWRBWUXO
396,0.0,right,right,1.0,2.2211,0.0,36.0,36.0,36.0,1.0,badlands_94.jpg,badlands_52.jpg,7.0,A8C3WNWRBWUXO
397,0.0,right,left,0.0,2.2325,0.0,37.0,37.0,37.0,1.0,mountain_171.jpg,mountain_101.jpg,7.0,A8C3WNWRBWUXO
398,0.0,right,left,0.0,2.6288,0.0,38.0,38.0,38.0,1.0,mountain_244.jpg,mountain_222.jpg,6.0,A8C3WNWRBWUXO
399,1.0,left,left,1.0,2.8193,0.0,39.0,39.0,39.0,1.0,playground_76.jpg,playground_72.jpg,7.0,A8C3WNWRBWUXO
400,1.0,left,left,1.0,2.2703,0.0,40.0,40.0,40.0,1.0,golf_course_15.jpg,golf_course_97.jpg,7.0,A8C3WNWRBWUXO
401,0.0,right,left,0.0,2.3101,0.0,41.0,41.0,41.0,1.0,mountain_184.jpg,mountain_230.jpg,7.0,A8C3WNWRBWUXO
402,1.0,left,left,1.0,3.0194,0.0,42.0,42.0,42.0,1.0,playground_131.jpg,playground_164.jpg,8.0,A8C3WNWRBWUXO
403,1.0,left,left,1.0,2.6726,0.0,43.0,43.0,43.0,1.0,mountain_293.jpg,mountain_47.jpg,8.0,A8C3WNWRBWUXO
404,0.0,left,left,1.0,1.7757,0.0,44.0,44.0,44.0,1.0,bridge_191.jpg,bridge_184.jpg,6.0,A8C3WNWRBWUXO
405,0.0,right,left,0.0,2.3517,0.0,45.0,45.0,45.0,1.0,golf_course_130.jpg,golf_course_87.jpg,7.0,A8C3WNWRBWUXO
406,0.0,left,left,1.0,6.7197,0.0,46.0,46.0,46.0,1.0,highway_273.jpg,highway_384.jpg,8.0,A8C3WNWRBWUXO
407,1.0,right,right,1.0,3.0331,0.0,47.0,47.0,47.0,1.0,badlands_101.jpg,badlands_23.jpg,6.0,A8C3WNWRBWUXO
408,0.0,left,left,1.0,2.5819,0.0,48.0,48.0,48.0,1.0,bridge_91.jpg,bridge_253.jpg,5.0,A8C3WNWRBWUXO
409,0.0,left,right,0.0,2.7458,0.0,49.0,49.0,49.0,1.0,badlands_137.jpg,badlands_194.jpg,7.0,A8C3WNWRBWUXO
410,0.0,right,right,1.0,2.2133,0.0,50.0,50.0,50.0,1.0,playground_229.jpg,playground_145.jpg,8.0,A8C3WNWRBWUXO
411,1.0,left,left,1.0,3.9153,0.0,51.0,51.0,51.0,1.0,playground_257.jpg,playground_215.jpg,6.0,A8C3WNWRBWUXO
412,0.0,right,left,0.0,4.0818,0.0,52.0,52.0,52.0,1.0,highway_204.jpg,highway_394.jpg,7.0,A8C3WNWRBWUXO
413,1.0,left,left,1.0,1.9491,0.0,53.0,53.0,53.0,1.0,golf_course_188.jpg,golf_course_160.jpg,7.0,A8C3WNWRBWUXO
414,0.0,left,left,1.0,2.4063,0.0,54.0,54.0,54.0,1.0,golf_course_217.jpg,golf_course_35.jpg,7.0,A8C3WNWRBWUXO
415,1.0,right,right,1.0,1.87,0.0,55.0,55.0,55.0,1.0,bridge_211.jpg,bridge_256.jpg,7.0,A8C3WNWRBWUXO
416,0.0,right,right,1.0,2.5203,0.0,56.0,56.0,56.0,1.0,badlands_3.jpg,badlands_24.jpg,7.0,A8C3WNWRBWUXO
417,1.0,right,right,1.0,1.5145,0.0,57.0,57.0,57.0,1.0,badlands_207.jpg,badlands_221.jpg,7.0,A8C3WNWRBWUXO
418,1.0,left,right,0.0,4.7766,0.0,58.0,58.0,58.0,1.0,bridge_65.jpg,bridge_60.jpg,6.0,A8C3WNWRBWUXO
419,1.0,left,left,1.0,4.5074,0.0,59.0,59.0,59.0,1.0,highway_415.jpg,highway_174.jpg,8.0,A8C3WNWRBWUXO
420,1.0,right,right,1.0,4.793,0.0,0.0,0.0,0.0,1.0,mountain_97.jpg,mountain_230.jpg,5.0,A9HQ3E0F2AGVO
421,0.0,left,right,0.0,4.7009,0.0,1.0,1.0,1.0,1.0,playground_240.jpg,playground_2.jpg,4.0,A9HQ3E0F2AGVO
422,0.0,right,right,1.0,2.3677,0.0,2.0,2.0,2.0,1.0,playground_229.jpg,playground_145.jpg,3.0,A9HQ3E0F2AGVO
423,0.0,right,left,0.0,2.6171,0.0,3.0,3.0,3.0,1.0,playground_122.jpg,playground_10.jpg,7.0,A9HQ3E0F2AGVO
424,0.0,right,right,1.0,6.7669,0.0,4.0,4.0,4.0,1.0,badlands_225.jpg,badlands_113.jpg,7.0,A9HQ3E0F2AGVO
425,1.0,left,left,1.0,4.0164,0.0,5.0,5.0,5.0,1.0,playground_117.jpg,playground_127.jpg,7.0,A9HQ3E0F2AGVO
426,1.0,left,left,1.0,1.6979,0.0,6.0,6.0,6.0,1.0,badlands_221.jpg,badlands_207.jpg,2.0,A9HQ3E0F2AGVO
427,1.0,right,left,0.0,3.5648,0.0,7.0,7.0,7.0,1.0,badlands_139.jpg,badlands_137.jpg,5.0,A9HQ3E0F2AGVO
428,0.0,left,left,1.0,2.0708,0.0,8.0,8.0,8.0,1.0,playground_60.jpg,playground_268.jpg,4.0,A9HQ3E0F2AGVO
429,0.0,left,right,0.0,3.5514,0.0,9.0,9.0,9.0,1.0,bridge_256.jpg,bridge_54.jpg,6.0,A9HQ3E0F2AGVO
430,0.0,left,left,1.0,2.9845,0.0,10.0,10.0,10.0,1.0,bridge_65.jpg,bridge_181.jpg,6.0,A9HQ3E0F2AGVO
431,0.0,right,right,1.0,2.4662,0.0,11.0,11.0,11.0,1.0,badlands_94.jpg,badlands_52.jpg,2.0,A9HQ3E0F2AGVO
432,1.0,right,right,1.0,1.552,0.0,12.0,12.0,12.0,1.0,bridge_163.jpg,bridge_172.jpg,3.0,A9HQ3E0F2AGVO
433,0.0,left,left,1.0,2.3837,0.0,13.0,13.0,13.0,1.0,golf_course_309.jpg,golf_course_16.jpg,6.0,A9HQ3E0F2AGVO
434,1.0,left,left,1.0,1.912,0.0,14.0,14.0,14.0,1.0,playground_76.jpg,playground_72.jpg,7.0,A9HQ3E0F2AGVO
435,0.0,left,left,1.0,2.1007,0.0,15.0,15.0,15.0,1.0,highway_177.jpg,highway_87.jpg,4.0,A9HQ3E0F2AGVO
436,1.0,right,right,1.0,1.4175,0.0,16.0,16.0,16.0,1.0,playground_65.jpg,playground_144.jpg,3.0,A9HQ3E0F2AGVO
437,0.0,left,left,1.0,4.9204,0.0,17.0,17.0,17.0,1.0,golf_course_87.jpg,golf_course_130.jpg,4.0,A9HQ3E0F2AGVO
438,1.0,right,left,0.0,3.1665,0.0,18.0,18.0,18.0,1.0,mountain_189.jpg,mountain_123.jpg,7.0,A9HQ3E0F2AGVO
439,0.0,right,right,1.0,2.654,0.0,19.0,19.0,19.0,1.0,mountain_157.jpg,mountain_110.jpg,7.0,A9HQ3E0F2AGVO
440,0.0,left,right,0.0,1.7293,0.0,20.0,20.0,20.0,1.0,mountain_57.jpg,mountain_193.jpg,5.0,A9HQ3E0F2AGVO
441,0.0,left,left,1.0,2.1987,0.0,21.0,21.0,21.0,1.0,mountain_156.jpg,mountain_128.jpg,5.0,A9HQ3E0F2AGVO
442,0.0,left,right,0.0,1.8675,0.0,22.0,22.0,22.0,1.0,bridge_250.jpg,bridge_134.jpg,6.0,A9HQ3E0F2AGVO
443,0.0,left,left,1.0,1.4001,0.0,23.0,23.0,23.0,1.0,bridge_91.jpg,bridge_253.jpg,2.0,A9HQ3E0F2AGVO
444,1.0,right,right,1.0,3.4826,0.0,24.0,24.0,24.0,1.0,golf_course_2.jpg,golf_course_195.jpg,7.0,A9HQ3E0F2AGVO
445,0.0,left,left,1.0,2.2755,0.0,25.0,25.0,25.0,1.0,highway_93.jpg,highway_85.jpg,3.0,A9HQ3E0F2AGVO
446,0.0,right,right,1.0,1.5842,0.0,26.0,26.0,26.0,1.0,golf_course_114.jpg,golf_course_331.jpg,2.0,A9HQ3E0F2AGVO
447,1.0,right,left,0.0,3.6513,0.0,27.0,27.0,27.0,1.0,bridge_121.jpg,bridge_146.jpg,4.0,A9HQ3E0F2AGVO
448,1.0,right,right,1.0,2.0482,0.0,28.0,28.0,28.0,1.0,badlands_119.jpg,badlands_70.jpg,5.0,A9HQ3E0F2AGVO
449,1.0,left,right,0.0,2.1015,0.0,29.0,29.0,29.0,1.0,playground_131.jpg,playground_164.jpg,7.0,A9HQ3E0F2AGVO
450,0.0,right,right,1.0,2.0235,0.0,30.0,30.0,30.0,1.0,golf_course_113.jpg,golf_course_15.jpg,3.0,A9HQ3E0F2AGVO
451,1.0,right,right,1.0,1.5899,0.0,31.0,31.0,31.0,1.0,bridge_244.jpg,bridge_128.jpg,2.0,A9HQ3E0F2AGVO
452,1.0,left,left,1.0,1.8569,0.0,32.0,32.0,32.0,1.0,mountain_222.jpg,mountain_93.jpg,5.0,A9HQ3E0F2AGVO
453,1.0,left,left,1.0,2.3288,0.0,33.0,33.0,33.0,1.0,highway_359.jpg,highway_379.jpg,8.0,A9HQ3E0F2AGVO
454,0.0,right,right,1.0,1.6221,0.0,34.0,34.0,34.0,1.0,badlands_3.jpg,badlands_24.jpg,5.0,A9HQ3E0F2AGVO
455,1.0,right,right,1.0,2.358,0.0,35.0,35.0,35.0,1.0,golf_course_317.jpg,golf_course_214.jpg,7.0,A9HQ3E0F2AGVO
456,0.0,left,right,0.0,2.8895,0.0,36.0,36.0,36.0,1.0,mountain_101.jpg,mountain_171.jpg,5.0,A9HQ3E0F2AGVO
457,1.0,right,left,0.0,1.3747,0.0,37.0,37.0,37.0,1.0,golf_course_123.jpg,golf_course_193.jpg,3.0,A9HQ3E0F2AGVO
458,1.0,right,right,1.0,2.7806,0.0,38.0,38.0,38.0,1.0,golf_course_262.jpg,golf_course_217.jpg,4.0,A9HQ3E0F2AGVO
459,1.0,right,right,1.0,1.663,0.0,39.0,39.0,39.0,1.0,mountain_47.jpg,mountain_293.jpg,7.0,A9HQ3E0F2AGVO
460,1.0,right,left,0.0,1.7065,0.0,40.0,40.0,40.0,1.0,bridge_75.jpg,bridge_191.jpg,7.0,A9HQ3E0F2AGVO
461,1.0,right,left,0.0,1.5745,0.0,41.0,41.0,41.0,1.0,badlands_103.jpg,badlands_184.jpg,5.0,A9HQ3E0F2AGVO
462,1.0,left,right,0.0,3.3503,0.0,42.0,42.0,42.0,1.0,highway_273.jpg,highway_171.jpg,8.0,A9HQ3E0F2AGVO
463,0.0,left,left,1.0,2.2834,0.0,43.0,43.0,43.0,1.0,highway_415.jpg,highway_60.jpg,7.0,A9HQ3E0F2AGVO
464,1.0,left,right,0.0,2.0276,0.0,44.0,44.0,44.0,1.0,bridge_108.jpg,bridge_148.jpg,6.0,A9HQ3E0F2AGVO
465,0.0,right,left,0.0,2.1014,0.0,45.0,45.0,45.0,1.0,highway_134.jpg,highway_245.jpg,3.0,A9HQ3E0F2AGVO
466,0.0,left,left,1.0,1.3331,0.0,46.0,46.0,46.0,1.0,mountain_232.jpg,mountain_3.jpg,3.0,A9HQ3E0F2AGVO
467,0.0,left,right,0.0,2.9813,0.0,47.0,47.0,47.0,1.0,highway_156.jpg,highway_160.jpg,4.0,A9HQ3E0F2AGVO
468,0.0,left,right,0.0,2.0479,0.0,48.0,48.0,48.0,1.0,badlands_23.jpg,badlands_114.jpg,7.0,A9HQ3E0F2AGVO
469,0.0,left,left,1.0,1.7496,0.0,49.0,49.0,49.0,1.0,bridge_202.jpg,bridge_31.jpg,2.0,A9HQ3E0F2AGVO
470,1.0,left,left,1.0,1.7071,0.0,50.0,50.0,50.0,1.0,badlands_21.jpg,badlands_98.jpg,6.0,A9HQ3E0F2AGVO
471,1.0,right,right,1.0,3.1502,0.0,51.0,51.0,51.0,1.0,golf_course_101.jpg,golf_course_78.jpg,6.0,A9HQ3E0F2AGVO
472,0.0,left,left,1.0,4.3336,0.0,52.0,52.0,52.0,1.0,playground_219.jpg,playground_21.jpg,8.0,A9HQ3E0F2AGVO
473,1.0,left,left,1.0,1.6006,0.0,53.0,53.0,53.0,1.0,playground_257.jpg,playground_215.jpg,7.0,A9HQ3E0F2AGVO
474,0.0,left,right,0.0,1.6345,0.0,54.0,54.0,54.0,1.0,badlands_222.jpg,badlands_34.jpg,6.0,A9HQ3E0F2AGVO
475,0.0,right,left,0.0,1.7502,0.0,55.0,55.0,55.0,1.0,golf_course_157.jpg,golf_course_188.jpg,3.0,A9HQ3E0F2AGVO
476,1.0,left,right,0.0,1.467,0.0,56.0,56.0,56.0,1.0,mountain_154.jpg,mountain_95.jpg,5.0,A9HQ3E0F2AGVO
477,1.0,left,left,1.0,3.7166,0.0,57.0,57.0,57.0,1.0,highway_294.jpg,highway_368.jpg,7.0,A9HQ3E0F2AGVO
478,1.0,left,left,1.0,2.9001,0.0,58.0,58.0,58.0,1.0,highway_209.jpg,highway_122.jpg,9.0,A9HQ3E0F2AGVO
479,1.0,right,right,1.0,2.1669,0.0,59.0,59.0,59.0,1.0,highway_406.jpg,highway_394.jpg,8.0,A9HQ3E0F2AGVO
480,1.0,right,right,1.0,7.777,0.0,0.0,0.0,0.0,1.0,mountain_97.jpg,mountain_230.jpg,7.0,A2LQO0696YYC1Q
481,1.0,left,left,1.0,6.856,0.0,1.0,1.0,1.0,1.0,highway_209.jpg,highway_122.jpg,7.0,A2LQO0696YYC1Q
482,0.0,right,right,1.0,5.051,0.0,2.0,2.0,2.0,1.0,bridge_17.jpg,bridge_172.jpg,7.0,A2LQO0696YYC1Q
483,0.0,left,left,1.0,3.849,0.0,3.0,3.0,3.0,1.0,mountain_101.jpg,mountain_171.jpg,6.0,A2LQO0696YYC1Q
484,1.0,left,left,1.0,2.624,0.0,4.0,4.0,4.0,1.0,playground_144.jpg,playground_65.jpg,8.0,A2LQO0696YYC1Q
485,0.0,right,left,0.0,2.581,0.0,5.0,5.0,5.0,1.0,bridge_116.jpg,bridge_108.jpg,6.0,A2LQO0696YYC1Q
486,0.0,right,right,1.0,2.729,0.0,6.0,6.0,6.0,1.0,playground_43.jpg,playground_131.jpg,8.0,A2LQO0696YYC1Q
487,0.0,left,left,1.0,2.077,0.0,7.0,7.0,7.0,1.0,golf_course_331.jpg,golf_course_114.jpg,5.0,A2LQO0696YYC1Q
488,1.0,right,left,0.0,3.26,0.0,8.0,8.0,8.0,1.0,bridge_38.jpg,bridge_202.jpg,4.0,A2LQO0696YYC1Q
489,0.0,left,right,0.0,3.485,0.0,9.0,9.0,9.0,1.0,badlands_113.jpg,badlands_225.jpg,5.0,A2LQO0696YYC1Q
490,1.0,left,left,1.0,2.223,0.0,10.0,10.0,10.0,1.0,golf_course_15.jpg,golf_course_97.jpg,5.0,A2LQO0696YYC1Q
491,1.0,right,right,1.0,6.285,0.0,11.0,11.0,11.0,1.0,highway_206.jpg,highway_245.jpg,8.0,A2LQO0696YYC1Q
492,0.0,left,left,1.0,2.639,0.0,12.0,12.0,12.0,1.0,mountain_110.jpg,mountain_157.jpg,6.0,A2LQO0696YYC1Q
493,1.0,right,right,1.0,2.542,0.0,13.0,13.0,13.0,1.0,playground_40.jpg,playground_240.jpg,8.0,A2LQO0696YYC1Q
494,0.0,left,right,0.0,4.642,0.0,14.0,14.0,14.0,1.0,highway_273.jpg,highway_384.jpg,7.0,A2LQO0696YYC1Q
495,1.0,left,left,1.0,1.961,0.0,15.0,15.0,15.0,1.0,badlands_23.jpg,badlands_101.jpg,6.0,A2LQO0696YYC1Q
496,1.0,left,left,1.0,2.977,0.0,16.0,16.0,16.0,1.0,mountain_123.jpg,mountain_189.jpg,5.0,A2LQO0696YYC1Q
497,0.0,left,left,1.0,1.588,0.0,17.0,17.0,17.0,1.0,mountain_232.jpg,mountain_3.jpg,7.0,A2LQO0696YYC1Q
498,1.0,left,left,1.0,2.021,0.0,18.0,18.0,18.0,1.0,highway_93.jpg,highway_369.jpg,5.0,A2LQO0696YYC1Q
499,1.0,left,left,1.0,2.572,0.0,19.0,19.0,19.0,1.0,mountain_222.jpg,mountain_93.jpg,7.0,A2LQO0696YYC1Q
500,1.0,left,left,1.0,2.055,0.0,20.0,20.0,20.0,1.0,highway_156.jpg,highway_293.jpg,8.0,A2LQO0696YYC1Q
501,0.0,right,right,1.0,2.081,0.0,21.0,21.0,21.0,1.0,highway_389.jpg,highway_359.jpg,6.0,A2LQO0696YYC1Q
502,0.0,right,right,1.0,1.779,0.0,22.0,22.0,22.0,1.0,badlands_3.jpg,badlands_24.jpg,6.0,A2LQO0696YYC1Q
503,0.0,left,right,0.0,2.684,0.0,23.0,23.0,23.0,1.0,badlands_221.jpg,badlands_115.jpg,8.0,A2LQO0696YYC1Q
504,0.0,left,left,1.0,1.434,0.0,24.0,24.0,24.0,1.0,golf_course_78.jpg,golf_course_134.jpg,6.0,A2LQO0696YYC1Q
505,0.0,right,right,1.0,2.15,0.0,25.0,25.0,25.0,1.0,highway_87.jpg,highway_177.jpg,7.0,A2LQO0696YYC1Q
506,1.0,right,right,1.0,2.757,0.0,26.0,26.0,26.0,1.0,playground_215.jpg,playground_257.jpg,6.0,A2LQO0696YYC1Q
507,0.0,left,left,1.0,2.479,0.0,27.0,27.0,27.0,1.0,highway_415.jpg,highway_60.jpg,5.0,A2LQO0696YYC1Q
508,1.0,right,right,1.0,2.244,0.0,28.0,28.0,28.0,1.0,golf_course_209.jpg,golf_course_309.jpg,7.0,A2LQO0696YYC1Q
509,0.0,right,right,1.0,2.681,0.0,29.0,29.0,29.0,1.0,bridge_61.jpg,bridge_128.jpg,5.0,A2LQO0696YYC1Q
510,1.0,left,right,0.0,2.596,0.0,30.0,30.0,30.0,1.0,badlands_137.jpg,badlands_139.jpg,7.0,A2LQO0696YYC1Q
511,1.0,right,right,1.0,2.34,0.0,31.0,31.0,31.0,1.0,highway_368.jpg,highway_294.jpg,6.0,A2LQO0696YYC1Q
512,1.0,left,left,1.0,3.056,0.0,32.0,32.0,32.0,1.0,bridge_65.jpg,bridge_60.jpg,6.0,A2LQO0696YYC1Q
513,1.0,left,right,0.0,2.948,0.0,33.0,33.0,33.0,1.0,bridge_250.jpg,bridge_205.jpg,7.0,A2LQO0696YYC1Q
514,1.0,right,left,0.0,1.999,0.0,34.0,34.0,34.0,1.0,badlands_119.jpg,badlands_70.jpg,6.0,A2LQO0696YYC1Q
515,0.0,right,right,1.0,2.849,0.0,35.0,35.0,35.0,1.0,bridge_54.jpg,bridge_256.jpg,7.0,A2LQO0696YYC1Q
516,0.0,right,right,1.0,2.42,0.0,36.0,36.0,36.0,1.0,highway_204.jpg,highway_394.jpg,6.0,A2LQO0696YYC1Q
517,1.0,left,right,0.0,2.125,0.0,37.0,37.0,37.0,1.0,badlands_52.jpg,badlands_63.jpg,7.0,A2LQO0696YYC1Q
518,1.0,left,left,1.0,2.139,0.0,38.0,38.0,38.0,1.0,golf_course_217.jpg,golf_course_262.jpg,5.0,A2LQO0696YYC1Q
519,1.0,right,right,1.0,3.987,0.0,39.0,39.0,39.0,1.0,mountain_95.jpg,mountain_154.jpg,7.0,A2LQO0696YYC1Q
520,0.0,right,right,1.0,5.58,0.0,40.0,40.0,40.0,1.0,mountain_72.jpg,mountain_293.jpg,6.0,A2LQO0696YYC1Q
521,0.0,left,right,0.0,11.907,0.0,41.0,41.0,41.0,1.0,playground_76.jpg,playground_22.jpg,7.0,A2LQO0696YYC1Q
522,1.0,left,right,0.0,4.344,0.0,42.0,42.0,42.0,1.0,golf_course_193.jpg,golf_course_123.jpg,6.0,A2LQO0696YYC1Q
523,0.0,left,left,1.0,3.939,0.0,43.0,43.0,43.0,1.0,playground_145.jpg,playground_229.jpg,5.0,A2LQO0696YYC1Q
524,0.0,right,left,0.0,3.259,0.0,44.0,44.0,44.0,1.0,playground_122.jpg,playground_10.jpg,7.0,A2LQO0696YYC1Q
525,1.0,left,left,1.0,2.008,0.0,45.0,45.0,45.0,1.0,badlands_21.jpg,badlands_98.jpg,6.0,A2LQO0696YYC1Q
526,0.0,left,left,1.0,3.33,0.0,46.0,46.0,46.0,1.0,golf_course_188.jpg,golf_course_157.jpg,5.0,A2LQO0696YYC1Q
527,0.0,right,left,0.0,3.616,0.0,47.0,47.0,47.0,1.0,golf_course_130.jpg,golf_course_87.jpg,6.0,A2LQO0696YYC1Q
528,0.0,right,left,0.0,2.37,0.0,48.0,48.0,48.0,1.0,playground_268.jpg,playground_60.jpg,7.0,A2LQO0696YYC1Q
529,1.0,right,left,0.0,4.194,0.0,49.0,49.0,49.0,1.0,mountain_295.jpg,mountain_156.jpg,5.0,A2LQO0696YYC1Q
530,1.0,right,right,1.0,2.47,0.0,50.0,50.0,50.0,1.0,playground_127.jpg,playground_117.jpg,8.0,A2LQO0696YYC1Q
531,1.0,left,left,1.0,3.533,0.0,51.0,51.0,51.0,1.0,bridge_146.jpg,bridge_121.jpg,8.0,A2LQO0696YYC1Q
532,0.0,left,right,0.0,2.917,0.0,52.0,52.0,52.0,1.0,badlands_222.jpg,badlands_34.jpg,6.0,A2LQO0696YYC1Q
533,1.0,right,left,0.0,3.055,0.0,53.0,53.0,53.0,1.0,golf_course_2.jpg,golf_course_195.jpg,7.0,A2LQO0696YYC1Q
534,1.0,left,right,0.0,3.485,0.0,54.0,54.0,54.0,1.0,playground_219.jpg,playground_205.jpg,7.0,A2LQO0696YYC1Q
535,0.0,right,left,0.0,5.907,0.0,55.0,55.0,55.0,1.0,badlands_228.jpg,badlands_184.jpg,7.0,A2LQO0696YYC1Q
536,1.0,right,left,0.0,2.607,0.0,56.0,56.0,56.0,1.0,bridge_75.jpg,bridge_191.jpg,6.0,A2LQO0696YYC1Q
537,0.0,right,left,0.0,2.239,0.0,57.0,57.0,57.0,1.0,golf_course_312.jpg,golf_course_214.jpg,7.0,A2LQO0696YYC1Q
538,0.0,left,right,0.0,3.937,0.0,58.0,58.0,58.0,1.0,mountain_57.jpg,mountain_193.jpg,6.0,A2LQO0696YYC1Q
539,0.0,left,left,1.0,3.605,0.0,59.0,59.0,59.0,1.0,bridge_91.jpg,bridge_253.jpg,8.0,A2LQO0696YYC1Q
540,1.0,right,right,1.0,4.552,0.0,0.0,0.0,0.0,1.0,bridge_244.jpg,bridge_128.jpg,7.0,A1W7T8V97ZPUH0
541,1.0,left,right,0.0,3.147,0.0,1.0,1.0,1.0,1.0,highway_245.jpg,highway_206.jpg,7.0,A1W7T8V97ZPUH0
542,0.0,right,left,0.0,8.22,0.0,2.0,2.0,2.0,1.0,mountain_184.jpg,mountain_230.jpg,3.0,A1W7T8V97ZPUH0
543,1.0,right,left,0.0,3.001,0.0,3.0,3.0,3.0,1.0,badlands_119.jpg,badlands_70.jpg,3.0,A1W7T8V97ZPUH0
544,0.0,right,right,1.0,2.728,0.0,4.0,4.0,4.0,1.0,golf_course_130.jpg,golf_course_87.jpg,5.0,A1W7T8V97ZPUH0
545,0.0,right,left,0.0,4.85,0.0,5.0,5.0,5.0,1.0,playground_229.jpg,playground_145.jpg,6.0,A1W7T8V97ZPUH0
546,1.0,right,left,0.0,2.329,0.0,6.0,6.0,6.0,1.0,golf_course_209.jpg,golf_course_309.jpg,6.0,A1W7T8V97ZPUH0
547,0.0,left,right,0.0,2.278,0.0,7.0,7.0,7.0,1.0,badlands_21.jpg,badlands_1.jpg,4.0,A1W7T8V97ZPUH0
548,0.0,left,left,1.0,3.991,0.0,8.0,8.0,8.0,1.0,golf_course_217.jpg,golf_course_35.jpg,6.0,A1W7T8V97ZPUH0
549,1.0,left,right,0.0,4.854,0.0,9.0,9.0,9.0,1.0,bridge_256.jpg,bridge_211.jpg,7.0,A1W7T8V97ZPUH0
550,0.0,left,left,1.0,2.582,0.0,10.0,10.0,10.0,1.0,mountain_101.jpg,mountain_171.jpg,4.0,A1W7T8V97ZPUH0
551,0.0,left,left,1.0,2.495,0.0,11.0,11.0,11.0,1.0,playground_144.jpg,playground_137.jpg,3.0,A1W7T8V97ZPUH0
552,1.0,right,left,0.0,3.227,0.0,12.0,12.0,12.0,1.0,bridge_148.jpg,bridge_108.jpg,3.0,A1W7T8V97ZPUH0
553,0.0,left,right,0.0,3.2,0.0,13.0,13.0,13.0,1.0,mountain_156.jpg,mountain_128.jpg,3.0,A1W7T8V97ZPUH0
554,1.0,left,right,0.0,5.092,0.0,14.0,14.0,14.0,1.0,highway_415.jpg,highway_174.jpg,4.0,A1W7T8V97ZPUH0
555,1.0,left,left,1.0,2.284,0.0,15.0,15.0,15.0,1.0,mountain_154.jpg,mountain_95.jpg,5.0,A1W7T8V97ZPUH0
556,1.0,left,left,1.0,3.888,0.0,16.0,16.0,16.0,1.0,mountain_57.jpg,mountain_138.jpg,3.0,A1W7T8V97ZPUH0
557,1.0,right,left,0.0,2.757,0.0,17.0,17.0,17.0,1.0,golf_course_2.jpg,golf_course_195.jpg,3.0,A1W7T8V97ZPUH0
558,1.0,right,right,1.0,3.291,0.0,18.0,18.0,18.0,1.0,golf_course_317.jpg,golf_course_214.jpg,7.0,A1W7T8V97ZPUH0
559,1.0,right,right,1.0,2.453,0.0,19.0,19.0,19.0,1.0,highway_122.jpg,highway_209.jpg,4.0,A1W7T8V97ZPUH0
560,0.0,right,left,0.0,2.536,0.0,20.0,20.0,20.0,1.0,badlands_3.jpg,badlands_24.jpg,3.0,A1W7T8V97ZPUH0
561,1.0,right,right,1.0,6.054,0.0,21.0,21.0,21.0,1.0,mountain_93.jpg,mountain_222.jpg,5.0,A1W7T8V97ZPUH0
562,0.0,right,right,1.0,2.832,0.0,22.0,22.0,22.0,1.0,playground_2.jpg,playground_240.jpg,5.0,A1W7T8V97ZPUH0
563,0.0,right,left,0.0,3.283,0.0,23.0,23.0,23.0,1.0,highway_204.jpg,highway_394.jpg,4.0,A1W7T8V97ZPUH0
564,1.0,left,right,0.0,2.011,0.0,24.0,24.0,24.0,1.0,playground_219.jpg,playground_205.jpg,7.0,A1W7T8V97ZPUH0
565,0.0,right,left,0.0,3.437,0.0,25.0,25.0,25.0,1.0,badlands_194.jpg,badlands_137.jpg,3.0,A1W7T8V97ZPUH0
566,0.0,right,right,1.0,15.023,0.0,26.0,26.0,26.0,1.0,playground_43.jpg,playground_131.jpg,6.0,A1W7T8V97ZPUH0
567,0.0,left,left,1.0,4.507,0.0,27.0,27.0,27.0,1.0,badlands_222.jpg,badlands_34.jpg,5.0,A1W7T8V97ZPUH0
568,1.0,left,right,0.0,2.145,0.0,28.0,28.0,28.0,1.0,mountain_110.jpg,mountain_223.jpg,5.0,A1W7T8V97ZPUH0
569,1.0,right,right,1.0,4.402,0.0,29.0,29.0,29.0,1.0,badlands_63.jpg,badlands_52.jpg,4.0,A1W7T8V97ZPUH0
570,1.0,left,left,1.0,2.608,0.0,30.0,30.0,30.0,1.0,highway_177.jpg,highway_278.jpg,3.0,A1W7T8V97ZPUH0
571,1.0,left,right,0.0,3.713,0.0,31.0,31.0,31.0,1.0,playground_60.jpg,playground_244.jpg,6.0,A1W7T8V97ZPUH0
572,1.0,right,right,1.0,3.325,0.0,32.0,32.0,32.0,1.0,playground_72.jpg,playground_76.jpg,6.0,A1W7T8V97ZPUH0
573,0.0,right,left,0.0,2.12,0.0,33.0,33.0,33.0,1.0,badlands_228.jpg,badlands_184.jpg,7.0,A1W7T8V97ZPUH0
574,0.0,left,right,0.0,8.035,0.0,34.0,34.0,34.0,1.0,bridge_202.jpg,bridge_31.jpg,4.0,A1W7T8V97ZPUH0
575,0.0,right,right,1.0,2.751,0.0,35.0,35.0,35.0,1.0,bridge_27.jpg,bridge_146.jpg,4.0,A1W7T8V97ZPUH0
576,0.0,right,right,1.0,3.554,0.0,36.0,36.0,36.0,1.0,bridge_181.jpg,bridge_65.jpg,3.0,A1W7T8V97ZPUH0
577,1.0,left,right,0.0,3.348,0.0,37.0,37.0,37.0,1.0,mountain_123.jpg,mountain_189.jpg,3.0,A1W7T8V97ZPUH0
578,0.0,left,right,0.0,6.324,0.0,38.0,38.0,38.0,1.0,highway_273.jpg,highway_384.jpg,3.0,A1W7T8V97ZPUH0
579,1.0,right,right,1.0,2.435,0.0,39.0,39.0,39.0,1.0,playground_215.jpg,playground_257.jpg,3.0,A1W7T8V97ZPUH0
580,0.0,left,right,0.0,1.053,0.0,40.0,40.0,40.0,1.0,mountain_293.jpg,mountain_72.jpg,6.0,A1W7T8V97ZPUH0
581,1.0,left,left,1.0,12.042,0.0,41.0,41.0,41.0,1.0,bridge_172.jpg,bridge_163.jpg,6.0,A1W7T8V97ZPUH0
582,1.0,right,right,1.0,2.477,0.0,42.0,42.0,42.0,1.0,bridge_205.jpg,bridge_250.jpg,6.0,A1W7T8V97ZPUH0
583,0.0,right,right,1.0,6.111,0.0,43.0,43.0,43.0,1.0,mountain_3.jpg,mountain_232.jpg,3.0,A1W7T8V97ZPUH0
584,0.0,left,left,1.0,18.182,0.0,44.0,44.0,44.0,1.0,bridge_91.jpg,bridge_253.jpg,2.0,A1W7T8V97ZPUH0
585,0.0,right,right,1.0,2.996,0.0,45.0,45.0,45.0,1.0,golf_course_134.jpg,golf_course_78.jpg,4.0,A1W7T8V97ZPUH0
586,0.0,left,left,1.0,3.352,0.0,46.0,46.0,46.0,1.0,highway_359.jpg,highway_389.jpg,4.0,A1W7T8V97ZPUH0
587,1.0,right,right,1.0,2.259,0.0,47.0,47.0,47.0,1.0,highway_368.jpg,highway_294.jpg,4.0,A1W7T8V97ZPUH0
588,1.0,left,left,1.0,2.824,0.0,48.0,48.0,48.0,1.0,golf_course_193.jpg,golf_course_123.jpg,6.0,A1W7T8V97ZPUH0
589,1.0,right,left,0.0,1.324,0.0,49.0,49.0,49.0,1.0,badlands_207.jpg,badlands_221.jpg,6.0,A1W7T8V97ZPUH0
590,0.0,left,left,1.0,2.906,0.0,50.0,50.0,50.0,1.0,bridge_191.jpg,bridge_184.jpg,6.0,A1W7T8V97ZPUH0
591,1.0,right,right,1.0,1.677,0.0,51.0,51.0,51.0,1.0,playground_127.jpg,playground_117.jpg,7.0,A1W7T8V97ZPUH0
592,0.0,left,right,0.0,2.33,0.0,52.0,52.0,52.0,1.0,highway_156.jpg,highway_160.jpg,6.0,A1W7T8V97ZPUH0
593,0.0,right,right,1.0,1.175,0.0,53.0,53.0,53.0,1.0,highway_85.jpg,highway_93.jpg,6.0,A1W7T8V97ZPUH0
594,1.0,right,right,1.0,2.328,0.0,54.0,54.0,54.0,1.0,golf_course_97.jpg,golf_course_15.jpg,6.0,A1W7T8V97ZPUH0
595,0.0,left,left,1.0,1.873,0.0,55.0,55.0,55.0,1.0,playground_10.jpg,playground_122.jpg,6.0,A1W7T8V97ZPUH0
596,1.0,left,right,0.0,1.556,0.0,56.0,56.0,56.0,1.0,badlands_113.jpg,badlands_203.jpg,7.0,A1W7T8V97ZPUH0
597,1.0,right,right,1.0,3.646,0.0,57.0,57.0,57.0,1.0,badlands_101.jpg,badlands_23.jpg,8.0,A1W7T8V97ZPUH0
598,0.0,right,right,1.0,4.307,0.0,58.0,58.0,58.0,1.0,golf_course_157.jpg,golf_course_188.jpg,5.0,A1W7T8V97ZPUH0
599,0.0,right,right,1.0,1.648,0.0,59.0,59.0,59.0,1.0,golf_course_114.jpg,golf_course_331.jpg,7.0,A1W7T8V97ZPUH0
600,1.0,left,left,1.0,9.0685,0.0,0.0,0.0,0.0,1.0,mountain_293.jpg,mountain_47.jpg,8.0,A2OQ5LQ3YB4HX1
601,1.0,left,right,0.0,5.2995,0.0,1.0,1.0,1.0,1.0,bridge_172.jpg,bridge_163.jpg,7.0,A2OQ5LQ3YB4HX1
602,1.0,right,right,1.0,5.1219,0.0,2.0,2.0,2.0,1.0,badlands_53.jpg,badlands_24.jpg,7.0,A2OQ5LQ3YB4HX1
603,0.0,right,right,1.0,13.0588,0.0,3.0,3.0,3.0,1.0,highway_85.jpg,highway_93.jpg,8.0,A2OQ5LQ3YB4HX1
604,0.0,left,right,0.0,9.0257,0.0,4.0,4.0,4.0,1.0,golf_course_78.jpg,golf_course_134.jpg,8.0,A2OQ5LQ3YB4HX1
605,0.0,right,right,1.0,2.8968,0.0,5.0,5.0,5.0,1.0,mountain_3.jpg,mountain_232.jpg,7.0,A2OQ5LQ3YB4HX1
606,1.0,left,right,0.0,3.6544,0.0,6.0,6.0,6.0,1.0,mountain_101.jpg,mountain_221.jpg,7.0,A2OQ5LQ3YB4HX1
607,0.0,right,right,1.0,1.4166,0.0,7.0,7.0,7.0,1.0,golf_course_130.jpg,golf_course_87.jpg,7.0,A2OQ5LQ3YB4HX1
608,0.0,right,left,0.0,2.1645,0.0,8.0,8.0,8.0,1.0,bridge_134.jpg,bridge_250.jpg,7.0,A2OQ5LQ3YB4HX1
609,1.0,left,left,1.0,2.0462,0.0,9.0,9.0,9.0,1.0,highway_394.jpg,highway_406.jpg,7.0,A2OQ5LQ3YB4HX1
610,1.0,left,right,0.0,2.2005,0.0,10.0,10.0,10.0,1.0,bridge_108.jpg,bridge_148.jpg,7.0,A2OQ5LQ3YB4HX1
611,0.0,left,left,1.0,2.6815,0.0,11.0,11.0,11.0,1.0,playground_10.jpg,playground_122.jpg,6.0,A2OQ5LQ3YB4HX1
612,0.0,left,right,0.0,1.5469,0.0,12.0,12.0,12.0,1.0,golf_course_188.jpg,golf_course_157.jpg,7.0,A2OQ5LQ3YB4HX1
613,1.0,right,left,0.0,1.7217,0.0,13.0,13.0,13.0,1.0,highway_379.jpg,highway_359.jpg,7.0,A2OQ5LQ3YB4HX1
614,1.0,left,right,0.0,2.096,0.0,14.0,14.0,14.0,1.0,highway_156.jpg,highway_293.jpg,7.0,A2OQ5LQ3YB4HX1
615,1.0,right,right,1.0,1.6609,0.0,15.0,15.0,15.0,1.0,badlands_119.jpg,badlands_70.jpg,7.0,A2OQ5LQ3YB4HX1
616,0.0,left,left,1.0,1.0308,0.0,16.0,16.0,16.0,1.0,playground_240.jpg,playground_2.jpg,7.0,A2OQ5LQ3YB4HX1
617,0.0,right,right,1.0,2.0637,0.0,17.0,17.0,17.0,1.0,bridge_31.jpg,bridge_202.jpg,8.0,A2OQ5LQ3YB4HX1
618,1.0,left,right,0.0,0.3656,0.0,18.0,18.0,18.0,1.0,playground_144.jpg,playground_65.jpg,7.0,A2OQ5LQ3YB4HX1
619,1.0,right,left,0.0,1.1956,0.0,19.0,19.0,19.0,1.0,badlands_98.jpg,badlands_21.jpg,7.0,A2OQ5LQ3YB4HX1
620,1.0,left,right,0.0,0.8609,0.0,20.0,20.0,20.0,1.0,playground_60.jpg,playground_244.jpg,7.0,A2OQ5LQ3YB4HX1
621,1.0,right,right,1.0,1.5423,0.0,21.0,21.0,21.0,1.0,highway_122.jpg,highway_209.jpg,8.0,A2OQ5LQ3YB4HX1
622,1.0,left,left,1.0,1.3573,0.0,22.0,22.0,22.0,1.0,highway_294.jpg,highway_368.jpg,7.0,A2OQ5LQ3YB4HX1
623,0.0,left,right,0.0,1.0073,0.0,23.0,23.0,23.0,1.0,mountain_156.jpg,mountain_128.jpg,8.0,A2OQ5LQ3YB4HX1
624,0.0,right,right,1.0,1.0578,0.0,24.0,24.0,24.0,1.0,badlands_34.jpg,badlands_222.jpg,8.0,A2OQ5LQ3YB4HX1
625,0.0,left,right,0.0,2.0305,0.0,25.0,25.0,25.0,1.0,mountain_110.jpg,mountain_157.jpg,7.0,A2OQ5LQ3YB4HX1
626,1.0,right,left,0.0,1.2333,0.0,26.0,26.0,26.0,1.0,bridge_60.jpg,bridge_65.jpg,6.0,A2OQ5LQ3YB4HX1
627,0.0,left,right,0.0,1.016,0.0,27.0,27.0,27.0,1.0,highway_245.jpg,highway_134.jpg,8.0,A2OQ5LQ3YB4HX1
628,0.0,right,left,0.0,1.1954,0.0,28.0,28.0,28.0,1.0,badlands_225.jpg,badlands_113.jpg,6.0,A2OQ5LQ3YB4HX1
629,1.0,right,right,1.0,0.6861,0.0,29.0,29.0,29.0,1.0,bridge_121.jpg,bridge_146.jpg,8.0,A2OQ5LQ3YB4HX1
630,1.0,left,left,1.0,0.9661,0.0,30.0,30.0,30.0,1.0,badlands_221.jpg,badlands_207.jpg,6.0,A2OQ5LQ3YB4HX1
631,0.0,left,right,0.0,0.6981,0.0,31.0,31.0,31.0,1.0,bridge_256.jpg,bridge_54.jpg,7.0,A2OQ5LQ3YB4HX1
632,0.0,left,right,0.0,1.231,0.0,32.0,32.0,32.0,1.0,highway_273.jpg,highway_384.jpg,7.0,A2OQ5LQ3YB4HX1
633,0.0,right,right,1.0,0.9968,0.0,33.0,33.0,33.0,1.0,badlands_94.jpg,badlands_52.jpg,7.0,A2OQ5LQ3YB4HX1
634,1.0,left,left,1.0,0.6796,0.0,34.0,34.0,34.0,1.0,mountain_57.jpg,mountain_138.jpg,6.0,A2OQ5LQ3YB4HX1
635,1.0,left,right,0.0,0.8154,0.0,35.0,35.0,35.0,1.0,playground_257.jpg,playground_215.jpg,7.0,A2OQ5LQ3YB4HX1
636,0.0,left,right,0.0,1.449,0.0,36.0,36.0,36.0,1.0,badlands_23.jpg,badlands_114.jpg,7.0,A2OQ5LQ3YB4HX1
637,0.0,left,right,0.0,1.0902,0.0,37.0,37.0,37.0,1.0,mountain_154.jpg,mountain_131.jpg,8.0,A2OQ5LQ3YB4HX1
638,0.0,right,left,0.0,1.8343,0.0,38.0,38.0,38.0,1.0,bridge_184.jpg,bridge_191.jpg,6.0,A2OQ5LQ3YB4HX1
639,1.0,left,right,0.0,0.7458,0.0,39.0,39.0,39.0,1.0,mountain_222.jpg,mountain_93.jpg,7.0,A2OQ5LQ3YB4HX1
640,1.0,left,left,1.0,0.8896,0.0,40.0,40.0,40.0,1.0,mountain_230.jpg,mountain_97.jpg,7.0,A2OQ5LQ3YB4HX1
641,1.0,right,right,1.0,0.9759,0.0,41.0,41.0,41.0,1.0,golf_course_209.jpg,golf_course_309.jpg,8.0,A2OQ5LQ3YB4HX1
642,1.0,left,left,1.0,0.9145,0.0,42.0,42.0,42.0,1.0,badlands_137.jpg,badlands_139.jpg,7.0,A2OQ5LQ3YB4HX1
643,1.0,left,right,0.0,0.8864,0.0,43.0,43.0,43.0,1.0,playground_76.jpg,playground_72.jpg,8.0,A2OQ5LQ3YB4HX1
644,1.0,left,left,1.0,1.6515,0.0,44.0,44.0,44.0,1.0,bridge_128.jpg,bridge_244.jpg,6.0,A2OQ5LQ3YB4HX1
645,0.0,left,right,0.0,0.8079,0.0,45.0,45.0,45.0,1.0,bridge_91.jpg,bridge_253.jpg,7.0,A2OQ5LQ3YB4HX1
646,0.0,right,right,1.0,0.9692,0.0,46.0,46.0,46.0,1.0,playground_43.jpg,playground_131.jpg,8.0,A2OQ5LQ3YB4HX1
647,1.0,right,right,1.0,1.0796,0.0,47.0,47.0,47.0,1.0,golf_course_97.jpg,golf_course_15.jpg,8.0,A2OQ5LQ3YB4HX1
648,1.0,left,left,1.0,0.901,0.0,48.0,48.0,48.0,1.0,golf_course_193.jpg,golf_course_123.jpg,6.0,A2OQ5LQ3YB4HX1
649,0.0,left,right,0.0,1.4007,0.0,49.0,49.0,49.0,1.0,highway_415.jpg,highway_60.jpg,7.0,A2OQ5LQ3YB4HX1
650,0.0,right,left,0.0,1.3196,0.0,50.0,50.0,50.0,1.0,badlands_228.jpg,badlands_184.jpg,6.0,A2OQ5LQ3YB4HX1
651,0.0,right,right,1.0,1.7422,0.0,51.0,51.0,51.0,1.0,playground_21.jpg,playground_219.jpg,8.0,A2OQ5LQ3YB4HX1
652,1.0,left,right,0.0,1.4418,0.0,52.0,52.0,52.0,1.0,playground_117.jpg,playground_127.jpg,7.0,A2OQ5LQ3YB4HX1
653,1.0,left,left,1.0,1.1489,0.0,53.0,53.0,53.0,1.0,golf_course_217.jpg,golf_course_262.jpg,7.0,A2OQ5LQ3YB4HX1
654,0.0,right,right,1.0,0.8754,0.0,54.0,54.0,54.0,1.0,highway_87.jpg,highway_177.jpg,8.0,A2OQ5LQ3YB4HX1
655,0.0,left,right,0.0,1.5067,0.0,55.0,55.0,55.0,1.0,golf_course_195.jpg,golf_course_25.jpg,7.0,A2OQ5LQ3YB4HX1
656,0.0,left,right,0.0,0.3089,0.0,56.0,56.0,56.0,1.0,playground_145.jpg,playground_229.jpg,8.0,A2OQ5LQ3YB4HX1
657,1.0,left,left,1.0,0.8508,0.0,57.0,57.0,57.0,1.0,golf_course_214.jpg,golf_course_317.jpg,7.0,A2OQ5LQ3YB4HX1
658,0.0,right,right,1.0,1.3392,0.0,58.0,58.0,58.0,1.0,mountain_94.jpg,mountain_123.jpg,7.0,A2OQ5LQ3YB4HX1
659,0.0,left,right,0.0,0.7602,0.0,59.0,59.0,59.0,1.0,golf_course_331.jpg,golf_course_114.jpg,8.0,A2OQ5LQ3YB4HX1
660,0.0,left,left,1.0,3.4128,0.0,0.0,0.0,0.0,1.0,highway_177.jpg,highway_87.jpg,4.0,A3G55RJTW3BSGM
661,0.0,right,left,0.0,5.6315,0.0,1.0,1.0,1.0,1.0,playground_229.jpg,playground_145.jpg,6.0,A3G55RJTW3BSGM
662,1.0,left,left,1.0,4.1627,0.0,2.0,2.0,2.0,1.0,bridge_108.jpg,bridge_148.jpg,4.0,A3G55RJTW3BSGM
663,0.0,left,right,0.0,3.0515,0.0,3.0,3.0,3.0,1.0,highway_156.jpg,highway_160.jpg,4.0,A3G55RJTW3BSGM
664,0.0,right,left,0.0,5.0929,0.0,4.0,4.0,4.0,1.0,bridge_134.jpg,bridge_250.jpg,5.0,A3G55RJTW3BSGM
665,0.0,left,left,1.0,5.1242,0.0,5.0,5.0,5.0,1.0,badlands_23.jpg,badlands_114.jpg,6.0,A3G55RJTW3BSGM
666,1.0,left,left,1.0,3.0168,0.0,6.0,6.0,6.0,1.0,badlands_184.jpg,badlands_103.jpg,6.0,A3G55RJTW3BSGM
667,1.0,left,right,0.0,2.6221,0.0,7.0,7.0,7.0,1.0,badlands_21.jpg,badlands_98.jpg,4.0,A3G55RJTW3BSGM
668,0.0,right,right,1.0,1.468,0.0,8.0,8.0,8.0,1.0,playground_167.jpg,playground_117.jpg,6.0,A3G55RJTW3BSGM
669,1.0,left,right,0.0,3.0689,0.0,9.0,9.0,9.0,1.0,golf_course_331.jpg,golf_course_26.jpg,5.0,A3G55RJTW3BSGM
670,1.0,right,right,1.0,1.9901,0.0,10.0,10.0,10.0,1.0,bridge_121.jpg,bridge_146.jpg,4.0,A3G55RJTW3BSGM
671,1.0,left,right,0.0,2.4374,0.0,11.0,11.0,11.0,1.0,golf_course_78.jpg,golf_course_101.jpg,4.0,A3G55RJTW3BSGM
672,0.0,right,right,1.0,2.6731,0.0,12.0,12.0,12.0,1.0,bridge_17.jpg,bridge_172.jpg,3.0,A3G55RJTW3BSGM
673,0.0,right,right,1.0,3.9935,0.0,13.0,13.0,13.0,1.0,highway_384.jpg,highway_273.jpg,4.0,A3G55RJTW3BSGM
674,0.0,right,right,1.0,2.5952,0.0,14.0,14.0,14.0,1.0,bridge_184.jpg,bridge_191.jpg,3.0,A3G55RJTW3BSGM
675,0.0,left,right,0.0,2.8046,0.0,15.0,15.0,15.0,1.0,bridge_65.jpg,bridge_181.jpg,4.0,A3G55RJTW3BSGM
676,0.0,right,right,1.0,3.2475,0.0,16.0,16.0,16.0,1.0,playground_2.jpg,playground_240.jpg,6.0,A3G55RJTW3BSGM
677,0.0,right,right,1.0,1.574,0.0,17.0,17.0,17.0,1.0,mountain_157.jpg,mountain_110.jpg,7.0,A3G55RJTW3BSGM
678,1.0,left,left,1.0,1.7879,0.0,18.0,18.0,18.0,1.0,mountain_230.jpg,mountain_97.jpg,5.0,A3G55RJTW3BSGM
679,1.0,left,right,0.0,1.7799,0.0,19.0,19.0,19.0,1.0,badlands_137.jpg,badlands_139.jpg,6.0,A3G55RJTW3BSGM
680,1.0,right,left,0.0,3.7197,0.0,20.0,20.0,20.0,1.0,highway_122.jpg,highway_209.jpg,8.0,A3G55RJTW3BSGM
681,1.0,right,left,0.0,2.3249,0.0,21.0,21.0,21.0,1.0,highway_206.jpg,highway_245.jpg,5.0,A3G55RJTW3BSGM
682,0.0,right,left,0.0,2.1207,0.0,22.0,22.0,22.0,1.0,mountain_171.jpg,mountain_101.jpg,7.0,A3G55RJTW3BSGM
683,0.0,left,left,1.0,2.3878,0.0,23.0,23.0,23.0,1.0,bridge_91.jpg,bridge_253.jpg,3.0,A3G55RJTW3BSGM
684,1.0,right,right,1.0,3.026,0.0,24.0,24.0,24.0,1.0,playground_164.jpg,playground_131.jpg,8.0,A3G55RJTW3BSGM
685,1.0,left,left,1.0,1.4512,0.0,25.0,25.0,25.0,1.0,mountain_154.jpg,mountain_95.jpg,6.0,A3G55RJTW3BSGM
686,0.0,right,right,1.0,1.3761,0.0,26.0,26.0,26.0,1.0,playground_214.jpg,playground_257.jpg,8.0,A3G55RJTW3BSGM
687,1.0,right,left,0.0,3.733,0.0,27.0,27.0,27.0,1.0,highway_406.jpg,highway_394.jpg,7.0,A3G55RJTW3BSGM
688,1.0,left,left,1.0,1.641,0.0,28.0,28.0,28.0,1.0,golf_course_195.jpg,golf_course_2.jpg,7.0,A3G55RJTW3BSGM
689,0.0,left,left,1.0,2.9279,0.0,29.0,29.0,29.0,1.0,golf_course_87.jpg,golf_course_130.jpg,8.0,A3G55RJTW3BSGM
690,0.0,right,left,0.0,1.92,0.0,30.0,30.0,30.0,1.0,badlands_34.jpg,badlands_222.jpg,7.0,A3G55RJTW3BSGM
691,0.0,left,left,1.0,1.7269,0.0,31.0,31.0,31.0,1.0,golf_course_188.jpg,golf_course_157.jpg,5.0,A3G55RJTW3BSGM
692,1.0,right,right,1.0,3.218,0.0,32.0,32.0,32.0,1.0,golf_course_97.jpg,golf_course_15.jpg,8.0,A3G55RJTW3BSGM
693,0.0,right,left,0.0,3.7905,0.0,33.0,33.0,33.0,1.0,playground_21.jpg,playground_219.jpg,6.0,A3G55RJTW3BSGM
694,0.0,left,right,0.0,1.5444,0.0,34.0,34.0,34.0,1.0,golf_course_214.jpg,golf_course_312.jpg,7.0,A3G55RJTW3BSGM
695,0.0,right,right,1.0,2.9135,0.0,35.0,35.0,35.0,1.0,golf_course_35.jpg,golf_course_217.jpg,6.0,A3G55RJTW3BSGM
696,1.0,right,left,0.0,5.6407,0.0,36.0,36.0,36.0,1.0,bridge_38.jpg,bridge_202.jpg,6.0,A3G55RJTW3BSGM
697,1.0,left,left,1.0,2.3092,0.0,37.0,37.0,37.0,1.0,highway_359.jpg,highway_379.jpg,7.0,A3G55RJTW3BSGM
698,1.0,right,right,1.0,2.6515,0.0,38.0,38.0,38.0,1.0,mountain_189.jpg,mountain_123.jpg,8.0,A3G55RJTW3BSGM
699,1.0,left,right,0.0,2.293,0.0,39.0,39.0,39.0,1.0,playground_144.jpg,playground_65.jpg,8.0,A3G55RJTW3BSGM
700,0.0,right,right,1.0,1.649,0.0,40.0,40.0,40.0,1.0,badlands_225.jpg,badlands_113.jpg,8.0,A3G55RJTW3BSGM
701,1.0,left,left,1.0,1.3853,0.0,41.0,41.0,41.0,1.0,badlands_221.jpg,badlands_207.jpg,6.0,A3G55RJTW3BSGM
702,0.0,right,right,1.0,2.653,0.0,42.0,42.0,42.0,1.0,mountain_244.jpg,mountain_222.jpg,5.0,A3G55RJTW3BSGM
703,1.0,right,left,0.0,3.6886,0.0,43.0,43.0,43.0,1.0,mountain_54.jpg,mountain_232.jpg,8.0,A3G55RJTW3BSGM
704,1.0,left,left,1.0,4.1348,0.0,44.0,44.0,44.0,1.0,playground_10.jpg,playground_12.jpg,7.0,A3G55RJTW3BSGM
705,1.0,left,left,1.0,1.7052,0.0,45.0,45.0,45.0,1.0,playground_76.jpg,playground_72.jpg,7.0,A3G55RJTW3BSGM
706,0.0,right,left,0.0,1.7324,0.0,46.0,46.0,46.0,1.0,mountain_128.jpg,mountain_156.jpg,6.0,A3G55RJTW3BSGM
707,1.0,left,left,1.0,3.0706,0.0,47.0,47.0,47.0,1.0,playground_60.jpg,playground_244.jpg,8.0,A3G55RJTW3BSGM
708,0.0,left,left,1.0,2.1209,0.0,48.0,48.0,48.0,1.0,highway_93.jpg,highway_85.jpg,3.0,A3G55RJTW3BSGM
709,1.0,left,left,1.0,2.3528,0.0,49.0,49.0,49.0,1.0,highway_294.jpg,highway_368.jpg,7.0,A3G55RJTW3BSGM
710,0.0,left,left,1.0,1.8032,0.0,50.0,50.0,50.0,1.0,badlands_70.jpg,badlands_102.jpg,4.0,A3G55RJTW3BSGM
711,1.0,right,left,0.0,1.2952,0.0,51.0,51.0,51.0,1.0,bridge_211.jpg,bridge_256.jpg,5.0,A3G55RJTW3BSGM
712,1.0,left,right,0.0,2.0752,0.0,52.0,52.0,52.0,1.0,badlands_52.jpg,badlands_63.jpg,5.0,A3G55RJTW3BSGM
713,1.0,left,right,0.0,2.7251,0.0,53.0,53.0,53.0,1.0,mountain_293.jpg,mountain_47.jpg,7.0,A3G55RJTW3BSGM
714,0.0,left,left,1.0,1.8185,0.0,54.0,54.0,54.0,1.0,golf_course_309.jpg,golf_course_16.jpg,6.0,A3G55RJTW3BSGM
715,1.0,left,left,1.0,1.6229,0.0,55.0,55.0,55.0,1.0,bridge_128.jpg,bridge_244.jpg,5.0,A3G55RJTW3BSGM
716,1.0,right,left,0.0,1.6675,0.0,56.0,56.0,56.0,1.0,golf_course_123.jpg,golf_course_193.jpg,6.0,A3G55RJTW3BSGM
717,0.0,right,right,1.0,1.8615,0.0,57.0,57.0,57.0,1.0,highway_60.jpg,highway_415.jpg,7.0,A3G55RJTW3BSGM
718,0.0,left,left,1.0,1.6785,0.0,58.0,58.0,58.0,1.0,badlands_24.jpg,badlands_3.jpg,5.0,A3G55RJTW3BSGM
719,0.0,left,right,0.0,1.3155,0.0,59.0,59.0,59.0,1.0,mountain_57.jpg,mountain_193.jpg,5.0,A3G55RJTW3BSGM
720,1.0,left,right,0.0,5.009,0.0,0.0,0.0,0.0,1.0,mountain_293.jpg,mountain_47.jpg,7.0,A2WHAIUPGYCFN6
721,0.0,right,right,1.0,2.171,0.0,1.0,1.0,1.0,1.0,playground_2.jpg,playground_240.jpg,6.0,A2WHAIUPGYCFN6
722,1.0,left,left,1.0,1.764,0.0,2.0,2.0,2.0,1.0,golf_course_78.jpg,golf_course_101.jpg,6.0,A2WHAIUPGYCFN6
723,0.0,right,right,1.0,2.922,0.0,3.0,3.0,3.0,1.0,playground_167.jpg,playground_117.jpg,9.0,A2WHAIUPGYCFN6
724,0.0,left,right,0.0,2.885,0.0,4.0,4.0,4.0,1.0,bridge_108.jpg,bridge_116.jpg,8.0,A2WHAIUPGYCFN6
725,0.0,left,left,1.0,7.712,0.0,5.0,5.0,5.0,1.0,golf_course_309.jpg,golf_course_16.jpg,7.0,A2WHAIUPGYCFN6
726,0.0,right,right,1.0,6.055,0.0,6.0,6.0,6.0,1.0,playground_137.jpg,playground_144.jpg,8.0,A2WHAIUPGYCFN6
727,1.0,left,left,1.0,1.781,0.0,7.0,7.0,7.0,1.0,bridge_65.jpg,bridge_60.jpg,7.0,A2WHAIUPGYCFN6
728,0.0,left,left,1.0,2.389,0.0,8.0,8.0,8.0,1.0,bridge_91.jpg,bridge_253.jpg,8.0,A2WHAIUPGYCFN6
729,0.0,left,right,0.0,1.482,0.0,9.0,9.0,9.0,1.0,playground_145.jpg,playground_229.jpg,7.0,A2WHAIUPGYCFN6
730,1.0,right,left,0.0,1.78,0.0,10.0,10.0,10.0,1.0,bridge_163.jpg,bridge_172.jpg,9.0,A2WHAIUPGYCFN6
731,1.0,left,left,1.0,2.472,0.0,11.0,11.0,11.0,1.0,bridge_202.jpg,bridge_38.jpg,8.0,A2WHAIUPGYCFN6
732,1.0,left,right,0.0,1.401,0.0,12.0,12.0,12.0,1.0,bridge_128.jpg,bridge_244.jpg,8.0,A2WHAIUPGYCFN6
733,1.0,right,right,1.0,1.618,0.0,13.0,13.0,13.0,1.0,badlands_98.jpg,badlands_21.jpg,8.0,A2WHAIUPGYCFN6
734,0.0,right,right,1.0,1.549,0.0,14.0,14.0,14.0,1.0,badlands_228.jpg,badlands_184.jpg,8.0,A2WHAIUPGYCFN6
735,0.0,right,left,0.0,2.083,0.0,15.0,15.0,15.0,1.0,badlands_102.jpg,badlands_70.jpg,8.0,A2WHAIUPGYCFN6
736,0.0,right,right,1.0,1.743,0.0,16.0,16.0,16.0,1.0,golf_course_113.jpg,golf_course_15.jpg,6.0,A2WHAIUPGYCFN6
737,1.0,right,right,1.0,1.358,0.0,17.0,17.0,17.0,1.0,highway_122.jpg,highway_209.jpg,9.0,A2WHAIUPGYCFN6
738,0.0,left,left,1.0,1.905,0.0,18.0,18.0,18.0,1.0,highway_294.jpg,highway_203.jpg,8.0,A2WHAIUPGYCFN6
739,1.0,right,left,0.0,2.814,0.0,19.0,19.0,19.0,1.0,highway_171.jpg,highway_273.jpg,8.0,A2WHAIUPGYCFN6
740,1.0,left,right,0.0,3.535,0.0,20.0,20.0,20.0,1.0,badlands_113.jpg,badlands_203.jpg,8.0,A2WHAIUPGYCFN6
741,0.0,right,right,1.0,3.458,0.0,21.0,21.0,21.0,1.0,playground_214.jpg,playground_257.jpg,8.0,A2WHAIUPGYCFN6
742,1.0,left,right,0.0,3.156,0.0,22.0,22.0,22.0,1.0,playground_10.jpg,playground_12.jpg,8.0,A2WHAIUPGYCFN6
743,1.0,right,right,1.0,3.419,0.0,23.0,23.0,23.0,1.0,golf_course_123.jpg,golf_course_193.jpg,8.0,A2WHAIUPGYCFN6
744,1.0,left,left,1.0,1.278,0.0,24.0,24.0,24.0,1.0,mountain_57.jpg,mountain_138.jpg,8.0,A2WHAIUPGYCFN6
745,0.0,right,left,0.0,2.601,0.0,25.0,25.0,25.0,1.0,mountain_3.jpg,mountain_232.jpg,8.0,A2WHAIUPGYCFN6
746,1.0,left,right,0.0,1.349,0.0,26.0,26.0,26.0,1.0,highway_93.jpg,highway_369.jpg,8.0,A2WHAIUPGYCFN6
747,1.0,right,right,1.0,1.53,0.0,27.0,27.0,27.0,1.0,playground_72.jpg,playground_76.jpg,8.0,A2WHAIUPGYCFN6
748,1.0,right,right,1.0,1.186,0.0,28.0,28.0,28.0,1.0,golf_course_161.jpg,golf_course_87.jpg,8.0,A2WHAIUPGYCFN6
749,0.0,right,right,1.0,1.44,0.0,29.0,29.0,29.0,1.0,badlands_194.jpg,badlands_137.jpg,8.0,A2WHAIUPGYCFN6
750,1.0,right,left,0.0,1.544,0.0,30.0,30.0,30.0,1.0,highway_206.jpg,highway_245.jpg,8.0,A2WHAIUPGYCFN6
751,1.0,right,right,1.0,1.336,0.0,31.0,31.0,31.0,1.0,highway_406.jpg,highway_394.jpg,8.0,A2WHAIUPGYCFN6
752,0.0,right,left,0.0,1.59,0.0,32.0,32.0,32.0,1.0,badlands_34.jpg,badlands_222.jpg,7.0,A2WHAIUPGYCFN6
753,1.0,right,left,0.0,1.745,0.0,33.0,33.0,33.0,1.0,golf_course_262.jpg,golf_course_217.jpg,8.0,A2WHAIUPGYCFN6
754,0.0,left,left,1.0,2.981,0.0,34.0,34.0,34.0,1.0,golf_course_195.jpg,golf_course_25.jpg,8.0,A2WHAIUPGYCFN6
755,0.0,left,right,0.0,6.184,0.0,35.0,35.0,35.0,1.0,mountain_156.jpg,mountain_128.jpg,8.0,A2WHAIUPGYCFN6
756,0.0,right,left,0.0,3.386,0.0,36.0,36.0,36.0,1.0,highway_60.jpg,highway_415.jpg,8.0,A2WHAIUPGYCFN6
757,0.0,left,left,1.0,3.177,0.0,37.0,37.0,37.0,1.0,golf_course_214.jpg,golf_course_312.jpg,8.0,A2WHAIUPGYCFN6
758,0.0,left,right,0.0,5.357,0.0,38.0,38.0,38.0,1.0,highway_156.jpg,highway_160.jpg,8.0,A2WHAIUPGYCFN6
759,1.0,left,right,0.0,1.395,0.0,39.0,39.0,39.0,1.0,badlands_24.jpg,badlands_53.jpg,7.0,A2WHAIUPGYCFN6
760,1.0,left,left,1.0,2.445,0.0,40.0,40.0,40.0,1.0,badlands_221.jpg,badlands_207.jpg,8.0,A2WHAIUPGYCFN6
761,1.0,right,right,1.0,7.289,0.0,41.0,41.0,41.0,1.0,playground_244.jpg,playground_60.jpg,8.0,A2WHAIUPGYCFN6
762,0.0,right,right,1.0,1.685,0.0,42.0,42.0,42.0,1.0,golf_course_114.jpg,golf_course_331.jpg,7.0,A2WHAIUPGYCFN6
763,0.0,right,right,1.0,4.714,0.0,43.0,43.0,43.0,1.0,bridge_27.jpg,bridge_146.jpg,7.0,A2WHAIUPGYCFN6
764,0.0,left,right,0.0,5.465,0.0,44.0,44.0,44.0,1.0,highway_177.jpg,highway_87.jpg,7.0,A2WHAIUPGYCFN6
765,1.0,left,right,0.0,1.296,0.0,45.0,45.0,45.0,1.0,bridge_256.jpg,bridge_211.jpg,8.0,A2WHAIUPGYCFN6
766,1.0,left,left,1.0,2.103,0.0,46.0,46.0,46.0,1.0,golf_course_188.jpg,golf_course_160.jpg,7.0,A2WHAIUPGYCFN6
767,0.0,right,left,0.0,5.116,0.0,47.0,47.0,47.0,1.0,badlands_114.jpg,badlands_23.jpg,8.0,A2WHAIUPGYCFN6
768,0.0,right,right,1.0,1.998,0.0,48.0,48.0,48.0,1.0,mountain_184.jpg,mountain_230.jpg,8.0,A2WHAIUPGYCFN6
769,1.0,right,left,0.0,1.582,0.0,49.0,49.0,49.0,1.0,mountain_93.jpg,mountain_222.jpg,7.0,A2WHAIUPGYCFN6
770,0.0,right,right,1.0,1.668,0.0,50.0,50.0,50.0,1.0,bridge_184.jpg,bridge_191.jpg,5.0,A2WHAIUPGYCFN6
771,1.0,right,right,1.0,1.615,0.0,51.0,51.0,51.0,1.0,mountain_223.jpg,mountain_110.jpg,8.0,A2WHAIUPGYCFN6
772,0.0,left,right,0.0,2.171,0.0,52.0,52.0,52.0,1.0,bridge_250.jpg,bridge_134.jpg,8.0,A2WHAIUPGYCFN6
773,1.0,left,left,1.0,1.498,0.0,53.0,53.0,53.0,1.0,badlands_52.jpg,badlands_63.jpg,7.0,A2WHAIUPGYCFN6
774,1.0,left,left,1.0,8.15,0.0,54.0,54.0,54.0,1.0,playground_219.jpg,playground_205.jpg,8.0,A2WHAIUPGYCFN6
775,0.0,right,right,1.0,28.554,0.0,55.0,55.0,55.0,1.0,highway_389.jpg,highway_359.jpg,8.0,A2WHAIUPGYCFN6
776,0.0,right,right,1.0,3.743,0.0,56.0,56.0,56.0,1.0,mountain_131.jpg,mountain_154.jpg,8.0,A2WHAIUPGYCFN6
777,0.0,right,right,1.0,2.235,0.0,57.0,57.0,57.0,1.0,mountain_171.jpg,mountain_101.jpg,7.0,A2WHAIUPGYCFN6
778,1.0,right,right,1.0,1.932,0.0,58.0,58.0,58.0,1.0,playground_164.jpg,playground_131.jpg,8.0,A2WHAIUPGYCFN6
779,1.0,left,left,1.0,1.75,0.0,59.0,59.0,59.0,1.0,mountain_123.jpg,mountain_189.jpg,7.0,A2WHAIUPGYCFN6
780,1.0,right,left,0.0,14.3964,0.0,0.0,0.0,0.0,1.0,playground_72.jpg,playground_76.jpg,4.0,A36U8EYFWM1EL5
781,0.0,right,right,1.0,5.8057,0.0,1.0,1.0,1.0,1.0,golf_course_16.jpg,golf_course_309.jpg,7.0,A36U8EYFWM1EL5
782,1.0,left,left,1.0,4.6187,0.0,2.0,2.0,2.0,1.0,playground_60.jpg,playground_244.jpg,6.0,A36U8EYFWM1EL5
783,0.0,right,right,1.0,3.8849,0.0,3.0,3.0,3.0,1.0,bridge_17.jpg,bridge_172.jpg,6.0,A36U8EYFWM1EL5
784,1.0,right,left,0.0,13.452,0.0,4.0,4.0,4.0,1.0,mountain_54.jpg,mountain_232.jpg,5.0,A36U8EYFWM1EL5
785,0.0,left,left,1.0,2.6019,0.0,5.0,5.0,5.0,1.0,golf_course_217.jpg,golf_course_35.jpg,5.0,A36U8EYFWM1EL5
786,0.0,right,right,1.0,2.4018,0.0,6.0,6.0,6.0,1.0,highway_85.jpg,highway_93.jpg,5.0,A36U8EYFWM1EL5
787,1.0,left,left,1.0,2.5229,0.0,7.0,7.0,7.0,1.0,mountain_101.jpg,mountain_221.jpg,6.0,A36U8EYFWM1EL5
788,1.0,right,left,0.0,4.5879,0.0,8.0,8.0,8.0,1.0,bridge_148.jpg,bridge_108.jpg,6.0,A36U8EYFWM1EL5
789,0.0,left,left,1.0,2.0096,0.0,9.0,9.0,9.0,1.0,highway_209.jpg,highway_314.jpg,6.0,A36U8EYFWM1EL5
790,0.0,right,right,1.0,2.3302,0.0,10.0,10.0,10.0,1.0,playground_167.jpg,playground_117.jpg,6.0,A36U8EYFWM1EL5
791,1.0,right,right,1.0,2.9679,0.0,11.0,11.0,11.0,1.0,bridge_38.jpg,bridge_202.jpg,6.0,A36U8EYFWM1EL5
792,0.0,right,left,0.0,4.784,0.0,12.0,12.0,12.0,1.0,badlands_102.jpg,badlands_70.jpg,7.0,A36U8EYFWM1EL5
793,1.0,left,right,0.0,2.4914,0.0,13.0,13.0,13.0,1.0,mountain_293.jpg,mountain_47.jpg,7.0,A36U8EYFWM1EL5
794,1.0,right,right,1.0,1.6805,0.0,14.0,14.0,14.0,1.0,bridge_244.jpg,bridge_128.jpg,7.0,A36U8EYFWM1EL5
795,1.0,right,right,1.0,2.7076,0.0,15.0,15.0,15.0,1.0,highway_293.jpg,highway_156.jpg,7.0,A36U8EYFWM1EL5
796,1.0,right,right,1.0,18.3975,0.0,16.0,16.0,16.0,1.0,playground_40.jpg,playground_240.jpg,7.0,A36U8EYFWM1EL5
797,1.0,left,left,1.0,74.6907,0.0,17.0,17.0,17.0,1.0,golf_course_193.jpg,golf_course_123.jpg,6.0,A36U8EYFWM1EL5
798,0.0,right,right,1.0,6.5319,0.0,18.0,18.0,18.0,1.0,playground_137.jpg,playground_144.jpg,6.0,A36U8EYFWM1EL5
799,0.0,right,left,0.0,2.5909,0.0,19.0,19.0,19.0,1.0,playground_214.jpg,playground_257.jpg,6.0,A36U8EYFWM1EL5
800,0.0,right,right,1.0,1.4296,0.0,20.0,20.0,20.0,1.0,mountain_157.jpg,mountain_110.jpg,6.0,A36U8EYFWM1EL5
801,1.0,left,left,1.0,1.6839,0.0,21.0,21.0,21.0,1.0,badlands_23.jpg,badlands_101.jpg,6.0,A36U8EYFWM1EL5
802,1.0,left,right,0.0,1.7176,0.0,22.0,22.0,22.0,1.0,highway_273.jpg,highway_171.jpg,6.0,A36U8EYFWM1EL5
803,1.0,left,right,0.0,3.4933,0.0,23.0,23.0,23.0,1.0,bridge_250.jpg,bridge_205.jpg,6.0,A36U8EYFWM1EL5
804,0.0,right,right,1.0,1.4856,0.0,24.0,24.0,24.0,1.0,highway_204.jpg,highway_394.jpg,6.0,A36U8EYFWM1EL5
805,1.0,right,right,1.0,1.7368,0.0,25.0,25.0,25.0,1.0,badlands_103.jpg,badlands_184.jpg,6.0,A36U8EYFWM1EL5
806,1.0,right,left,0.0,1.7093,0.0,26.0,26.0,26.0,1.0,highway_368.jpg,highway_294.jpg,6.0,A36U8EYFWM1EL5
807,0.0,left,left,1.0,1.6836,0.0,27.0,27.0,27.0,1.0,bridge_191.jpg,bridge_184.jpg,6.0,A36U8EYFWM1EL5
808,1.0,left,left,1.0,1.7464,0.0,28.0,28.0,28.0,1.0,golf_course_214.jpg,golf_course_317.jpg,6.0,A36U8EYFWM1EL5
809,0.0,left,right,0.0,2.3617,0.0,29.0,29.0,29.0,1.0,badlands_52.jpg,badlands_94.jpg,6.0,A36U8EYFWM1EL5
810,0.0,left,left,1.0,1.7935,0.0,30.0,30.0,30.0,1.0,mountain_123.jpg,mountain_94.jpg,6.0,A36U8EYFWM1EL5
811,1.0,left,right,0.0,1.3693,0.0,31.0,31.0,31.0,1.0,badlands_221.jpg,badlands_207.jpg,6.0,A36U8EYFWM1EL5
812,0.0,left,right,0.0,1.5388,0.0,32.0,32.0,32.0,1.0,golf_course_331.jpg,golf_course_114.jpg,6.0,A36U8EYFWM1EL5
813,0.0,right,right,1.0,3.9358,0.0,33.0,33.0,33.0,1.0,golf_course_25.jpg,golf_course_195.jpg,6.0,A36U8EYFWM1EL5
814,0.0,left,right,0.0,1.5455,0.0,34.0,34.0,34.0,1.0,playground_145.jpg,playground_229.jpg,6.0,A36U8EYFWM1EL5
815,0.0,right,left,0.0,1.4189,0.0,35.0,35.0,35.0,1.0,golf_course_157.jpg,golf_course_188.jpg,6.0,A36U8EYFWM1EL5
816,0.0,left,left,1.0,1.963,0.0,36.0,36.0,36.0,1.0,badlands_137.jpg,badlands_194.jpg,7.0,A36U8EYFWM1EL5
817,0.0,left,left,1.0,1.638,0.0,37.0,37.0,37.0,1.0,bridge_256.jpg,bridge_54.jpg,7.0,A36U8EYFWM1EL5
818,0.0,left,left,1.0,1.3477,0.0,38.0,38.0,38.0,1.0,highway_415.jpg,highway_60.jpg,6.0,A36U8EYFWM1EL5
819,0.0,left,left,1.0,9.8483,0.0,39.0,39.0,39.0,1.0,highway_245.jpg,highway_134.jpg,6.0,A36U8EYFWM1EL5
820,0.0,right,left,0.0,1.6907,0.0,40.0,40.0,40.0,1.0,badlands_3.jpg,badlands_24.jpg,6.0,A36U8EYFWM1EL5
821,1.0,left,right,0.0,2.0245,0.0,41.0,41.0,41.0,1.0,playground_131.jpg,playground_164.jpg,6.0,A36U8EYFWM1EL5
822,1.0,right,left,0.0,1.7311,0.0,42.0,42.0,42.0,1.0,badlands_203.jpg,badlands_113.jpg,6.0,A36U8EYFWM1EL5
823,1.0,right,right,1.0,1.8705,0.0,43.0,43.0,43.0,1.0,golf_course_101.jpg,golf_course_78.jpg,6.0,A36U8EYFWM1EL5
824,1.0,right,right,1.0,5.8332,0.0,44.0,44.0,44.0,1.0,mountain_93.jpg,mountain_222.jpg,6.0,A36U8EYFWM1EL5
825,1.0,left,left,1.0,1.6425,0.0,45.0,45.0,45.0,1.0,playground_219.jpg,playground_205.jpg,6.0,A36U8EYFWM1EL5
826,1.0,left,right,0.0,1.3744,0.0,46.0,46.0,46.0,1.0,highway_177.jpg,highway_278.jpg,6.0,A36U8EYFWM1EL5
827,1.0,right,right,1.0,32.7502,0.0,47.0,47.0,47.0,1.0,highway_379.jpg,highway_359.jpg,6.0,A36U8EYFWM1EL5
828,0.0,right,right,1.0,2.2168,0.0,48.0,48.0,48.0,1.0,badlands_1.jpg,badlands_21.jpg,6.0,A36U8EYFWM1EL5
829,0.0,left,right,0.0,1.9881,0.0,49.0,49.0,49.0,1.0,bridge_146.jpg,bridge_27.jpg,6.0,A36U8EYFWM1EL5
830,0.0,right,right,1.0,2.0657,0.0,50.0,50.0,50.0,1.0,playground_122.jpg,playground_10.jpg,6.0,A36U8EYFWM1EL5
831,1.0,left,right,0.0,1.658,0.0,51.0,51.0,51.0,1.0,golf_course_15.jpg,golf_course_97.jpg,6.0,A36U8EYFWM1EL5
832,1.0,right,right,1.0,1.7786,0.0,52.0,52.0,52.0,1.0,bridge_60.jpg,bridge_65.jpg,6.0,A36U8EYFWM1EL5
833,0.0,right,right,1.0,2.1399,0.0,53.0,53.0,53.0,1.0,bridge_253.jpg,bridge_91.jpg,6.0,A36U8EYFWM1EL5
834,0.0,right,left,0.0,3.2546,0.0,54.0,54.0,54.0,1.0,mountain_193.jpg,mountain_57.jpg,6.0,A36U8EYFWM1EL5
835,0.0,right,right,1.0,2.464,0.0,55.0,55.0,55.0,1.0,mountain_128.jpg,mountain_156.jpg,6.0,A36U8EYFWM1EL5
836,0.0,left,left,1.0,1.6827,0.0,56.0,56.0,56.0,1.0,mountain_230.jpg,mountain_184.jpg,6.0,A36U8EYFWM1EL5
837,1.0,left,left,1.0,1.8244,0.0,57.0,57.0,57.0,1.0,golf_course_87.jpg,golf_course_161.jpg,6.0,A36U8EYFWM1EL5
838,1.0,right,left,0.0,2.2677,0.0,58.0,58.0,58.0,1.0,mountain_95.jpg,mountain_154.jpg,6.0,A36U8EYFWM1EL5
839,1.0,left,right,0.0,1.6584,0.0,59.0,59.0,59.0,1.0,badlands_222.jpg,badlands_62.jpg,6.0,A36U8EYFWM1EL5
840,0.0,left,left,1.0,18.903,0.0,0.0,0.0,0.0,1.0,playground_10.jpg,playground_122.jpg,7.0,A3V7HHS20YFRT4
841,0.0,right,right,1.0,3.74,0.0,1.0,1.0,1.0,1.0,golf_course_157.jpg,golf_course_188.jpg,6.0,A3V7HHS20YFRT4
842,0.0,left,left,1.0,3.253,0.0,2.0,2.0,2.0,1.0,highway_294.jpg,highway_203.jpg,7.0,A3V7HHS20YFRT4
843,1.0,right,left,0.0,3.417,0.0,3.0,3.0,3.0,1.0,highway_379.jpg,highway_359.jpg,7.0,A3V7HHS20YFRT4
844,1.0,left,left,1.0,5.987,0.0,4.0,4.0,4.0,1.0,playground_131.jpg,playground_164.jpg,8.0,A3V7HHS20YFRT4
845,0.0,right,right,1.0,7.279,0.0,5.0,5.0,5.0,1.0,highway_85.jpg,highway_93.jpg,5.0,A3V7HHS20YFRT4
846,0.0,right,left,0.0,2.853,0.0,6.0,6.0,6.0,1.0,golf_course_134.jpg,golf_course_78.jpg,7.0,A3V7HHS20YFRT4
847,1.0,left,left,1.0,4.471,0.0,7.0,7.0,7.0,1.0,golf_course_15.jpg,golf_course_97.jpg,8.0,A3V7HHS20YFRT4
848,0.0,left,left,1.0,2.386,0.0,8.0,8.0,8.0,1.0,mountain_230.jpg,mountain_184.jpg,5.0,A3V7HHS20YFRT4
849,0.0,right,left,0.0,8.775,0.0,9.0,9.0,9.0,1.0,playground_229.jpg,playground_145.jpg,7.0,A3V7HHS20YFRT4
850,0.0,left,left,1.0,7.932,0.0,10.0,10.0,10.0,1.0,bridge_108.jpg,bridge_116.jpg,7.0,A3V7HHS20YFRT4
851,1.0,left,left,1.0,15.134,0.0,11.0,11.0,11.0,1.0,highway_415.jpg,highway_174.jpg,9.0,A3V7HHS20YFRT4
852,0.0,right,right,1.0,43.686,0.0,12.0,12.0,12.0,1.0,bridge_27.jpg,bridge_146.jpg,7.0,A3V7HHS20YFRT4
853,0.0,right,left,0.0,3.408,0.0,13.0,13.0,13.0,1.0,highway_134.jpg,highway_245.jpg,6.0,A3V7HHS20YFRT4
854,1.0,right,left,0.0,22.772,0.0,14.0,14.0,14.0,1.0,mountain_47.jpg,mountain_293.jpg,7.0,A3V7HHS20YFRT4
855,1.0,left,left,1.0,4.678,0.0,15.0,15.0,15.0,1.0,playground_240.jpg,playground_40.jpg,6.0,A3V7HHS20YFRT4
856,0.0,right,left,0.0,4.28,0.0,16.0,16.0,16.0,1.0,playground_214.jpg,playground_257.jpg,7.0,A3V7HHS20YFRT4
857,1.0,left,left,1.0,6.297,0.0,17.0,17.0,17.0,1.0,badlands_222.jpg,badlands_62.jpg,8.0,A3V7HHS20YFRT4
858,1.0,left,left,1.0,10.158,0.0,18.0,18.0,18.0,1.0,bridge_202.jpg,bridge_38.jpg,5.0,A3V7HHS20YFRT4
859,0.0,right,right,1.0,3.351,0.0,19.0,19.0,19.0,1.0,badlands_115.jpg,badlands_221.jpg,7.0,A3V7HHS20YFRT4
860,1.0,left,right,0.0,4.058,0.0,20.0,20.0,20.0,1.0,badlands_70.jpg,badlands_119.jpg,7.0,A3V7HHS20YFRT4
861,0.0,left,left,1.0,2.161,0.0,21.0,21.0,21.0,1.0,badlands_137.jpg,badlands_194.jpg,6.0,A3V7HHS20YFRT4
862,0.0,left,left,1.0,5.363,0.0,22.0,22.0,22.0,1.0,playground_60.jpg,playground_268.jpg,8.0,A3V7HHS20YFRT4
863,0.0,right,left,0.0,2.828,0.0,23.0,23.0,23.0,1.0,bridge_181.jpg,bridge_65.jpg,8.0,A3V7HHS20YFRT4
864,1.0,right,right,1.0,2.297,0.0,24.0,24.0,24.0,1.0,highway_293.jpg,highway_156.jpg,9.0,A3V7HHS20YFRT4
865,0.0,left,right,0.0,4.222,0.0,25.0,25.0,25.0,1.0,badlands_184.jpg,badlands_228.jpg,7.0,A3V7HHS20YFRT4
866,1.0,right,right,1.0,2.541,0.0,26.0,26.0,26.0,1.0,badlands_63.jpg,badlands_52.jpg,6.0,A3V7HHS20YFRT4
867,1.0,right,right,1.0,10.454,0.0,27.0,27.0,27.0,1.0,highway_278.jpg,highway_177.jpg,7.0,A3V7HHS20YFRT4
868,0.0,right,right,1.0,5.175,0.0,28.0,28.0,28.0,1.0,bridge_54.jpg,bridge_256.jpg,7.0,A3V7HHS20YFRT4
869,1.0,left,right,0.0,4.216,0.0,29.0,29.0,29.0,1.0,bridge_91.jpg,bridge_82.jpg,8.0,A3V7HHS20YFRT4
870,0.0,left,left,1.0,4.485,0.0,30.0,30.0,30.0,1.0,highway_394.jpg,highway_204.jpg,7.0,A3V7HHS20YFRT4
871,0.0,left,left,1.0,2.318,0.0,31.0,31.0,31.0,1.0,golf_course_214.jpg,golf_course_312.jpg,8.0,A3V7HHS20YFRT4
872,1.0,right,right,1.0,5.171,0.0,32.0,32.0,32.0,1.0,playground_127.jpg,playground_117.jpg,9.0,A3V7HHS20YFRT4
873,0.0,right,right,1.0,6.62,0.0,33.0,33.0,33.0,1.0,bridge_61.jpg,bridge_128.jpg,5.0,A3V7HHS20YFRT4
874,0.0,left,left,1.0,4.153,0.0,34.0,34.0,34.0,1.0,playground_144.jpg,playground_137.jpg,7.0,A3V7HHS20YFRT4
875,0.0,left,left,1.0,6.127,0.0,35.0,35.0,35.0,1.0,highway_273.jpg,highway_384.jpg,8.0,A3V7HHS20YFRT4
876,0.0,right,right,1.0,2.532,0.0,36.0,36.0,36.0,1.0,mountain_131.jpg,mountain_154.jpg,7.0,A3V7HHS20YFRT4
877,1.0,left,left,1.0,2.909,0.0,37.0,37.0,37.0,1.0,mountain_57.jpg,mountain_138.jpg,8.0,A3V7HHS20YFRT4
878,1.0,left,left,1.0,2.712,0.0,38.0,38.0,38.0,1.0,mountain_156.jpg,mountain_295.jpg,6.0,A3V7HHS20YFRT4
879,1.0,right,right,1.0,2.22,0.0,39.0,39.0,39.0,1.0,highway_122.jpg,highway_209.jpg,8.0,A3V7HHS20YFRT4
880,1.0,left,left,1.0,5.815,0.0,40.0,40.0,40.0,1.0,bridge_250.jpg,bridge_205.jpg,6.0,A3V7HHS20YFRT4
881,1.0,left,left,1.0,23.561,0.0,41.0,41.0,41.0,1.0,golf_course_331.jpg,golf_course_26.jpg,7.0,A3V7HHS20YFRT4
882,0.0,left,left,1.0,6.829,0.0,42.0,42.0,42.0,1.0,golf_course_87.jpg,golf_course_130.jpg,7.0,A3V7HHS20YFRT4
883,1.0,right,right,1.0,14.534,0.0,43.0,43.0,43.0,1.0,playground_205.jpg,playground_219.jpg,8.0,A3V7HHS20YFRT4
884,0.0,left,left,1.0,4.313,0.0,44.0,44.0,44.0,1.0,mountain_110.jpg,mountain_157.jpg,7.0,A3V7HHS20YFRT4
885,1.0,right,right,1.0,3.739,0.0,45.0,45.0,45.0,1.0,badlands_101.jpg,badlands_23.jpg,5.0,A3V7HHS20YFRT4
886,1.0,left,left,1.0,7.285,0.0,46.0,46.0,46.0,1.0,playground_76.jpg,playground_72.jpg,7.0,A3V7HHS20YFRT4
887,0.0,right,left,0.0,8.757,0.0,47.0,47.0,47.0,1.0,mountain_171.jpg,mountain_101.jpg,7.0,A3V7HHS20YFRT4
888,1.0,right,left,0.0,2.573,0.0,48.0,48.0,48.0,1.0,bridge_163.jpg,bridge_172.jpg,6.0,A3V7HHS20YFRT4
889,1.0,left,left,1.0,2.768,0.0,49.0,49.0,49.0,1.0,mountain_232.jpg,mountain_54.jpg,7.0,A3V7HHS20YFRT4
890,0.0,left,right,0.0,4.689,0.0,50.0,50.0,50.0,1.0,mountain_123.jpg,mountain_94.jpg,7.0,A3V7HHS20YFRT4
891,1.0,left,left,1.0,3.81,0.0,51.0,51.0,51.0,1.0,bridge_191.jpg,bridge_75.jpg,7.0,A3V7HHS20YFRT4
892,1.0,right,right,1.0,4.008,0.0,52.0,52.0,52.0,1.0,golf_course_123.jpg,golf_course_193.jpg,7.0,A3V7HHS20YFRT4
893,1.0,left,left,1.0,1.691,0.0,53.0,53.0,53.0,1.0,golf_course_217.jpg,golf_course_262.jpg,8.0,A3V7HHS20YFRT4
894,1.0,left,left,1.0,2.186,0.0,54.0,54.0,54.0,1.0,mountain_222.jpg,mountain_93.jpg,7.0,A3V7HHS20YFRT4
895,0.0,right,right,1.0,2.045,0.0,55.0,55.0,55.0,1.0,badlands_3.jpg,badlands_24.jpg,6.0,A3V7HHS20YFRT4
896,1.0,right,right,1.0,21.555,0.0,56.0,56.0,56.0,1.0,golf_course_209.jpg,golf_course_309.jpg,7.0,A3V7HHS20YFRT4
897,0.0,right,left,0.0,8.348,0.0,57.0,57.0,57.0,1.0,golf_course_25.jpg,golf_course_195.jpg,6.0,A3V7HHS20YFRT4
898,0.0,right,right,1.0,4.947,0.0,58.0,58.0,58.0,1.0,badlands_225.jpg,badlands_113.jpg,8.0,A3V7HHS20YFRT4
899,1.0,right,right,1.0,5.112,0.0,59.0,59.0,59.0,1.0,badlands_98.jpg,badlands_21.jpg,6.0,A3V7HHS20YFRT4
900,0.0,right,left,0.0,6.7701,0.0,0.0,0.0,0.0,1.0,badlands_1.jpg,badlands_21.jpg,6.0,AYECXBANNBYIL
901,0.0,right,left,0.0,1.7111,0.0,1.0,1.0,1.0,1.0,mountain_3.jpg,mountain_232.jpg,7.0,AYECXBANNBYIL
902,0.0,right,left,0.0,1.4999,0.0,2.0,2.0,2.0,1.0,highway_314.jpg,highway_209.jpg,3.0,AYECXBANNBYIL
903,0.0,right,left,0.0,2.3382,0.0,3.0,3.0,3.0,1.0,highway_87.jpg,highway_177.jpg,2.0,AYECXBANNBYIL
904,0.0,right,left,0.0,1.0569,0.0,4.0,4.0,4.0,1.0,bridge_181.jpg,bridge_65.jpg,3.0,AYECXBANNBYIL
905,0.0,left,left,1.0,4.9754,0.0,5.0,5.0,5.0,1.0,playground_219.jpg,playground_21.jpg,6.0,AYECXBANNBYIL
906,0.0,right,left,0.0,1.3818,0.0,6.0,6.0,6.0,1.0,golf_course_16.jpg,golf_course_309.jpg,6.0,AYECXBANNBYIL
907,0.0,right,left,0.0,1.3233,0.0,7.0,7.0,7.0,1.0,mountain_184.jpg,mountain_230.jpg,3.0,AYECXBANNBYIL
908,0.0,right,left,0.0,1.5016,0.0,8.0,8.0,8.0,1.0,golf_course_113.jpg,golf_course_15.jpg,3.0,AYECXBANNBYIL
909,0.0,right,left,0.0,1.6248,0.0,9.0,9.0,9.0,1.0,badlands_34.jpg,badlands_222.jpg,7.0,AYECXBANNBYIL
910,1.0,right,left,0.0,1.5592,0.0,10.0,10.0,10.0,1.0,golf_course_123.jpg,golf_course_193.jpg,2.0,AYECXBANNBYIL
911,1.0,left,left,1.0,2.2923,0.0,11.0,11.0,11.0,1.0,badlands_52.jpg,badlands_63.jpg,7.0,AYECXBANNBYIL
912,1.0,right,left,0.0,1.1902,0.0,12.0,12.0,12.0,1.0,bridge_75.jpg,bridge_191.jpg,7.0,AYECXBANNBYIL
913,1.0,left,left,1.0,2.0904,0.0,13.0,13.0,13.0,1.0,highway_294.jpg,highway_368.jpg,7.0,AYECXBANNBYIL
914,1.0,left,left,1.0,1.4832,0.0,14.0,14.0,14.0,1.0,golf_course_78.jpg,golf_course_101.jpg,2.0,AYECXBANNBYIL
915,1.0,left,left,1.0,1.4396,0.0,15.0,15.0,15.0,1.0,badlands_23.jpg,badlands_101.jpg,7.0,AYECXBANNBYIL
916,1.0,left,left,1.0,1.672,0.0,16.0,16.0,16.0,1.0,badlands_221.jpg,badlands_207.jpg,7.0,AYECXBANNBYIL
917,0.0,left,left,1.0,1.7226,0.0,17.0,17.0,17.0,1.0,bridge_256.jpg,bridge_54.jpg,7.0,AYECXBANNBYIL
918,0.0,left,left,1.0,1.3891,0.0,18.0,18.0,18.0,1.0,golf_course_331.jpg,golf_course_114.jpg,7.0,AYECXBANNBYIL
919,1.0,left,left,1.0,1.3989,0.0,19.0,19.0,19.0,1.0,mountain_293.jpg,mountain_47.jpg,7.0,AYECXBANNBYIL
920,1.0,right,left,0.0,4.3453,0.0,20.0,20.0,20.0,1.0,highway_174.jpg,highway_415.jpg,7.0,AYECXBANNBYIL
921,1.0,right,left,0.0,10.1069,0.0,21.0,21.0,21.0,1.0,badlands_139.jpg,badlands_137.jpg,6.0,AYECXBANNBYIL
922,1.0,right,left,0.0,1.5524,0.0,22.0,22.0,22.0,1.0,playground_72.jpg,playground_76.jpg,8.0,AYECXBANNBYIL
923,1.0,left,left,1.0,14.6631,0.0,23.0,23.0,23.0,1.0,mountain_154.jpg,mountain_95.jpg,5.0,AYECXBANNBYIL
924,0.0,left,left,1.0,2.0536,0.0,24.0,24.0,24.0,1.0,mountain_110.jpg,mountain_157.jpg,4.0,AYECXBANNBYIL
925,1.0,right,left,0.0,33.7233,0.0,25.0,25.0,25.0,1.0,highway_293.jpg,highway_156.jpg,8.0,AYECXBANNBYIL
926,0.0,left,left,1.0,19.3396,0.0,26.0,26.0,26.0,1.0,playground_257.jpg,playground_214.jpg,6.0,AYECXBANNBYIL
927,1.0,right,left,0.0,1.522,0.0,27.0,27.0,27.0,1.0,mountain_138.jpg,mountain_57.jpg,5.0,AYECXBANNBYIL
928,1.0,left,left,1.0,1.2819,0.0,28.0,28.0,28.0,1.0,highway_245.jpg,highway_206.jpg,7.0,AYECXBANNBYIL
929,0.0,right,left,0.0,1.0112,0.0,29.0,29.0,29.0,1.0,badlands_225.jpg,badlands_113.jpg,8.0,AYECXBANNBYIL
930,1.0,right,left,0.0,1.2694,0.0,30.0,30.0,30.0,1.0,bridge_205.jpg,bridge_250.jpg,8.0,AYECXBANNBYIL
931,0.0,right,left,0.0,1.2421,0.0,31.0,31.0,31.0,1.0,golf_course_35.jpg,golf_course_217.jpg,5.0,AYECXBANNBYIL
932,1.0,right,left,0.0,0.8831,0.0,32.0,32.0,32.0,1.0,badlands_53.jpg,badlands_24.jpg,8.0,AYECXBANNBYIL
933,0.0,right,left,0.0,1.073,0.0,33.0,33.0,33.0,1.0,highway_384.jpg,highway_273.jpg,3.0,AYECXBANNBYIL
934,1.0,left,left,1.0,1.4167,0.0,34.0,34.0,34.0,1.0,golf_course_214.jpg,golf_course_317.jpg,8.0,AYECXBANNBYIL
935,0.0,right,left,0.0,1.5938,0.0,35.0,35.0,35.0,1.0,bridge_27.jpg,bridge_146.jpg,4.0,AYECXBANNBYIL
936,1.0,right,left,0.0,1.008,0.0,36.0,36.0,36.0,1.0,bridge_163.jpg,bridge_172.jpg,4.0,AYECXBANNBYIL
937,0.0,left,left,1.0,0.8703,0.0,37.0,37.0,37.0,1.0,mountain_123.jpg,mountain_94.jpg,4.0,AYECXBANNBYIL
938,0.0,right,left,0.0,1.1833,0.0,38.0,38.0,38.0,1.0,highway_85.jpg,highway_93.jpg,5.0,AYECXBANNBYIL
939,1.0,left,left,1.0,0.6539,0.0,39.0,39.0,39.0,1.0,golf_course_195.jpg,golf_course_2.jpg,8.0,AYECXBANNBYIL
940,0.0,left,left,1.0,1.275,0.0,40.0,40.0,40.0,1.0,playground_144.jpg,playground_137.jpg,2.0,AYECXBANNBYIL
941,1.0,left,left,1.0,1.2575,0.0,41.0,41.0,41.0,1.0,playground_131.jpg,playground_164.jpg,7.0,AYECXBANNBYIL
942,1.0,right,left,0.0,1.1794,0.0,42.0,42.0,42.0,1.0,bridge_82.jpg,bridge_91.jpg,7.0,AYECXBANNBYIL
943,0.0,left,left,1.0,0.8035,0.0,43.0,43.0,43.0,1.0,playground_117.jpg,playground_167.jpg,7.0,AYECXBANNBYIL
944,1.0,right,left,0.0,0.8388,0.0,44.0,44.0,44.0,1.0,golf_course_160.jpg,golf_course_188.jpg,7.0,AYECXBANNBYIL
945,0.0,left,left,1.0,0.7149,0.0,45.0,45.0,45.0,1.0,badlands_184.jpg,badlands_228.jpg,7.0,AYECXBANNBYIL
946,1.0,left,left,1.0,0.6941,0.0,46.0,46.0,46.0,1.0,mountain_156.jpg,mountain_295.jpg,7.0,AYECXBANNBYIL
947,1.0,right,left,0.0,1.149,0.0,47.0,47.0,47.0,1.0,playground_242.jpg,playground_145.jpg,8.0,AYECXBANNBYIL
948,0.0,right,left,0.0,0.8327,0.0,48.0,48.0,48.0,1.0,playground_268.jpg,playground_60.jpg,8.0,AYECXBANNBYIL
949,0.0,right,left,0.0,0.6801,0.0,49.0,49.0,49.0,1.0,highway_204.jpg,highway_394.jpg,5.0,AYECXBANNBYIL
950,1.0,left,left,1.0,1.0983,0.0,50.0,50.0,50.0,1.0,highway_359.jpg,highway_379.jpg,7.0,AYECXBANNBYIL
951,0.0,left,left,1.0,1.1945,0.0,51.0,51.0,51.0,1.0,badlands_70.jpg,badlands_102.jpg,3.0,AYECXBANNBYIL
