,index,test_encoding_response.keys,test_encoding_response.corr,trials.thisTrialN,target,correct,test_encoding_response.rt,key_resp_end.keys,subject
0,20,,1.0,0.0,golf_course_15.jpg,,,,A2NAKIXS3DVGAA
1,21,,1.0,1.0,badlands_221.jpg,,,,A2NAKIXS3DVGAA
2,22,,1.0,2.0,playground_76.jpg,,,,A2NAKIXS3DVGAA
3,23,,1.0,3.0,golf_course_87.jpg,,,,A2NAKIXS3DVGAA
4,24,,1.0,4.0,playground_257.jpg,,,,A2NAKIXS3DVGAA
5,25,,1.0,5.0,mountain_156.jpg,,,,A2NAKIXS3DVGAA
6,26,,1.0,6.0,golf_course_193.jpg,,,,A2NAKIXS3DVGAA
7,27,,1.0,7.0,bridge_65.jpg,,,,A2NAKIXS3DVGAA
8,28,,1.0,8.0,golf_course_309.jpg,,,,A2NAKIXS3DVGAA
9,29,right,1.0,9.0,right.jpg,right,0.802,,A2NAKIXS3DVGAA
10,30,,1.0,10.0,playground_144.jpg,,,,A2NAKIXS3DVGAA
11,31,,1.0,11.0,mountain_57.jpg,,,,A2NAKIXS3DVGAA
12,32,,1.0,12.0,bridge_250.jpg,,,,A2NAKIXS3DVGAA
13,33,,1.0,13.0,highway_245.jpg,,,,A2NAKIXS3DVGAA
14,34,,1.0,14.0,highway_156.jpg,,,,A2NAKIXS3DVGAA
15,35,,1.0,15.0,highway_359.jpg,,,,A2NAKIXS3DVGAA
16,36,,1.0,16.0,highway_177.jpg,,,,A2NAKIXS3DVGAA
17,37,left,1.0,17.0,left.jpg,left,0.671,,A2NAKIXS3DVGAA
18,38,,1.0,18.0,playground_240.jpg,,,,A2NAKIXS3DVGAA
19,39,,1.0,19.0,bridge_256.jpg,,,,A2NAKIXS3DVGAA
20,40,,1.0,20.0,badlands_23.jpg,,,,A2NAKIXS3DVGAA
21,41,,1.0,21.0,badlands_184.jpg,,,,A2NAKIXS3DVGAA
22,42,,1.0,22.0,bridge_128.jpg,,,,A2NAKIXS3DVGAA
23,43,,1.0,23.0,bridge_191.jpg,,,,A2NAKIXS3DVGAA
24,44,,1.0,24.0,badlands_70.jpg,,,,A2NAKIXS3DVGAA
25,45,,1.0,25.0,bridge_108.jpg,,,,A2NAKIXS3DVGAA
26,46,,1.0,26.0,badlands_24.jpg,,,,A2NAKIXS3DVGAA
27,47,,1.0,27.0,badlands_113.jpg,,,,A2NAKIXS3DVGAA
28,48,,1.0,28.0,highway_93.jpg,,,,A2NAKIXS3DVGAA
29,49,,1.0,29.0,golf_course_188.jpg,,,,A2NAKIXS3DVGAA
30,50,,1.0,30.0,mountain_232.jpg,,,,A2NAKIXS3DVGAA
31,51,,1.0,31.0,playground_145.jpg,,,,A2NAKIXS3DVGAA
32,52,,1.0,32.0,mountain_110.jpg,,,,A2NAKIXS3DVGAA
33,53,right,1.0,33.0,right.jpg,right,0.541,,A2NAKIXS3DVGAA
34,54,,1.0,34.0,playground_117.jpg,,,,A2NAKIXS3DVGAA
35,55,,1.0,35.0,golf_course_331.jpg,,,,A2NAKIXS3DVGAA
36,56,,1.0,36.0,badlands_21.jpg,,,,A2NAKIXS3DVGAA
37,57,,1.0,37.0,bridge_172.jpg,,,,A2NAKIXS3DVGAA
38,58,,1.0,38.0,mountain_154.jpg,,,,A2NAKIXS3DVGAA
39,59,,1.0,39.0,highway_415.jpg,,,,A2NAKIXS3DVGAA
40,60,right,1.0,40.0,right.jpg,right,0.534,,A2NAKIXS3DVGAA
41,61,,1.0,41.0,badlands_137.jpg,,,,A2NAKIXS3DVGAA
42,62,,1.0,42.0,highway_273.jpg,,,,A2NAKIXS3DVGAA
43,63,,1.0,43.0,golf_course_214.jpg,,,,A2NAKIXS3DVGAA
44,64,,1.0,44.0,playground_60.jpg,,,,A2NAKIXS3DVGAA
45,65,,1.0,45.0,highway_394.jpg,,,,A2NAKIXS3DVGAA
46,66,,1.0,46.0,badlands_222.jpg,,,,A2NAKIXS3DVGAA
47,67,,1.0,47.0,golf_course_195.jpg,,,,A2NAKIXS3DVGAA
48,68,,1.0,48.0,bridge_146.jpg,,,,A2NAKIXS3DVGAA
49,69,,1.0,49.0,mountain_230.jpg,,,,A2NAKIXS3DVGAA
50,70,,1.0,50.0,mountain_222.jpg,,,,A2NAKIXS3DVGAA
51,71,left,1.0,51.0,left.jpg,left,0.776,,A2NAKIXS3DVGAA
52,72,,1.0,52.0,mountain_293.jpg,,,,A2NAKIXS3DVGAA
53,73,,1.0,53.0,mountain_101.jpg,,,,A2NAKIXS3DVGAA
54,74,,1.0,54.0,golf_course_78.jpg,,,,A2NAKIXS3DVGAA
55,75,,1.0,55.0,highway_209.jpg,,,,A2NAKIXS3DVGAA
56,76,,1.0,56.0,playground_131.jpg,,,,A2NAKIXS3DVGAA
57,77,,1.0,57.0,playground_219.jpg,,,,A2NAKIXS3DVGAA
58,78,,1.0,58.0,playground_10.jpg,,,,A2NAKIXS3DVGAA
59,79,,1.0,59.0,golf_course_217.jpg,,,,A2NAKIXS3DVGAA
60,80,,1.0,60.0,bridge_91.jpg,,,,A2NAKIXS3DVGAA
61,81,,1.0,61.0,bridge_202.jpg,,,,A2NAKIXS3DVGAA
62,82,,1.0,62.0,highway_294.jpg,,,,A2NAKIXS3DVGAA
63,83,,1.0,63.0,mountain_123.jpg,,,,A2NAKIXS3DVGAA
64,84,,1.0,64.0,badlands_52.jpg,,,,A2NAKIXS3DVGAA
65,20,,1.0,0.0,badlands_21.jpg,,,,A27KTNOX292J1I
66,21,,1.0,1.0,mountain_123.jpg,,,,A27KTNOX292J1I
67,22,,1.0,2.0,playground_131.jpg,,,,A27KTNOX292J1I
68,23,,1.0,3.0,mountain_154.jpg,,,,A27KTNOX292J1I
69,24,,1.0,4.0,golf_course_331.jpg,,,,A27KTNOX292J1I
70,25,,1.0,5.0,playground_144.jpg,,,,A27KTNOX292J1I
71,26,,1.0,6.0,badlands_23.jpg,,,,A27KTNOX292J1I
72,27,,1.0,7.0,bridge_128.jpg,,,,A27KTNOX292J1I
73,28,,1.0,8.0,bridge_65.jpg,,,,A27KTNOX292J1I
74,29,,1.0,9.0,highway_394.jpg,,,,A27KTNOX292J1I
75,30,,1.0,10.0,mountain_156.jpg,,,,A27KTNOX292J1I
76,31,,1.0,11.0,badlands_70.jpg,,,,A27KTNOX292J1I
77,32,,1.0,12.0,playground_10.jpg,,,,A27KTNOX292J1I
78,33,,1.0,13.0,highway_415.jpg,,,,A27KTNOX292J1I
79,34,right,1.0,14.0,right.jpg,right,0.6885,,A27KTNOX292J1I
80,35,,1.0,15.0,badlands_113.jpg,,,,A27KTNOX292J1I
81,36,,1.0,16.0,highway_294.jpg,,,,A27KTNOX292J1I
82,37,,1.0,17.0,golf_course_78.jpg,,,,A27KTNOX292J1I
83,38,left,1.0,18.0,left.jpg,left,0.6995,,A27KTNOX292J1I
84,39,,1.0,19.0,playground_60.jpg,,,,A27KTNOX292J1I
85,40,,1.0,20.0,bridge_256.jpg,,,,A27KTNOX292J1I
86,41,,1.0,21.0,bridge_108.jpg,,,,A27KTNOX292J1I
87,42,,1.0,22.0,mountain_232.jpg,,,,A27KTNOX292J1I
88,43,,1.0,23.0,bridge_172.jpg,,,,A27KTNOX292J1I
89,44,,1.0,24.0,mountain_101.jpg,,,,A27KTNOX292J1I
90,45,,1.0,25.0,golf_course_15.jpg,,,,A27KTNOX292J1I
91,46,,1.0,26.0,golf_course_193.jpg,,,,A27KTNOX292J1I
92,47,,1.0,27.0,golf_course_195.jpg,,,,A27KTNOX292J1I
93,48,,1.0,28.0,golf_course_214.jpg,,,,A27KTNOX292J1I
94,49,,1.0,29.0,badlands_24.jpg,,,,A27KTNOX292J1I
95,50,,1.0,30.0,golf_course_188.jpg,,,,A27KTNOX292J1I
96,51,,1.0,31.0,highway_273.jpg,,,,A27KTNOX292J1I
97,52,right,1.0,32.0,right.jpg,right,0.914299999,,A27KTNOX292J1I
98,53,,1.0,33.0,playground_240.jpg,,,,A27KTNOX292J1I
99,54,,1.0,34.0,playground_76.jpg,,,,A27KTNOX292J1I
100,55,,1.0,35.0,highway_177.jpg,,,,A27KTNOX292J1I
101,56,,1.0,36.0,badlands_221.jpg,,,,A27KTNOX292J1I
102,57,,1.0,37.0,golf_course_87.jpg,,,,A27KTNOX292J1I
103,58,,1.0,38.0,highway_359.jpg,,,,A27KTNOX292J1I
104,59,,1.0,39.0,playground_145.jpg,,,,A27KTNOX292J1I
105,60,,1.0,40.0,playground_219.jpg,,,,A27KTNOX292J1I
106,61,left,1.0,41.0,left.jpg,left,2.282,,A27KTNOX292J1I
107,62,,1.0,42.0,badlands_222.jpg,,,,A27KTNOX292J1I
108,63,,1.0,43.0,highway_156.jpg,,,,A27KTNOX292J1I
109,64,,1.0,44.0,playground_117.jpg,,,,A27KTNOX292J1I
110,65,,1.0,45.0,highway_209.jpg,,,,A27KTNOX292J1I
111,66,,1.0,46.0,badlands_52.jpg,,,,A27KTNOX292J1I
112,67,,1.0,47.0,bridge_91.jpg,,,,A27KTNOX292J1I
113,68,,0.0,48.0,right.jpg,right,,,A27KTNOX292J1I
114,69,,1.0,49.0,golf_course_309.jpg,,,,A27KTNOX292J1I
115,70,,1.0,50.0,golf_course_217.jpg,,,,A27KTNOX292J1I
116,71,,1.0,51.0,highway_93.jpg,,,,A27KTNOX292J1I
117,72,,1.0,52.0,mountain_222.jpg,,,,A27KTNOX292J1I
118,73,,1.0,53.0,mountain_110.jpg,,,,A27KTNOX292J1I
119,74,,1.0,54.0,bridge_202.jpg,,,,A27KTNOX292J1I
120,75,,1.0,55.0,badlands_184.jpg,,,,A27KTNOX292J1I
121,76,,1.0,56.0,bridge_191.jpg,,,,A27KTNOX292J1I
122,77,,1.0,57.0,mountain_57.jpg,,,,A27KTNOX292J1I
123,78,,1.0,58.0,bridge_250.jpg,,,,A27KTNOX292J1I
124,79,,1.0,59.0,playground_257.jpg,,,,A27KTNOX292J1I
125,80,,1.0,60.0,bridge_146.jpg,,,,A27KTNOX292J1I
126,81,,1.0,61.0,highway_245.jpg,,,,A27KTNOX292J1I
127,82,,1.0,62.0,mountain_293.jpg,,,,A27KTNOX292J1I
128,83,,1.0,63.0,mountain_230.jpg,,,,A27KTNOX292J1I
129,84,,1.0,64.0,badlands_137.jpg,,,,A27KTNOX292J1I
130,20,,1.0,0.0,golf_course_309.jpg,,,,AWJKR5GA7BS7V
131,21,,1.0,1.0,mountain_154.jpg,,,,AWJKR5GA7BS7V
132,22,,1.0,2.0,playground_10.jpg,,,,AWJKR5GA7BS7V
133,23,,1.0,3.0,playground_145.jpg,,,,AWJKR5GA7BS7V
134,24,,1.0,4.0,badlands_24.jpg,,,,AWJKR5GA7BS7V
135,25,,1.0,5.0,highway_177.jpg,,,,AWJKR5GA7BS7V
136,26,left,1.0,6.0,left.jpg,left,0.952,,AWJKR5GA7BS7V
137,27,,1.0,7.0,golf_course_331.jpg,,,,AWJKR5GA7BS7V
138,28,,1.0,8.0,playground_131.jpg,,,,AWJKR5GA7BS7V
139,29,,1.0,9.0,mountain_222.jpg,,,,AWJKR5GA7BS7V
140,30,,1.0,10.0,highway_294.jpg,,,,AWJKR5GA7BS7V
141,31,,1.0,11.0,badlands_21.jpg,,,,AWJKR5GA7BS7V
142,32,,1.0,12.0,badlands_184.jpg,,,,AWJKR5GA7BS7V
143,33,,1.0,13.0,playground_144.jpg,,,,AWJKR5GA7BS7V
144,34,,1.0,14.0,mountain_123.jpg,,,,AWJKR5GA7BS7V
145,35,,1.0,15.0,bridge_191.jpg,,,,AWJKR5GA7BS7V
146,36,,1.0,16.0,badlands_222.jpg,,,,AWJKR5GA7BS7V
147,37,,1.0,17.0,badlands_137.jpg,,,,AWJKR5GA7BS7V
148,38,,1.0,18.0,mountain_101.jpg,,,,AWJKR5GA7BS7V
149,39,,1.0,19.0,bridge_146.jpg,,,,AWJKR5GA7BS7V
150,40,,1.0,20.0,playground_240.jpg,,,,AWJKR5GA7BS7V
151,41,right,1.0,21.0,right.jpg,right,1.64,,AWJKR5GA7BS7V
152,42,,1.0,22.0,highway_273.jpg,,,,AWJKR5GA7BS7V
153,43,,1.0,23.0,badlands_70.jpg,,,,AWJKR5GA7BS7V
154,44,,1.0,24.0,mountain_57.jpg,,,,AWJKR5GA7BS7V
155,45,,1.0,25.0,badlands_113.jpg,,,,AWJKR5GA7BS7V
156,46,,1.0,26.0,highway_245.jpg,,,,AWJKR5GA7BS7V
157,47,,1.0,27.0,golf_course_217.jpg,,,,AWJKR5GA7BS7V
158,48,,1.0,28.0,bridge_108.jpg,,,,AWJKR5GA7BS7V
159,49,,1.0,29.0,bridge_65.jpg,,,,AWJKR5GA7BS7V
160,50,right,1.0,30.0,right.jpg,right,0.702,,AWJKR5GA7BS7V
161,51,,1.0,31.0,playground_257.jpg,,,,AWJKR5GA7BS7V
162,52,,1.0,32.0,bridge_172.jpg,,,,AWJKR5GA7BS7V
163,53,,1.0,33.0,bridge_256.jpg,,,,AWJKR5GA7BS7V
164,54,,1.0,34.0,mountain_156.jpg,,,,AWJKR5GA7BS7V
165,55,,1.0,35.0,bridge_128.jpg,,,,AWJKR5GA7BS7V
166,56,,1.0,36.0,playground_60.jpg,,,,AWJKR5GA7BS7V
167,57,,1.0,37.0,playground_76.jpg,,,,AWJKR5GA7BS7V
168,58,,1.0,38.0,mountain_230.jpg,,,,AWJKR5GA7BS7V
169,59,,1.0,39.0,golf_course_214.jpg,,,,AWJKR5GA7BS7V
170,60,right,0.0,40.0,left.jpg,left,0.977,,AWJKR5GA7BS7V
171,61,,1.0,41.0,golf_course_195.jpg,,,,AWJKR5GA7BS7V
172,62,,1.0,42.0,highway_359.jpg,,,,AWJKR5GA7BS7V
173,63,,1.0,43.0,highway_156.jpg,,,,AWJKR5GA7BS7V
174,64,,1.0,44.0,bridge_202.jpg,,,,AWJKR5GA7BS7V
175,65,,1.0,45.0,golf_course_78.jpg,,,,AWJKR5GA7BS7V
176,66,,1.0,46.0,badlands_221.jpg,,,,AWJKR5GA7BS7V
177,67,,1.0,47.0,badlands_23.jpg,,,,AWJKR5GA7BS7V
178,68,,1.0,48.0,bridge_91.jpg,,,,AWJKR5GA7BS7V
179,69,,1.0,49.0,golf_course_193.jpg,,,,AWJKR5GA7BS7V
180,70,,1.0,50.0,golf_course_188.jpg,,,,AWJKR5GA7BS7V
181,71,,1.0,51.0,highway_93.jpg,,,,AWJKR5GA7BS7V
182,72,left,1.0,52.0,left.jpg,left,0.579,,AWJKR5GA7BS7V
183,73,,1.0,53.0,highway_415.jpg,,,,AWJKR5GA7BS7V
184,74,,1.0,54.0,highway_209.jpg,,,,AWJKR5GA7BS7V
185,75,,1.0,55.0,mountain_293.jpg,,,,AWJKR5GA7BS7V
186,76,,1.0,56.0,playground_219.jpg,,,,AWJKR5GA7BS7V
187,77,,1.0,57.0,highway_394.jpg,,,,AWJKR5GA7BS7V
188,78,,1.0,58.0,mountain_232.jpg,,,,AWJKR5GA7BS7V
189,79,,1.0,59.0,golf_course_15.jpg,,,,AWJKR5GA7BS7V
190,80,,1.0,60.0,playground_117.jpg,,,,AWJKR5GA7BS7V
191,81,,1.0,61.0,mountain_110.jpg,,,,AWJKR5GA7BS7V
192,82,,1.0,62.0,bridge_250.jpg,,,,AWJKR5GA7BS7V
193,83,,1.0,63.0,badlands_52.jpg,,,,AWJKR5GA7BS7V
194,84,,1.0,64.0,golf_course_87.jpg,,,,AWJKR5GA7BS7V
195,20,,1.0,0.0,bridge_91.jpg,,,,A3PIJBZIF34XR2
196,21,,1.0,1.0,mountain_110.jpg,,,,A3PIJBZIF34XR2
197,22,,1.0,2.0,highway_394.jpg,,,,A3PIJBZIF34XR2
198,23,,1.0,3.0,badlands_137.jpg,,,,A3PIJBZIF34XR2
199,24,,1.0,4.0,highway_209.jpg,,,,A3PIJBZIF34XR2
200,25,,1.0,5.0,golf_course_188.jpg,,,,A3PIJBZIF34XR2
201,26,,1.0,6.0,playground_131.jpg,,,,A3PIJBZIF34XR2
202,27,,1.0,7.0,golf_course_78.jpg,,,,A3PIJBZIF34XR2
203,28,,1.0,8.0,bridge_128.jpg,,,,A3PIJBZIF34XR2
204,29,,1.0,9.0,golf_course_217.jpg,,,,A3PIJBZIF34XR2
205,30,,1.0,10.0,badlands_24.jpg,,,,A3PIJBZIF34XR2
206,31,,1.0,11.0,highway_245.jpg,,,,A3PIJBZIF34XR2
207,32,right,1.0,12.0,right.jpg,right,2.0235,,A3PIJBZIF34XR2
208,33,,1.0,13.0,highway_177.jpg,,,,A3PIJBZIF34XR2
209,34,,1.0,14.0,badlands_70.jpg,,,,A3PIJBZIF34XR2
210,35,,1.0,15.0,badlands_113.jpg,,,,A3PIJBZIF34XR2
211,36,,1.0,16.0,playground_145.jpg,,,,A3PIJBZIF34XR2
212,37,,1.0,17.0,highway_93.jpg,,,,A3PIJBZIF34XR2
213,38,,1.0,18.0,playground_117.jpg,,,,A3PIJBZIF34XR2
214,39,,1.0,19.0,playground_144.jpg,,,,A3PIJBZIF34XR2
215,40,,1.0,20.0,badlands_221.jpg,,,,A3PIJBZIF34XR2
216,41,,1.0,21.0,badlands_23.jpg,,,,A3PIJBZIF34XR2
217,42,,1.0,22.0,playground_257.jpg,,,,A3PIJBZIF34XR2
218,43,left,1.0,23.0,left.jpg,left,2.0412,,A3PIJBZIF34XR2
219,44,,1.0,24.0,golf_course_309.jpg,,,,A3PIJBZIF34XR2
220,45,,1.0,25.0,highway_359.jpg,,,,A3PIJBZIF34XR2
221,46,,1.0,26.0,mountain_123.jpg,,,,A3PIJBZIF34XR2
222,47,,1.0,27.0,mountain_154.jpg,,,,A3PIJBZIF34XR2
223,48,,1.0,28.0,highway_273.jpg,,,,A3PIJBZIF34XR2
224,49,,1.0,29.0,playground_10.jpg,,,,A3PIJBZIF34XR2
225,50,right,1.0,30.0,right.jpg,right,1.2691,,A3PIJBZIF34XR2
226,51,,1.0,31.0,highway_156.jpg,,,,A3PIJBZIF34XR2
227,52,,1.0,32.0,mountain_156.jpg,,,,A3PIJBZIF34XR2
228,53,,1.0,33.0,golf_course_214.jpg,,,,A3PIJBZIF34XR2
229,54,,1.0,34.0,mountain_101.jpg,,,,A3PIJBZIF34XR2
230,55,,1.0,35.0,golf_course_193.jpg,,,,A3PIJBZIF34XR2
231,56,right,1.0,36.0,right.jpg,right,1.5662,,A3PIJBZIF34XR2
232,57,,1.0,37.0,badlands_222.jpg,,,,A3PIJBZIF34XR2
233,58,,1.0,38.0,playground_60.jpg,,,,A3PIJBZIF34XR2
234,59,,1.0,39.0,bridge_191.jpg,,,,A3PIJBZIF34XR2
235,60,,1.0,40.0,playground_240.jpg,,,,A3PIJBZIF34XR2
236,61,,1.0,41.0,bridge_256.jpg,,,,A3PIJBZIF34XR2
237,62,,1.0,42.0,bridge_108.jpg,,,,A3PIJBZIF34XR2
238,63,,1.0,43.0,mountain_293.jpg,,,,A3PIJBZIF34XR2
239,64,,1.0,44.0,mountain_230.jpg,,,,A3PIJBZIF34XR2
240,65,,1.0,45.0,mountain_222.jpg,,,,A3PIJBZIF34XR2
241,66,,1.0,46.0,highway_415.jpg,,,,A3PIJBZIF34XR2
242,67,,1.0,47.0,badlands_184.jpg,,,,A3PIJBZIF34XR2
243,68,,1.0,48.0,bridge_172.jpg,,,,A3PIJBZIF34XR2
244,69,,1.0,49.0,bridge_65.jpg,,,,A3PIJBZIF34XR2
245,70,,1.0,50.0,bridge_146.jpg,,,,A3PIJBZIF34XR2
246,71,,1.0,51.0,bridge_202.jpg,,,,A3PIJBZIF34XR2
247,72,,0.0,52.0,right.jpg,right,,,A3PIJBZIF34XR2
248,73,,1.0,53.0,golf_course_195.jpg,,,,A3PIJBZIF34XR2
249,74,,1.0,54.0,highway_294.jpg,,,,A3PIJBZIF34XR2
250,75,,1.0,55.0,badlands_52.jpg,,,,A3PIJBZIF34XR2
251,76,,1.0,56.0,golf_course_87.jpg,,,,A3PIJBZIF34XR2
252,77,,1.0,57.0,golf_course_15.jpg,,,,A3PIJBZIF34XR2
253,78,,1.0,58.0,badlands_21.jpg,,,,A3PIJBZIF34XR2
254,79,,1.0,59.0,playground_76.jpg,,,,A3PIJBZIF34XR2
255,80,,1.0,60.0,bridge_250.jpg,,,,A3PIJBZIF34XR2
256,81,,1.0,61.0,playground_219.jpg,,,,A3PIJBZIF34XR2
257,82,,1.0,62.0,mountain_232.jpg,,,,A3PIJBZIF34XR2
258,83,,1.0,63.0,golf_course_331.jpg,,,,A3PIJBZIF34XR2
259,84,,1.0,64.0,mountain_57.jpg,,,,A3PIJBZIF34XR2
260,20,,1.0,0.0,badlands_222.jpg,,,,A2APG8MSLJ6G2K
261,21,,1.0,1.0,playground_257.jpg,,,,A2APG8MSLJ6G2K
262,22,,1.0,2.0,badlands_113.jpg,,,,A2APG8MSLJ6G2K
263,23,,1.0,3.0,golf_course_195.jpg,,,,A2APG8MSLJ6G2K
264,24,,1.0,4.0,badlands_52.jpg,,,,A2APG8MSLJ6G2K
265,25,,1.0,5.0,bridge_65.jpg,,,,A2APG8MSLJ6G2K
266,26,,1.0,6.0,badlands_21.jpg,,,,A2APG8MSLJ6G2K
267,27,,1.0,7.0,golf_course_78.jpg,,,,A2APG8MSLJ6G2K
268,28,,1.0,8.0,golf_course_309.jpg,,,,A2APG8MSLJ6G2K
269,29,right,1.0,9.0,right.jpg,right,0.7429,,A2APG8MSLJ6G2K
270,30,,1.0,10.0,highway_294.jpg,,,,A2APG8MSLJ6G2K
271,31,,1.0,11.0,badlands_221.jpg,,,,A2APG8MSLJ6G2K
272,32,,1.0,12.0,bridge_146.jpg,,,,A2APG8MSLJ6G2K
273,33,,1.0,13.0,mountain_293.jpg,,,,A2APG8MSLJ6G2K
274,34,,1.0,14.0,bridge_172.jpg,,,,A2APG8MSLJ6G2K
275,35,,1.0,15.0,bridge_91.jpg,,,,A2APG8MSLJ6G2K
276,36,,1.0,16.0,mountain_101.jpg,,,,A2APG8MSLJ6G2K
277,37,,1.0,17.0,playground_131.jpg,,,,A2APG8MSLJ6G2K
278,38,,1.0,18.0,golf_course_214.jpg,,,,A2APG8MSLJ6G2K
279,39,,1.0,19.0,playground_60.jpg,,,,A2APG8MSLJ6G2K
280,40,,1.0,20.0,golf_course_193.jpg,,,,A2APG8MSLJ6G2K
281,41,left,1.0,21.0,left.jpg,left,0.7596,,A2APG8MSLJ6G2K
282,42,,1.0,22.0,mountain_154.jpg,,,,A2APG8MSLJ6G2K
283,43,,1.0,23.0,badlands_24.jpg,,,,A2APG8MSLJ6G2K
284,44,,1.0,24.0,playground_145.jpg,,,,A2APG8MSLJ6G2K
285,45,,1.0,25.0,mountain_110.jpg,,,,A2APG8MSLJ6G2K
286,46,,1.0,26.0,mountain_222.jpg,,,,A2APG8MSLJ6G2K
287,47,,1.0,27.0,highway_245.jpg,,,,A2APG8MSLJ6G2K
288,48,,1.0,28.0,golf_course_15.jpg,,,,A2APG8MSLJ6G2K
289,49,,1.0,29.0,golf_course_331.jpg,,,,A2APG8MSLJ6G2K
290,50,,1.0,30.0,badlands_23.jpg,,,,A2APG8MSLJ6G2K
291,51,,1.0,31.0,highway_415.jpg,,,,A2APG8MSLJ6G2K
292,52,left,1.0,32.0,left.jpg,left,0.6953,,A2APG8MSLJ6G2K
293,53,,1.0,33.0,bridge_108.jpg,,,,A2APG8MSLJ6G2K
294,54,,1.0,34.0,playground_240.jpg,,,,A2APG8MSLJ6G2K
295,55,,1.0,35.0,golf_course_87.jpg,,,,A2APG8MSLJ6G2K
296,56,,1.0,36.0,highway_177.jpg,,,,A2APG8MSLJ6G2K
297,57,,1.0,37.0,bridge_128.jpg,,,,A2APG8MSLJ6G2K
298,58,,1.0,38.0,mountain_156.jpg,,,,A2APG8MSLJ6G2K
299,59,,1.0,39.0,highway_93.jpg,,,,A2APG8MSLJ6G2K
300,60,,1.0,40.0,bridge_191.jpg,,,,A2APG8MSLJ6G2K
301,61,,1.0,41.0,highway_156.jpg,,,,A2APG8MSLJ6G2K
302,62,,1.0,42.0,playground_10.jpg,,,,A2APG8MSLJ6G2K
303,63,right,1.0,43.0,right.jpg,right,0.7775,,A2APG8MSLJ6G2K
304,64,,1.0,44.0,highway_273.jpg,,,,A2APG8MSLJ6G2K
305,65,,1.0,45.0,golf_course_188.jpg,,,,A2APG8MSLJ6G2K
306,66,,1.0,46.0,playground_219.jpg,,,,A2APG8MSLJ6G2K
307,67,,1.0,47.0,bridge_256.jpg,,,,A2APG8MSLJ6G2K
308,68,,1.0,48.0,highway_209.jpg,,,,A2APG8MSLJ6G2K
309,69,,1.0,49.0,mountain_232.jpg,,,,A2APG8MSLJ6G2K
310,70,,1.0,50.0,playground_76.jpg,,,,A2APG8MSLJ6G2K
311,71,,1.0,51.0,playground_117.jpg,,,,A2APG8MSLJ6G2K
312,72,right,1.0,52.0,right.jpg,right,0.692,,A2APG8MSLJ6G2K
313,73,,1.0,53.0,badlands_70.jpg,,,,A2APG8MSLJ6G2K
314,74,,1.0,54.0,highway_394.jpg,,,,A2APG8MSLJ6G2K
315,75,,1.0,55.0,badlands_184.jpg,,,,A2APG8MSLJ6G2K
316,76,,1.0,56.0,playground_144.jpg,,,,A2APG8MSLJ6G2K
317,77,,1.0,57.0,mountain_57.jpg,,,,A2APG8MSLJ6G2K
318,78,,1.0,58.0,highway_359.jpg,,,,A2APG8MSLJ6G2K
319,79,,1.0,59.0,mountain_123.jpg,,,,A2APG8MSLJ6G2K
320,80,,1.0,60.0,mountain_230.jpg,,,,A2APG8MSLJ6G2K
321,81,,1.0,61.0,badlands_137.jpg,,,,A2APG8MSLJ6G2K
322,82,,1.0,62.0,bridge_202.jpg,,,,A2APG8MSLJ6G2K
323,83,,1.0,63.0,golf_course_217.jpg,,,,A2APG8MSLJ6G2K
324,84,,1.0,64.0,bridge_250.jpg,,,,A2APG8MSLJ6G2K
325,20,,1.0,0.0,golf_course_15.jpg,,,,A3SFP9VSFJY2YW
326,21,,1.0,1.0,bridge_172.jpg,,,,A3SFP9VSFJY2YW
327,22,,1.0,2.0,playground_76.jpg,,,,A3SFP9VSFJY2YW
328,23,,1.0,3.0,mountain_156.jpg,,,,A3SFP9VSFJY2YW
329,24,,1.0,4.0,bridge_191.jpg,,,,A3SFP9VSFJY2YW
330,25,,1.0,5.0,playground_219.jpg,,,,A3SFP9VSFJY2YW
331,26,,1.0,6.0,playground_257.jpg,,,,A3SFP9VSFJY2YW
332,27,,1.0,7.0,badlands_70.jpg,,,,A3SFP9VSFJY2YW
333,28,,1.0,8.0,highway_156.jpg,,,,A3SFP9VSFJY2YW
334,29,,1.0,9.0,highway_177.jpg,,,,A3SFP9VSFJY2YW
335,30,,1.0,10.0,mountain_222.jpg,,,,A3SFP9VSFJY2YW
336,31,,1.0,11.0,badlands_21.jpg,,,,A3SFP9VSFJY2YW
337,32,right,1.0,12.0,right.jpg,right,1.022,,A3SFP9VSFJY2YW
338,33,,1.0,13.0,playground_145.jpg,,,,A3SFP9VSFJY2YW
339,34,,1.0,14.0,bridge_91.jpg,,,,A3SFP9VSFJY2YW
340,35,,1.0,15.0,highway_245.jpg,,,,A3SFP9VSFJY2YW
341,36,,1.0,16.0,playground_117.jpg,,,,A3SFP9VSFJY2YW
342,37,,1.0,17.0,bridge_202.jpg,,,,A3SFP9VSFJY2YW
343,38,,1.0,18.0,badlands_113.jpg,,,,A3SFP9VSFJY2YW
344,39,,1.0,19.0,highway_93.jpg,,,,A3SFP9VSFJY2YW
345,40,right,1.0,20.0,right.jpg,right,1.0495,,A3SFP9VSFJY2YW
346,41,,1.0,21.0,highway_359.jpg,,,,A3SFP9VSFJY2YW
347,42,,1.0,22.0,badlands_184.jpg,,,,A3SFP9VSFJY2YW
348,43,,1.0,23.0,bridge_128.jpg,,,,A3SFP9VSFJY2YW
349,44,,1.0,24.0,bridge_146.jpg,,,,A3SFP9VSFJY2YW
350,45,,1.0,25.0,mountain_57.jpg,,,,A3SFP9VSFJY2YW
351,46,,1.0,26.0,golf_course_188.jpg,,,,A3SFP9VSFJY2YW
352,47,,1.0,27.0,highway_209.jpg,,,,A3SFP9VSFJY2YW
353,48,,1.0,28.0,highway_273.jpg,,,,A3SFP9VSFJY2YW
354,49,,1.0,29.0,bridge_256.jpg,,,,A3SFP9VSFJY2YW
355,50,,1.0,30.0,badlands_23.jpg,,,,A3SFP9VSFJY2YW
356,51,,1.0,31.0,mountain_154.jpg,,,,A3SFP9VSFJY2YW
357,52,,1.0,32.0,golf_course_87.jpg,,,,A3SFP9VSFJY2YW
358,53,,1.0,33.0,playground_240.jpg,,,,A3SFP9VSFJY2YW
359,54,right,1.0,34.0,right.jpg,right,1.2085,,A3SFP9VSFJY2YW
360,55,,1.0,35.0,badlands_221.jpg,,,,A3SFP9VSFJY2YW
361,56,,1.0,36.0,mountain_293.jpg,,,,A3SFP9VSFJY2YW
362,57,,1.0,37.0,mountain_230.jpg,,,,A3SFP9VSFJY2YW
363,58,,1.0,38.0,golf_course_214.jpg,,,,A3SFP9VSFJY2YW
364,59,right,1.0,39.0,right.jpg,right,1.6007,,A3SFP9VSFJY2YW
365,60,,1.0,40.0,highway_294.jpg,,,,A3SFP9VSFJY2YW
366,61,,1.0,41.0,mountain_110.jpg,,,,A3SFP9VSFJY2YW
367,62,,1.0,42.0,playground_131.jpg,,,,A3SFP9VSFJY2YW
368,63,,1.0,43.0,golf_course_217.jpg,,,,A3SFP9VSFJY2YW
369,64,,1.0,44.0,golf_course_331.jpg,,,,A3SFP9VSFJY2YW
370,65,,1.0,45.0,mountain_101.jpg,,,,A3SFP9VSFJY2YW
371,66,,1.0,46.0,mountain_123.jpg,,,,A3SFP9VSFJY2YW
372,67,right,1.0,47.0,right.jpg,right,1.4664,,A3SFP9VSFJY2YW
373,68,,1.0,48.0,badlands_24.jpg,,,,A3SFP9VSFJY2YW
374,69,,1.0,49.0,badlands_222.jpg,,,,A3SFP9VSFJY2YW
375,70,,1.0,50.0,golf_course_193.jpg,,,,A3SFP9VSFJY2YW
376,71,,1.0,51.0,highway_415.jpg,,,,A3SFP9VSFJY2YW
377,72,,1.0,52.0,badlands_52.jpg,,,,A3SFP9VSFJY2YW
378,73,,1.0,53.0,bridge_250.jpg,,,,A3SFP9VSFJY2YW
379,74,,1.0,54.0,playground_144.jpg,,,,A3SFP9VSFJY2YW
380,75,,1.0,55.0,badlands_137.jpg,,,,A3SFP9VSFJY2YW
381,76,,1.0,56.0,playground_10.jpg,,,,A3SFP9VSFJY2YW
382,77,,1.0,57.0,playground_60.jpg,,,,A3SFP9VSFJY2YW
383,78,,1.0,58.0,golf_course_78.jpg,,,,A3SFP9VSFJY2YW
384,79,,1.0,59.0,golf_course_195.jpg,,,,A3SFP9VSFJY2YW
385,80,,1.0,60.0,bridge_108.jpg,,,,A3SFP9VSFJY2YW
386,81,,1.0,61.0,bridge_65.jpg,,,,A3SFP9VSFJY2YW
387,82,,1.0,62.0,mountain_232.jpg,,,,A3SFP9VSFJY2YW
388,83,,1.0,63.0,golf_course_309.jpg,,,,A3SFP9VSFJY2YW
389,84,,1.0,64.0,highway_394.jpg,,,,A3SFP9VSFJY2YW
390,20,,1.0,0.0,highway_273.jpg,,,,A8C3WNWRBWUXO
391,21,,1.0,1.0,highway_394.jpg,,,,A8C3WNWRBWUXO
392,22,,1.0,2.0,playground_219.jpg,,,,A8C3WNWRBWUXO
393,23,,1.0,3.0,highway_209.jpg,,,,A8C3WNWRBWUXO
394,24,,1.0,4.0,highway_245.jpg,,,,A8C3WNWRBWUXO
395,25,,1.0,5.0,mountain_154.jpg,,,,A8C3WNWRBWUXO
396,26,,1.0,6.0,golf_course_193.jpg,,,,A8C3WNWRBWUXO
397,27,,1.0,7.0,mountain_230.jpg,,,,A8C3WNWRBWUXO
398,28,,1.0,8.0,mountain_57.jpg,,,,A8C3WNWRBWUXO
399,29,,1.0,9.0,golf_course_15.jpg,,,,A8C3WNWRBWUXO
400,30,,1.0,10.0,badlands_137.jpg,,,,A8C3WNWRBWUXO
401,31,,1.0,11.0,badlands_221.jpg,,,,A8C3WNWRBWUXO
402,32,right,1.0,12.0,right.jpg,right,0.891,,A8C3WNWRBWUXO
403,33,,1.0,13.0,playground_257.jpg,,,,A8C3WNWRBWUXO
404,34,,1.0,14.0,bridge_256.jpg,,,,A8C3WNWRBWUXO
405,35,,1.0,15.0,bridge_108.jpg,,,,A8C3WNWRBWUXO
406,36,,1.0,16.0,golf_course_78.jpg,,,,A8C3WNWRBWUXO
407,37,,1.0,17.0,golf_course_188.jpg,,,,A8C3WNWRBWUXO
408,38,,1.0,18.0,mountain_156.jpg,,,,A8C3WNWRBWUXO
409,39,,1.0,19.0,badlands_184.jpg,,,,A8C3WNWRBWUXO
410,40,right,1.0,20.0,right.jpg,right,0.9545,,A8C3WNWRBWUXO
411,41,,1.0,21.0,bridge_65.jpg,,,,A8C3WNWRBWUXO
412,42,,1.0,22.0,playground_76.jpg,,,,A8C3WNWRBWUXO
413,43,,1.0,23.0,playground_117.jpg,,,,A8C3WNWRBWUXO
414,44,,1.0,24.0,playground_240.jpg,,,,A8C3WNWRBWUXO
415,45,,1.0,25.0,golf_course_309.jpg,,,,A8C3WNWRBWUXO
416,46,,1.0,26.0,mountain_123.jpg,,,,A8C3WNWRBWUXO
417,47,left,1.0,27.0,left.jpg,left,0.842,,A8C3WNWRBWUXO
418,48,,1.0,28.0,playground_60.jpg,,,,A8C3WNWRBWUXO
419,49,,1.0,29.0,highway_177.jpg,,,,A8C3WNWRBWUXO
420,50,,1.0,30.0,bridge_172.jpg,,,,A8C3WNWRBWUXO
421,51,,1.0,31.0,golf_course_331.jpg,,,,A8C3WNWRBWUXO
422,52,,1.0,32.0,highway_415.jpg,,,,A8C3WNWRBWUXO
423,53,,1.0,33.0,badlands_23.jpg,,,,A8C3WNWRBWUXO
424,54,,1.0,34.0,highway_93.jpg,,,,A8C3WNWRBWUXO
425,55,,1.0,35.0,badlands_222.jpg,,,,A8C3WNWRBWUXO
426,56,,1.0,36.0,playground_10.jpg,,,,A8C3WNWRBWUXO
427,57,,1.0,37.0,bridge_128.jpg,,,,A8C3WNWRBWUXO
428,58,,1.0,38.0,playground_144.jpg,,,,A8C3WNWRBWUXO
429,59,right,1.0,39.0,right.jpg,right,0.9236,,A8C3WNWRBWUXO
430,60,,1.0,40.0,bridge_191.jpg,,,,A8C3WNWRBWUXO
431,61,,1.0,41.0,badlands_21.jpg,,,,A8C3WNWRBWUXO
432,62,,1.0,42.0,badlands_70.jpg,,,,A8C3WNWRBWUXO
433,63,,1.0,43.0,golf_course_195.jpg,,,,A8C3WNWRBWUXO
434,64,,1.0,44.0,bridge_146.jpg,,,,A8C3WNWRBWUXO
435,65,,1.0,45.0,badlands_52.jpg,,,,A8C3WNWRBWUXO
436,66,,1.0,46.0,highway_294.jpg,,,,A8C3WNWRBWUXO
437,67,,1.0,47.0,mountain_293.jpg,,,,A8C3WNWRBWUXO
438,68,,1.0,48.0,playground_131.jpg,,,,A8C3WNWRBWUXO
439,69,,1.0,49.0,playground_145.jpg,,,,A8C3WNWRBWUXO
440,70,,1.0,50.0,mountain_222.jpg,,,,A8C3WNWRBWUXO
441,71,,1.0,51.0,golf_course_87.jpg,,,,A8C3WNWRBWUXO
442,72,,1.0,52.0,highway_359.jpg,,,,A8C3WNWRBWUXO
443,73,,1.0,53.0,badlands_24.jpg,,,,A8C3WNWRBWUXO
444,74,left,1.0,54.0,left.jpg,left,0.4902,,A8C3WNWRBWUXO
445,75,,1.0,55.0,bridge_250.jpg,,,,A8C3WNWRBWUXO
446,76,,1.0,56.0,golf_course_217.jpg,,,,A8C3WNWRBWUXO
447,77,,1.0,57.0,mountain_110.jpg,,,,A8C3WNWRBWUXO
448,78,,1.0,58.0,highway_156.jpg,,,,A8C3WNWRBWUXO
449,79,,1.0,59.0,bridge_91.jpg,,,,A8C3WNWRBWUXO
450,80,,1.0,60.0,mountain_101.jpg,,,,A8C3WNWRBWUXO
451,81,,1.0,61.0,badlands_113.jpg,,,,A8C3WNWRBWUXO
452,82,,1.0,62.0,mountain_232.jpg,,,,A8C3WNWRBWUXO
453,83,,1.0,63.0,golf_course_214.jpg,,,,A8C3WNWRBWUXO
454,84,,1.0,64.0,bridge_202.jpg,,,,A8C3WNWRBWUXO
455,20,,1.0,0.0,playground_145.jpg,,,,A9HQ3E0F2AGVO
456,21,,1.0,1.0,mountain_110.jpg,,,,A9HQ3E0F2AGVO
457,22,,1.0,2.0,bridge_128.jpg,,,,A9HQ3E0F2AGVO
458,23,,1.0,3.0,badlands_23.jpg,,,,A9HQ3E0F2AGVO
459,24,,1.0,4.0,bridge_65.jpg,,,,A9HQ3E0F2AGVO
460,25,,1.0,5.0,mountain_230.jpg,,,,A9HQ3E0F2AGVO
461,26,,1.0,6.0,playground_144.jpg,,,,A9HQ3E0F2AGVO
462,27,,1.0,7.0,mountain_101.jpg,,,,A9HQ3E0F2AGVO
463,28,,1.0,8.0,highway_209.jpg,,,,A9HQ3E0F2AGVO
464,29,,1.0,9.0,highway_156.jpg,,,,A9HQ3E0F2AGVO
465,30,,1.0,10.0,bridge_172.jpg,,,,A9HQ3E0F2AGVO
466,31,right,1.0,11.0,right.jpg,right,0.4501,,A9HQ3E0F2AGVO
467,32,,1.0,12.0,bridge_250.jpg,,,,A9HQ3E0F2AGVO
468,33,,1.0,13.0,golf_course_188.jpg,,,,A9HQ3E0F2AGVO
469,34,,1.0,14.0,golf_course_193.jpg,,,,A9HQ3E0F2AGVO
470,35,,1.0,15.0,bridge_191.jpg,,,,A9HQ3E0F2AGVO
471,36,,1.0,16.0,mountain_154.jpg,,,,A9HQ3E0F2AGVO
472,37,,1.0,17.0,badlands_113.jpg,,,,A9HQ3E0F2AGVO
473,38,,1.0,18.0,bridge_146.jpg,,,,A9HQ3E0F2AGVO
474,39,,1.0,19.0,playground_76.jpg,,,,A9HQ3E0F2AGVO
475,40,,1.0,20.0,badlands_52.jpg,,,,A9HQ3E0F2AGVO
476,41,left,1.0,21.0,left.jpg,left,0.4868,,A9HQ3E0F2AGVO
477,42,,1.0,22.0,bridge_91.jpg,,,,A9HQ3E0F2AGVO
478,43,,1.0,23.0,badlands_222.jpg,,,,A9HQ3E0F2AGVO
479,44,,1.0,24.0,playground_117.jpg,,,,A9HQ3E0F2AGVO
480,45,,1.0,25.0,playground_10.jpg,,,,A9HQ3E0F2AGVO
481,46,,1.0,26.0,playground_60.jpg,,,,A9HQ3E0F2AGVO
482,47,left,1.0,27.0,left.jpg,left,0.4801,,A9HQ3E0F2AGVO
483,48,,1.0,28.0,highway_177.jpg,,,,A9HQ3E0F2AGVO
484,49,,1.0,29.0,badlands_21.jpg,,,,A9HQ3E0F2AGVO
485,50,,1.0,30.0,golf_course_15.jpg,,,,A9HQ3E0F2AGVO
486,51,,1.0,31.0,mountain_156.jpg,,,,A9HQ3E0F2AGVO
487,52,,1.0,32.0,highway_93.jpg,,,,A9HQ3E0F2AGVO
488,53,,1.0,33.0,playground_240.jpg,,,,A9HQ3E0F2AGVO
489,54,,1.0,34.0,bridge_202.jpg,,,,A9HQ3E0F2AGVO
490,55,,1.0,35.0,golf_course_78.jpg,,,,A9HQ3E0F2AGVO
491,56,,1.0,36.0,golf_course_331.jpg,,,,A9HQ3E0F2AGVO
492,57,,1.0,37.0,highway_294.jpg,,,,A9HQ3E0F2AGVO
493,58,,1.0,38.0,badlands_137.jpg,,,,A9HQ3E0F2AGVO
494,59,,1.0,39.0,mountain_57.jpg,,,,A9HQ3E0F2AGVO
495,60,,1.0,40.0,highway_394.jpg,,,,A9HQ3E0F2AGVO
496,61,right,1.0,41.0,right.jpg,right,0.5005,,A9HQ3E0F2AGVO
497,62,,1.0,42.0,playground_219.jpg,,,,A9HQ3E0F2AGVO
498,63,,1.0,43.0,playground_257.jpg,,,,A9HQ3E0F2AGVO
499,64,,1.0,44.0,golf_course_309.jpg,,,,A9HQ3E0F2AGVO
500,65,,1.0,45.0,mountain_293.jpg,,,,A9HQ3E0F2AGVO
501,66,,1.0,46.0,badlands_221.jpg,,,,A9HQ3E0F2AGVO
502,67,,1.0,47.0,golf_course_87.jpg,,,,A9HQ3E0F2AGVO
503,68,,1.0,48.0,bridge_256.jpg,,,,A9HQ3E0F2AGVO
504,69,left,1.0,49.0,left.jpg,left,0.4791,,A9HQ3E0F2AGVO
505,70,,1.0,50.0,mountain_232.jpg,,,,A9HQ3E0F2AGVO
506,71,,1.0,51.0,playground_131.jpg,,,,A9HQ3E0F2AGVO
507,72,,1.0,52.0,bridge_108.jpg,,,,A9HQ3E0F2AGVO
508,73,,1.0,53.0,golf_course_214.jpg,,,,A9HQ3E0F2AGVO
509,74,,1.0,54.0,mountain_123.jpg,,,,A9HQ3E0F2AGVO
510,75,,1.0,55.0,highway_415.jpg,,,,A9HQ3E0F2AGVO
511,76,,1.0,56.0,highway_245.jpg,,,,A9HQ3E0F2AGVO
512,77,,1.0,57.0,golf_course_217.jpg,,,,A9HQ3E0F2AGVO
513,78,,1.0,58.0,badlands_24.jpg,,,,A9HQ3E0F2AGVO
514,79,,1.0,59.0,badlands_70.jpg,,,,A9HQ3E0F2AGVO
515,80,,1.0,60.0,highway_359.jpg,,,,A9HQ3E0F2AGVO
516,81,,1.0,61.0,mountain_222.jpg,,,,A9HQ3E0F2AGVO
517,82,,1.0,62.0,badlands_184.jpg,,,,A9HQ3E0F2AGVO
518,83,,1.0,63.0,golf_course_195.jpg,,,,A9HQ3E0F2AGVO
519,84,,1.0,64.0,highway_273.jpg,,,,A9HQ3E0F2AGVO
520,20,,1.0,0.0,bridge_65.jpg,,,,A2LQO0696YYC1Q
521,21,,1.0,1.0,badlands_24.jpg,,,,A2LQO0696YYC1Q
522,22,,1.0,2.0,highway_415.jpg,,,,A2LQO0696YYC1Q
523,23,,1.0,3.0,badlands_21.jpg,,,,A2LQO0696YYC1Q
524,24,,1.0,4.0,playground_131.jpg,,,,A2LQO0696YYC1Q
525,25,,1.0,5.0,playground_219.jpg,,,,A2LQO0696YYC1Q
526,26,,1.0,6.0,highway_359.jpg,,,,A2LQO0696YYC1Q
527,27,,1.0,7.0,bridge_256.jpg,,,,A2LQO0696YYC1Q
528,28,,1.0,8.0,mountain_230.jpg,,,,A2LQO0696YYC1Q
529,29,,1.0,9.0,golf_course_195.jpg,,,,A2LQO0696YYC1Q
530,30,,1.0,10.0,playground_144.jpg,,,,A2LQO0696YYC1Q
531,31,,1.0,11.0,bridge_146.jpg,,,,A2LQO0696YYC1Q
532,32,left,1.0,12.0,left.jpg,left,1.106,,A2LQO0696YYC1Q
533,33,,1.0,13.0,playground_117.jpg,,,,A2LQO0696YYC1Q
534,34,,1.0,14.0,bridge_191.jpg,,,,A2LQO0696YYC1Q
535,35,,1.0,15.0,playground_257.jpg,,,,A2LQO0696YYC1Q
536,36,,1.0,16.0,highway_177.jpg,,,,A2LQO0696YYC1Q
537,37,,1.0,17.0,badlands_113.jpg,,,,A2LQO0696YYC1Q
538,38,,1.0,18.0,highway_273.jpg,,,,A2LQO0696YYC1Q
539,39,,1.0,19.0,golf_course_78.jpg,,,,A2LQO0696YYC1Q
540,40,,1.0,20.0,badlands_70.jpg,,,,A2LQO0696YYC1Q
541,41,left,1.0,21.0,left.jpg,left,1.851,,A2LQO0696YYC1Q
542,42,,1.0,22.0,golf_course_217.jpg,,,,A2LQO0696YYC1Q
543,43,,1.0,23.0,bridge_250.jpg,,,,A2LQO0696YYC1Q
544,44,,1.0,24.0,badlands_52.jpg,,,,A2LQO0696YYC1Q
545,45,,1.0,25.0,playground_60.jpg,,,,A2LQO0696YYC1Q
546,46,,1.0,26.0,mountain_123.jpg,,,,A2LQO0696YYC1Q
547,47,,1.0,27.0,mountain_156.jpg,,,,A2LQO0696YYC1Q
548,48,,1.0,28.0,badlands_221.jpg,,,,A2LQO0696YYC1Q
549,49,,1.0,29.0,highway_209.jpg,,,,A2LQO0696YYC1Q
550,50,,1.0,30.0,playground_76.jpg,,,,A2LQO0696YYC1Q
551,51,,1.0,31.0,golf_course_214.jpg,,,,A2LQO0696YYC1Q
552,52,,1.0,32.0,badlands_222.jpg,,,,A2LQO0696YYC1Q
553,53,,1.0,33.0,mountain_110.jpg,,,,A2LQO0696YYC1Q
554,54,,0.0,34.0,right.jpg,right,,,A2LQO0696YYC1Q
555,55,,1.0,35.0,golf_course_193.jpg,,,,A2LQO0696YYC1Q
556,56,,1.0,36.0,highway_294.jpg,,,,A2LQO0696YYC1Q
557,57,,1.0,37.0,bridge_91.jpg,,,,A2LQO0696YYC1Q
558,58,,1.0,38.0,highway_394.jpg,,,,A2LQO0696YYC1Q
559,59,,1.0,39.0,mountain_232.jpg,,,,A2LQO0696YYC1Q
560,60,,0.0,40.0,right.jpg,right,,,A2LQO0696YYC1Q
561,61,,1.0,41.0,mountain_101.jpg,,,,A2LQO0696YYC1Q
562,62,,1.0,42.0,bridge_108.jpg,,,,A2LQO0696YYC1Q
563,63,,1.0,43.0,highway_156.jpg,,,,A2LQO0696YYC1Q
564,64,,1.0,44.0,mountain_293.jpg,,,,A2LQO0696YYC1Q
565,65,,1.0,45.0,playground_10.jpg,,,,A2LQO0696YYC1Q
566,66,,1.0,46.0,badlands_23.jpg,,,,A2LQO0696YYC1Q
567,67,,1.0,47.0,golf_course_15.jpg,,,,A2LQO0696YYC1Q
568,68,,1.0,48.0,badlands_137.jpg,,,,A2LQO0696YYC1Q
569,69,,1.0,49.0,golf_course_331.jpg,,,,A2LQO0696YYC1Q
570,70,,1.0,50.0,bridge_128.jpg,,,,A2LQO0696YYC1Q
571,71,,1.0,51.0,mountain_154.jpg,,,,A2LQO0696YYC1Q
572,72,,1.0,52.0,highway_245.jpg,,,,A2LQO0696YYC1Q
573,73,left,1.0,53.0,left.jpg,left,1.658,,A2LQO0696YYC1Q
574,74,,1.0,54.0,mountain_222.jpg,,,,A2LQO0696YYC1Q
575,75,,1.0,55.0,playground_145.jpg,,,,A2LQO0696YYC1Q
576,76,,1.0,56.0,golf_course_188.jpg,,,,A2LQO0696YYC1Q
577,77,,1.0,57.0,bridge_172.jpg,,,,A2LQO0696YYC1Q
578,78,,1.0,58.0,badlands_184.jpg,,,,A2LQO0696YYC1Q
579,79,,1.0,59.0,bridge_202.jpg,,,,A2LQO0696YYC1Q
580,80,,1.0,60.0,mountain_57.jpg,,,,A2LQO0696YYC1Q
581,81,,1.0,61.0,golf_course_309.jpg,,,,A2LQO0696YYC1Q
582,82,,1.0,62.0,golf_course_87.jpg,,,,A2LQO0696YYC1Q
583,83,,1.0,63.0,highway_93.jpg,,,,A2LQO0696YYC1Q
584,84,,1.0,64.0,playground_240.jpg,,,,A2LQO0696YYC1Q
585,20,,1.0,0.0,golf_course_331.jpg,,,,A1W7T8V97ZPUH0
586,21,,1.0,1.0,mountain_154.jpg,,,,A1W7T8V97ZPUH0
587,22,,1.0,2.0,mountain_222.jpg,,,,A1W7T8V97ZPUH0
588,23,,1.0,3.0,golf_course_195.jpg,,,,A1W7T8V97ZPUH0
589,24,,1.0,4.0,playground_145.jpg,,,,A1W7T8V97ZPUH0
590,25,,1.0,5.0,golf_course_214.jpg,,,,A1W7T8V97ZPUH0
591,26,,1.0,6.0,bridge_250.jpg,,,,A1W7T8V97ZPUH0
592,27,,1.0,7.0,golf_course_193.jpg,,,,A1W7T8V97ZPUH0
593,28,,1.0,8.0,highway_177.jpg,,,,A1W7T8V97ZPUH0
594,29,,1.0,9.0,playground_219.jpg,,,,A1W7T8V97ZPUH0
595,30,,1.0,10.0,mountain_232.jpg,,,,A1W7T8V97ZPUH0
596,31,,1.0,11.0,bridge_146.jpg,,,,A1W7T8V97ZPUH0
597,32,,1.0,12.0,badlands_52.jpg,,,,A1W7T8V97ZPUH0
598,33,,1.0,13.0,playground_60.jpg,,,,A1W7T8V97ZPUH0
599,34,left,1.0,14.0,left.jpg,left,0.756,,A1W7T8V97ZPUH0
600,35,,1.0,15.0,badlands_21.jpg,,,,A1W7T8V97ZPUH0
601,36,,1.0,16.0,highway_156.jpg,,,,A1W7T8V97ZPUH0
602,37,right,1.0,17.0,right.jpg,right,1.027,,A1W7T8V97ZPUH0
603,38,,1.0,18.0,golf_course_87.jpg,,,,A1W7T8V97ZPUH0
604,39,,1.0,19.0,golf_course_309.jpg,,,,A1W7T8V97ZPUH0
605,40,,1.0,20.0,bridge_108.jpg,,,,A1W7T8V97ZPUH0
606,41,,1.0,21.0,highway_245.jpg,,,,A1W7T8V97ZPUH0
607,42,,1.0,22.0,badlands_23.jpg,,,,A1W7T8V97ZPUH0
608,43,,1.0,23.0,badlands_221.jpg,,,,A1W7T8V97ZPUH0
609,44,,1.0,24.0,bridge_128.jpg,,,,A1W7T8V97ZPUH0
610,45,,1.0,25.0,badlands_222.jpg,,,,A1W7T8V97ZPUH0
611,46,right,1.0,26.0,right.jpg,right,0.849,,A1W7T8V97ZPUH0
612,47,,1.0,27.0,playground_131.jpg,,,,A1W7T8V97ZPUH0
613,48,,1.0,28.0,badlands_137.jpg,,,,A1W7T8V97ZPUH0
614,49,,1.0,29.0,highway_209.jpg,,,,A1W7T8V97ZPUH0
615,50,,1.0,30.0,highway_415.jpg,,,,A1W7T8V97ZPUH0
616,51,,1.0,31.0,bridge_91.jpg,,,,A1W7T8V97ZPUH0
617,52,,1.0,32.0,mountain_101.jpg,,,,A1W7T8V97ZPUH0
618,53,,1.0,33.0,mountain_293.jpg,,,,A1W7T8V97ZPUH0
619,54,,1.0,34.0,bridge_172.jpg,,,,A1W7T8V97ZPUH0
620,55,,1.0,35.0,highway_273.jpg,,,,A1W7T8V97ZPUH0
621,56,,1.0,36.0,playground_10.jpg,,,,A1W7T8V97ZPUH0
622,57,left,1.0,37.0,left.jpg,left,0.844,,A1W7T8V97ZPUH0
623,58,,1.0,38.0,playground_240.jpg,,,,A1W7T8V97ZPUH0
624,59,,1.0,39.0,highway_359.jpg,,,,A1W7T8V97ZPUH0
625,60,,1.0,40.0,badlands_70.jpg,,,,A1W7T8V97ZPUH0
626,61,,1.0,41.0,mountain_57.jpg,,,,A1W7T8V97ZPUH0
627,62,,1.0,42.0,mountain_123.jpg,,,,A1W7T8V97ZPUH0
628,63,,1.0,43.0,bridge_202.jpg,,,,A1W7T8V97ZPUH0
629,64,,1.0,44.0,bridge_256.jpg,,,,A1W7T8V97ZPUH0
630,65,,1.0,45.0,playground_257.jpg,,,,A1W7T8V97ZPUH0
631,66,left,1.0,46.0,left.jpg,left,1.01,,A1W7T8V97ZPUH0
632,67,,1.0,47.0,golf_course_188.jpg,,,,A1W7T8V97ZPUH0
633,68,,1.0,48.0,golf_course_15.jpg,,,,A1W7T8V97ZPUH0
634,69,,1.0,49.0,badlands_24.jpg,,,,A1W7T8V97ZPUH0
635,70,,1.0,50.0,playground_117.jpg,,,,A1W7T8V97ZPUH0
636,71,,1.0,51.0,bridge_65.jpg,,,,A1W7T8V97ZPUH0
637,72,,1.0,52.0,golf_course_217.jpg,,,,A1W7T8V97ZPUH0
638,73,,1.0,53.0,highway_394.jpg,,,,A1W7T8V97ZPUH0
639,74,,1.0,54.0,golf_course_78.jpg,,,,A1W7T8V97ZPUH0
640,75,,1.0,55.0,highway_93.jpg,,,,A1W7T8V97ZPUH0
641,76,,1.0,56.0,highway_294.jpg,,,,A1W7T8V97ZPUH0
642,77,,1.0,57.0,mountain_230.jpg,,,,A1W7T8V97ZPUH0
643,78,,1.0,58.0,mountain_156.jpg,,,,A1W7T8V97ZPUH0
644,79,,1.0,59.0,mountain_110.jpg,,,,A1W7T8V97ZPUH0
645,80,,1.0,60.0,badlands_184.jpg,,,,A1W7T8V97ZPUH0
646,81,,1.0,61.0,bridge_191.jpg,,,,A1W7T8V97ZPUH0
647,82,,1.0,62.0,badlands_113.jpg,,,,A1W7T8V97ZPUH0
648,83,,1.0,63.0,playground_144.jpg,,,,A1W7T8V97ZPUH0
649,84,,1.0,64.0,playground_76.jpg,,,,A1W7T8V97ZPUH0
650,20,,1.0,0.0,bridge_146.jpg,,,,A2OQ5LQ3YB4HX1
651,21,,1.0,1.0,highway_273.jpg,,,,A2OQ5LQ3YB4HX1
652,22,,1.0,2.0,golf_course_78.jpg,,,,A2OQ5LQ3YB4HX1
653,23,,1.0,3.0,badlands_221.jpg,,,,A2OQ5LQ3YB4HX1
654,24,,1.0,4.0,badlands_137.jpg,,,,A2OQ5LQ3YB4HX1
655,25,,1.0,5.0,bridge_191.jpg,,,,A2OQ5LQ3YB4HX1
656,26,,1.0,6.0,bridge_256.jpg,,,,A2OQ5LQ3YB4HX1
657,27,right,1.0,7.0,right.jpg,right,0.9625,,A2OQ5LQ3YB4HX1
658,28,,1.0,8.0,golf_course_217.jpg,,,,A2OQ5LQ3YB4HX1
659,29,,1.0,9.0,mountain_156.jpg,,,,A2OQ5LQ3YB4HX1
660,30,,1.0,10.0,bridge_172.jpg,,,,A2OQ5LQ3YB4HX1
661,31,,1.0,11.0,highway_415.jpg,,,,A2OQ5LQ3YB4HX1
662,32,,1.0,12.0,golf_course_195.jpg,,,,A2OQ5LQ3YB4HX1
663,33,,1.0,13.0,playground_145.jpg,,,,A2OQ5LQ3YB4HX1
664,34,,1.0,14.0,mountain_293.jpg,,,,A2OQ5LQ3YB4HX1
665,35,,1.0,15.0,mountain_123.jpg,,,,A2OQ5LQ3YB4HX1
666,36,left,1.0,16.0,left.jpg,left,0.7611,,A2OQ5LQ3YB4HX1
667,37,,1.0,17.0,highway_245.jpg,,,,A2OQ5LQ3YB4HX1
668,38,,1.0,18.0,badlands_21.jpg,,,,A2OQ5LQ3YB4HX1
669,39,,1.0,19.0,badlands_113.jpg,,,,A2OQ5LQ3YB4HX1
670,40,,1.0,20.0,golf_course_214.jpg,,,,A2OQ5LQ3YB4HX1
671,41,,1.0,21.0,badlands_52.jpg,,,,A2OQ5LQ3YB4HX1
672,42,,1.0,22.0,badlands_24.jpg,,,,A2OQ5LQ3YB4HX1
673,43,,1.0,23.0,playground_10.jpg,,,,A2OQ5LQ3YB4HX1
674,44,,1.0,24.0,mountain_110.jpg,,,,A2OQ5LQ3YB4HX1
675,45,,1.0,25.0,mountain_230.jpg,,,,A2OQ5LQ3YB4HX1
676,46,,1.0,26.0,highway_93.jpg,,,,A2OQ5LQ3YB4HX1
677,47,,1.0,27.0,golf_course_193.jpg,,,,A2OQ5LQ3YB4HX1
678,48,,1.0,28.0,highway_294.jpg,,,,A2OQ5LQ3YB4HX1
679,49,,1.0,29.0,golf_course_331.jpg,,,,A2OQ5LQ3YB4HX1
680,50,,1.0,30.0,highway_177.jpg,,,,A2OQ5LQ3YB4HX1
681,51,,1.0,31.0,mountain_154.jpg,,,,A2OQ5LQ3YB4HX1
682,52,,1.0,32.0,bridge_91.jpg,,,,A2OQ5LQ3YB4HX1
683,53,,1.0,33.0,mountain_57.jpg,,,,A2OQ5LQ3YB4HX1
684,54,right,1.0,34.0,right.jpg,right,1.0958,,A2OQ5LQ3YB4HX1
685,55,,1.0,35.0,bridge_108.jpg,,,,A2OQ5LQ3YB4HX1
686,56,,1.0,36.0,playground_76.jpg,,,,A2OQ5LQ3YB4HX1
687,57,,1.0,37.0,bridge_202.jpg,,,,A2OQ5LQ3YB4HX1
688,58,left,1.0,38.0,left.jpg,left,0.8103,,A2OQ5LQ3YB4HX1
689,59,,1.0,39.0,golf_course_15.jpg,,,,A2OQ5LQ3YB4HX1
690,60,,1.0,40.0,bridge_65.jpg,,,,A2OQ5LQ3YB4HX1
691,61,,1.0,41.0,highway_209.jpg,,,,A2OQ5LQ3YB4HX1
692,62,,1.0,42.0,bridge_128.jpg,,,,A2OQ5LQ3YB4HX1
693,63,,1.0,43.0,badlands_70.jpg,,,,A2OQ5LQ3YB4HX1
694,64,,1.0,44.0,highway_359.jpg,,,,A2OQ5LQ3YB4HX1
695,65,,1.0,45.0,badlands_23.jpg,,,,A2OQ5LQ3YB4HX1
696,66,,1.0,46.0,playground_117.jpg,,,,A2OQ5LQ3YB4HX1
697,67,,1.0,47.0,playground_131.jpg,,,,A2OQ5LQ3YB4HX1
698,68,right,1.0,48.0,right.jpg,right,2.9359,,A2OQ5LQ3YB4HX1
699,69,,1.0,49.0,playground_60.jpg,,,,A2OQ5LQ3YB4HX1
700,70,,1.0,50.0,badlands_184.jpg,,,,A2OQ5LQ3YB4HX1
701,71,,1.0,51.0,golf_course_87.jpg,,,,A2OQ5LQ3YB4HX1
702,72,,1.0,52.0,badlands_222.jpg,,,,A2OQ5LQ3YB4HX1
703,73,,1.0,53.0,mountain_222.jpg,,,,A2OQ5LQ3YB4HX1
704,74,,1.0,54.0,playground_144.jpg,,,,A2OQ5LQ3YB4HX1
705,75,,1.0,55.0,golf_course_188.jpg,,,,A2OQ5LQ3YB4HX1
706,76,,1.0,56.0,bridge_250.jpg,,,,A2OQ5LQ3YB4HX1
707,77,,1.0,57.0,playground_240.jpg,,,,A2OQ5LQ3YB4HX1
708,78,,1.0,58.0,mountain_101.jpg,,,,A2OQ5LQ3YB4HX1
709,79,,1.0,59.0,golf_course_309.jpg,,,,A2OQ5LQ3YB4HX1
710,80,,1.0,60.0,playground_257.jpg,,,,A2OQ5LQ3YB4HX1
711,81,,1.0,61.0,playground_219.jpg,,,,A2OQ5LQ3YB4HX1
712,82,,1.0,62.0,highway_394.jpg,,,,A2OQ5LQ3YB4HX1
713,83,,1.0,63.0,highway_156.jpg,,,,A2OQ5LQ3YB4HX1
714,84,,1.0,64.0,mountain_232.jpg,,,,A2OQ5LQ3YB4HX1
715,20,,1.0,0.0,playground_60.jpg,,,,A3G55RJTW3BSGM
716,21,,1.0,1.0,golf_course_214.jpg,,,,A3G55RJTW3BSGM
717,22,,1.0,2.0,mountain_232.jpg,,,,A3G55RJTW3BSGM
718,23,,1.0,3.0,mountain_222.jpg,,,,A3G55RJTW3BSGM
719,24,,1.0,4.0,playground_240.jpg,,,,A3G55RJTW3BSGM
720,25,,1.0,5.0,bridge_202.jpg,,,,A3G55RJTW3BSGM
721,26,,1.0,6.0,badlands_52.jpg,,,,A3G55RJTW3BSGM
722,27,,1.0,7.0,mountain_101.jpg,,,,A3G55RJTW3BSGM
723,28,,1.0,8.0,golf_course_331.jpg,,,,A3G55RJTW3BSGM
724,29,,1.0,9.0,badlands_222.jpg,,,,A3G55RJTW3BSGM
725,30,,1.0,10.0,golf_course_193.jpg,,,,A3G55RJTW3BSGM
726,31,right,1.0,11.0,right.jpg,right,0.612,,A3G55RJTW3BSGM
727,32,,1.0,12.0,playground_131.jpg,,,,A3G55RJTW3BSGM
728,33,,1.0,13.0,golf_course_309.jpg,,,,A3G55RJTW3BSGM
729,34,,1.0,14.0,highway_245.jpg,,,,A3G55RJTW3BSGM
730,35,,1.0,15.0,mountain_123.jpg,,,,A3G55RJTW3BSGM
731,36,,1.0,16.0,highway_209.jpg,,,,A3G55RJTW3BSGM
732,37,,1.0,17.0,bridge_128.jpg,,,,A3G55RJTW3BSGM
733,38,,1.0,18.0,badlands_70.jpg,,,,A3G55RJTW3BSGM
734,39,,1.0,19.0,mountain_154.jpg,,,,A3G55RJTW3BSGM
735,40,,1.0,20.0,golf_course_15.jpg,,,,A3G55RJTW3BSGM
736,41,,1.0,21.0,bridge_91.jpg,,,,A3G55RJTW3BSGM
737,42,,1.0,22.0,badlands_184.jpg,,,,A3G55RJTW3BSGM
738,43,right,1.0,23.0,right.jpg,right,0.4883,,A3G55RJTW3BSGM
739,44,,1.0,24.0,highway_415.jpg,,,,A3G55RJTW3BSGM
740,45,,1.0,25.0,bridge_250.jpg,,,,A3G55RJTW3BSGM
741,46,,1.0,26.0,badlands_113.jpg,,,,A3G55RJTW3BSGM
742,47,,1.0,27.0,mountain_293.jpg,,,,A3G55RJTW3BSGM
743,48,,1.0,28.0,highway_93.jpg,,,,A3G55RJTW3BSGM
744,49,,1.0,29.0,highway_156.jpg,,,,A3G55RJTW3BSGM
745,50,left,0.0,30.0,right.jpg,right,0.42,,A3G55RJTW3BSGM
746,51,,1.0,31.0,mountain_110.jpg,,,,A3G55RJTW3BSGM
747,52,,1.0,32.0,bridge_108.jpg,,,,A3G55RJTW3BSGM
748,53,,1.0,33.0,playground_117.jpg,,,,A3G55RJTW3BSGM
749,54,,1.0,34.0,mountain_57.jpg,,,,A3G55RJTW3BSGM
750,55,,1.0,35.0,bridge_172.jpg,,,,A3G55RJTW3BSGM
751,56,left,1.0,36.0,left.jpg,left,0.5877,,A3G55RJTW3BSGM
752,57,,1.0,37.0,playground_257.jpg,,,,A3G55RJTW3BSGM
753,58,,1.0,38.0,mountain_156.jpg,,,,A3G55RJTW3BSGM
754,59,,1.0,39.0,playground_76.jpg,,,,A3G55RJTW3BSGM
755,60,,1.0,40.0,highway_394.jpg,,,,A3G55RJTW3BSGM
756,61,,1.0,41.0,highway_177.jpg,,,,A3G55RJTW3BSGM
757,62,,1.0,42.0,badlands_23.jpg,,,,A3G55RJTW3BSGM
758,63,,1.0,43.0,bridge_191.jpg,,,,A3G55RJTW3BSGM
759,64,,1.0,44.0,playground_10.jpg,,,,A3G55RJTW3BSGM
760,65,,1.0,45.0,badlands_21.jpg,,,,A3G55RJTW3BSGM
761,66,,1.0,46.0,highway_359.jpg,,,,A3G55RJTW3BSGM
762,67,,1.0,47.0,playground_144.jpg,,,,A3G55RJTW3BSGM
763,68,,1.0,48.0,golf_course_195.jpg,,,,A3G55RJTW3BSGM
764,69,,1.0,49.0,playground_145.jpg,,,,A3G55RJTW3BSGM
765,70,,1.0,50.0,badlands_221.jpg,,,,A3G55RJTW3BSGM
766,71,,1.0,51.0,highway_294.jpg,,,,A3G55RJTW3BSGM
767,72,right,1.0,52.0,right.jpg,right,0.6181,,A3G55RJTW3BSGM
768,73,,1.0,53.0,bridge_146.jpg,,,,A3G55RJTW3BSGM
769,74,,1.0,54.0,golf_course_217.jpg,,,,A3G55RJTW3BSGM
770,75,,1.0,55.0,golf_course_78.jpg,,,,A3G55RJTW3BSGM
771,76,,1.0,56.0,badlands_137.jpg,,,,A3G55RJTW3BSGM
772,77,,1.0,57.0,playground_219.jpg,,,,A3G55RJTW3BSGM
773,78,,1.0,58.0,golf_course_87.jpg,,,,A3G55RJTW3BSGM
774,79,,1.0,59.0,bridge_256.jpg,,,,A3G55RJTW3BSGM
775,80,,1.0,60.0,mountain_230.jpg,,,,A3G55RJTW3BSGM
776,81,,1.0,61.0,bridge_65.jpg,,,,A3G55RJTW3BSGM
777,82,,1.0,62.0,highway_273.jpg,,,,A3G55RJTW3BSGM
778,83,,1.0,63.0,golf_course_188.jpg,,,,A3G55RJTW3BSGM
779,84,,1.0,64.0,badlands_24.jpg,,,,A3G55RJTW3BSGM
780,20,,1.0,0.0,golf_course_195.jpg,,,,A2WHAIUPGYCFN6
781,21,,1.0,1.0,badlands_222.jpg,,,,A2WHAIUPGYCFN6
782,22,,1.0,2.0,mountain_57.jpg,,,,A2WHAIUPGYCFN6
783,23,,1.0,3.0,badlands_184.jpg,,,,A2WHAIUPGYCFN6
784,24,,1.0,4.0,golf_course_78.jpg,,,,A2WHAIUPGYCFN6
785,25,,1.0,5.0,mountain_101.jpg,,,,A2WHAIUPGYCFN6
786,26,,1.0,6.0,bridge_128.jpg,,,,A2WHAIUPGYCFN6
787,27,,1.0,7.0,mountain_156.jpg,,,,A2WHAIUPGYCFN6
788,28,,1.0,8.0,playground_144.jpg,,,,A2WHAIUPGYCFN6
789,29,,1.0,9.0,badlands_21.jpg,,,,A2WHAIUPGYCFN6
790,30,,1.0,10.0,badlands_52.jpg,,,,A2WHAIUPGYCFN6
791,31,,1.0,11.0,highway_359.jpg,,,,A2WHAIUPGYCFN6
792,32,,1.0,12.0,bridge_65.jpg,,,,A2WHAIUPGYCFN6
793,33,,1.0,13.0,bridge_108.jpg,,,,A2WHAIUPGYCFN6
794,34,right,1.0,14.0,right.jpg,right,1.934,,A2WHAIUPGYCFN6
795,35,,1.0,15.0,highway_93.jpg,,,,A2WHAIUPGYCFN6
796,36,,1.0,16.0,mountain_230.jpg,,,,A2WHAIUPGYCFN6
797,37,,1.0,17.0,highway_209.jpg,,,,A2WHAIUPGYCFN6
798,38,,1.0,18.0,playground_131.jpg,,,,A2WHAIUPGYCFN6
799,39,right,1.0,19.0,right.jpg,right,1.085,,A2WHAIUPGYCFN6
800,40,,1.0,20.0,highway_394.jpg,,,,A2WHAIUPGYCFN6
801,41,,1.0,21.0,highway_273.jpg,,,,A2WHAIUPGYCFN6
802,42,,1.0,22.0,playground_76.jpg,,,,A2WHAIUPGYCFN6
803,43,,1.0,23.0,golf_course_309.jpg,,,,A2WHAIUPGYCFN6
804,44,,1.0,24.0,badlands_221.jpg,,,,A2WHAIUPGYCFN6
805,45,,1.0,25.0,badlands_70.jpg,,,,A2WHAIUPGYCFN6
806,46,,1.0,26.0,highway_245.jpg,,,,A2WHAIUPGYCFN6
807,47,,1.0,27.0,mountain_110.jpg,,,,A2WHAIUPGYCFN6
808,48,left,1.0,28.0,left.jpg,left,0.886,,A2WHAIUPGYCFN6
809,49,,1.0,29.0,playground_145.jpg,,,,A2WHAIUPGYCFN6
810,50,,1.0,30.0,highway_294.jpg,,,,A2WHAIUPGYCFN6
811,51,,1.0,31.0,bridge_250.jpg,,,,A2WHAIUPGYCFN6
812,52,,1.0,32.0,mountain_154.jpg,,,,A2WHAIUPGYCFN6
813,53,,1.0,33.0,mountain_222.jpg,,,,A2WHAIUPGYCFN6
814,54,,1.0,34.0,badlands_113.jpg,,,,A2WHAIUPGYCFN6
815,55,,1.0,35.0,playground_257.jpg,,,,A2WHAIUPGYCFN6
816,56,,1.0,36.0,bridge_146.jpg,,,,A2WHAIUPGYCFN6
817,57,,1.0,37.0,bridge_191.jpg,,,,A2WHAIUPGYCFN6
818,58,,1.0,38.0,golf_course_87.jpg,,,,A2WHAIUPGYCFN6
819,59,,1.0,39.0,playground_117.jpg,,,,A2WHAIUPGYCFN6
820,60,,1.0,40.0,mountain_232.jpg,,,,A2WHAIUPGYCFN6
821,61,right,1.0,41.0,right.jpg,right,0.961,,A2WHAIUPGYCFN6
822,62,,1.0,42.0,playground_60.jpg,,,,A2WHAIUPGYCFN6
823,63,,1.0,43.0,bridge_256.jpg,,,,A2WHAIUPGYCFN6
824,64,,1.0,44.0,highway_156.jpg,,,,A2WHAIUPGYCFN6
825,65,,1.0,45.0,golf_course_217.jpg,,,,A2WHAIUPGYCFN6
826,66,,1.0,46.0,playground_240.jpg,,,,A2WHAIUPGYCFN6
827,67,,1.0,47.0,badlands_137.jpg,,,,A2WHAIUPGYCFN6
828,68,,1.0,48.0,playground_10.jpg,,,,A2WHAIUPGYCFN6
829,69,,1.0,49.0,golf_course_331.jpg,,,,A2WHAIUPGYCFN6
830,70,,1.0,50.0,playground_219.jpg,,,,A2WHAIUPGYCFN6
831,71,,1.0,51.0,badlands_23.jpg,,,,A2WHAIUPGYCFN6
832,72,,1.0,52.0,badlands_24.jpg,,,,A2WHAIUPGYCFN6
833,73,right,1.0,53.0,right.jpg,right,1.612,,A2WHAIUPGYCFN6
834,74,,1.0,54.0,bridge_202.jpg,,,,A2WHAIUPGYCFN6
835,75,,1.0,55.0,bridge_91.jpg,,,,A2WHAIUPGYCFN6
836,76,,1.0,56.0,golf_course_193.jpg,,,,A2WHAIUPGYCFN6
837,77,,1.0,57.0,mountain_293.jpg,,,,A2WHAIUPGYCFN6
838,78,,1.0,58.0,mountain_123.jpg,,,,A2WHAIUPGYCFN6
839,79,,1.0,59.0,highway_177.jpg,,,,A2WHAIUPGYCFN6
840,80,,1.0,60.0,golf_course_15.jpg,,,,A2WHAIUPGYCFN6
841,81,,1.0,61.0,golf_course_214.jpg,,,,A2WHAIUPGYCFN6
842,82,,1.0,62.0,bridge_172.jpg,,,,A2WHAIUPGYCFN6
843,83,,1.0,63.0,highway_415.jpg,,,,A2WHAIUPGYCFN6
844,84,,1.0,64.0,golf_course_188.jpg,,,,A2WHAIUPGYCFN6
845,20,,1.0,0.0,playground_60.jpg,,,,A36U8EYFWM1EL5
846,21,,1.0,1.0,mountain_230.jpg,,,,A36U8EYFWM1EL5
847,22,,1.0,2.0,highway_245.jpg,,,,A36U8EYFWM1EL5
848,23,,1.0,3.0,golf_course_309.jpg,,,,A36U8EYFWM1EL5
849,24,,1.0,4.0,playground_240.jpg,,,,A36U8EYFWM1EL5
850,25,,1.0,5.0,highway_359.jpg,,,,A36U8EYFWM1EL5
851,26,,1.0,6.0,badlands_21.jpg,,,,A36U8EYFWM1EL5
852,27,,1.0,7.0,highway_394.jpg,,,,A36U8EYFWM1EL5
853,28,,1.0,8.0,highway_209.jpg,,,,A36U8EYFWM1EL5
854,29,,1.0,9.0,badlands_23.jpg,,,,A36U8EYFWM1EL5
855,30,,1.0,10.0,playground_219.jpg,,,,A36U8EYFWM1EL5
856,31,,1.0,11.0,bridge_191.jpg,,,,A36U8EYFWM1EL5
857,32,,1.0,12.0,badlands_137.jpg,,,,A36U8EYFWM1EL5
858,33,,1.0,13.0,bridge_91.jpg,,,,A36U8EYFWM1EL5
859,34,right,1.0,14.0,right.jpg,right,1.6513,,A36U8EYFWM1EL5
860,35,,1.0,15.0,highway_156.jpg,,,,A36U8EYFWM1EL5
861,36,,1.0,16.0,badlands_70.jpg,,,,A36U8EYFWM1EL5
862,37,,1.0,17.0,highway_93.jpg,,,,A36U8EYFWM1EL5
863,38,,1.0,18.0,mountain_232.jpg,,,,A36U8EYFWM1EL5
864,39,,1.0,19.0,bridge_256.jpg,,,,A36U8EYFWM1EL5
865,40,,0.0,20.0,right.jpg,right,,,A36U8EYFWM1EL5
866,41,,1.0,21.0,badlands_24.jpg,,,,A36U8EYFWM1EL5
867,42,,1.0,22.0,playground_257.jpg,,,,A36U8EYFWM1EL5
868,43,,1.0,23.0,bridge_128.jpg,,,,A36U8EYFWM1EL5
869,44,,1.0,24.0,highway_294.jpg,,,,A36U8EYFWM1EL5
870,45,,1.0,25.0,bridge_108.jpg,,,,A36U8EYFWM1EL5
871,46,,1.0,26.0,badlands_222.jpg,,,,A36U8EYFWM1EL5
872,47,left,1.0,27.0,left.jpg,left,1.4311,,A36U8EYFWM1EL5
873,48,,1.0,28.0,playground_145.jpg,,,,A36U8EYFWM1EL5
874,49,,1.0,29.0,bridge_202.jpg,,,,A36U8EYFWM1EL5
875,50,,1.0,30.0,golf_course_188.jpg,,,,A36U8EYFWM1EL5
876,51,,1.0,31.0,mountain_101.jpg,,,,A36U8EYFWM1EL5
877,52,,1.0,32.0,highway_177.jpg,,,,A36U8EYFWM1EL5
878,53,,1.0,33.0,highway_415.jpg,,,,A36U8EYFWM1EL5
879,54,,1.0,34.0,mountain_57.jpg,,,,A36U8EYFWM1EL5
880,55,,1.0,35.0,mountain_154.jpg,,,,A36U8EYFWM1EL5
881,56,,1.0,36.0,mountain_110.jpg,,,,A36U8EYFWM1EL5
882,57,,1.0,37.0,mountain_293.jpg,,,,A36U8EYFWM1EL5
883,58,left,1.0,38.0,left.jpg,left,1.9851,,A36U8EYFWM1EL5
884,59,,1.0,39.0,golf_course_331.jpg,,,,A36U8EYFWM1EL5
885,60,,1.0,40.0,golf_course_217.jpg,,,,A36U8EYFWM1EL5
886,61,,1.0,41.0,mountain_222.jpg,,,,A36U8EYFWM1EL5
887,62,,1.0,42.0,highway_273.jpg,,,,A36U8EYFWM1EL5
888,63,,1.0,43.0,playground_144.jpg,,,,A36U8EYFWM1EL5
889,64,,1.0,44.0,mountain_123.jpg,,,,A36U8EYFWM1EL5
890,65,,1.0,45.0,badlands_52.jpg,,,,A36U8EYFWM1EL5
891,66,,1.0,46.0,golf_course_193.jpg,,,,A36U8EYFWM1EL5
892,67,,1.0,47.0,playground_76.jpg,,,,A36U8EYFWM1EL5
893,68,,1.0,48.0,golf_course_214.jpg,,,,A36U8EYFWM1EL5
894,69,,1.0,49.0,bridge_146.jpg,,,,A36U8EYFWM1EL5
895,70,,1.0,50.0,playground_10.jpg,,,,A36U8EYFWM1EL5
896,71,,1.0,51.0,playground_131.jpg,,,,A36U8EYFWM1EL5
897,72,,1.0,52.0,bridge_172.jpg,,,,A36U8EYFWM1EL5
898,73,left,1.0,53.0,left.jpg,left,1.4261,,A36U8EYFWM1EL5
899,74,,1.0,54.0,playground_117.jpg,,,,A36U8EYFWM1EL5
900,75,,1.0,55.0,golf_course_78.jpg,,,,A36U8EYFWM1EL5
901,76,,1.0,56.0,badlands_184.jpg,,,,A36U8EYFWM1EL5
902,77,,1.0,57.0,golf_course_195.jpg,,,,A36U8EYFWM1EL5
903,78,,1.0,58.0,bridge_250.jpg,,,,A36U8EYFWM1EL5
904,79,,1.0,59.0,golf_course_15.jpg,,,,A36U8EYFWM1EL5
905,80,,1.0,60.0,badlands_221.jpg,,,,A36U8EYFWM1EL5
906,81,,1.0,61.0,golf_course_87.jpg,,,,A36U8EYFWM1EL5
907,82,,1.0,62.0,mountain_156.jpg,,,,A36U8EYFWM1EL5
908,83,,1.0,63.0,bridge_65.jpg,,,,A36U8EYFWM1EL5
909,84,,1.0,64.0,badlands_113.jpg,,,,A36U8EYFWM1EL5
910,20,,1.0,0.0,badlands_184.jpg,,,,A3V7HHS20YFRT4
911,21,,1.0,1.0,badlands_113.jpg,,,,A3V7HHS20YFRT4
912,22,,1.0,2.0,highway_156.jpg,,,,A3V7HHS20YFRT4
913,23,,1.0,3.0,golf_course_15.jpg,,,,A3V7HHS20YFRT4
914,24,,1.0,4.0,mountain_230.jpg,,,,A3V7HHS20YFRT4
915,25,,1.0,5.0,highway_394.jpg,,,,A3V7HHS20YFRT4
916,26,,1.0,6.0,golf_course_188.jpg,,,,A3V7HHS20YFRT4
917,27,,1.0,7.0,mountain_57.jpg,,,,A3V7HHS20YFRT4
918,28,,1.0,8.0,golf_course_217.jpg,,,,A3V7HHS20YFRT4
919,29,,1.0,9.0,playground_145.jpg,,,,A3V7HHS20YFRT4
920,30,,1.0,10.0,playground_76.jpg,,,,A3V7HHS20YFRT4
921,31,left,1.0,11.0,left.jpg,left,0.995,,A3V7HHS20YFRT4
922,32,,1.0,12.0,mountain_293.jpg,,,,A3V7HHS20YFRT4
923,33,,1.0,13.0,highway_294.jpg,,,,A3V7HHS20YFRT4
924,34,,1.0,14.0,playground_131.jpg,,,,A3V7HHS20YFRT4
925,35,,1.0,15.0,badlands_221.jpg,,,,A3V7HHS20YFRT4
926,36,,1.0,16.0,mountain_154.jpg,,,,A3V7HHS20YFRT4
927,37,,1.0,17.0,bridge_128.jpg,,,,A3V7HHS20YFRT4
928,38,,1.0,18.0,bridge_91.jpg,,,,A3V7HHS20YFRT4
929,39,,1.0,19.0,badlands_24.jpg,,,,A3V7HHS20YFRT4
930,40,,0.0,20.0,left.jpg,left,,,A3V7HHS20YFRT4
931,41,,1.0,21.0,golf_course_309.jpg,,,,A3V7HHS20YFRT4
932,42,,1.0,22.0,golf_course_331.jpg,,,,A3V7HHS20YFRT4
933,43,,1.0,23.0,badlands_52.jpg,,,,A3V7HHS20YFRT4
934,44,,1.0,24.0,mountain_110.jpg,,,,A3V7HHS20YFRT4
935,45,,1.0,25.0,highway_93.jpg,,,,A3V7HHS20YFRT4
936,46,,1.0,26.0,badlands_70.jpg,,,,A3V7HHS20YFRT4
937,47,,1.0,27.0,highway_177.jpg,,,,A3V7HHS20YFRT4
938,48,,1.0,28.0,bridge_256.jpg,,,,A3V7HHS20YFRT4
939,49,,1.0,29.0,playground_240.jpg,,,,A3V7HHS20YFRT4
940,50,,1.0,30.0,playground_10.jpg,,,,A3V7HHS20YFRT4
941,51,right,1.0,31.0,right.jpg,right,1.119,,A3V7HHS20YFRT4
942,52,,1.0,32.0,bridge_172.jpg,,,,A3V7HHS20YFRT4
943,53,,1.0,33.0,mountain_222.jpg,,,,A3V7HHS20YFRT4
944,54,,1.0,34.0,playground_144.jpg,,,,A3V7HHS20YFRT4
945,55,,1.0,35.0,playground_219.jpg,,,,A3V7HHS20YFRT4
946,56,,1.0,36.0,highway_245.jpg,,,,A3V7HHS20YFRT4
947,57,left,1.0,37.0,left.jpg,left,0.924,,A3V7HHS20YFRT4
948,58,,1.0,38.0,golf_course_195.jpg,,,,A3V7HHS20YFRT4
949,59,,1.0,39.0,badlands_222.jpg,,,,A3V7HHS20YFRT4
950,60,,1.0,40.0,playground_117.jpg,,,,A3V7HHS20YFRT4
951,61,,1.0,41.0,bridge_65.jpg,,,,A3V7HHS20YFRT4
952,62,,1.0,42.0,highway_415.jpg,,,,A3V7HHS20YFRT4
953,63,,1.0,43.0,golf_course_193.jpg,,,,A3V7HHS20YFRT4
954,64,,1.0,44.0,golf_course_87.jpg,,,,A3V7HHS20YFRT4
955,65,,1.0,45.0,bridge_191.jpg,,,,A3V7HHS20YFRT4
956,66,,1.0,46.0,mountain_232.jpg,,,,A3V7HHS20YFRT4
957,67,,1.0,47.0,bridge_202.jpg,,,,A3V7HHS20YFRT4
958,68,left,1.0,48.0,left.jpg,left,1.095,,A3V7HHS20YFRT4
959,69,,1.0,49.0,playground_60.jpg,,,,A3V7HHS20YFRT4
960,70,,1.0,50.0,highway_359.jpg,,,,A3V7HHS20YFRT4
961,71,,1.0,51.0,bridge_108.jpg,,,,A3V7HHS20YFRT4
962,72,,1.0,52.0,badlands_137.jpg,,,,A3V7HHS20YFRT4
963,73,,1.0,53.0,highway_273.jpg,,,,A3V7HHS20YFRT4
964,74,,1.0,54.0,playground_257.jpg,,,,A3V7HHS20YFRT4
965,75,,1.0,55.0,highway_209.jpg,,,,A3V7HHS20YFRT4
966,76,,1.0,56.0,mountain_156.jpg,,,,A3V7HHS20YFRT4
967,77,,1.0,57.0,golf_course_214.jpg,,,,A3V7HHS20YFRT4
968,78,,1.0,58.0,badlands_21.jpg,,,,A3V7HHS20YFRT4
969,79,,1.0,59.0,mountain_101.jpg,,,,A3V7HHS20YFRT4
970,80,,1.0,60.0,mountain_123.jpg,,,,A3V7HHS20YFRT4
971,81,,1.0,61.0,bridge_146.jpg,,,,A3V7HHS20YFRT4
972,82,,1.0,62.0,bridge_250.jpg,,,,A3V7HHS20YFRT4
973,83,,1.0,63.0,golf_course_78.jpg,,,,A3V7HHS20YFRT4
974,84,,1.0,64.0,badlands_23.jpg,,,,A3V7HHS20YFRT4
975,20,,1.0,0.0,bridge_202.jpg,,,,AYECXBANNBYIL
976,21,,1.0,1.0,mountain_101.jpg,,,,AYECXBANNBYIL
977,22,,1.0,2.0,badlands_70.jpg,,,,AYECXBANNBYIL
978,23,,1.0,3.0,mountain_123.jpg,,,,AYECXBANNBYIL
979,24,,1.0,4.0,bridge_65.jpg,,,,AYECXBANNBYIL
980,25,,1.0,5.0,bridge_108.jpg,,,,AYECXBANNBYIL
981,26,,1.0,6.0,playground_76.jpg,,,,AYECXBANNBYIL
982,27,,1.0,7.0,highway_273.jpg,,,,AYECXBANNBYIL
983,28,,1.0,8.0,golf_course_78.jpg,,,,AYECXBANNBYIL
984,29,right,1.0,9.0,right.jpg,right,1.1614,,AYECXBANNBYIL
985,30,,1.0,10.0,playground_240.jpg,,,,AYECXBANNBYIL
986,31,,1.0,11.0,highway_245.jpg,,,,AYECXBANNBYIL
987,32,,1.0,12.0,mountain_232.jpg,,,,AYECXBANNBYIL
988,33,,1.0,13.0,playground_60.jpg,,,,AYECXBANNBYIL
989,34,,1.0,14.0,mountain_154.jpg,,,,AYECXBANNBYIL
990,35,,1.0,15.0,highway_394.jpg,,,,AYECXBANNBYIL
991,36,,1.0,16.0,mountain_293.jpg,,,,AYECXBANNBYIL
992,37,,1.0,17.0,mountain_57.jpg,,,,AYECXBANNBYIL
993,38,,1.0,18.0,badlands_184.jpg,,,,AYECXBANNBYIL
994,39,right,1.0,19.0,right.jpg,right,1.1333,,AYECXBANNBYIL
995,40,,1.0,20.0,mountain_222.jpg,,,,AYECXBANNBYIL
996,41,,1.0,21.0,badlands_137.jpg,,,,AYECXBANNBYIL
997,42,,1.0,22.0,mountain_156.jpg,,,,AYECXBANNBYIL
998,43,,1.0,23.0,bridge_128.jpg,,,,AYECXBANNBYIL
999,44,,1.0,24.0,playground_131.jpg,,,,AYECXBANNBYIL
1000,45,,1.0,25.0,highway_177.jpg,,,,AYECXBANNBYIL
1001,46,,1.0,26.0,bridge_256.jpg,,,,AYECXBANNBYIL
1002,47,,1.0,27.0,golf_course_15.jpg,,,,AYECXBANNBYIL
1003,48,right,1.0,28.0,right.jpg,right,1.6776,,AYECXBANNBYIL
1004,49,,1.0,29.0,badlands_222.jpg,,,,AYECXBANNBYIL
1005,50,,1.0,30.0,badlands_52.jpg,,,,AYECXBANNBYIL
1006,51,,1.0,31.0,mountain_110.jpg,,,,AYECXBANNBYIL
1007,52,,1.0,32.0,playground_257.jpg,,,,AYECXBANNBYIL
1008,53,,1.0,33.0,highway_93.jpg,,,,AYECXBANNBYIL
1009,54,,1.0,34.0,highway_359.jpg,,,,AYECXBANNBYIL
1010,55,,1.0,35.0,golf_course_188.jpg,,,,AYECXBANNBYIL
1011,56,,1.0,36.0,badlands_23.jpg,,,,AYECXBANNBYIL
1012,57,,1.0,37.0,golf_course_331.jpg,,,,AYECXBANNBYIL
1013,58,,1.0,38.0,bridge_250.jpg,,,,AYECXBANNBYIL
1014,59,,1.0,39.0,bridge_146.jpg,,,,AYECXBANNBYIL
1015,60,,1.0,40.0,bridge_91.jpg,,,,AYECXBANNBYIL
1016,61,,1.0,41.0,playground_117.jpg,,,,AYECXBANNBYIL
1017,62,left,1.0,42.0,left.jpg,left,1.0827,,AYECXBANNBYIL
1018,63,,1.0,43.0,badlands_24.jpg,,,,AYECXBANNBYIL
1019,64,,1.0,44.0,playground_144.jpg,,,,AYECXBANNBYIL
1020,65,,1.0,45.0,golf_course_193.jpg,,,,AYECXBANNBYIL
1021,66,,1.0,46.0,golf_course_214.jpg,,,,AYECXBANNBYIL
1022,67,,1.0,47.0,badlands_113.jpg,,,,AYECXBANNBYIL
1023,68,,1.0,48.0,bridge_172.jpg,,,,AYECXBANNBYIL
1024,69,,1.0,49.0,playground_10.jpg,,,,AYECXBANNBYIL
1025,70,,1.0,50.0,golf_course_217.jpg,,,,AYECXBANNBYIL
1026,71,,1.0,51.0,golf_course_195.jpg,,,,AYECXBANNBYIL
1027,72,,1.0,52.0,highway_294.jpg,,,,AYECXBANNBYIL
1028,73,,1.0,53.0,playground_145.jpg,,,,AYECXBANNBYIL
1029,74,right,1.0,54.0,right.jpg,right,1.0408,,AYECXBANNBYIL
1030,75,,1.0,55.0,playground_219.jpg,,,,AYECXBANNBYIL
1031,76,,1.0,56.0,highway_415.jpg,,,,AYECXBANNBYIL
1032,77,,1.0,57.0,golf_course_309.jpg,,,,AYECXBANNBYIL
1033,78,,1.0,58.0,badlands_221.jpg,,,,AYECXBANNBYIL
1034,79,,1.0,59.0,highway_209.jpg,,,,AYECXBANNBYIL
1035,80,,1.0,60.0,bridge_191.jpg,,,,AYECXBANNBYIL
1036,81,,1.0,61.0,mountain_230.jpg,,,,AYECXBANNBYIL
1037,82,,1.0,62.0,golf_course_87.jpg,,,,AYECXBANNBYIL
1038,83,,1.0,63.0,badlands_21.jpg,,,,AYECXBANNBYIL
1039,84,,1.0,64.0,highway_156.jpg,,,,AYECXBANNBYIL
1040,20,,1.0,0.0,golf_course_15.jpg,,,,A2LQSIUU2U0ZT2
1041,21,,1.0,1.0,golf_course_217.jpg,,,,A2LQSIUU2U0ZT2
1042,22,,1.0,2.0,playground_240.jpg,,,,A2LQSIUU2U0ZT2
1043,23,,1.0,3.0,golf_course_188.jpg,,,,A2LQSIUU2U0ZT2
1044,24,,1.0,4.0,bridge_250.jpg,,,,A2LQSIUU2U0ZT2
1045,25,,1.0,5.0,golf_course_309.jpg,,,,A2LQSIUU2U0ZT2
1046,26,,1.0,6.0,badlands_221.jpg,,,,A2LQSIUU2U0ZT2
1047,27,left,1.0,7.0,left.jpg,left,1.0907,,A2LQSIUU2U0ZT2
1048,28,,1.0,8.0,playground_117.jpg,,,,A2LQSIUU2U0ZT2
1049,29,,1.0,9.0,mountain_293.jpg,,,,A2LQSIUU2U0ZT2
1050,30,,1.0,10.0,bridge_256.jpg,,,,A2LQSIUU2U0ZT2
1051,31,,1.0,11.0,playground_144.jpg,,,,A2LQSIUU2U0ZT2
1052,32,,1.0,12.0,highway_93.jpg,,,,A2LQSIUU2U0ZT2
1053,33,,1.0,13.0,badlands_70.jpg,,,,A2LQSIUU2U0ZT2
1054,34,,1.0,14.0,highway_359.jpg,,,,A2LQSIUU2U0ZT2
1055,35,,1.0,15.0,bridge_202.jpg,,,,A2LQSIUU2U0ZT2
1056,36,,1.0,16.0,badlands_137.jpg,,,,A2LQSIUU2U0ZT2
1057,37,,1.0,17.0,mountain_230.jpg,,,,A2LQSIUU2U0ZT2
1058,38,,1.0,18.0,highway_394.jpg,,,,A2LQSIUU2U0ZT2
1059,39,,1.0,19.0,playground_131.jpg,,,,A2LQSIUU2U0ZT2
1060,40,,1.0,20.0,badlands_113.jpg,,,,A2LQSIUU2U0ZT2
1061,41,,1.0,21.0,mountain_123.jpg,,,,A2LQSIUU2U0ZT2
1062,42,left,1.0,22.0,left.jpg,left,0.9741,,A2LQSIUU2U0ZT2
1063,43,,1.0,23.0,badlands_222.jpg,,,,A2LQSIUU2U0ZT2
1064,44,,1.0,24.0,golf_course_78.jpg,,,,A2LQSIUU2U0ZT2
1065,45,,1.0,25.0,highway_415.jpg,,,,A2LQSIUU2U0ZT2
1066,46,,1.0,26.0,playground_10.jpg,,,,A2LQSIUU2U0ZT2
1067,47,,1.0,27.0,playground_219.jpg,,,,A2LQSIUU2U0ZT2
1068,48,,1.0,28.0,highway_209.jpg,,,,A2LQSIUU2U0ZT2
1069,49,,1.0,29.0,playground_60.jpg,,,,A2LQSIUU2U0ZT2
1070,50,,1.0,30.0,bridge_65.jpg,,,,A2LQSIUU2U0ZT2
1071,51,,1.0,31.0,badlands_24.jpg,,,,A2LQSIUU2U0ZT2
1072,52,,1.0,32.0,mountain_232.jpg,,,,A2LQSIUU2U0ZT2
1073,53,left,1.0,33.0,left.jpg,left,1.111,,A2LQSIUU2U0ZT2
1074,54,,1.0,34.0,badlands_184.jpg,,,,A2LQSIUU2U0ZT2
1075,55,,1.0,35.0,bridge_128.jpg,,,,A2LQSIUU2U0ZT2
1076,56,,1.0,36.0,golf_course_195.jpg,,,,A2LQSIUU2U0ZT2
1077,57,,1.0,37.0,golf_course_214.jpg,,,,A2LQSIUU2U0ZT2
1078,58,,1.0,38.0,badlands_23.jpg,,,,A2LQSIUU2U0ZT2
1079,59,,1.0,39.0,highway_177.jpg,,,,A2LQSIUU2U0ZT2
1080,60,,1.0,40.0,highway_273.jpg,,,,A2LQSIUU2U0ZT2
1081,61,,1.0,41.0,mountain_154.jpg,,,,A2LQSIUU2U0ZT2
1082,62,,1.0,42.0,bridge_108.jpg,,,,A2LQSIUU2U0ZT2
1083,63,right,1.0,43.0,right.jpg,right,1.0073,,A2LQSIUU2U0ZT2
1084,64,,1.0,44.0,golf_course_193.jpg,,,,A2LQSIUU2U0ZT2
1085,65,,1.0,45.0,golf_course_331.jpg,,,,A2LQSIUU2U0ZT2
1086,66,,1.0,46.0,bridge_146.jpg,,,,A2LQSIUU2U0ZT2
1087,67,,1.0,47.0,bridge_172.jpg,,,,A2LQSIUU2U0ZT2
1088,68,,1.0,48.0,playground_145.jpg,,,,A2LQSIUU2U0ZT2
1089,69,,1.0,49.0,mountain_57.jpg,,,,A2LQSIUU2U0ZT2
1090,70,,1.0,50.0,highway_156.jpg,,,,A2LQSIUU2U0ZT2
1091,71,,1.0,51.0,highway_294.jpg,,,,A2LQSIUU2U0ZT2
1092,72,,1.0,52.0,mountain_222.jpg,,,,A2LQSIUU2U0ZT2
1093,73,right,1.0,53.0,right.jpg,right,0.9801,,A2LQSIUU2U0ZT2
1094,74,,1.0,54.0,bridge_191.jpg,,,,A2LQSIUU2U0ZT2
1095,75,,1.0,55.0,mountain_110.jpg,,,,A2LQSIUU2U0ZT2
1096,76,,1.0,56.0,golf_course_87.jpg,,,,A2LQSIUU2U0ZT2
1097,77,,1.0,57.0,playground_257.jpg,,,,A2LQSIUU2U0ZT2
1098,78,,1.0,58.0,mountain_101.jpg,,,,A2LQSIUU2U0ZT2
1099,79,,1.0,59.0,highway_245.jpg,,,,A2LQSIUU2U0ZT2
1100,80,,1.0,60.0,bridge_91.jpg,,,,A2LQSIUU2U0ZT2
1101,81,,1.0,61.0,badlands_52.jpg,,,,A2LQSIUU2U0ZT2
1102,82,,1.0,62.0,badlands_21.jpg,,,,A2LQSIUU2U0ZT2
1103,83,,1.0,63.0,playground_76.jpg,,,,A2LQSIUU2U0ZT2
1104,84,,1.0,64.0,mountain_156.jpg,,,,A2LQSIUU2U0ZT2
1105,20,,1.0,0.0,highway_93.jpg,,,,A1PS8FTSVOJ4PB
1106,21,,1.0,1.0,mountain_101.jpg,,,,A1PS8FTSVOJ4PB
1107,22,,1.0,2.0,playground_76.jpg,,,,A1PS8FTSVOJ4PB
1108,23,,1.0,3.0,badlands_113.jpg,,,,A1PS8FTSVOJ4PB
1109,24,,1.0,4.0,playground_117.jpg,,,,A1PS8FTSVOJ4PB
1110,25,,1.0,5.0,golf_course_188.jpg,,,,A1PS8FTSVOJ4PB
1111,26,right,1.0,6.0,right.jpg,right,1.919,,A1PS8FTSVOJ4PB
1112,27,,1.0,7.0,highway_294.jpg,,,,A1PS8FTSVOJ4PB
1113,28,,1.0,8.0,bridge_191.jpg,,,,A1PS8FTSVOJ4PB
1114,29,,1.0,9.0,playground_219.jpg,,,,A1PS8FTSVOJ4PB
1115,30,,1.0,10.0,golf_course_214.jpg,,,,A1PS8FTSVOJ4PB
1116,31,,1.0,11.0,mountain_154.jpg,,,,A1PS8FTSVOJ4PB
1117,32,,1.0,12.0,highway_394.jpg,,,,A1PS8FTSVOJ4PB
1118,33,,1.0,13.0,golf_course_193.jpg,,,,A1PS8FTSVOJ4PB
1119,34,,1.0,14.0,mountain_57.jpg,,,,A1PS8FTSVOJ4PB
1120,35,,1.0,15.0,golf_course_15.jpg,,,,A1PS8FTSVOJ4PB
1121,36,,1.0,16.0,bridge_108.jpg,,,,A1PS8FTSVOJ4PB
1122,37,,1.0,17.0,golf_course_309.jpg,,,,A1PS8FTSVOJ4PB
1123,38,,1.0,18.0,bridge_128.jpg,,,,A1PS8FTSVOJ4PB
1124,39,,1.0,19.0,mountain_232.jpg,,,,A1PS8FTSVOJ4PB
1125,40,,1.0,20.0,playground_144.jpg,,,,A1PS8FTSVOJ4PB
1126,41,,1.0,21.0,bridge_146.jpg,,,,A1PS8FTSVOJ4PB
1127,42,right,1.0,22.0,right.jpg,right,1.234,,A1PS8FTSVOJ4PB
1128,43,,1.0,23.0,bridge_91.jpg,,,,A1PS8FTSVOJ4PB
1129,44,,1.0,24.0,mountain_222.jpg,,,,A1PS8FTSVOJ4PB
1130,45,,1.0,25.0,golf_course_195.jpg,,,,A1PS8FTSVOJ4PB
1131,46,,1.0,26.0,badlands_137.jpg,,,,A1PS8FTSVOJ4PB
1132,47,,1.0,27.0,highway_415.jpg,,,,A1PS8FTSVOJ4PB
1133,48,,1.0,28.0,mountain_110.jpg,,,,A1PS8FTSVOJ4PB
1134,49,,1.0,29.0,bridge_256.jpg,,,,A1PS8FTSVOJ4PB
1135,50,,1.0,30.0,golf_course_78.jpg,,,,A1PS8FTSVOJ4PB
1136,51,left,1.0,31.0,left.jpg,left,1.524,,A1PS8FTSVOJ4PB
1137,52,,1.0,32.0,badlands_24.jpg,,,,A1PS8FTSVOJ4PB
1138,53,,1.0,33.0,badlands_23.jpg,,,,A1PS8FTSVOJ4PB
1139,54,,1.0,34.0,playground_131.jpg,,,,A1PS8FTSVOJ4PB
1140,55,,1.0,35.0,badlands_21.jpg,,,,A1PS8FTSVOJ4PB
1141,56,left,1.0,36.0,left.jpg,left,1.27,,A1PS8FTSVOJ4PB
1142,57,,1.0,37.0,playground_240.jpg,,,,A1PS8FTSVOJ4PB
1143,58,,1.0,38.0,highway_177.jpg,,,,A1PS8FTSVOJ4PB
1144,59,,1.0,39.0,golf_course_331.jpg,,,,A1PS8FTSVOJ4PB
1145,60,,1.0,40.0,playground_145.jpg,,,,A1PS8FTSVOJ4PB
1146,61,,1.0,41.0,playground_257.jpg,,,,A1PS8FTSVOJ4PB
1147,62,,1.0,42.0,mountain_230.jpg,,,,A1PS8FTSVOJ4PB
1148,63,,1.0,43.0,highway_156.jpg,,,,A1PS8FTSVOJ4PB
1149,64,,1.0,44.0,highway_245.jpg,,,,A1PS8FTSVOJ4PB
1150,65,,1.0,45.0,golf_course_217.jpg,,,,A1PS8FTSVOJ4PB
1151,66,left,1.0,46.0,left.jpg,left,1.201,,A1PS8FTSVOJ4PB
1152,67,,1.0,47.0,mountain_123.jpg,,,,A1PS8FTSVOJ4PB
1153,68,,1.0,48.0,badlands_52.jpg,,,,A1PS8FTSVOJ4PB
1154,69,,1.0,49.0,mountain_156.jpg,,,,A1PS8FTSVOJ4PB
1155,70,,1.0,50.0,bridge_65.jpg,,,,A1PS8FTSVOJ4PB
1156,71,,1.0,51.0,golf_course_87.jpg,,,,A1PS8FTSVOJ4PB
1157,72,,1.0,52.0,bridge_202.jpg,,,,A1PS8FTSVOJ4PB
1158,73,,1.0,53.0,bridge_250.jpg,,,,A1PS8FTSVOJ4PB
1159,74,,1.0,54.0,playground_10.jpg,,,,A1PS8FTSVOJ4PB
1160,75,,1.0,55.0,playground_60.jpg,,,,A1PS8FTSVOJ4PB
1161,76,,1.0,56.0,badlands_222.jpg,,,,A1PS8FTSVOJ4PB
1162,77,,1.0,57.0,badlands_70.jpg,,,,A1PS8FTSVOJ4PB
1163,78,,1.0,58.0,highway_359.jpg,,,,A1PS8FTSVOJ4PB
1164,79,,1.0,59.0,highway_209.jpg,,,,A1PS8FTSVOJ4PB
1165,80,,1.0,60.0,bridge_172.jpg,,,,A1PS8FTSVOJ4PB
1166,81,,1.0,61.0,mountain_293.jpg,,,,A1PS8FTSVOJ4PB
1167,82,,1.0,62.0,highway_273.jpg,,,,A1PS8FTSVOJ4PB
1168,83,,1.0,63.0,badlands_184.jpg,,,,A1PS8FTSVOJ4PB
1169,84,,1.0,64.0,badlands_221.jpg,,,,A1PS8FTSVOJ4PB
1170,20,,1.0,0.0,bridge_256.jpg,,,,A2IQ0QCTQ3KWLT
1171,21,,1.0,1.0,playground_144.jpg,,,,A2IQ0QCTQ3KWLT
1172,22,,1.0,2.0,highway_209.jpg,,,,A2IQ0QCTQ3KWLT
1173,23,,1.0,3.0,mountain_123.jpg,,,,A2IQ0QCTQ3KWLT
1174,24,,1.0,4.0,playground_257.jpg,,,,A2IQ0QCTQ3KWLT
1175,25,,1.0,5.0,highway_273.jpg,,,,A2IQ0QCTQ3KWLT
1176,26,,1.0,6.0,highway_156.jpg,,,,A2IQ0QCTQ3KWLT
1177,27,,1.0,7.0,mountain_230.jpg,,,,A2IQ0QCTQ3KWLT
1178,28,,1.0,8.0,highway_93.jpg,,,,A2IQ0QCTQ3KWLT
1179,29,,1.0,9.0,playground_219.jpg,,,,A2IQ0QCTQ3KWLT
1180,30,,1.0,10.0,golf_course_87.jpg,,,,A2IQ0QCTQ3KWLT
1181,31,,1.0,11.0,bridge_91.jpg,,,,A2IQ0QCTQ3KWLT
1182,32,,1.0,12.0,highway_177.jpg,,,,A2IQ0QCTQ3KWLT
1183,33,,1.0,13.0,golf_course_188.jpg,,,,A2IQ0QCTQ3KWLT
1184,34,right,1.0,14.0,right.jpg,right,0.5889,,A2IQ0QCTQ3KWLT
1185,35,,1.0,15.0,playground_117.jpg,,,,A2IQ0QCTQ3KWLT
1186,36,right,1.0,16.0,right.jpg,right,0.62,,A2IQ0QCTQ3KWLT
1187,37,,1.0,17.0,badlands_52.jpg,,,,A2IQ0QCTQ3KWLT
1188,38,,1.0,18.0,badlands_222.jpg,,,,A2IQ0QCTQ3KWLT
1189,39,,1.0,19.0,highway_359.jpg,,,,A2IQ0QCTQ3KWLT
1190,40,,1.0,20.0,golf_course_78.jpg,,,,A2IQ0QCTQ3KWLT
1191,41,,1.0,21.0,mountain_293.jpg,,,,A2IQ0QCTQ3KWLT
1192,42,,1.0,22.0,highway_294.jpg,,,,A2IQ0QCTQ3KWLT
1193,43,,1.0,23.0,mountain_156.jpg,,,,A2IQ0QCTQ3KWLT
1194,44,,1.0,24.0,highway_415.jpg,,,,A2IQ0QCTQ3KWLT
1195,45,,1.0,25.0,mountain_222.jpg,,,,A2IQ0QCTQ3KWLT
1196,46,,1.0,26.0,badlands_137.jpg,,,,A2IQ0QCTQ3KWLT
1197,47,,1.0,27.0,playground_240.jpg,,,,A2IQ0QCTQ3KWLT
1198,48,left,1.0,28.0,left.jpg,left,0.6047,,A2IQ0QCTQ3KWLT
1199,49,,1.0,29.0,mountain_154.jpg,,,,A2IQ0QCTQ3KWLT
1200,50,,1.0,30.0,bridge_146.jpg,,,,A2IQ0QCTQ3KWLT
1201,51,,1.0,31.0,playground_76.jpg,,,,A2IQ0QCTQ3KWLT
1202,52,,1.0,32.0,playground_60.jpg,,,,A2IQ0QCTQ3KWLT
1203,53,,1.0,33.0,golf_course_309.jpg,,,,A2IQ0QCTQ3KWLT
1204,54,,1.0,34.0,mountain_110.jpg,,,,A2IQ0QCTQ3KWLT
1205,55,,1.0,35.0,badlands_23.jpg,,,,A2IQ0QCTQ3KWLT
1206,56,,1.0,36.0,playground_10.jpg,,,,A2IQ0QCTQ3KWLT
1207,57,,1.0,37.0,highway_245.jpg,,,,A2IQ0QCTQ3KWLT
1208,58,right,1.0,38.0,right.jpg,right,1.1152,,A2IQ0QCTQ3KWLT
1209,59,,1.0,39.0,badlands_184.jpg,,,,A2IQ0QCTQ3KWLT
1210,60,,1.0,40.0,bridge_250.jpg,,,,A2IQ0QCTQ3KWLT
1211,61,,1.0,41.0,golf_course_217.jpg,,,,A2IQ0QCTQ3KWLT
1212,62,,1.0,42.0,bridge_108.jpg,,,,A2IQ0QCTQ3KWLT
1213,63,,1.0,43.0,badlands_21.jpg,,,,A2IQ0QCTQ3KWLT
1214,64,,1.0,44.0,bridge_65.jpg,,,,A2IQ0QCTQ3KWLT
1215,65,,1.0,45.0,bridge_202.jpg,,,,A2IQ0QCTQ3KWLT
1216,66,,1.0,46.0,golf_course_195.jpg,,,,A2IQ0QCTQ3KWLT
1217,67,,1.0,47.0,playground_145.jpg,,,,A2IQ0QCTQ3KWLT
1218,68,,1.0,48.0,golf_course_15.jpg,,,,A2IQ0QCTQ3KWLT
1219,69,,1.0,49.0,badlands_221.jpg,,,,A2IQ0QCTQ3KWLT
1220,70,right,1.0,50.0,right.jpg,right,0.5019,,A2IQ0QCTQ3KWLT
1221,71,,1.0,51.0,badlands_24.jpg,,,,A2IQ0QCTQ3KWLT
1222,72,,1.0,52.0,bridge_191.jpg,,,,A2IQ0QCTQ3KWLT
1223,73,,1.0,53.0,playground_131.jpg,,,,A2IQ0QCTQ3KWLT
1224,74,,1.0,54.0,bridge_128.jpg,,,,A2IQ0QCTQ3KWLT
1225,75,,1.0,55.0,mountain_232.jpg,,,,A2IQ0QCTQ3KWLT
1226,76,,1.0,56.0,golf_course_331.jpg,,,,A2IQ0QCTQ3KWLT
1227,77,,1.0,57.0,golf_course_193.jpg,,,,A2IQ0QCTQ3KWLT
1228,78,,1.0,58.0,bridge_172.jpg,,,,A2IQ0QCTQ3KWLT
1229,79,,1.0,59.0,badlands_70.jpg,,,,A2IQ0QCTQ3KWLT
1230,80,,1.0,60.0,badlands_113.jpg,,,,A2IQ0QCTQ3KWLT
1231,81,,1.0,61.0,mountain_57.jpg,,,,A2IQ0QCTQ3KWLT
1232,82,,1.0,62.0,mountain_101.jpg,,,,A2IQ0QCTQ3KWLT
1233,83,,1.0,63.0,highway_394.jpg,,,,A2IQ0QCTQ3KWLT
1234,84,,1.0,64.0,golf_course_214.jpg,,,,A2IQ0QCTQ3KWLT
1235,20,,1.0,0.0,playground_10.jpg,,,,A5P12YJP805RG
1236,21,,1.0,1.0,playground_144.jpg,,,,A5P12YJP805RG
1237,22,,1.0,2.0,bridge_202.jpg,,,,A5P12YJP805RG
1238,23,,1.0,3.0,bridge_91.jpg,,,,A5P12YJP805RG
1239,24,,1.0,4.0,golf_course_195.jpg,,,,A5P12YJP805RG
1240,25,,1.0,5.0,bridge_128.jpg,,,,A5P12YJP805RG
1241,26,,1.0,6.0,highway_273.jpg,,,,A5P12YJP805RG
1242,27,,1.0,7.0,playground_257.jpg,,,,A5P12YJP805RG
1243,28,,1.0,8.0,highway_359.jpg,,,,A5P12YJP805RG
1244,29,,1.0,9.0,golf_course_78.jpg,,,,A5P12YJP805RG
1245,30,,1.0,10.0,mountain_101.jpg,,,,A5P12YJP805RG
1246,31,,1.0,11.0,highway_415.jpg,,,,A5P12YJP805RG
1247,32,,1.0,12.0,playground_117.jpg,,,,A5P12YJP805RG
1248,33,left,1.0,13.0,left.jpg,left,0.6787,,A5P12YJP805RG
1249,34,,1.0,14.0,playground_240.jpg,,,,A5P12YJP805RG
1250,35,,1.0,15.0,badlands_23.jpg,,,,A5P12YJP805RG
1251,36,,1.0,16.0,highway_394.jpg,,,,A5P12YJP805RG
1252,37,,1.0,17.0,badlands_221.jpg,,,,A5P12YJP805RG
1253,38,,1.0,18.0,badlands_222.jpg,,,,A5P12YJP805RG
1254,39,,1.0,19.0,mountain_110.jpg,,,,A5P12YJP805RG
1255,40,,1.0,20.0,playground_60.jpg,,,,A5P12YJP805RG
1256,41,right,1.0,21.0,right.jpg,right,0.6202,,A5P12YJP805RG
1257,42,,1.0,22.0,golf_course_15.jpg,,,,A5P12YJP805RG
1258,43,,1.0,23.0,playground_131.jpg,,,,A5P12YJP805RG
1259,44,,1.0,24.0,golf_course_87.jpg,,,,A5P12YJP805RG
1260,45,,1.0,25.0,bridge_65.jpg,,,,A5P12YJP805RG
1261,46,,1.0,26.0,badlands_70.jpg,,,,A5P12YJP805RG
1262,47,,1.0,27.0,mountain_123.jpg,,,,A5P12YJP805RG
1263,48,,1.0,28.0,bridge_108.jpg,,,,A5P12YJP805RG
1264,49,,1.0,29.0,golf_course_309.jpg,,,,A5P12YJP805RG
1265,50,,1.0,30.0,mountain_57.jpg,,,,A5P12YJP805RG
1266,51,,1.0,31.0,badlands_21.jpg,,,,A5P12YJP805RG
1267,52,left,1.0,32.0,left.jpg,left,0.4732,,A5P12YJP805RG
1268,53,,1.0,33.0,mountain_293.jpg,,,,A5P12YJP805RG
1269,54,,1.0,34.0,bridge_146.jpg,,,,A5P12YJP805RG
1270,55,,1.0,35.0,golf_course_217.jpg,,,,A5P12YJP805RG
1271,56,,1.0,36.0,badlands_184.jpg,,,,A5P12YJP805RG
1272,57,,1.0,37.0,mountain_222.jpg,,,,A5P12YJP805RG
1273,58,,1.0,38.0,bridge_250.jpg,,,,A5P12YJP805RG
1274,59,,1.0,39.0,badlands_113.jpg,,,,A5P12YJP805RG
1275,60,,1.0,40.0,mountain_232.jpg,,,,A5P12YJP805RG
1276,61,,1.0,41.0,highway_177.jpg,,,,A5P12YJP805RG
1277,62,,1.0,42.0,highway_294.jpg,,,,A5P12YJP805RG
1278,63,right,1.0,43.0,right.jpg,right,0.6204,,A5P12YJP805RG
1279,64,,1.0,44.0,highway_156.jpg,,,,A5P12YJP805RG
1280,65,,1.0,45.0,golf_course_188.jpg,,,,A5P12YJP805RG
1281,66,,1.0,46.0,highway_209.jpg,,,,A5P12YJP805RG
1282,67,,1.0,47.0,mountain_154.jpg,,,,A5P12YJP805RG
1283,68,,1.0,48.0,mountain_230.jpg,,,,A5P12YJP805RG
1284,69,,1.0,49.0,golf_course_214.jpg,,,,A5P12YJP805RG
1285,70,,1.0,50.0,highway_245.jpg,,,,A5P12YJP805RG
1286,71,left,1.0,51.0,left.jpg,left,0.563,,A5P12YJP805RG
1287,72,,1.0,52.0,playground_145.jpg,,,,A5P12YJP805RG
1288,73,,1.0,53.0,playground_76.jpg,,,,A5P12YJP805RG
1289,74,,1.0,54.0,bridge_256.jpg,,,,A5P12YJP805RG
1290,75,,1.0,55.0,bridge_191.jpg,,,,A5P12YJP805RG
1291,76,,1.0,56.0,playground_219.jpg,,,,A5P12YJP805RG
1292,77,,1.0,57.0,mountain_156.jpg,,,,A5P12YJP805RG
1293,78,,1.0,58.0,golf_course_331.jpg,,,,A5P12YJP805RG
1294,79,,1.0,59.0,badlands_137.jpg,,,,A5P12YJP805RG
1295,80,,1.0,60.0,bridge_172.jpg,,,,A5P12YJP805RG
1296,81,,1.0,61.0,highway_93.jpg,,,,A5P12YJP805RG
1297,82,,1.0,62.0,badlands_52.jpg,,,,A5P12YJP805RG
1298,83,,1.0,63.0,golf_course_193.jpg,,,,A5P12YJP805RG
1299,84,,1.0,64.0,badlands_24.jpg,,,,A5P12YJP805RG
1300,20,,1.0,0.0,bridge_202.jpg,,,,A1R8Q9KXX4Q5T6
1301,21,,1.0,1.0,golf_course_193.jpg,,,,A1R8Q9KXX4Q5T6
1302,22,,1.0,2.0,bridge_108.jpg,,,,A1R8Q9KXX4Q5T6
1303,23,,1.0,3.0,bridge_191.jpg,,,,A1R8Q9KXX4Q5T6
1304,24,,1.0,4.0,badlands_24.jpg,,,,A1R8Q9KXX4Q5T6
1305,25,,1.0,5.0,playground_145.jpg,,,,A1R8Q9KXX4Q5T6
1306,26,,1.0,6.0,playground_240.jpg,,,,A1R8Q9KXX4Q5T6
1307,27,,1.0,7.0,mountain_232.jpg,,,,A1R8Q9KXX4Q5T6
1308,28,,1.0,8.0,badlands_23.jpg,,,,A1R8Q9KXX4Q5T6
1309,29,,1.0,9.0,highway_273.jpg,,,,A1R8Q9KXX4Q5T6
1310,30,,1.0,10.0,badlands_52.jpg,,,,A1R8Q9KXX4Q5T6
1311,31,,1.0,11.0,playground_131.jpg,,,,A1R8Q9KXX4Q5T6
1312,32,,1.0,12.0,golf_course_188.jpg,,,,A1R8Q9KXX4Q5T6
1313,33,,1.0,13.0,highway_394.jpg,,,,A1R8Q9KXX4Q5T6
1314,34,right,1.0,14.0,right.jpg,right,0.928,,A1R8Q9KXX4Q5T6
1315,35,,1.0,15.0,bridge_250.jpg,,,,A1R8Q9KXX4Q5T6
1316,36,,1.0,16.0,playground_10.jpg,,,,A1R8Q9KXX4Q5T6
1317,37,,1.0,17.0,mountain_154.jpg,,,,A1R8Q9KXX4Q5T6
1318,38,,1.0,18.0,mountain_156.jpg,,,,A1R8Q9KXX4Q5T6
1319,39,,1.0,19.0,highway_245.jpg,,,,A1R8Q9KXX4Q5T6
1320,40,,1.0,20.0,mountain_101.jpg,,,,A1R8Q9KXX4Q5T6
1321,41,,1.0,21.0,playground_219.jpg,,,,A1R8Q9KXX4Q5T6
1322,42,,1.0,22.0,playground_76.jpg,,,,A1R8Q9KXX4Q5T6
1323,43,,1.0,23.0,mountain_222.jpg,,,,A1R8Q9KXX4Q5T6
1324,44,left,1.0,24.0,left.jpg,left,0.958,,A1R8Q9KXX4Q5T6
1325,45,,1.0,25.0,highway_209.jpg,,,,A1R8Q9KXX4Q5T6
1326,46,,1.0,26.0,playground_144.jpg,,,,A1R8Q9KXX4Q5T6
1327,47,,1.0,27.0,playground_60.jpg,,,,A1R8Q9KXX4Q5T6
1328,48,,1.0,28.0,playground_117.jpg,,,,A1R8Q9KXX4Q5T6
1329,49,left,1.0,29.0,left.jpg,left,1.108,,A1R8Q9KXX4Q5T6
1330,50,,1.0,30.0,bridge_256.jpg,,,,A1R8Q9KXX4Q5T6
1331,51,,1.0,31.0,mountain_293.jpg,,,,A1R8Q9KXX4Q5T6
1332,52,,1.0,32.0,badlands_221.jpg,,,,A1R8Q9KXX4Q5T6
1333,53,,1.0,33.0,badlands_184.jpg,,,,A1R8Q9KXX4Q5T6
1334,54,,1.0,34.0,highway_294.jpg,,,,A1R8Q9KXX4Q5T6
1335,55,,1.0,35.0,bridge_65.jpg,,,,A1R8Q9KXX4Q5T6
1336,56,left,1.0,36.0,left.jpg,left,0.984,,A1R8Q9KXX4Q5T6
1337,57,,1.0,37.0,badlands_222.jpg,,,,A1R8Q9KXX4Q5T6
1338,58,,1.0,38.0,badlands_137.jpg,,,,A1R8Q9KXX4Q5T6
1339,59,,1.0,39.0,highway_415.jpg,,,,A1R8Q9KXX4Q5T6
1340,60,,1.0,40.0,golf_course_331.jpg,,,,A1R8Q9KXX4Q5T6
1341,61,,1.0,41.0,golf_course_15.jpg,,,,A1R8Q9KXX4Q5T6
1342,62,,1.0,42.0,bridge_128.jpg,,,,A1R8Q9KXX4Q5T6
1343,63,,1.0,43.0,highway_359.jpg,,,,A1R8Q9KXX4Q5T6
1344,64,,1.0,44.0,mountain_230.jpg,,,,A1R8Q9KXX4Q5T6
1345,65,,1.0,45.0,playground_257.jpg,,,,A1R8Q9KXX4Q5T6
1346,66,left,1.0,46.0,left.jpg,left,0.804,,A1R8Q9KXX4Q5T6
1347,67,,1.0,47.0,badlands_21.jpg,,,,A1R8Q9KXX4Q5T6
1348,68,,1.0,48.0,golf_course_195.jpg,,,,A1R8Q9KXX4Q5T6
1349,69,,1.0,49.0,bridge_91.jpg,,,,A1R8Q9KXX4Q5T6
1350,70,,1.0,50.0,highway_156.jpg,,,,A1R8Q9KXX4Q5T6
1351,71,,1.0,51.0,golf_course_217.jpg,,,,A1R8Q9KXX4Q5T6
1352,72,,1.0,52.0,badlands_70.jpg,,,,A1R8Q9KXX4Q5T6
1353,73,,1.0,53.0,bridge_172.jpg,,,,A1R8Q9KXX4Q5T6
1354,74,,1.0,54.0,golf_course_78.jpg,,,,A1R8Q9KXX4Q5T6
1355,75,,1.0,55.0,mountain_57.jpg,,,,A1R8Q9KXX4Q5T6
1356,76,,1.0,56.0,highway_177.jpg,,,,A1R8Q9KXX4Q5T6
1357,77,,1.0,57.0,badlands_113.jpg,,,,A1R8Q9KXX4Q5T6
1358,78,,1.0,58.0,highway_93.jpg,,,,A1R8Q9KXX4Q5T6
1359,79,,1.0,59.0,bridge_146.jpg,,,,A1R8Q9KXX4Q5T6
1360,80,,1.0,60.0,golf_course_87.jpg,,,,A1R8Q9KXX4Q5T6
1361,81,,1.0,61.0,mountain_110.jpg,,,,A1R8Q9KXX4Q5T6
1362,82,,1.0,62.0,golf_course_309.jpg,,,,A1R8Q9KXX4Q5T6
1363,83,,1.0,63.0,mountain_123.jpg,,,,A1R8Q9KXX4Q5T6
1364,84,,1.0,64.0,golf_course_214.jpg,,,,A1R8Q9KXX4Q5T6
1365,20,,1.0,0.0,badlands_70.jpg,,,,A2Z2WC3DJQ38RH
1366,21,,1.0,1.0,highway_394.jpg,,,,A2Z2WC3DJQ38RH
1367,22,,1.0,2.0,bridge_191.jpg,,,,A2Z2WC3DJQ38RH
1368,23,,1.0,3.0,bridge_250.jpg,,,,A2Z2WC3DJQ38RH
1369,24,,1.0,4.0,bridge_256.jpg,,,,A2Z2WC3DJQ38RH
1370,25,,1.0,5.0,bridge_146.jpg,,,,A2Z2WC3DJQ38RH
1371,26,right,1.0,6.0,right.jpg,right,0.755,,A2Z2WC3DJQ38RH
1372,27,,1.0,7.0,golf_course_87.jpg,,,,A2Z2WC3DJQ38RH
1373,28,,1.0,8.0,highway_177.jpg,,,,A2Z2WC3DJQ38RH
1374,29,,1.0,9.0,playground_144.jpg,,,,A2Z2WC3DJQ38RH
1375,30,,1.0,10.0,badlands_184.jpg,,,,A2Z2WC3DJQ38RH
1376,31,,1.0,11.0,highway_415.jpg,,,,A2Z2WC3DJQ38RH
1377,32,,1.0,12.0,playground_145.jpg,,,,A2Z2WC3DJQ38RH
1378,33,,1.0,13.0,badlands_52.jpg,,,,A2Z2WC3DJQ38RH
1379,34,,1.0,14.0,badlands_222.jpg,,,,A2Z2WC3DJQ38RH
1380,35,,1.0,15.0,highway_245.jpg,,,,A2Z2WC3DJQ38RH
1381,36,,1.0,16.0,mountain_110.jpg,,,,A2Z2WC3DJQ38RH
1382,37,,1.0,17.0,mountain_123.jpg,,,,A2Z2WC3DJQ38RH
1383,38,left,1.0,18.0,left.jpg,left,2.497,,A2Z2WC3DJQ38RH
1384,39,,1.0,19.0,mountain_57.jpg,,,,A2Z2WC3DJQ38RH
1385,40,,1.0,20.0,playground_60.jpg,,,,A2Z2WC3DJQ38RH
1386,41,,1.0,21.0,bridge_108.jpg,,,,A2Z2WC3DJQ38RH
1387,42,,1.0,22.0,mountain_101.jpg,,,,A2Z2WC3DJQ38RH
1388,43,,1.0,23.0,highway_359.jpg,,,,A2Z2WC3DJQ38RH
1389,44,,1.0,24.0,golf_course_15.jpg,,,,A2Z2WC3DJQ38RH
1390,45,,1.0,25.0,mountain_230.jpg,,,,A2Z2WC3DJQ38RH
1391,46,,1.0,26.0,playground_257.jpg,,,,A2Z2WC3DJQ38RH
1392,47,left,1.0,27.0,left.jpg,left,1.139,,A2Z2WC3DJQ38RH
1393,48,,1.0,28.0,playground_240.jpg,,,,A2Z2WC3DJQ38RH
1394,49,,1.0,29.0,playground_76.jpg,,,,A2Z2WC3DJQ38RH
1395,50,,1.0,30.0,badlands_113.jpg,,,,A2Z2WC3DJQ38RH
1396,51,,1.0,31.0,highway_156.jpg,,,,A2Z2WC3DJQ38RH
1397,52,,1.0,32.0,badlands_24.jpg,,,,A2Z2WC3DJQ38RH
1398,53,,1.0,33.0,bridge_172.jpg,,,,A2Z2WC3DJQ38RH
1399,54,,1.0,34.0,playground_117.jpg,,,,A2Z2WC3DJQ38RH
1400,55,,1.0,35.0,bridge_91.jpg,,,,A2Z2WC3DJQ38RH
1401,56,,1.0,36.0,golf_course_331.jpg,,,,A2Z2WC3DJQ38RH
1402,57,,1.0,37.0,bridge_202.jpg,,,,A2Z2WC3DJQ38RH
1403,58,,1.0,38.0,mountain_156.jpg,,,,A2Z2WC3DJQ38RH
1404,59,,1.0,39.0,bridge_65.jpg,,,,A2Z2WC3DJQ38RH
1405,60,,1.0,40.0,playground_131.jpg,,,,A2Z2WC3DJQ38RH
1406,61,left,1.0,41.0,left.jpg,left,2.127,,A2Z2WC3DJQ38RH
1407,62,,1.0,42.0,highway_209.jpg,,,,A2Z2WC3DJQ38RH
1408,63,,1.0,43.0,mountain_232.jpg,,,,A2Z2WC3DJQ38RH
1409,64,,1.0,44.0,golf_course_188.jpg,,,,A2Z2WC3DJQ38RH
1410,65,,1.0,45.0,badlands_221.jpg,,,,A2Z2WC3DJQ38RH
1411,66,,1.0,46.0,badlands_23.jpg,,,,A2Z2WC3DJQ38RH
1412,67,,1.0,47.0,badlands_137.jpg,,,,A2Z2WC3DJQ38RH
1413,68,,1.0,48.0,mountain_154.jpg,,,,A2Z2WC3DJQ38RH
1414,69,,1.0,49.0,highway_273.jpg,,,,A2Z2WC3DJQ38RH
1415,70,,1.0,50.0,mountain_222.jpg,,,,A2Z2WC3DJQ38RH
1416,71,,1.0,51.0,highway_93.jpg,,,,A2Z2WC3DJQ38RH
1417,72,,1.0,52.0,badlands_21.jpg,,,,A2Z2WC3DJQ38RH
1418,73,left,1.0,53.0,left.jpg,left,1.536,,A2Z2WC3DJQ38RH
1419,74,,1.0,54.0,golf_course_217.jpg,,,,A2Z2WC3DJQ38RH
1420,75,,1.0,55.0,golf_course_193.jpg,,,,A2Z2WC3DJQ38RH
1421,76,,1.0,56.0,golf_course_309.jpg,,,,A2Z2WC3DJQ38RH
1422,77,,1.0,57.0,bridge_128.jpg,,,,A2Z2WC3DJQ38RH
1423,78,,1.0,58.0,mountain_293.jpg,,,,A2Z2WC3DJQ38RH
1424,79,,1.0,59.0,playground_10.jpg,,,,A2Z2WC3DJQ38RH
1425,80,,1.0,60.0,golf_course_78.jpg,,,,A2Z2WC3DJQ38RH
1426,81,,1.0,61.0,golf_course_195.jpg,,,,A2Z2WC3DJQ38RH
1427,82,,1.0,62.0,golf_course_214.jpg,,,,A2Z2WC3DJQ38RH
1428,83,,1.0,63.0,playground_219.jpg,,,,A2Z2WC3DJQ38RH
1429,84,,1.0,64.0,highway_294.jpg,,,,A2Z2WC3DJQ38RH
1430,20,,1.0,0.0,playground_117.jpg,,,,A3UA50A6GKNAMR
1431,21,,1.0,1.0,golf_course_15.jpg,,,,A3UA50A6GKNAMR
1432,22,,1.0,2.0,highway_156.jpg,,,,A3UA50A6GKNAMR
1433,23,,1.0,3.0,badlands_21.jpg,,,,A3UA50A6GKNAMR
1434,24,,1.0,4.0,mountain_156.jpg,,,,A3UA50A6GKNAMR
1435,25,,1.0,5.0,playground_131.jpg,,,,A3UA50A6GKNAMR
1436,26,,0.0,6.0,left.jpg,left,,,A3UA50A6GKNAMR
1437,27,,1.0,7.0,mountain_222.jpg,,,,A3UA50A6GKNAMR
1438,28,,1.0,8.0,badlands_70.jpg,,,,A3UA50A6GKNAMR
1439,29,,1.0,9.0,playground_219.jpg,,,,A3UA50A6GKNAMR
1440,30,,1.0,10.0,mountain_230.jpg,,,,A3UA50A6GKNAMR
1441,31,,1.0,11.0,mountain_123.jpg,,,,A3UA50A6GKNAMR
1442,32,,1.0,12.0,bridge_91.jpg,,,,A3UA50A6GKNAMR
1443,33,,1.0,13.0,bridge_108.jpg,,,,A3UA50A6GKNAMR
1444,34,,1.0,14.0,bridge_256.jpg,,,,A3UA50A6GKNAMR
1445,35,,1.0,15.0,highway_294.jpg,,,,A3UA50A6GKNAMR
1446,36,,1.0,16.0,golf_course_309.jpg,,,,A3UA50A6GKNAMR
1447,37,left,1.0,17.0,left.jpg,left,1.113,,A3UA50A6GKNAMR
1448,38,,1.0,18.0,highway_394.jpg,,,,A3UA50A6GKNAMR
1449,39,,1.0,19.0,golf_course_188.jpg,,,,A3UA50A6GKNAMR
1450,40,,1.0,20.0,golf_course_214.jpg,,,,A3UA50A6GKNAMR
1451,41,,1.0,21.0,golf_course_217.jpg,,,,A3UA50A6GKNAMR
1452,42,,1.0,22.0,mountain_232.jpg,,,,A3UA50A6GKNAMR
1453,43,,1.0,23.0,bridge_191.jpg,,,,A3UA50A6GKNAMR
1454,44,,1.0,24.0,mountain_57.jpg,,,,A3UA50A6GKNAMR
1455,45,,1.0,25.0,playground_145.jpg,,,,A3UA50A6GKNAMR
1456,46,,1.0,26.0,badlands_184.jpg,,,,A3UA50A6GKNAMR
1457,47,,1.0,27.0,badlands_222.jpg,,,,A3UA50A6GKNAMR
1458,48,,1.0,28.0,badlands_24.jpg,,,,A3UA50A6GKNAMR
1459,49,,1.0,29.0,playground_60.jpg,,,,A3UA50A6GKNAMR
1460,50,,1.0,30.0,bridge_250.jpg,,,,A3UA50A6GKNAMR
1461,51,,1.0,31.0,bridge_172.jpg,,,,A3UA50A6GKNAMR
1462,52,left,1.0,32.0,left.jpg,left,1.97,,A3UA50A6GKNAMR
1463,53,,1.0,33.0,highway_359.jpg,,,,A3UA50A6GKNAMR
1464,54,,1.0,34.0,golf_course_195.jpg,,,,A3UA50A6GKNAMR
1465,55,,1.0,35.0,mountain_154.jpg,,,,A3UA50A6GKNAMR
1466,56,,1.0,36.0,golf_course_193.jpg,,,,A3UA50A6GKNAMR
1467,57,right,1.0,37.0,right.jpg,right,1.738,,A3UA50A6GKNAMR
1468,58,,1.0,38.0,playground_257.jpg,,,,A3UA50A6GKNAMR
1469,59,,1.0,39.0,mountain_110.jpg,,,,A3UA50A6GKNAMR
1470,60,,1.0,40.0,playground_10.jpg,,,,A3UA50A6GKNAMR
1471,61,,1.0,41.0,golf_course_87.jpg,,,,A3UA50A6GKNAMR
1472,62,,1.0,42.0,highway_273.jpg,,,,A3UA50A6GKNAMR
1473,63,,1.0,43.0,mountain_293.jpg,,,,A3UA50A6GKNAMR
1474,64,,1.0,44.0,golf_course_78.jpg,,,,A3UA50A6GKNAMR
1475,65,,1.0,45.0,badlands_221.jpg,,,,A3UA50A6GKNAMR
1476,66,right,1.0,46.0,right.jpg,right,0.743,,A3UA50A6GKNAMR
1477,67,,1.0,47.0,highway_177.jpg,,,,A3UA50A6GKNAMR
1478,68,,1.0,48.0,badlands_113.jpg,,,,A3UA50A6GKNAMR
1479,69,,1.0,49.0,highway_93.jpg,,,,A3UA50A6GKNAMR
1480,70,,1.0,50.0,badlands_137.jpg,,,,A3UA50A6GKNAMR
1481,71,,1.0,51.0,playground_240.jpg,,,,A3UA50A6GKNAMR
1482,72,,1.0,52.0,bridge_202.jpg,,,,A3UA50A6GKNAMR
1483,73,,1.0,53.0,playground_144.jpg,,,,A3UA50A6GKNAMR
1484,74,,1.0,54.0,mountain_101.jpg,,,,A3UA50A6GKNAMR
1485,75,,1.0,55.0,bridge_65.jpg,,,,A3UA50A6GKNAMR
1486,76,,1.0,56.0,highway_415.jpg,,,,A3UA50A6GKNAMR
1487,77,,1.0,57.0,playground_76.jpg,,,,A3UA50A6GKNAMR
1488,78,,1.0,58.0,bridge_146.jpg,,,,A3UA50A6GKNAMR
1489,79,,1.0,59.0,highway_209.jpg,,,,A3UA50A6GKNAMR
1490,80,,1.0,60.0,badlands_23.jpg,,,,A3UA50A6GKNAMR
1491,81,,1.0,61.0,golf_course_331.jpg,,,,A3UA50A6GKNAMR
1492,82,,1.0,62.0,badlands_52.jpg,,,,A3UA50A6GKNAMR
1493,83,,1.0,63.0,highway_245.jpg,,,,A3UA50A6GKNAMR
1494,84,,1.0,64.0,bridge_128.jpg,,,,A3UA50A6GKNAMR
1495,20,,1.0,0.0,playground_257.jpg,,,,A3HQXCWOIQKT4F
1496,21,,1.0,1.0,highway_156.jpg,,,,A3HQXCWOIQKT4F
1497,22,,1.0,2.0,golf_course_87.jpg,,,,A3HQXCWOIQKT4F
1498,23,,1.0,3.0,badlands_24.jpg,,,,A3HQXCWOIQKT4F
1499,24,,1.0,4.0,badlands_137.jpg,,,,A3HQXCWOIQKT4F
1500,25,,1.0,5.0,mountain_156.jpg,,,,A3HQXCWOIQKT4F
1501,26,,1.0,6.0,highway_394.jpg,,,,A3HQXCWOIQKT4F
1502,27,,1.0,7.0,golf_course_331.jpg,,,,A3HQXCWOIQKT4F
1503,28,right,1.0,8.0,right.jpg,right,0.5639,,A3HQXCWOIQKT4F
1504,29,,1.0,9.0,mountain_222.jpg,,,,A3HQXCWOIQKT4F
1505,30,,1.0,10.0,playground_219.jpg,,,,A3HQXCWOIQKT4F
1506,31,,1.0,11.0,playground_131.jpg,,,,A3HQXCWOIQKT4F
1507,32,,1.0,12.0,bridge_172.jpg,,,,A3HQXCWOIQKT4F
1508,33,,1.0,13.0,mountain_154.jpg,,,,A3HQXCWOIQKT4F
1509,34,,1.0,14.0,bridge_202.jpg,,,,A3HQXCWOIQKT4F
1510,35,,1.0,15.0,bridge_108.jpg,,,,A3HQXCWOIQKT4F
1511,36,left,1.0,16.0,left.jpg,left,0.4948,,A3HQXCWOIQKT4F
1512,37,,1.0,17.0,highway_93.jpg,,,,A3HQXCWOIQKT4F
1513,38,,1.0,18.0,mountain_232.jpg,,,,A3HQXCWOIQKT4F
1514,39,,1.0,19.0,badlands_113.jpg,,,,A3HQXCWOIQKT4F
1515,40,,1.0,20.0,highway_415.jpg,,,,A3HQXCWOIQKT4F
1516,41,,1.0,21.0,bridge_128.jpg,,,,A3HQXCWOIQKT4F
1517,42,,1.0,22.0,badlands_21.jpg,,,,A3HQXCWOIQKT4F
1518,43,,1.0,23.0,badlands_23.jpg,,,,A3HQXCWOIQKT4F
1519,44,,1.0,24.0,mountain_101.jpg,,,,A3HQXCWOIQKT4F
1520,45,,1.0,25.0,highway_245.jpg,,,,A3HQXCWOIQKT4F
1521,46,,1.0,26.0,badlands_184.jpg,,,,A3HQXCWOIQKT4F
1522,47,,1.0,27.0,golf_course_15.jpg,,,,A3HQXCWOIQKT4F
1523,48,,1.0,28.0,golf_course_214.jpg,,,,A3HQXCWOIQKT4F
1524,49,,1.0,29.0,playground_240.jpg,,,,A3HQXCWOIQKT4F
1525,50,,1.0,30.0,badlands_70.jpg,,,,A3HQXCWOIQKT4F
1526,51,,1.0,31.0,playground_145.jpg,,,,A3HQXCWOIQKT4F
1527,52,,1.0,32.0,badlands_52.jpg,,,,A3HQXCWOIQKT4F
1528,53,left,1.0,33.0,left.jpg,left,0.4848,,A3HQXCWOIQKT4F
1529,54,,1.0,34.0,highway_209.jpg,,,,A3HQXCWOIQKT4F
1530,55,,1.0,35.0,playground_76.jpg,,,,A3HQXCWOIQKT4F
1531,56,,1.0,36.0,playground_117.jpg,,,,A3HQXCWOIQKT4F
1532,57,,1.0,37.0,golf_course_193.jpg,,,,A3HQXCWOIQKT4F
1533,58,,1.0,38.0,golf_course_78.jpg,,,,A3HQXCWOIQKT4F
1534,59,right,1.0,39.0,right.jpg,right,1.6947,,A3HQXCWOIQKT4F
1535,60,,1.0,40.0,bridge_91.jpg,,,,A3HQXCWOIQKT4F
1536,61,,1.0,41.0,bridge_191.jpg,,,,A3HQXCWOIQKT4F
1537,62,,1.0,42.0,golf_course_188.jpg,,,,A3HQXCWOIQKT4F
1538,63,,1.0,43.0,golf_course_217.jpg,,,,A3HQXCWOIQKT4F
1539,64,,1.0,44.0,mountain_57.jpg,,,,A3HQXCWOIQKT4F
1540,65,,1.0,45.0,bridge_256.jpg,,,,A3HQXCWOIQKT4F
1541,66,,1.0,46.0,badlands_222.jpg,,,,A3HQXCWOIQKT4F
1542,67,,1.0,47.0,badlands_221.jpg,,,,A3HQXCWOIQKT4F
1543,68,right,1.0,48.0,right.jpg,right,0.7193,,A3HQXCWOIQKT4F
1544,69,,1.0,49.0,highway_273.jpg,,,,A3HQXCWOIQKT4F
1545,70,,1.0,50.0,highway_177.jpg,,,,A3HQXCWOIQKT4F
1546,71,,1.0,51.0,mountain_230.jpg,,,,A3HQXCWOIQKT4F
1547,72,,1.0,52.0,playground_60.jpg,,,,A3HQXCWOIQKT4F
1548,73,,1.0,53.0,golf_course_195.jpg,,,,A3HQXCWOIQKT4F
1549,74,,1.0,54.0,highway_294.jpg,,,,A3HQXCWOIQKT4F
1550,75,,1.0,55.0,mountain_110.jpg,,,,A3HQXCWOIQKT4F
1551,76,,1.0,56.0,bridge_250.jpg,,,,A3HQXCWOIQKT4F
1552,77,,1.0,57.0,mountain_293.jpg,,,,A3HQXCWOIQKT4F
1553,78,,1.0,58.0,bridge_65.jpg,,,,A3HQXCWOIQKT4F
1554,79,,1.0,59.0,golf_course_309.jpg,,,,A3HQXCWOIQKT4F
1555,80,,1.0,60.0,highway_359.jpg,,,,A3HQXCWOIQKT4F
1556,81,,1.0,61.0,playground_144.jpg,,,,A3HQXCWOIQKT4F
1557,82,,1.0,62.0,mountain_123.jpg,,,,A3HQXCWOIQKT4F
1558,83,,1.0,63.0,playground_10.jpg,,,,A3HQXCWOIQKT4F
1559,84,,1.0,64.0,bridge_146.jpg,,,,A3HQXCWOIQKT4F
1560,20,,1.0,0.0,playground_60.jpg,,,,AFET5KYTUA4TY
1561,21,,1.0,1.0,playground_240.jpg,,,,AFET5KYTUA4TY
1562,22,,1.0,2.0,mountain_123.jpg,,,,AFET5KYTUA4TY
1563,23,,1.0,3.0,highway_359.jpg,,,,AFET5KYTUA4TY
1564,24,,1.0,4.0,bridge_256.jpg,,,,AFET5KYTUA4TY
1565,25,,1.0,5.0,playground_257.jpg,,,,AFET5KYTUA4TY
1566,26,,1.0,6.0,badlands_21.jpg,,,,AFET5KYTUA4TY
1567,27,left,1.0,7.0,left.jpg,left,1.075,,AFET5KYTUA4TY
1568,28,,1.0,8.0,mountain_57.jpg,,,,AFET5KYTUA4TY
1569,29,,1.0,9.0,highway_177.jpg,,,,AFET5KYTUA4TY
1570,30,,1.0,10.0,golf_course_214.jpg,,,,AFET5KYTUA4TY
1571,31,,1.0,11.0,highway_294.jpg,,,,AFET5KYTUA4TY
1572,32,,1.0,12.0,badlands_221.jpg,,,,AFET5KYTUA4TY
1573,33,,1.0,13.0,highway_209.jpg,,,,AFET5KYTUA4TY
1574,34,,1.0,14.0,mountain_232.jpg,,,,AFET5KYTUA4TY
1575,35,,1.0,15.0,bridge_250.jpg,,,,AFET5KYTUA4TY
1576,36,left,1.0,16.0,left.jpg,left,0.9246,,AFET5KYTUA4TY
1577,37,,1.0,17.0,mountain_156.jpg,,,,AFET5KYTUA4TY
1578,38,,1.0,18.0,playground_131.jpg,,,,AFET5KYTUA4TY
1579,39,,1.0,19.0,bridge_191.jpg,,,,AFET5KYTUA4TY
1580,40,,1.0,20.0,playground_219.jpg,,,,AFET5KYTUA4TY
1581,41,,1.0,21.0,golf_course_217.jpg,,,,AFET5KYTUA4TY
1582,42,,1.0,22.0,bridge_108.jpg,,,,AFET5KYTUA4TY
1583,43,,1.0,23.0,golf_course_309.jpg,,,,AFET5KYTUA4TY
1584,44,,1.0,24.0,playground_144.jpg,,,,AFET5KYTUA4TY
1585,45,,1.0,25.0,highway_273.jpg,,,,AFET5KYTUA4TY
1586,46,,1.0,26.0,highway_156.jpg,,,,AFET5KYTUA4TY
1587,47,,1.0,27.0,golf_course_193.jpg,,,,AFET5KYTUA4TY
1588,48,,1.0,28.0,highway_394.jpg,,,,AFET5KYTUA4TY
1589,49,,1.0,29.0,playground_76.jpg,,,,AFET5KYTUA4TY
1590,50,,1.0,30.0,bridge_128.jpg,,,,AFET5KYTUA4TY
1591,51,,1.0,31.0,golf_course_78.jpg,,,,AFET5KYTUA4TY
1592,52,right,1.0,32.0,right.jpg,right,1.0985,,AFET5KYTUA4TY
1593,53,,1.0,33.0,mountain_230.jpg,,,,AFET5KYTUA4TY
1594,54,,1.0,34.0,mountain_110.jpg,,,,AFET5KYTUA4TY
1595,55,,1.0,35.0,playground_10.jpg,,,,AFET5KYTUA4TY
1596,56,left,1.0,36.0,left.jpg,left,0.9475,,AFET5KYTUA4TY
1597,57,,1.0,37.0,badlands_70.jpg,,,,AFET5KYTUA4TY
1598,58,,1.0,38.0,golf_course_331.jpg,,,,AFET5KYTUA4TY
1599,59,,1.0,39.0,bridge_172.jpg,,,,AFET5KYTUA4TY
1600,60,,1.0,40.0,badlands_113.jpg,,,,AFET5KYTUA4TY
1601,61,,1.0,41.0,bridge_146.jpg,,,,AFET5KYTUA4TY
1602,62,,1.0,42.0,badlands_222.jpg,,,,AFET5KYTUA4TY
1603,63,,1.0,43.0,badlands_184.jpg,,,,AFET5KYTUA4TY
1604,64,,1.0,44.0,mountain_222.jpg,,,,AFET5KYTUA4TY
1605,65,,1.0,45.0,badlands_24.jpg,,,,AFET5KYTUA4TY
1606,66,,1.0,46.0,bridge_202.jpg,,,,AFET5KYTUA4TY
1607,67,,1.0,47.0,highway_415.jpg,,,,AFET5KYTUA4TY
1608,68,,1.0,48.0,mountain_154.jpg,,,,AFET5KYTUA4TY
1609,69,,1.0,49.0,playground_145.jpg,,,,AFET5KYTUA4TY
1610,70,left,1.0,50.0,left.jpg,left,1.0878,,AFET5KYTUA4TY
1611,71,,1.0,51.0,golf_course_188.jpg,,,,AFET5KYTUA4TY
1612,72,,1.0,52.0,highway_93.jpg,,,,AFET5KYTUA4TY
1613,73,,1.0,53.0,playground_117.jpg,,,,AFET5KYTUA4TY
1614,74,,1.0,54.0,golf_course_87.jpg,,,,AFET5KYTUA4TY
1615,75,,1.0,55.0,highway_245.jpg,,,,AFET5KYTUA4TY
1616,76,,1.0,56.0,badlands_52.jpg,,,,AFET5KYTUA4TY
1617,77,,1.0,57.0,bridge_91.jpg,,,,AFET5KYTUA4TY
1618,78,,1.0,58.0,mountain_101.jpg,,,,AFET5KYTUA4TY
1619,79,,1.0,59.0,golf_course_15.jpg,,,,AFET5KYTUA4TY
1620,80,,1.0,60.0,bridge_65.jpg,,,,AFET5KYTUA4TY
1621,81,,1.0,61.0,golf_course_195.jpg,,,,AFET5KYTUA4TY
1622,82,,1.0,62.0,badlands_23.jpg,,,,AFET5KYTUA4TY
1623,83,,1.0,63.0,mountain_293.jpg,,,,AFET5KYTUA4TY
1624,84,,1.0,64.0,badlands_137.jpg,,,,AFET5KYTUA4TY
1625,20,,1.0,0.0,badlands_221.jpg,,,,A1XJCKXP143Y94
1626,21,,1.0,1.0,badlands_52.jpg,,,,A1XJCKXP143Y94
1627,22,,1.0,2.0,bridge_128.jpg,,,,A1XJCKXP143Y94
1628,23,,1.0,3.0,golf_course_331.jpg,,,,A1XJCKXP143Y94
1629,24,,1.0,4.0,mountain_57.jpg,,,,A1XJCKXP143Y94
1630,25,,1.0,5.0,playground_240.jpg,,,,A1XJCKXP143Y94
1631,26,,1.0,6.0,mountain_156.jpg,,,,A1XJCKXP143Y94
1632,27,right,1.0,7.0,right.jpg,right,1.1503,,A1XJCKXP143Y94
1633,28,,1.0,8.0,mountain_232.jpg,,,,A1XJCKXP143Y94
1634,29,,1.0,9.0,playground_144.jpg,,,,A1XJCKXP143Y94
1635,30,,1.0,10.0,highway_394.jpg,,,,A1XJCKXP143Y94
1636,31,,1.0,11.0,highway_177.jpg,,,,A1XJCKXP143Y94
1637,32,,1.0,12.0,playground_76.jpg,,,,A1XJCKXP143Y94
1638,33,,1.0,13.0,playground_145.jpg,,,,A1XJCKXP143Y94
1639,34,,1.0,14.0,bridge_202.jpg,,,,A1XJCKXP143Y94
1640,35,,1.0,15.0,highway_245.jpg,,,,A1XJCKXP143Y94
1641,36,,1.0,16.0,playground_10.jpg,,,,A1XJCKXP143Y94
1642,37,left,1.0,17.0,left.jpg,left,0.609,,A1XJCKXP143Y94
1643,38,,1.0,18.0,highway_93.jpg,,,,A1XJCKXP143Y94
1644,39,,1.0,19.0,playground_117.jpg,,,,A1XJCKXP143Y94
1645,40,,1.0,20.0,golf_course_87.jpg,,,,A1XJCKXP143Y94
1646,41,,1.0,21.0,bridge_108.jpg,,,,A1XJCKXP143Y94
1647,42,,1.0,22.0,bridge_191.jpg,,,,A1XJCKXP143Y94
1648,43,,1.0,23.0,golf_course_195.jpg,,,,A1XJCKXP143Y94
1649,44,,1.0,24.0,golf_course_188.jpg,,,,A1XJCKXP143Y94
1650,45,,1.0,25.0,badlands_70.jpg,,,,A1XJCKXP143Y94
1651,46,,1.0,26.0,highway_294.jpg,,,,A1XJCKXP143Y94
1652,47,,1.0,27.0,bridge_65.jpg,,,,A1XJCKXP143Y94
1653,48,,1.0,28.0,badlands_137.jpg,,,,A1XJCKXP143Y94
1654,49,,1.0,29.0,playground_257.jpg,,,,A1XJCKXP143Y94
1655,50,right,0.0,30.0,left.jpg,left,0.4316,,A1XJCKXP143Y94
1656,51,,1.0,31.0,mountain_110.jpg,,,,A1XJCKXP143Y94
1657,52,,1.0,32.0,golf_course_217.jpg,,,,A1XJCKXP143Y94
1658,53,,1.0,33.0,bridge_250.jpg,,,,A1XJCKXP143Y94
1659,54,,1.0,34.0,highway_273.jpg,,,,A1XJCKXP143Y94
1660,55,,1.0,35.0,badlands_184.jpg,,,,A1XJCKXP143Y94
1661,56,,1.0,36.0,mountain_222.jpg,,,,A1XJCKXP143Y94
1662,57,,1.0,37.0,bridge_91.jpg,,,,A1XJCKXP143Y94
1663,58,,1.0,38.0,badlands_21.jpg,,,,A1XJCKXP143Y94
1664,59,,1.0,39.0,highway_415.jpg,,,,A1XJCKXP143Y94
1665,60,,1.0,40.0,highway_359.jpg,,,,A1XJCKXP143Y94
1666,61,,1.0,41.0,golf_course_15.jpg,,,,A1XJCKXP143Y94
1667,62,,1.0,42.0,golf_course_193.jpg,,,,A1XJCKXP143Y94
1668,63,left,1.0,43.0,left.jpg,left,0.6138,,A1XJCKXP143Y94
1669,64,,1.0,44.0,highway_209.jpg,,,,A1XJCKXP143Y94
1670,65,,1.0,45.0,golf_course_78.jpg,,,,A1XJCKXP143Y94
1671,66,,1.0,46.0,badlands_222.jpg,,,,A1XJCKXP143Y94
1672,67,,1.0,47.0,mountain_101.jpg,,,,A1XJCKXP143Y94
1673,68,,1.0,48.0,bridge_146.jpg,,,,A1XJCKXP143Y94
1674,69,,1.0,49.0,bridge_256.jpg,,,,A1XJCKXP143Y94
1675,70,,1.0,50.0,mountain_154.jpg,,,,A1XJCKXP143Y94
1676,71,,1.0,51.0,badlands_23.jpg,,,,A1XJCKXP143Y94
1677,72,right,1.0,52.0,right.jpg,right,1.0503,,A1XJCKXP143Y94
1678,73,,1.0,53.0,playground_60.jpg,,,,A1XJCKXP143Y94
1679,74,,1.0,54.0,badlands_24.jpg,,,,A1XJCKXP143Y94
1680,75,,1.0,55.0,badlands_113.jpg,,,,A1XJCKXP143Y94
1681,76,,1.0,56.0,mountain_293.jpg,,,,A1XJCKXP143Y94
1682,77,,1.0,57.0,golf_course_214.jpg,,,,A1XJCKXP143Y94
1683,78,,1.0,58.0,playground_131.jpg,,,,A1XJCKXP143Y94
1684,79,,1.0,59.0,mountain_123.jpg,,,,A1XJCKXP143Y94
1685,80,,1.0,60.0,golf_course_309.jpg,,,,A1XJCKXP143Y94
1686,81,,1.0,61.0,highway_156.jpg,,,,A1XJCKXP143Y94
1687,82,,1.0,62.0,playground_219.jpg,,,,A1XJCKXP143Y94
1688,83,,1.0,63.0,bridge_172.jpg,,,,A1XJCKXP143Y94
1689,84,,1.0,64.0,mountain_230.jpg,,,,A1XJCKXP143Y94
1690,20,,1.0,0.0,badlands_184.jpg,,,,A2U44IH2MUK32A
1691,21,,1.0,1.0,badlands_23.jpg,,,,A2U44IH2MUK32A
1692,22,,1.0,2.0,bridge_191.jpg,,,,A2U44IH2MUK32A
1693,23,,1.0,3.0,badlands_113.jpg,,,,A2U44IH2MUK32A
1694,24,,1.0,4.0,mountain_156.jpg,,,,A2U44IH2MUK32A
1695,25,,1.0,5.0,mountain_222.jpg,,,,A2U44IH2MUK32A
1696,26,,1.0,6.0,bridge_146.jpg,,,,A2U44IH2MUK32A
1697,27,,1.0,7.0,playground_60.jpg,,,,A2U44IH2MUK32A
1698,28,,1.0,8.0,mountain_57.jpg,,,,A2U44IH2MUK32A
1699,29,,1.0,9.0,highway_394.jpg,,,,A2U44IH2MUK32A
1700,30,,1.0,10.0,bridge_65.jpg,,,,A2U44IH2MUK32A
1701,31,,1.0,11.0,playground_145.jpg,,,,A2U44IH2MUK32A
1702,32,right,1.0,12.0,right.jpg,right,1.2992,,A2U44IH2MUK32A
1703,33,,1.0,13.0,badlands_137.jpg,,,,A2U44IH2MUK32A
1704,34,,1.0,14.0,bridge_256.jpg,,,,A2U44IH2MUK32A
1705,35,,1.0,15.0,playground_76.jpg,,,,A2U44IH2MUK32A
1706,36,,1.0,16.0,golf_course_188.jpg,,,,A2U44IH2MUK32A
1707,37,,1.0,17.0,mountain_154.jpg,,,,A2U44IH2MUK32A
1708,38,right,1.0,18.0,right.jpg,right,1.148,,A2U44IH2MUK32A
1709,39,,1.0,19.0,bridge_91.jpg,,,,A2U44IH2MUK32A
1710,40,,1.0,20.0,playground_219.jpg,,,,A2U44IH2MUK32A
1711,41,,1.0,21.0,playground_117.jpg,,,,A2U44IH2MUK32A
1712,42,,1.0,22.0,mountain_123.jpg,,,,A2U44IH2MUK32A
1713,43,,1.0,23.0,golf_course_217.jpg,,,,A2U44IH2MUK32A
1714,44,,1.0,24.0,golf_course_15.jpg,,,,A2U44IH2MUK32A
1715,45,,1.0,25.0,mountain_101.jpg,,,,A2U44IH2MUK32A
1716,46,,1.0,26.0,highway_359.jpg,,,,A2U44IH2MUK32A
1717,47,,1.0,27.0,golf_course_87.jpg,,,,A2U44IH2MUK32A
1718,48,,1.0,28.0,playground_240.jpg,,,,A2U44IH2MUK32A
1719,49,left,1.0,29.0,left.jpg,left,1.5771,,A2U44IH2MUK32A
1720,50,,1.0,30.0,playground_144.jpg,,,,A2U44IH2MUK32A
1721,51,,1.0,31.0,badlands_21.jpg,,,,A2U44IH2MUK32A
1722,52,,1.0,32.0,bridge_250.jpg,,,,A2U44IH2MUK32A
1723,53,,1.0,33.0,playground_257.jpg,,,,A2U44IH2MUK32A
1724,54,,1.0,34.0,highway_245.jpg,,,,A2U44IH2MUK32A
1725,55,,1.0,35.0,bridge_202.jpg,,,,A2U44IH2MUK32A
1726,56,,1.0,36.0,golf_course_214.jpg,,,,A2U44IH2MUK32A
1727,57,,1.0,37.0,badlands_24.jpg,,,,A2U44IH2MUK32A
1728,58,,1.0,38.0,mountain_230.jpg,,,,A2U44IH2MUK32A
1729,59,,1.0,39.0,playground_10.jpg,,,,A2U44IH2MUK32A
1730,60,,1.0,40.0,golf_course_193.jpg,,,,A2U44IH2MUK32A
1731,61,,1.0,41.0,mountain_293.jpg,,,,A2U44IH2MUK32A
1732,62,,1.0,42.0,golf_course_78.jpg,,,,A2U44IH2MUK32A
1733,63,,1.0,43.0,bridge_172.jpg,,,,A2U44IH2MUK32A
1734,64,right,1.0,44.0,right.jpg,right,1.169,,A2U44IH2MUK32A
1735,65,,1.0,45.0,highway_209.jpg,,,,A2U44IH2MUK32A
1736,66,,1.0,46.0,bridge_108.jpg,,,,A2U44IH2MUK32A
1737,67,,1.0,47.0,highway_273.jpg,,,,A2U44IH2MUK32A
1738,68,,1.0,48.0,badlands_52.jpg,,,,A2U44IH2MUK32A
1739,69,,1.0,49.0,badlands_221.jpg,,,,A2U44IH2MUK32A
1740,70,,1.0,50.0,golf_course_309.jpg,,,,A2U44IH2MUK32A
1741,71,,1.0,51.0,badlands_222.jpg,,,,A2U44IH2MUK32A
1742,72,,1.0,52.0,highway_156.jpg,,,,A2U44IH2MUK32A
1743,73,,1.0,53.0,highway_415.jpg,,,,A2U44IH2MUK32A
1744,74,left,1.0,54.0,left.jpg,left,1.1414,,A2U44IH2MUK32A
1745,75,,1.0,55.0,mountain_232.jpg,,,,A2U44IH2MUK32A
1746,76,,1.0,56.0,highway_177.jpg,,,,A2U44IH2MUK32A
1747,77,,1.0,57.0,playground_131.jpg,,,,A2U44IH2MUK32A
1748,78,,1.0,58.0,mountain_110.jpg,,,,A2U44IH2MUK32A
1749,79,,1.0,59.0,badlands_70.jpg,,,,A2U44IH2MUK32A
1750,80,,1.0,60.0,highway_93.jpg,,,,A2U44IH2MUK32A
1751,81,,1.0,61.0,bridge_128.jpg,,,,A2U44IH2MUK32A
1752,82,,1.0,62.0,highway_294.jpg,,,,A2U44IH2MUK32A
1753,83,,1.0,63.0,golf_course_195.jpg,,,,A2U44IH2MUK32A
1754,84,,1.0,64.0,golf_course_331.jpg,,,,A2U44IH2MUK32A
1755,20,,1.0,0.0,playground_257.jpg,,,,A38T8YVJKFPMW5
1756,21,,1.0,1.0,highway_156.jpg,,,,A38T8YVJKFPMW5
1757,22,,1.0,2.0,golf_course_87.jpg,,,,A38T8YVJKFPMW5
1758,23,,1.0,3.0,badlands_24.jpg,,,,A38T8YVJKFPMW5
1759,24,,1.0,4.0,badlands_137.jpg,,,,A38T8YVJKFPMW5
1760,25,,1.0,5.0,mountain_156.jpg,,,,A38T8YVJKFPMW5
1761,26,,1.0,6.0,highway_394.jpg,,,,A38T8YVJKFPMW5
1762,27,,1.0,7.0,golf_course_331.jpg,,,,A38T8YVJKFPMW5
1763,28,right,1.0,8.0,right.jpg,right,1.5029,,A38T8YVJKFPMW5
1764,29,,1.0,9.0,mountain_222.jpg,,,,A38T8YVJKFPMW5
1765,30,,1.0,10.0,playground_219.jpg,,,,A38T8YVJKFPMW5
1766,31,,1.0,11.0,playground_131.jpg,,,,A38T8YVJKFPMW5
1767,32,,1.0,12.0,bridge_172.jpg,,,,A38T8YVJKFPMW5
1768,33,,1.0,13.0,mountain_154.jpg,,,,A38T8YVJKFPMW5
1769,34,,1.0,14.0,bridge_202.jpg,,,,A38T8YVJKFPMW5
1770,35,,1.0,15.0,bridge_108.jpg,,,,A38T8YVJKFPMW5
1771,36,left,1.0,16.0,left.jpg,left,1.1241,,A38T8YVJKFPMW5
1772,37,,1.0,17.0,highway_93.jpg,,,,A38T8YVJKFPMW5
1773,38,,1.0,18.0,mountain_232.jpg,,,,A38T8YVJKFPMW5
1774,39,,1.0,19.0,badlands_113.jpg,,,,A38T8YVJKFPMW5
1775,40,,1.0,20.0,highway_415.jpg,,,,A38T8YVJKFPMW5
1776,41,,1.0,21.0,bridge_128.jpg,,,,A38T8YVJKFPMW5
1777,42,,1.0,22.0,badlands_21.jpg,,,,A38T8YVJKFPMW5
1778,43,,1.0,23.0,badlands_23.jpg,,,,A38T8YVJKFPMW5
1779,44,,1.0,24.0,mountain_101.jpg,,,,A38T8YVJKFPMW5
1780,45,,1.0,25.0,highway_245.jpg,,,,A38T8YVJKFPMW5
1781,46,,1.0,26.0,badlands_184.jpg,,,,A38T8YVJKFPMW5
1782,47,,1.0,27.0,golf_course_15.jpg,,,,A38T8YVJKFPMW5
1783,48,,1.0,28.0,golf_course_214.jpg,,,,A38T8YVJKFPMW5
1784,49,,1.0,29.0,playground_240.jpg,,,,A38T8YVJKFPMW5
1785,50,,1.0,30.0,badlands_70.jpg,,,,A38T8YVJKFPMW5
1786,51,,1.0,31.0,playground_145.jpg,,,,A38T8YVJKFPMW5
1787,52,,1.0,32.0,badlands_52.jpg,,,,A38T8YVJKFPMW5
1788,53,left,1.0,33.0,left.jpg,left,1.0808,,A38T8YVJKFPMW5
1789,54,,1.0,34.0,highway_209.jpg,,,,A38T8YVJKFPMW5
1790,55,,1.0,35.0,playground_76.jpg,,,,A38T8YVJKFPMW5
1791,56,,1.0,36.0,playground_117.jpg,,,,A38T8YVJKFPMW5
1792,57,,1.0,37.0,golf_course_193.jpg,,,,A38T8YVJKFPMW5
1793,58,,1.0,38.0,golf_course_78.jpg,,,,A38T8YVJKFPMW5
1794,59,right,1.0,39.0,right.jpg,right,1.1127,,A38T8YVJKFPMW5
1795,60,,1.0,40.0,bridge_91.jpg,,,,A38T8YVJKFPMW5
1796,61,,1.0,41.0,bridge_191.jpg,,,,A38T8YVJKFPMW5
1797,62,,1.0,42.0,golf_course_188.jpg,,,,A38T8YVJKFPMW5
1798,63,,1.0,43.0,golf_course_217.jpg,,,,A38T8YVJKFPMW5
1799,64,,1.0,44.0,mountain_57.jpg,,,,A38T8YVJKFPMW5
1800,65,,1.0,45.0,bridge_256.jpg,,,,A38T8YVJKFPMW5
1801,66,,1.0,46.0,badlands_222.jpg,,,,A38T8YVJKFPMW5
1802,67,,1.0,47.0,badlands_221.jpg,,,,A38T8YVJKFPMW5
1803,68,right,1.0,48.0,right.jpg,right,1.0922,,A38T8YVJKFPMW5
1804,69,,1.0,49.0,highway_273.jpg,,,,A38T8YVJKFPMW5
1805,70,,1.0,50.0,highway_177.jpg,,,,A38T8YVJKFPMW5
1806,71,,1.0,51.0,mountain_230.jpg,,,,A38T8YVJKFPMW5
1807,72,,1.0,52.0,playground_60.jpg,,,,A38T8YVJKFPMW5
1808,73,,1.0,53.0,golf_course_195.jpg,,,,A38T8YVJKFPMW5
1809,74,,1.0,54.0,highway_294.jpg,,,,A38T8YVJKFPMW5
1810,75,,1.0,55.0,mountain_110.jpg,,,,A38T8YVJKFPMW5
1811,76,,1.0,56.0,bridge_250.jpg,,,,A38T8YVJKFPMW5
1812,77,,1.0,57.0,mountain_293.jpg,,,,A38T8YVJKFPMW5
1813,78,,1.0,58.0,bridge_65.jpg,,,,A38T8YVJKFPMW5
1814,79,,1.0,59.0,golf_course_309.jpg,,,,A38T8YVJKFPMW5
1815,80,,1.0,60.0,highway_359.jpg,,,,A38T8YVJKFPMW5
1816,81,,1.0,61.0,playground_144.jpg,,,,A38T8YVJKFPMW5
1817,82,,1.0,62.0,mountain_123.jpg,,,,A38T8YVJKFPMW5
1818,83,,1.0,63.0,playground_10.jpg,,,,A38T8YVJKFPMW5
1819,84,,1.0,64.0,bridge_146.jpg,,,,A38T8YVJKFPMW5
1820,20,,1.0,0.0,badlands_222.jpg,,,,AEK2SAEL9GG39
1821,21,,1.0,1.0,playground_60.jpg,,,,AEK2SAEL9GG39
1822,22,,1.0,2.0,badlands_52.jpg,,,,AEK2SAEL9GG39
1823,23,,1.0,3.0,bridge_128.jpg,,,,AEK2SAEL9GG39
1824,24,,1.0,4.0,playground_145.jpg,,,,AEK2SAEL9GG39
1825,25,,1.0,5.0,badlands_184.jpg,,,,AEK2SAEL9GG39
1826,26,,1.0,6.0,highway_156.jpg,,,,AEK2SAEL9GG39
1827,27,left,1.0,7.0,left.jpg,left,0.8375,,AEK2SAEL9GG39
1828,28,,1.0,8.0,highway_394.jpg,,,,AEK2SAEL9GG39
1829,29,,1.0,9.0,mountain_110.jpg,,,,AEK2SAEL9GG39
1830,30,,1.0,10.0,mountain_222.jpg,,,,AEK2SAEL9GG39
1831,31,,1.0,11.0,badlands_221.jpg,,,,AEK2SAEL9GG39
1832,32,,1.0,12.0,bridge_191.jpg,,,,AEK2SAEL9GG39
1833,33,,1.0,13.0,mountain_232.jpg,,,,AEK2SAEL9GG39
1834,34,,1.0,14.0,bridge_146.jpg,,,,AEK2SAEL9GG39
1835,35,,1.0,15.0,bridge_202.jpg,,,,AEK2SAEL9GG39
1836,36,,1.0,16.0,highway_415.jpg,,,,AEK2SAEL9GG39
1837,37,,1.0,17.0,badlands_113.jpg,,,,AEK2SAEL9GG39
1838,38,,1.0,18.0,golf_course_15.jpg,,,,AEK2SAEL9GG39
1839,39,,1.0,19.0,highway_93.jpg,,,,AEK2SAEL9GG39
1840,40,left,1.0,20.0,left.jpg,left,0.6355,,AEK2SAEL9GG39
1841,41,,1.0,21.0,bridge_91.jpg,,,,AEK2SAEL9GG39
1842,42,,1.0,22.0,mountain_156.jpg,,,,AEK2SAEL9GG39
1843,43,,1.0,23.0,playground_144.jpg,,,,AEK2SAEL9GG39
1844,44,,1.0,24.0,playground_219.jpg,,,,AEK2SAEL9GG39
1845,45,,1.0,25.0,playground_117.jpg,,,,AEK2SAEL9GG39
1846,46,,1.0,26.0,badlands_137.jpg,,,,AEK2SAEL9GG39
1847,47,,1.0,27.0,playground_10.jpg,,,,AEK2SAEL9GG39
1848,48,,1.0,28.0,golf_course_309.jpg,,,,AEK2SAEL9GG39
1849,49,,1.0,29.0,highway_209.jpg,,,,AEK2SAEL9GG39
1850,50,,1.0,30.0,bridge_250.jpg,,,,AEK2SAEL9GG39
1851,51,,1.0,31.0,bridge_108.jpg,,,,AEK2SAEL9GG39
1852,52,left,1.0,32.0,left.jpg,left,0.6082,,AEK2SAEL9GG39
1853,53,,1.0,33.0,playground_76.jpg,,,,AEK2SAEL9GG39
1854,54,,1.0,34.0,badlands_23.jpg,,,,AEK2SAEL9GG39
1855,55,,1.0,35.0,playground_240.jpg,,,,AEK2SAEL9GG39
1856,56,,1.0,36.0,highway_245.jpg,,,,AEK2SAEL9GG39
1857,57,,1.0,37.0,bridge_256.jpg,,,,AEK2SAEL9GG39
1858,58,right,1.0,38.0,right.jpg,right,0.635,,AEK2SAEL9GG39
1859,59,,1.0,39.0,golf_course_87.jpg,,,,AEK2SAEL9GG39
1860,60,,1.0,40.0,golf_course_195.jpg,,,,AEK2SAEL9GG39
1861,61,,1.0,41.0,golf_course_214.jpg,,,,AEK2SAEL9GG39
1862,62,,1.0,42.0,mountain_123.jpg,,,,AEK2SAEL9GG39
1863,63,,1.0,43.0,mountain_230.jpg,,,,AEK2SAEL9GG39
1864,64,,1.0,44.0,playground_131.jpg,,,,AEK2SAEL9GG39
1865,65,,1.0,45.0,badlands_21.jpg,,,,AEK2SAEL9GG39
1866,66,,1.0,46.0,mountain_293.jpg,,,,AEK2SAEL9GG39
1867,67,,1.0,47.0,badlands_70.jpg,,,,AEK2SAEL9GG39
1868,68,,1.0,48.0,mountain_57.jpg,,,,AEK2SAEL9GG39
1869,69,,1.0,49.0,highway_177.jpg,,,,AEK2SAEL9GG39
1870,70,,1.0,50.0,highway_359.jpg,,,,AEK2SAEL9GG39
1871,71,,1.0,51.0,badlands_24.jpg,,,,AEK2SAEL9GG39
1872,72,,1.0,52.0,golf_course_78.jpg,,,,AEK2SAEL9GG39
1873,73,,1.0,53.0,highway_294.jpg,,,,AEK2SAEL9GG39
1874,74,right,1.0,54.0,right.jpg,right,0.8069,,AEK2SAEL9GG39
1875,75,,1.0,55.0,golf_course_331.jpg,,,,AEK2SAEL9GG39
1876,76,,1.0,56.0,highway_273.jpg,,,,AEK2SAEL9GG39
1877,77,,1.0,57.0,playground_257.jpg,,,,AEK2SAEL9GG39
1878,78,,1.0,58.0,golf_course_193.jpg,,,,AEK2SAEL9GG39
1879,79,,1.0,59.0,bridge_65.jpg,,,,AEK2SAEL9GG39
1880,80,,1.0,60.0,golf_course_217.jpg,,,,AEK2SAEL9GG39
1881,81,,1.0,61.0,mountain_154.jpg,,,,AEK2SAEL9GG39
1882,82,,1.0,62.0,golf_course_188.jpg,,,,AEK2SAEL9GG39
1883,83,,1.0,63.0,bridge_172.jpg,,,,AEK2SAEL9GG39
1884,84,,1.0,64.0,mountain_101.jpg,,,,AEK2SAEL9GG39
1885,20,,1.0,0.0,highway_156.jpg,,,,A1TQ9ULE5R842V
1886,21,,1.0,1.0,mountain_156.jpg,,,,A1TQ9ULE5R842V
1887,22,,1.0,2.0,badlands_52.jpg,,,,A1TQ9ULE5R842V
1888,23,,1.0,3.0,badlands_21.jpg,,,,A1TQ9ULE5R842V
1889,24,,1.0,4.0,highway_294.jpg,,,,A1TQ9ULE5R842V
1890,25,,1.0,5.0,golf_course_214.jpg,,,,A1TQ9ULE5R842V
1891,26,,1.0,6.0,playground_145.jpg,,,,A1TQ9ULE5R842V
1892,27,,1.0,7.0,golf_course_78.jpg,,,,A1TQ9ULE5R842V
1893,28,right,1.0,8.0,right.jpg,right,1.2816,,A1TQ9ULE5R842V
1894,29,,1.0,9.0,badlands_137.jpg,,,,A1TQ9ULE5R842V
1895,30,,1.0,10.0,highway_93.jpg,,,,A1TQ9ULE5R842V
1896,31,,1.0,11.0,badlands_70.jpg,,,,A1TQ9ULE5R842V
1897,32,,1.0,12.0,mountain_222.jpg,,,,A1TQ9ULE5R842V
