button.numClicks,button.timesOn,button.timesOff,workID,Age,Gender,Hours slept (last night),date,expName,psychopyVersion,OS,frameRate,space_key_responce.keys,space_key_responce.rt,demo_encoding_response.keys,demo_encoding_response.corr,demo_encoding_loop.thisRepN,demo_encoding_loop.thisTrialN,demo_encoding_loop.thisN,demo_encoding_loop.thisIndex,demo_encoding_loop.ran,DemoImage,DemoCorrect,demo_encoding_response.rt,demo_test_response.keys,demo_test_response.corr,demo_test_response.rt,demo_test_loop.thisRepN,demo_test_loop.thisTrialN,demo_test_loop.thisN,demo_test_loop.thisIndex,demo_test_loop.ran,DemoImage1,DemoImage2,DemoCorrectTest,test_encoding_response.keys,test_encoding_response.corr,trials.thisRepN,trials.thisTrialN,trials.thisN,trials.thisIndex,trials.ran,target_image,pair,layer,correct,test_encoding_response.rt,key_resp_end.keys,key_resp_end.rt,key_resp_end_2.keys,key_resp_end_2.rt
1,[5.492399999976101],[5.49249999999995],A3D9PJ37U7LCHE,36,female,7,2022-12-13_12h11.25.599,memory_pilot_most_recent,2022.2.4,Win32,10.75557946,,,,,,,,,,,,,,,,,,,,,,,,,,,,,,,,,,,,,,,
,,,A3D9PJ37U7LCHE,36,female,7,2022-12-13_12h11.25.599,memory_pilot_most_recent,2022.2.4,Win32,10.75557946,,,,,,,,,,,,,,,,,,,,,,,,,,,,,,,,,,,,,,,
,,,A3D9PJ37U7LCHE,36,female,7,2022-12-13_12h11.25.599,memory_pilot_most_recent,2022.2.4,Win32,10.75557946,space,1.7469,,,,,,,,,,,,,,,,,,,,,,,,,,,,,,,,,,,,,
,,,A3D9PJ37U7LCHE,36,female,7,2022-12-13_12h11.25.599,memory_pilot_most_recent,2022.2.4,Win32,10.75557946,,,,,,,,,,,,,,,,,,,,,,,,,,,,,,,,,,,,,,,
,,,A3D9PJ37U7LCHE,36,female,7,2022-12-13_12h11.25.599,memory_pilot_most_recent,2022.2.4,Win32,10.75557946,,,,1,0,0,0,0,1,flower1.jpg,,,,,,,,,,,,,,,,,,,,,,,,,,,,,
,,,A3D9PJ37U7LCHE,36,female,7,2022-12-13_12h11.25.599,memory_pilot_most_recent,2022.2.4,Win32,10.75557946,,,,1,0,1,1,1,1,flower2.jpg,,,,,,,,,,,,,,,,,,,,,,,,,,,,,
,,,A3D9PJ37U7LCHE,36,female,7,2022-12-13_12h11.25.599,memory_pilot_most_recent,2022.2.4,Win32,10.75557946,,,left,1,0,2,2,2,1,left.jpg,left,1.2916,,,,,,,,,,,,,,,,,,,,,,,,,,,
,,,A3D9PJ37U7LCHE,36,female,7,2022-12-13_12h11.25.599,memory_pilot_most_recent,2022.2.4,Win32,10.75557946,,,,1,0,3,3,3,1,flower3.jpg,,,,,,,,,,,,,,,,,,,,,,,,,,,,,
,,,A3D9PJ37U7LCHE,36,female,7,2022-12-13_12h11.25.599,memory_pilot_most_recent,2022.2.4,Win32,10.75557946,,,,1,0,4,4,4,1,flower4.jpg,,,,,,,,,,,,,,,,,,,,,,,,,,,,,
,,,A3D9PJ37U7LCHE,36,female,7,2022-12-13_12h11.25.599,memory_pilot_most_recent,2022.2.4,Win32,10.75557946,,,,1,0,5,5,5,1,flower5.jpg,,,,,,,,,,,,,,,,,,,,,,,,,,,,,
,,,A3D9PJ37U7LCHE,36,female,7,2022-12-13_12h11.25.599,memory_pilot_most_recent,2022.2.4,Win32,10.75557946,,,,1,0,6,6,6,1,flower6.jpg,,,,,,,,,,,,,,,,,,,,,,,,,,,,,
,,,A3D9PJ37U7LCHE,36,female,7,2022-12-13_12h11.25.599,memory_pilot_most_recent,2022.2.4,Win32,10.75557946,,,,,,,,,,,,,,,,,,,,,,,,,,,,,,,,,,,,,,,
,,,A3D9PJ37U7LCHE,36,female,7,2022-12-13_12h11.25.599,memory_pilot_most_recent,2022.2.4,Win32,10.75557946,,,,,,,,,,,,,left,1,1.1488,0,0,0,0,1,flower1.jpg,flower1_pair.jpg,left,,,,,,,,,,,,,,,,
,,,A3D9PJ37U7LCHE,36,female,7,2022-12-13_12h11.25.599,memory_pilot_most_recent,2022.2.4,Win32,10.75557946,,,,,,,,,,,,,left,0,0.8033,0,1,1,1,1,flower2_pair.jpg,flower2.jpg,right,,,,,,,,,,,,,,,,
,,,A3D9PJ37U7LCHE,36,female,7,2022-12-13_12h11.25.599,memory_pilot_most_recent,2022.2.4,Win32,10.75557946,,,,,,,,,,,,,left,1,0.7283,0,2,2,2,1,flower3.jpg,flower3_pair.jpg,left,,,,,,,,,,,,,,,,
,,,A3D9PJ37U7LCHE,36,female,7,2022-12-13_12h11.25.599,memory_pilot_most_recent,2022.2.4,Win32,10.75557946,,,,,,,,,,,,,right,0,0.6658,0,3,3,3,1,flower4.jpg,flower4_pair.jpg,left,,,,,,,,,,,,,,,,
,,,A3D9PJ37U7LCHE,36,female,7,2022-12-13_12h11.25.599,memory_pilot_most_recent,2022.2.4,Win32,10.75557946,,,,,,,,,,,,,left,0,0.581,0,4,4,4,1,flower5_pair.jpg,flower5.jpg,right,,,,,,,,,,,,,,,,
,,,A3D9PJ37U7LCHE,36,female,7,2022-12-13_12h11.25.599,memory_pilot_most_recent,2022.2.4,Win32,10.75557946,,,,,,,,,,,,,left,1,0.7924,0,5,5,5,1,flower6.jpg,flower6_pair.jpg,left,,,,,,,,,,,,,,,,
,,,A3D9PJ37U7LCHE,36,female,7,2022-12-13_12h11.25.599,memory_pilot_most_recent,2022.2.4,Win32,10.75557946,,,,,,,,,,,,,,,,,,,,,,,,,,,,,,,,,,,,,,,
,,,A3D9PJ37U7LCHE,36,female,7,2022-12-13_12h11.25.599,memory_pilot_most_recent,2022.2.4,Win32,10.75557946,space,1.8145,,,,,,,,,,,,,,,,,,,,,,,,,,,,,,,,,,,,,
,,,A3D9PJ37U7LCHE,36,female,7,2022-12-13_12h11.25.599,memory_pilot_most_recent,2022.2.4,Win32,10.75557946,,,,,,,,,,,,,,,,,,,,,,,,,1,0,0,0,0,1,2898632385-217138.jpg,2575120738-55529.jpg,1,,,,,,
,,,A3D9PJ37U7LCHE,36,female,7,2022-12-13_12h11.25.599,memory_pilot_most_recent,2022.2.4,Win32,10.75557946,,,,,,,,,,,,,,,,,,,,,,,,,1,0,1,1,1,1,2331570830-189984.jpg,2449442529-124445.jpg,2,,,,,,
,,,A3D9PJ37U7LCHE,36,female,7,2022-12-13_12h11.25.599,memory_pilot_most_recent,2022.2.4,Win32,10.75557946,,,,,,,,,,,,,,,,,,,,,,,,,1,0,2,2,2,1,2864906345-212360.jpg,2986397365-221133.jpg,1,,,,,,
,,,A3D9PJ37U7LCHE,36,female,7,2022-12-13_12h11.25.599,memory_pilot_most_recent,2022.2.4,Win32,10.75557946,,,,,,,,,,,,,,,,,,,,,,,,,1,0,3,3,3,1,2994405328-74628.jpg,2417206274-118542.jpg,1,,,,,,
,,,A3D9PJ37U7LCHE,36,female,7,2022-12-13_12h11.25.599,memory_pilot_most_recent,2022.2.4,Win32,10.75557946,,,,,,,,,,,,,,,,,,,,,,,,,1,0,4,4,4,1,2964218374-144968.jpg,2238411877-313125.jpg,1,,,,,,
,,,A3D9PJ37U7LCHE,36,female,7,2022-12-13_12h11.25.599,memory_pilot_most_recent,2022.2.4,Win32,10.75557946,,,,,,,,,,,,,,,,,,,,,,,,,1,0,5,5,5,1,2238575092-334269.jpg,2860304305-210777.jpg,2,,,,,,
,,,A3D9PJ37U7LCHE,36,female,7,2022-12-13_12h11.25.599,memory_pilot_most_recent,2022.2.4,Win32,10.75557946,,,,,,,,,,,,,,,,,,,,,,,,,1,0,6,6,6,1,2238550049-105691.jpg,2238482972-317759.jpg,1,,,,,,
,,,A3D9PJ37U7LCHE,36,female,7,2022-12-13_12h11.25.599,memory_pilot_most_recent,2022.2.4,Win32,10.75557946,,,,,,,,,,,,,,,,,,,,,,,,,1,0,7,7,7,1,2579432576-279079.jpg,2901934574-143126.jpg,1,,,,,,
,,,A3D9PJ37U7LCHE,36,female,7,2022-12-13_12h11.25.599,memory_pilot_most_recent,2022.2.4,Win32,10.75557946,,,,,,,,,,,,,,,,,,,,,,,,,1,0,8,8,8,1,2868485396-288511.jpg,2868470456-287597.jpg,1,,,,,,
,,,A3D9PJ37U7LCHE,36,female,7,2022-12-13_12h11.25.599,memory_pilot_most_recent,2022.2.4,Win32,10.75557946,,,,,,,,,,,,,,,,,,,,,,,,,1,0,9,9,9,1,2901938432-367627.jpg,2424122568-45517.jpg,3,,,,,,
,,,A3D9PJ37U7LCHE,36,female,7,2022-12-13_12h11.25.599,memory_pilot_most_recent,2022.2.4,Win32,10.75557946,,,,,,,,,,,,,,,,,,,,,,,,,1,0,10,10,10,1,2898624426-291546.jpg,2549106844-127878.jpg,2,,,,,,
,,,A3D9PJ37U7LCHE,36,female,7,2022-12-13_12h11.25.599,memory_pilot_most_recent,2022.2.4,Win32,10.75557946,,,,,,,,,,,,,,,,,,,,,,,,,1,0,11,11,11,1,2446760524-123999.jpg,2238539138-29878.jpg,3,,,,,,
,,,A3D9PJ37U7LCHE,36,female,7,2022-12-13_12h11.25.599,memory_pilot_most_recent,2022.2.4,Win32,10.75557946,,,,,,,,,,,,,,,,,,,,,,,,,1,0,12,12,12,1,2238471391-240918.jpg,2986399339-146857.jpg,3,,,,,,
,,,A3D9PJ37U7LCHE,36,female,7,2022-12-13_12h11.25.599,memory_pilot_most_recent,2022.2.4,Win32,10.75557946,,,,,,,,,,,,,,,,,,,,,,,,right,1,0,13,13,13,1,right.jpg,,,right,1.1287,,,,
,,,A3D9PJ37U7LCHE,36,female,7,2022-12-13_12h11.25.599,memory_pilot_most_recent,2022.2.4,Win32,10.75557946,,,,,,,,,,,,,,,,,,,,,,,,,1,0,14,14,14,1,2883255450-215309.jpg,2238429999-90216.jpg,1,,,,,,
,,,A3D9PJ37U7LCHE,36,female,7,2022-12-13_12h11.25.599,memory_pilot_most_recent,2022.2.4,Win32,10.75557946,,,,,,,,,,,,,,,,,,,,,,,,,1,0,15,15,15,1,2868475410-213219.jpg,2575964140-205051.jpg,2,,,,,,
,,,A3D9PJ37U7LCHE,36,female,7,2022-12-13_12h11.25.599,memory_pilot_most_recent,2022.2.4,Win32,10.75557946,,,,,,,,,,,,,,,,,,,,,,,,,1,0,16,16,16,1,2446759803-49249.jpg,2592380177-354629.jpg,1,,,,,,
,,,A3D9PJ37U7LCHE,36,female,7,2022-12-13_12h11.25.599,memory_pilot_most_recent,2022.2.4,Win32,10.75557946,,,,,,,,,,,,,,,,,,,,,,,,,1,0,17,17,17,1,2274829821-263682.jpg,2446758985-197610.jpg,2,,,,,,
,,,A3D9PJ37U7LCHE,36,female,7,2022-12-13_12h11.25.599,memory_pilot_most_recent,2022.2.4,Win32,10.75557946,,,,,,,,,,,,,,,,,,,,,,,,,1,0,18,18,18,1,2238561223-33794.jpg,2883271323-68049.jpg,3,,,,,,
,,,A3D9PJ37U7LCHE,36,female,7,2022-12-13_12h11.25.599,memory_pilot_most_recent,2022.2.4,Win32,10.75557946,,,,,,,,,,,,,,,,,,,,,,,,,1,0,19,19,19,1,2898617468-68274.jpg,2512875899-126682.jpg,1,,,,,,
,,,A3D9PJ37U7LCHE,36,female,7,2022-12-13_12h11.25.599,memory_pilot_most_recent,2022.2.4,Win32,10.75557946,,,,,,,,,,,,,,,,,,,,,,,,,1,0,20,20,20,1,2864909447-362146.jpg,2874303453-66056.jpg,3,,,,,,
,,,A3D9PJ37U7LCHE,36,female,7,2022-12-13_12h11.25.599,memory_pilot_most_recent,2022.2.4,Win32,10.75557946,,,,,,,,,,,,,,,,,,,,,,,,left,1,0,21,21,21,1,left.jpg,,,left,1.3182,,,,
,,,A3D9PJ37U7LCHE,36,female,7,2022-12-13_12h11.25.599,memory_pilot_most_recent,2022.2.4,Win32,10.75557946,,,,,,,,,,,,,,,,,,,,,,,,,1,0,22,22,22,1,2238480434-93829.jpg,2804906319-133082.jpg,1,,,,,,
,,,A3D9PJ37U7LCHE,36,female,7,2022-12-13_12h11.25.599,memory_pilot_most_recent,2022.2.4,Win32,10.75557946,,,,,,,,,,,,,,,,,,,,,,,,,1,0,23,23,23,1,2575964140-205050.jpg,2238547522-328488.jpg,2,,,,,,
,,,A3D9PJ37U7LCHE,36,female,7,2022-12-13_12h11.25.599,memory_pilot_most_recent,2022.2.4,Win32,10.75557946,,,,,,,,,,,,,,,,,,,,,,,,,1,0,24,24,24,1,2449442529-124446.jpg,2864911339-138231.jpg,3,,,,,,
,,,A3D9PJ37U7LCHE,36,female,7,2022-12-13_12h11.25.599,memory_pilot_most_recent,2022.2.4,Win32,10.75557946,,,,,,,,,,,,,,,,,,,,,,,,,1,0,25,25,25,1,2883254439-140940.jpg,2575121890-204630.jpg,2,,,,,,
,,,A3D9PJ37U7LCHE,36,female,7,2022-12-13_12h11.25.599,memory_pilot_most_recent,2022.2.4,Win32,10.75557946,,,,,,,,,,,,,,,,,,,,,,,,,1,0,26,26,26,1,2898626385-216899.jpg,2989715328-73658.jpg,1,,,,,,
,,,A3D9PJ37U7LCHE,36,female,7,2022-12-13_12h11.25.599,memory_pilot_most_recent,2022.2.4,Win32,10.75557946,,,,,,,,,,,,,,,,,,,,,,,,,1,0,27,27,27,1,2238516618-25604.jpg,2862686459-136888.jpg,2,,,,,,
,,,A3D9PJ37U7LCHE,36,female,7,2022-12-13_12h11.25.599,memory_pilot_most_recent,2022.2.4,Win32,10.75557946,,,,,,,,,,,,,,,,,,,,,,,,,1,0,28,28,28,1,2625337302-355866.jpg,2238478760-167789.jpg,2,,,,,,
,,,A3D9PJ37U7LCHE,36,female,7,2022-12-13_12h11.25.599,memory_pilot_most_recent,2022.2.4,Win32,10.75557946,,,,,,,,,,,,,,,,,,,,,,,,,1,0,29,29,29,1,2238584018-38513.jpg,2452381442-348755.jpg,3,,,,,,
,,,A3D9PJ37U7LCHE,36,female,7,2022-12-13_12h11.25.599,memory_pilot_most_recent,2022.2.4,Win32,10.75557946,,,,,,,,,,,,,,,,,,,,,,,,left,0,0,30,30,30,1,right.jpg,,,right,0.8937,,,,
,,,A3D9PJ37U7LCHE,36,female,7,2022-12-13_12h11.25.599,memory_pilot_most_recent,2022.2.4,Win32,10.75557946,,,,,,,,,,,,,,,,,,,,,,,,,1,0,31,31,31,1,2981231446-294731.jpg,2417207297-342139.jpg,3,,,,,,
,,,A3D9PJ37U7LCHE,36,female,7,2022-12-13_12h11.25.599,memory_pilot_most_recent,2022.2.4,Win32,10.75557946,,,,,,,,,,,,,,,,,,,,,,,,,1,0,32,32,32,1,2964216465-219242.jpg,2446760917-347439.jpg,3,,,,,,
,,,A3D9PJ37U7LCHE,36,female,7,2022-12-13_12h11.25.599,memory_pilot_most_recent,2022.2.4,Win32,10.75557946,,,,,,,,,,,,,,,,,,,,,,,,,1,0,33,33,33,1,2883254439-140941.jpg,2417207511-266975.jpg,3,,,,,,
,,,A3D9PJ37U7LCHE,36,female,7,2022-12-13_12h11.25.599,memory_pilot_most_recent,2022.2.4,Win32,10.75557946,,,,,,,,,,,,,,,,,,,,,,,,,1,0,34,34,34,1,2512876023-52283.jpg,2238576267-334532.jpg,3,,,,,,
,,,A3D9PJ37U7LCHE,36,female,7,2022-12-13_12h11.25.599,memory_pilot_most_recent,2022.2.4,Win32,10.75557946,,,,,,,,,,,,,,,,,,,,,,,,,1,0,35,35,35,1,2446760940-198145.jpg,2449443300-198739.jpg,1,,,,,,
,,,A3D9PJ37U7LCHE,36,female,7,2022-12-13_12h11.25.599,memory_pilot_most_recent,2022.2.4,Win32,10.75557946,,,,,,,,,,,,,,,,,,,,,,,,,1,0,36,36,36,1,2901934573-69337.jpg,2238345946-235007.jpg,2,,,,,,
,,,A3D9PJ37U7LCHE,36,female,7,2022-12-13_12h11.25.599,memory_pilot_most_recent,2022.2.4,Win32,10.75557946,,,,,,,,,,,,,,,,,,,,,,,,,1,0,37,37,37,1,2898632385-217137.jpg,2238480803-19739.jpg,2,,,,,,
,,,A3D9PJ37U7LCHE,36,female,7,2022-12-13_12h11.25.599,memory_pilot_most_recent,2022.2.4,Win32,10.75557946,,,,,,,,,,,,,,,,,,,,,,,,,1,0,38,38,38,1,2986408352-371293.jpg,2446759580-197801.jpg,2,,,,,,
,,,A3D9PJ37U7LCHE,36,female,7,2022-12-13_12h11.25.599,memory_pilot_most_recent,2022.2.4,Win32,10.75557946,,,,,,,,,,,,,,,,,,,,,,,,,1,0,39,39,39,1,2238429999-90218.jpg,2986448334-147157.jpg,1,,,,,,
,,,A3D9PJ37U7LCHE,36,female,7,2022-12-13_12h11.25.599,memory_pilot_most_recent,2022.2.4,Win32,10.75557946,,,,,,,,,,,,,,,,,,,,,,,,,1,0,40,40,40,1,2238584869-113153.jpg,2986455373-73646.jpg,3,,,,,,
,,,A3D9PJ37U7LCHE,36,female,7,2022-12-13_12h11.25.599,memory_pilot_most_recent,2022.2.4,Win32,10.75557946,,,,,,,,,,,,,,,,,,,,,,,,,1,0,41,41,41,1,2964213381-294061.jpg,2981234334-145491.jpg,2,,,,,,
,,,A3D9PJ37U7LCHE,36,female,7,2022-12-13_12h11.25.599,memory_pilot_most_recent,2022.2.4,Win32,10.75557946,,,,,,,,,,,,,,,,,,,,,,,,,1,0,42,42,42,1,2452380166-273109.jpg,2452380171-273112.jpg,1,,,,,,
,,,A3D9PJ37U7LCHE,36,female,7,2022-12-13_12h11.25.599,memory_pilot_most_recent,2022.2.4,Win32,10.75557946,,,,,,,,,,,,,,,,,,,,,,,,right,1,0,43,43,43,1,right.jpg,,,right,1.6174,,,,
,,,A3D9PJ37U7LCHE,36,female,7,2022-12-13_12h11.25.599,memory_pilot_most_recent,2022.2.4,Win32,10.75557946,,,,,,,,,,,,,,,,,,,,,,,,,1,0,44,44,44,1,2986400320-221190.jpg,2989727350-222011.jpg,1,,,,,,
,,,A3D9PJ37U7LCHE,36,female,7,2022-12-13_12h11.25.599,memory_pilot_most_recent,2022.2.4,Win32,10.75557946,,,,,,,,,,,,,,,,,,,,,,,,,1,0,45,45,45,1,2964224310-219527.jpg,2238490590-169598.jpg,3,,,,,,
,,,A3D9PJ37U7LCHE,36,female,7,2022-12-13_12h11.25.599,memory_pilot_most_recent,2022.2.4,Win32,10.75557946,,,,,,,,,,,,,,,,,,,,,,,,,1,0,46,46,46,1,2238126735-154721.jpg,2856919327-359676.jpg,1,,,,,,
,,,A3D9PJ37U7LCHE,36,female,7,2022-12-13_12h11.25.599,memory_pilot_most_recent,2022.2.4,Win32,10.75557946,,,,,,,,,,,,,,,,,,,,,,,,,1,0,47,47,47,1,2446758985-197609.jpg,2635396318-58409.jpg,2,,,,,,
,,,A3D9PJ37U7LCHE,36,female,7,2022-12-13_12h11.25.599,memory_pilot_most_recent,2022.2.4,Win32,10.75557946,,,,,,,,,,,,,,,,,,,,,,,,,1,0,48,48,48,1,2883272438-68133.jpg,2592380136-279476.jpg,3,,,,,,
,,,A3D9PJ37U7LCHE,36,female,7,2022-12-13_12h11.25.599,memory_pilot_most_recent,2022.2.4,Win32,10.75557946,,,,,,,,,,,,,,,,,,,,,,,,left,1,0,49,49,49,1,left.jpg,,,left,1.724,,,,
,,,A3D9PJ37U7LCHE,36,female,7,2022-12-13_12h11.25.599,memory_pilot_most_recent,2022.2.4,Win32,10.75557946,,,,,,,,,,,,,,,,,,,,,,,,,1,0,50,50,50,1,2898633480-217190.jpg,2237858043-1434.jpg,3,,,,,,
,,,A3D9PJ37U7LCHE,36,female,7,2022-12-13_12h11.25.599,memory_pilot_most_recent,2022.2.4,Win32,10.75557946,,,,,,,,,,,,,,,,,,,,,,,,,1,0,51,51,51,1,2964209380-218956.jpg,2868488456-288710.jpg,1,,,,,,
,,,A3D9PJ37U7LCHE,36,female,7,2022-12-13_12h11.25.599,memory_pilot_most_recent,2022.2.4,Win32,10.75557946,,,,,,,,,,,,,,,,,,,,,,,,,1,0,52,52,52,1,2238375302-311538.jpg,2592380049-131077.jpg,2,,,,,,
,,,A3D9PJ37U7LCHE,36,female,7,2022-12-13_12h11.25.599,memory_pilot_most_recent,2022.2.4,Win32,10.75557946,,,,,,,,,,,,,,,,,,,,,,,,,1,0,53,53,53,1,2238129579-80916.jpg,2238161924-82646.jpg,3,,,,,,
,,,A3D9PJ37U7LCHE,36,female,7,2022-12-13_12h11.25.599,memory_pilot_most_recent,2022.2.4,Win32,10.75557946,,,,,,,,,,,,,,,,,,,,,,,,,1,0,54,54,54,1,2901939379-143479.jpg,2986450334-147215.jpg,1,,,,,,
,,,A3D9PJ37U7LCHE,36,female,7,2022-12-13_12h11.25.599,memory_pilot_most_recent,2022.2.4,Win32,10.75557946,,,,,,,,,,,,,,,,,,,,,,,,,1,0,55,55,55,1,2238496457-319749.jpg,2460547467-349422.jpg,3,,,,,,
,,,A3D9PJ37U7LCHE,36,female,7,2022-12-13_12h11.25.599,memory_pilot_most_recent,2022.2.4,Win32,10.75557946,,,,,,,,,,,,,,,,,,,,,,,,,1,0,56,56,56,1,2901941426-292805.jpg,2238510189-98616.jpg,2,,,,,,
,,,A3D9PJ37U7LCHE,36,female,7,2022-12-13_12h11.25.599,memory_pilot_most_recent,2022.2.4,Win32,10.75557946,,,,,,,,,,,,,,,,,,,,,,,,,1,0,57,57,57,1,2964213381-294060.jpg,2898631359-142720.jpg,1,,,,,,
,,,A3D9PJ37U7LCHE,36,female,7,2022-12-13_12h11.25.599,memory_pilot_most_recent,2022.2.4,Win32,10.75557946,,,,,,,,,,,,,,,,,,,,,,,,,1,0,58,58,58,1,2592380138-56727.jpg,2238537701-251772.jpg,3,,,,,,
,,,A3D9PJ37U7LCHE,36,female,7,2022-12-13_12h11.25.599,memory_pilot_most_recent,2022.2.4,Win32,10.75557946,,,,,,,,,,,,,,,,,,,,,,,,,1,0,59,59,59,1,2238499155-170911.jpg,2238373603-13733.jpg,3,,,,,,
,,,A3D9PJ37U7LCHE,36,female,7,2022-12-13_12h11.25.599,memory_pilot_most_recent,2022.2.4,Win32,10.75557946,,,,,,,,,,,,,,,,,,,,,,,,,1,0,60,60,60,1,2238521193-26286.jpg,2874301437-363905.jpg,2,,,,,,
,,,A3D9PJ37U7LCHE,36,female,7,2022-12-13_12h11.25.599,memory_pilot_most_recent,2022.2.4,Win32,10.75557946,,,,,,,,,,,,,,,,,,,,,,,,,1,0,61,61,61,1,2862691449-137104.jpg,2986455341-296758.jpg,2,,,,,,
,,,A3D9PJ37U7LCHE,36,female,7,2022-12-13_12h11.25.599,memory_pilot_most_recent,2022.2.4,Win32,10.75557946,,,,,,,,,,,,,,,,,,,,,,,,,1,0,62,62,62,1,2898635427-367120.jpg,2237941457-301342.jpg,2,,,,,,
,,,A3D9PJ37U7LCHE,36,female,7,2022-12-13_12h11.25.599,memory_pilot_most_recent,2022.2.4,Win32,10.75557946,,,,,,,,,,,,,,,,,,,,,,,,,1,0,63,63,63,1,2460547467-349421.jpg,2238554179-106663.jpg,3,,,,,,
,,,A3D9PJ37U7LCHE,36,female,7,2022-12-13_12h11.25.599,memory_pilot_most_recent,2022.2.4,Win32,10.75557946,,,,,,,,,,,,,,,,,,,,,,,,,1,0,64,64,64,1,2883255450-215311.jpg,2868485399-139476.jpg,2,,,,,,
,,,A3D9PJ37U7LCHE,36,female,7,2022-12-13_12h11.25.599,memory_pilot_most_recent,2022.2.4,Win32,10.75557946,,,,,,,,,,,,,,,,,,,,,,,,,,,,,,,,,,,,space,1.7276,,
,,,A3D9PJ37U7LCHE,36,female,7,2022-12-13_12h11.25.599,memory_pilot_most_recent,2022.2.4,Win32,10.75557946,,,,,,,,,,,,,,,,,,,,,,,,,,,,,,,,,,,,,,,
,,,A3D9PJ37U7LCHE,36,female,7,2022-12-13_12h11.25.599,memory_pilot_most_recent,2022.2.4,Win32,10.75557946,,,,,,,,,,,,,,,,,,,,,,,,,,,,,,,,,,,,,,space,24.767
