,index,test_encoding_response.keys,test_encoding_response.corr,trials.thisTrialN,target_image,pair,layer,correct,test_encoding_response.rt,key_resp_end.keys,subject
0,20,,1.0,0.0,2901939379-143480.jpg,2981229442-369621.jpg,2.0,,,,AOQP9IL4MK3ZQ
1,21,,1.0,1.0,2964218374-144967.jpg,2883254439-140940.jpg,2.0,,,,AOQP9IL4MK3ZQ
2,22,,1.0,2.0,2964216465-219242.jpg,2898619327-366362.jpg,3.0,,,,AOQP9IL4MK3ZQ
3,23,,1.0,3.0,2452381505-199546.jpg,2238567168-34916.jpg,2.0,,,,AOQP9IL4MK3ZQ
4,24,,1.0,4.0,2449442529-124446.jpg,2460547536-274181.jpg,2.0,,,,AOQP9IL4MK3ZQ
5,25,,1.0,5.0,2238425482-313537.jpg,2238436322-314047.jpg,2.0,,,,AOQP9IL4MK3ZQ
6,26,,1.0,6.0,2874302418-65978.jpg,2238481198-19823.jpg,2.0,,,,AOQP9IL4MK3ZQ
7,27,,1.0,7.0,2901939379-143479.jpg,2446758985-197610.jpg,2.0,,,,AOQP9IL4MK3ZQ
8,28,,1.0,8.0,2901947423-70311.jpg,2238577590-185467.jpg,3.0,,,,AOQP9IL4MK3ZQ
9,29,left,1.0,9.0,left.jpg,,,left,1.7485,,AOQP9IL4MK3ZQ
10,30,,1.0,10.0,2238580740-186218.jpg,2238550816-254000.jpg,1.0,,,,AOQP9IL4MK3ZQ
11,31,,1.0,11.0,2452380832-348593.jpg,2449442181-272436.jpg,3.0,,,,AOQP9IL4MK3ZQ
12,32,,1.0,12.0,2238480677-317399.jpg,2238480278-19661.jpg,3.0,,,,AOQP9IL4MK3ZQ
13,33,,1.0,13.0,2874299429-139695.jpg,2446760917-347439.jpg,3.0,,,,AOQP9IL4MK3ZQ
14,34,,1.0,14.0,2898618444-142233.jpg,2898631359-142721.jpg,1.0,,,,AOQP9IL4MK3ZQ
15,35,,1.0,15.0,2898634397-367080.jpg,2237944827-301472.jpg,1.0,,,,AOQP9IL4MK3ZQ
16,36,,1.0,16.0,2238481198-19822.jpg,2862691449-137104.jpg,1.0,,,,AOQP9IL4MK3ZQ
17,37,,1.0,17.0,2964213381-294060.jpg,2981244394-145974.jpg,1.0,,,,AOQP9IL4MK3ZQ
18,38,,1.0,18.0,2238481928-19949.jpg,2981241419-145844.jpg,3.0,,,,AOQP9IL4MK3ZQ
19,39,,1.0,19.0,2883268412-365898.jpg,2984615361-295510.jpg,2.0,,,,AOQP9IL4MK3ZQ
20,40,,1.0,20.0,2898635427-367120.jpg,2901946439-144040.jpg,1.0,,,,AOQP9IL4MK3ZQ
21,41,left,1.0,21.0,left.jpg,,,left,2.6465,,AOQP9IL4MK3ZQ
22,42,,1.0,22.0,2460547467-349421.jpg,2452380166-273110.jpg,2.0,,,,AOQP9IL4MK3ZQ
23,43,,1.0,23.0,2986451363-73599.jpg,2860302315-210704.jpg,2.0,,,,AOQP9IL4MK3ZQ
24,44,,1.0,24.0,2874301407-363895.jpg,2883264368-67631.jpg,1.0,,,,AOQP9IL4MK3ZQ
25,45,,1.0,25.0,2901941401-292798.jpg,2883273443-68193.jpg,3.0,,,,AOQP9IL4MK3ZQ
26,46,,1.0,26.0,2446759347-347016.jpg,2238569117-333045.jpg,3.0,,,,AOQP9IL4MK3ZQ
27,47,,1.0,27.0,2868474407-362883.jpg,2981246400-220363.jpg,2.0,,,,AOQP9IL4MK3ZQ
28,48,,1.0,28.0,2449442529-124445.jpg,2898632385-217137.jpg,3.0,,,,AOQP9IL4MK3ZQ
29,49,right,1.0,29.0,right.jpg,,,right,1.8212,,AOQP9IL4MK3ZQ
30,50,,1.0,30.0,2460547467-349422.jpg,2898618440-216545.jpg,1.0,,,,AOQP9IL4MK3ZQ
31,51,,1.0,31.0,2898633421-291973.jpg,2512876023-52283.jpg,1.0,,,,AOQP9IL4MK3ZQ
32,52,,1.0,32.0,2883268471-290842.jpg,2901947448-70314.jpg,3.0,,,,AOQP9IL4MK3ZQ
33,53,,1.0,33.0,2238572663-35822.jpg,2986419333-73361.jpg,1.0,,,,AOQP9IL4MK3ZQ
34,54,,1.0,34.0,2898617468-68274.jpg,2964207374-144577.jpg,3.0,,,,AOQP9IL4MK3ZQ
35,55,,1.0,35.0,2981231403-71642.jpg,2981244403-72215.jpg,2.0,,,,AOQP9IL4MK3ZQ
36,56,,1.0,36.0,2864910426-287204.jpg,2901939433-69672.jpg,3.0,,,,AOQP9IL4MK3ZQ
37,57,,1.0,37.0,2898618390-216538.jpg,2986449336-296644.jpg,1.0,,,,AOQP9IL4MK3ZQ
38,58,right,1.0,38.0,right.jpg,,,right,1.8458,,AOQP9IL4MK3ZQ
39,59,,1.0,39.0,2592379964-131054.jpg,2592380272-354673.jpg,3.0,,,,AOQP9IL4MK3ZQ
40,60,,1.0,40.0,2864907432-362042.jpg,2901947423-70310.jpg,2.0,,,,AOQP9IL4MK3ZQ
41,61,,1.0,41.0,2883254439-140941.jpg,2898632385-217136.jpg,2.0,,,,AOQP9IL4MK3ZQ
42,62,,1.0,42.0,2446758985-197609.jpg,2898624426-291544.jpg,3.0,,,,AOQP9IL4MK3ZQ
43,63,,1.0,43.0,2449441881-272368.jpg,2449441881-272367.jpg,3.0,,,,AOQP9IL4MK3ZQ
44,64,,1.0,44.0,2460547508-51571.jpg,2981232437-369759.jpg,2.0,,,,AOQP9IL4MK3ZQ
45,65,,1.0,45.0,2868475410-213219.jpg,2901946465-218350.jpg,1.0,,,,AOQP9IL4MK3ZQ
46,66,,1.0,46.0,2458347385-199723.jpg,2458347252-348911.jpg,3.0,,,,AOQP9IL4MK3ZQ
47,67,,1.0,47.0,2898624426-291546.jpg,2964218432-369263.jpg,1.0,,,,AOQP9IL4MK3ZQ
48,68,left,1.0,48.0,left.jpg,,,left,1.7338,,AOQP9IL4MK3ZQ
49,69,,1.0,49.0,2901952513-70703.jpg,2238481198-19821.jpg,3.0,,,,AOQP9IL4MK3ZQ
50,70,,1.0,50.0,2964223381-294447.jpg,2901941438-69836.jpg,2.0,,,,AOQP9IL4MK3ZQ
51,71,,1.0,51.0,2575120738-55529.jpg,2575120738-55528.jpg,2.0,,,,AOQP9IL4MK3ZQ
52,72,,1.0,52.0,2901948350-218459.jpg,2804906319-133082.jpg,1.0,,,,AOQP9IL4MK3ZQ
53,73,,1.0,53.0,2238428357-313623.jpg,2238499057-320266.jpg,1.0,,,,AOQP9IL4MK3ZQ
54,74,,1.0,54.0,2512875899-126682.jpg,2460547536-274179.jpg,1.0,,,,AOQP9IL4MK3ZQ
55,75,,1.0,55.0,2592380177-354629.jpg,2579432534-130704.jpg,2.0,,,,AOQP9IL4MK3ZQ
56,76,,1.0,56.0,2238560245-182099.jpg,2549106624-127823.jpg,1.0,,,,AOQP9IL4MK3ZQ
57,77,,1.0,57.0,2446759803-49249.jpg,2898618440-216547.jpg,2.0,,,,AOQP9IL4MK3ZQ
58,78,,1.0,58.0,2874303365-214262.jpg,2609793677-355397.jpg,1.0,,,,AOQP9IL4MK3ZQ
59,79,,1.0,59.0,2981241414-145842.jpg,2427873848-47312.jpg,3.0,,,,AOQP9IL4MK3ZQ
60,80,,1.0,60.0,2874307433-66280.jpg,2981231422-369714.jpg,3.0,,,,AOQP9IL4MK3ZQ
61,81,,1.0,61.0,2592380177-354626.jpg,2864901386-286797.jpg,2.0,,,,AOQP9IL4MK3ZQ
62,82,,1.0,62.0,2883256307-365057.jpg,2611628310-206388.jpg,1.0,,,,AOQP9IL4MK3ZQ
63,83,,1.0,63.0,2898635428-69104.jpg,2898625336-291572.jpg,3.0,,,,AOQP9IL4MK3ZQ
64,84,,1.0,64.0,2874302418-65979.jpg,2413147898-43548.jpg,1.0,,,,AOQP9IL4MK3ZQ
65,20,,1.0,0.0,2460547467-349421.jpg,2452380166-273110.jpg,2.0,,,,ACUK17I51KVXF
66,21,,1.0,1.0,2460547467-349422.jpg,2864909447-362146.jpg,3.0,,,,ACUK17I51KVXF
67,22,,1.0,2.0,2868475410-213219.jpg,2868474407-362885.jpg,3.0,,,,ACUK17I51KVXF
68,23,,1.0,3.0,2898635427-367120.jpg,2901946439-144040.jpg,1.0,,,,ACUK17I51KVXF
69,24,,1.0,4.0,2592380177-354629.jpg,2512875587-350044.jpg,3.0,,,,ACUK17I51KVXF
70,25,,1.0,5.0,2883268412-365898.jpg,2238436252-314037.jpg,3.0,,,,ACUK17I51KVXF
71,26,,1.0,6.0,2238481928-19949.jpg,2981241419-145844.jpg,3.0,,,,ACUK17I51KVXF
72,27,,1.0,7.0,2575120738-55529.jpg,2575120738-55528.jpg,2.0,,,,ACUK17I51KVXF
73,28,,1.0,8.0,2898618390-216538.jpg,2901939327-367670.jpg,2.0,,,,ACUK17I51KVXF
74,29,,1.0,9.0,2452381505-199546.jpg,2901938432-367627.jpg,1.0,,,,ACUK17I51KVXF
75,30,,1.0,10.0,2964218374-144967.jpg,2981231446-294732.jpg,3.0,,,,ACUK17I51KVXF
76,31,,1.0,11.0,2883254439-140941.jpg,2898632385-217136.jpg,2.0,,,,ACUK17I51KVXF
77,32,,1.0,12.0,2592379964-131054.jpg,2592380272-354673.jpg,3.0,,,,ACUK17I51KVXF
78,33,,0.0,13.0,left.jpg,,,left,,,ACUK17I51KVXF
79,34,,1.0,14.0,2898634397-367080.jpg,2964217461-294238.jpg,3.0,,,,ACUK17I51KVXF
80,35,,1.0,15.0,2864907432-362042.jpg,2901947423-70310.jpg,2.0,,,,ACUK17I51KVXF
81,36,,1.0,16.0,2874299429-139695.jpg,2901942443-69923.jpg,2.0,,,,ACUK17I51KVXF
82,37,,1.0,17.0,2981241414-145842.jpg,2427873848-47312.jpg,3.0,,,,ACUK17I51KVXF
83,38,,1.0,18.0,2883268471-290842.jpg,2901947448-70314.jpg,3.0,,,,ACUK17I51KVXF
84,39,,1.0,19.0,2964213381-294060.jpg,2981244394-145974.jpg,1.0,,,,ACUK17I51KVXF
85,40,,1.0,20.0,2452380832-348593.jpg,2449442181-272436.jpg,3.0,,,,ACUK17I51KVXF
86,41,,1.0,21.0,2964216465-219242.jpg,2864900319-137787.jpg,2.0,,,,ACUK17I51KVXF
87,42,,1.0,22.0,2901941401-292798.jpg,2981243412-370222.jpg,2.0,,,,ACUK17I51KVXF
88,43,left,1.0,23.0,left.jpg,,,left,1.526,,ACUK17I51KVXF
89,44,,1.0,24.0,2874301407-363895.jpg,2883264368-67631.jpg,1.0,,,,ACUK17I51KVXF
90,45,,1.0,25.0,2238560245-182099.jpg,2549106624-127823.jpg,1.0,,,,ACUK17I51KVXF
91,46,,1.0,26.0,2986451363-73599.jpg,2901939327-367669.jpg,1.0,,,,ACUK17I51KVXF
92,47,,1.0,27.0,2446759347-347016.jpg,2964224310-219528.jpg,1.0,,,,ACUK17I51KVXF
93,48,,1.0,28.0,2238428357-313623.jpg,2238499057-320266.jpg,1.0,,,,ACUK17I51KVXF
94,49,,1.0,29.0,2901947423-70311.jpg,2238577590-185467.jpg,3.0,,,,ACUK17I51KVXF
95,50,,1.0,30.0,2238481198-19822.jpg,2862691449-137104.jpg,1.0,,,,ACUK17I51KVXF
96,51,,1.0,31.0,2901939379-143480.jpg,2901938432-367629.jpg,3.0,,,,ACUK17I51KVXF
97,52,left,1.0,32.0,left.jpg,,,left,1.838,,ACUK17I51KVXF
98,53,,1.0,33.0,2874302418-65978.jpg,2898633321-291943.jpg,3.0,,,,ACUK17I51KVXF
99,54,,1.0,34.0,2901948350-218459.jpg,2417208001-267065.jpg,2.0,,,,ACUK17I51KVXF
100,55,,1.0,35.0,2883256307-365057.jpg,2864904453-63933.jpg,3.0,,,,ACUK17I51KVXF
101,56,,1.0,36.0,2901952513-70703.jpg,2238481198-19821.jpg,3.0,,,,ACUK17I51KVXF
102,57,,1.0,37.0,2864910426-287204.jpg,2874299429-139694.jpg,2.0,,,,ACUK17I51KVXF
103,58,,1.0,38.0,2446758985-197609.jpg,2864909447-362144.jpg,2.0,,,,ACUK17I51KVXF
104,59,right,1.0,39.0,right.jpg,,,right,1.894,,ACUK17I51KVXF
105,60,,1.0,40.0,2446759803-49249.jpg,2446760601-272099.jpg,1.0,,,,ACUK17I51KVXF
106,61,,1.0,41.0,2238425482-313537.jpg,2238436322-314047.jpg,2.0,,,,ACUK17I51KVXF
107,62,,1.0,42.0,2901939379-143479.jpg,2460547467-349423.jpg,1.0,,,,ACUK17I51KVXF
108,63,,1.0,43.0,2898624426-291546.jpg,2981236443-71859.jpg,2.0,,,,ACUK17I51KVXF
109,64,,1.0,44.0,2238572663-35822.jpg,2986419333-73361.jpg,1.0,,,,ACUK17I51KVXF
110,65,,1.0,45.0,2874302418-65979.jpg,2238480648-19714.jpg,2.0,,,,ACUK17I51KVXF
111,66,,1.0,46.0,2449442529-124445.jpg,2452380171-273112.jpg,1.0,,,,ACUK17I51KVXF
112,67,,1.0,47.0,2449441881-272368.jpg,2984615358-72439.jpg,2.0,,,,ACUK17I51KVXF
113,68,right,1.0,48.0,right.jpg,,,right,1.92,,ACUK17I51KVXF
114,69,,1.0,49.0,2512875899-126682.jpg,2986447332-371497.jpg,3.0,,,,ACUK17I51KVXF
115,70,,1.0,50.0,2449442529-124446.jpg,2446759803-49251.jpg,1.0,,,,ACUK17I51KVXF
116,71,,1.0,51.0,2874303365-214262.jpg,2238563377-332054.jpg,2.0,,,,ACUK17I51KVXF
117,72,,1.0,52.0,2460547508-51571.jpg,2981232437-369759.jpg,2.0,,,,ACUK17I51KVXF
118,73,,1.0,53.0,2898618444-142233.jpg,2238555262-330312.jpg,2.0,,,,ACUK17I51KVXF
119,74,,1.0,54.0,2868474407-362883.jpg,2901948383-70363.jpg,3.0,,,,ACUK17I51KVXF
120,75,,1.0,55.0,2898617468-68274.jpg,2864906345-212360.jpg,1.0,,,,ACUK17I51KVXF
121,76,,1.0,56.0,2238580740-186218.jpg,2238521193-26285.jpg,2.0,,,,ACUK17I51KVXF
122,77,,1.0,57.0,2592380177-354626.jpg,2986408339-146952.jpg,1.0,,,,ACUK17I51KVXF
123,78,,1.0,58.0,2981231403-71642.jpg,2274829821-263682.jpg,1.0,,,,ACUK17I51KVXF
124,79,,1.0,59.0,2898633421-291973.jpg,2575118671-277663.jpg,2.0,,,,ACUK17I51KVXF
125,80,,1.0,60.0,2964223381-294447.jpg,2898628438-68785.jpg,3.0,,,,ACUK17I51KVXF
126,81,,1.0,61.0,2458347385-199723.jpg,2238480434-93829.jpg,1.0,,,,ACUK17I51KVXF
127,82,,1.0,62.0,2238480677-317399.jpg,2238481630-168218.jpg,1.0,,,,ACUK17I51KVXF
128,83,,1.0,63.0,2898635428-69104.jpg,2898625336-291572.jpg,3.0,,,,ACUK17I51KVXF
129,84,,1.0,64.0,2874307433-66280.jpg,2986447306-296584.jpg,1.0,,,,ACUK17I51KVXF
130,20,,1.0,0.0,2458347385-199723.jpg,2458347252-348911.jpg,3.0,,,,A96TDNBSXG3NJ
131,21,,1.0,1.0,2898635428-69104.jpg,2446759803-49250.jpg,1.0,,,,A96TDNBSXG3NJ
132,22,,1.0,2.0,2901947423-70311.jpg,2238577590-185467.jpg,3.0,,,,A96TDNBSXG3NJ
133,23,,1.0,3.0,2449441881-272368.jpg,2883268412-365899.jpg,1.0,,,,A96TDNBSXG3NJ
134,24,,1.0,4.0,2449442529-124446.jpg,2898632385-217139.jpg,3.0,,,,A96TDNBSXG3NJ
135,25,,1.0,5.0,2592380177-354629.jpg,2512875587-350044.jpg,3.0,,,,A96TDNBSXG3NJ
136,26,,1.0,6.0,2452380832-348593.jpg,2238328478-11678.jpg,1.0,,,,A96TDNBSXG3NJ
137,27,,1.0,7.0,2964213381-294060.jpg,2981244394-145974.jpg,1.0,,,,A96TDNBSXG3NJ
138,28,,1.0,8.0,2446759803-49249.jpg,2446760601-272099.jpg,1.0,,,,A96TDNBSXG3NJ
139,29,,1.0,9.0,2868474407-362883.jpg,2981246400-220363.jpg,2.0,,,,A96TDNBSXG3NJ
140,30,right,1.0,10.0,right.jpg,,,right,1.6767,,A96TDNBSXG3NJ
141,31,,1.0,11.0,2981231403-71642.jpg,2427873763-47290.jpg,3.0,,,,A96TDNBSXG3NJ
142,32,,1.0,12.0,2864907432-362042.jpg,2989726338-74002.jpg,3.0,,,,A96TDNBSXG3NJ
143,33,,1.0,13.0,2898617468-68274.jpg,2964207374-144577.jpg,3.0,,,,A96TDNBSXG3NJ
144,34,,1.0,14.0,2901952513-70703.jpg,2864907361-287062.jpg,1.0,,,,A96TDNBSXG3NJ
145,35,,1.0,15.0,2964218374-144967.jpg,2883254439-140940.jpg,2.0,,,,A96TDNBSXG3NJ
146,36,,1.0,16.0,2460547467-349421.jpg,2452380166-273110.jpg,2.0,,,,A96TDNBSXG3NJ
147,37,,0.0,17.0,right.jpg,,,right,,,A96TDNBSXG3NJ
148,38,,1.0,18.0,2238572663-35822.jpg,2238571930-184143.jpg,2.0,,,,A96TDNBSXG3NJ
149,39,,1.0,19.0,2446759347-347016.jpg,2901951350-218702.jpg,2.0,,,,A96TDNBSXG3NJ
150,40,,1.0,20.0,2238428357-313623.jpg,2575121987-353817.jpg,3.0,,,,A96TDNBSXG3NJ
151,41,,1.0,21.0,2868475410-213219.jpg,2901946465-218350.jpg,1.0,,,,A96TDNBSXG3NJ
152,42,,1.0,22.0,2981241414-145842.jpg,2874301404-139813.jpg,2.0,,,,A96TDNBSXG3NJ
153,43,,1.0,23.0,2446758985-197609.jpg,2864909447-362144.jpg,2.0,,,,A96TDNBSXG3NJ
154,44,,1.0,24.0,2874307433-66280.jpg,2986447306-296584.jpg,1.0,,,,A96TDNBSXG3NJ
155,45,,1.0,25.0,2460547508-51571.jpg,2901941438-69835.jpg,3.0,,,,A96TDNBSXG3NJ
156,46,,1.0,26.0,2238481928-19949.jpg,2981241419-145844.jpg,3.0,,,,A96TDNBSXG3NJ
157,47,,1.0,27.0,2874303365-214262.jpg,2238563377-332054.jpg,2.0,,,,A96TDNBSXG3NJ
158,48,,1.0,28.0,2238580740-186218.jpg,2238521193-26285.jpg,2.0,,,,A96TDNBSXG3NJ
159,49,,1.0,29.0,2238425482-313537.jpg,2238471391-240918.jpg,1.0,,,,A96TDNBSXG3NJ
160,50,,1.0,30.0,2883256307-365057.jpg,2611628310-206388.jpg,1.0,,,,A96TDNBSXG3NJ
161,51,,0.0,31.0,right.jpg,,,right,,,A96TDNBSXG3NJ
162,52,,1.0,32.0,2874302418-65978.jpg,2238481198-19823.jpg,2.0,,,,A96TDNBSXG3NJ
163,53,,1.0,33.0,2883254439-140941.jpg,2898632385-217136.jpg,2.0,,,,A96TDNBSXG3NJ
164,54,,1.0,34.0,2452381505-199546.jpg,2238567168-34916.jpg,2.0,,,,A96TDNBSXG3NJ
165,55,,1.0,35.0,2883268412-365898.jpg,2984626312-370849.jpg,1.0,,,,A96TDNBSXG3NJ
166,56,,1.0,36.0,2449442529-124445.jpg,2986408373-73286.jpg,2.0,,,,A96TDNBSXG3NJ
167,57,,1.0,37.0,2238481198-19822.jpg,2862691449-137104.jpg,1.0,,,,A96TDNBSXG3NJ
168,58,left,1.0,38.0,left.jpg,,,left,2.63,,A96TDNBSXG3NJ
169,59,,1.0,39.0,2592380177-354626.jpg,2986408339-146952.jpg,1.0,,,,A96TDNBSXG3NJ
170,60,,1.0,40.0,2901939379-143480.jpg,2981229442-369621.jpg,2.0,,,,A96TDNBSXG3NJ
171,61,,1.0,41.0,2575120738-55529.jpg,2238531493-28260.jpg,3.0,,,,A96TDNBSXG3NJ
172,62,,1.0,42.0,2898618444-142233.jpg,2898631359-142721.jpg,1.0,,,,A96TDNBSXG3NJ
173,63,,1.0,43.0,2964223381-294447.jpg,2901941438-69836.jpg,2.0,,,,A96TDNBSXG3NJ
174,64,,1.0,44.0,2901939379-143479.jpg,2446758985-197610.jpg,2.0,,,,A96TDNBSXG3NJ
175,65,,1.0,45.0,2460547467-349422.jpg,2864909447-362146.jpg,3.0,,,,A96TDNBSXG3NJ
176,66,,0.0,46.0,left.jpg,,,left,,,A96TDNBSXG3NJ
177,67,,1.0,47.0,2986451363-73599.jpg,2238434559-90406.jpg,3.0,,,,A96TDNBSXG3NJ
178,68,,1.0,48.0,2512875899-126682.jpg,2986447332-371497.jpg,3.0,,,,A96TDNBSXG3NJ
179,69,,1.0,49.0,2874299429-139695.jpg,2883266388-67750.jpg,1.0,,,,A96TDNBSXG3NJ
180,70,,1.0,50.0,2898618390-216538.jpg,2986449336-296644.jpg,1.0,,,,A96TDNBSXG3NJ
181,71,,1.0,51.0,2964216465-219242.jpg,2898619327-366362.jpg,3.0,,,,A96TDNBSXG3NJ
182,72,,1.0,52.0,2238560245-182099.jpg,2238480980-168129.jpg,3.0,,,,A96TDNBSXG3NJ
183,73,,1.0,53.0,2901948350-218459.jpg,2981246360-220352.jpg,3.0,,,,A96TDNBSXG3NJ
184,74,,1.0,54.0,2898635427-367120.jpg,2868479517-363220.jpg,2.0,,,,A96TDNBSXG3NJ
185,75,,1.0,55.0,2864910426-287204.jpg,2864902304-137862.jpg,1.0,,,,A96TDNBSXG3NJ
186,76,,1.0,56.0,2874301407-363895.jpg,2883264368-67631.jpg,1.0,,,,A96TDNBSXG3NJ
187,77,,1.0,57.0,2883268471-290842.jpg,2883255450-215310.jpg,2.0,,,,A96TDNBSXG3NJ
188,78,,1.0,58.0,2898624426-291546.jpg,2981236443-71859.jpg,2.0,,,,A96TDNBSXG3NJ
189,79,,1.0,59.0,2238480677-317399.jpg,2238480278-19661.jpg,3.0,,,,A96TDNBSXG3NJ
190,80,,1.0,60.0,2898634397-367080.jpg,2237944827-301472.jpg,1.0,,,,A96TDNBSXG3NJ
191,81,,1.0,61.0,2874302418-65979.jpg,2238480648-19714.jpg,2.0,,,,A96TDNBSXG3NJ
192,82,,1.0,62.0,2592379964-131054.jpg,2592380272-354673.jpg,3.0,,,,A96TDNBSXG3NJ
193,83,,1.0,63.0,2901941401-292798.jpg,2898618327-366317.jpg,1.0,,,,A96TDNBSXG3NJ
194,84,,1.0,64.0,2898633421-291973.jpg,2238550049-105691.jpg,3.0,,,,A96TDNBSXG3NJ
195,20,,1.0,0.0,2592380177-354626.jpg,2986408339-146952.jpg,1.0,,,,AW9ODYOD9PYHX
196,21,,1.0,1.0,2460547467-349422.jpg,2868487415-213924.jpg,2.0,,,,AW9ODYOD9PYHX
197,22,,1.0,2.0,2446759347-347016.jpg,2964224310-219528.jpg,1.0,,,,AW9ODYOD9PYHX
198,23,,1.0,3.0,2898618444-142233.jpg,2898631359-142721.jpg,1.0,,,,AW9ODYOD9PYHX
199,24,,1.0,4.0,2864910426-287204.jpg,2864902304-137862.jpg,1.0,,,,AW9ODYOD9PYHX
200,25,,1.0,5.0,2458347385-199723.jpg,2427874554-121863.jpg,2.0,,,,AW9ODYOD9PYHX
201,26,,1.0,6.0,2898617468-68274.jpg,2964207374-144577.jpg,3.0,,,,AW9ODYOD9PYHX
202,27,,1.0,7.0,2460547467-349421.jpg,2981235446-294901.jpg,3.0,,,,AW9ODYOD9PYHX
203,28,,1.0,8.0,2901952513-70703.jpg,2238481198-19821.jpg,3.0,,,,AW9ODYOD9PYHX
204,29,,1.0,9.0,2874303365-214262.jpg,2864911457-362260.jpg,3.0,,,,AW9ODYOD9PYHX
205,30,,1.0,10.0,2898633421-291973.jpg,2238550049-105691.jpg,3.0,,,,AW9ODYOD9PYHX
206,31,,1.0,11.0,2981231403-71642.jpg,2981244403-72215.jpg,2.0,,,,AW9ODYOD9PYHX
207,32,,1.0,12.0,2238480677-317399.jpg,2238573546-258454.jpg,2.0,,,,AW9ODYOD9PYHX
208,33,left,1.0,13.0,left.jpg,,,left,1.2267,,AW9ODYOD9PYHX
209,34,,1.0,14.0,2874302418-65978.jpg,2238481198-19823.jpg,2.0,,,,AW9ODYOD9PYHX
210,35,,1.0,15.0,2898634397-367080.jpg,2237944827-301472.jpg,1.0,,,,AW9ODYOD9PYHX
211,36,,1.0,16.0,2874302418-65979.jpg,2238578544-111698.jpg,3.0,,,,AW9ODYOD9PYHX
212,37,,1.0,17.0,2238572663-35822.jpg,2238571930-184143.jpg,2.0,,,,AW9ODYOD9PYHX
213,38,left,1.0,18.0,left.jpg,,,left,1.0536,,AW9ODYOD9PYHX
214,39,,1.0,19.0,2446758985-197609.jpg,2981240424-145795.jpg,1.0,,,,AW9ODYOD9PYHX
215,40,,1.0,20.0,2512875899-126682.jpg,2986447332-371497.jpg,3.0,,,,AW9ODYOD9PYHX
216,41,,1.0,21.0,2452381505-199546.jpg,2238567168-34916.jpg,2.0,,,,AW9ODYOD9PYHX
217,42,,1.0,22.0,2868475410-213219.jpg,2901946465-218350.jpg,1.0,,,,AW9ODYOD9PYHX
218,43,,1.0,23.0,2864907432-362042.jpg,2864901420-212147.jpg,1.0,,,,AW9ODYOD9PYHX
219,44,,1.0,24.0,2883256307-365057.jpg,2864904453-63933.jpg,3.0,,,,AW9ODYOD9PYHX
220,45,,1.0,25.0,2592380177-354629.jpg,2898633421-291974.jpg,1.0,,,,AW9ODYOD9PYHX
221,46,left,1.0,26.0,left.jpg,,,left,1.0592,,AW9ODYOD9PYHX
222,47,,1.0,27.0,2964223381-294447.jpg,2898628438-68785.jpg,3.0,,,,AW9ODYOD9PYHX
223,48,,1.0,28.0,2898624426-291546.jpg,2981236443-71859.jpg,2.0,,,,AW9ODYOD9PYHX
224,49,,1.0,29.0,2901939379-143480.jpg,2901942428-69919.jpg,1.0,,,,AW9ODYOD9PYHX
225,50,,1.0,30.0,2460547508-51571.jpg,2460547291-274110.jpg,1.0,,,,AW9ODYOD9PYHX
226,51,,1.0,31.0,2449442529-124446.jpg,2460547536-274181.jpg,2.0,,,,AW9ODYOD9PYHX
227,52,,1.0,32.0,2874307433-66280.jpg,2981231422-369714.jpg,3.0,,,,AW9ODYOD9PYHX
228,53,,1.0,33.0,2964218374-144967.jpg,2981231446-294732.jpg,3.0,,,,AW9ODYOD9PYHX
229,54,,1.0,34.0,2238481198-19822.jpg,2862691449-137104.jpg,1.0,,,,AW9ODYOD9PYHX
230,55,,1.0,35.0,2883268471-290842.jpg,2883268471-290843.jpg,1.0,,,,AW9ODYOD9PYHX
231,56,,1.0,36.0,2592379964-131054.jpg,2238479053-19457.jpg,2.0,,,,AW9ODYOD9PYHX
232,57,,1.0,37.0,2449442529-124445.jpg,2898632385-217137.jpg,3.0,,,,AW9ODYOD9PYHX
233,58,,1.0,38.0,2898635427-367120.jpg,2901946439-144040.jpg,1.0,,,,AW9ODYOD9PYHX
234,59,,1.0,39.0,2575120738-55529.jpg,2898632385-217138.jpg,1.0,,,,AW9ODYOD9PYHX
235,60,right,1.0,40.0,right.jpg,,,right,1.0471,,AW9ODYOD9PYHX
236,61,,1.0,41.0,2868474407-362883.jpg,2238516618-25604.jpg,1.0,,,,AW9ODYOD9PYHX
237,62,,1.0,42.0,2964216465-219242.jpg,2898619327-366362.jpg,3.0,,,,AW9ODYOD9PYHX
238,63,,1.0,43.0,2883268412-365898.jpg,2984615361-295510.jpg,2.0,,,,AW9ODYOD9PYHX
239,64,,1.0,44.0,2898618390-216538.jpg,2986449336-296644.jpg,1.0,,,,AW9ODYOD9PYHX
240,65,,1.0,45.0,2883254439-140941.jpg,2898632385-217136.jpg,2.0,,,,AW9ODYOD9PYHX
241,66,,1.0,46.0,2446759803-49249.jpg,2446760601-272099.jpg,1.0,,,,AW9ODYOD9PYHX
242,67,,1.0,47.0,2238580740-186218.jpg,2964220333-71258.jpg,3.0,,,,AW9ODYOD9PYHX
243,68,,1.0,48.0,2901941401-292798.jpg,2898618327-366317.jpg,1.0,,,,AW9ODYOD9PYHX
244,69,,1.0,49.0,2898635428-69104.jpg,2901943411-292945.jpg,2.0,,,,AW9ODYOD9PYHX
245,70,right,1.0,50.0,right.jpg,,,right,0.9665,,AW9ODYOD9PYHX
246,71,,1.0,51.0,2449441881-272368.jpg,2449441881-272367.jpg,3.0,,,,AW9ODYOD9PYHX
247,72,,1.0,52.0,2986451363-73599.jpg,2860302315-210704.jpg,2.0,,,,AW9ODYOD9PYHX
248,73,,1.0,53.0,2238560245-182099.jpg,2549106624-127823.jpg,1.0,,,,AW9ODYOD9PYHX
249,74,,1.0,54.0,2452380832-348593.jpg,2449442181-272436.jpg,3.0,,,,AW9ODYOD9PYHX
250,75,,1.0,55.0,2964213381-294060.jpg,2964213381-294061.jpg,3.0,,,,AW9ODYOD9PYHX
251,76,,1.0,56.0,2238428357-313623.jpg,2575121987-353817.jpg,3.0,,,,AW9ODYOD9PYHX
252,77,,1.0,57.0,2238481928-19949.jpg,2864900357-361688.jpg,2.0,,,,AW9ODYOD9PYHX
253,78,,1.0,58.0,2874299429-139695.jpg,2901942443-69923.jpg,2.0,,,,AW9ODYOD9PYHX
254,79,,1.0,59.0,2238425482-313537.jpg,2238436322-314047.jpg,2.0,,,,AW9ODYOD9PYHX
255,80,,1.0,60.0,2874301407-363895.jpg,2901947323-70275.jpg,3.0,,,,AW9ODYOD9PYHX
256,81,,1.0,61.0,2901948350-218459.jpg,2417208001-267065.jpg,2.0,,,,AW9ODYOD9PYHX
257,82,,1.0,62.0,2981241414-145842.jpg,2874301404-139813.jpg,2.0,,,,AW9ODYOD9PYHX
258,83,,1.0,63.0,2901939379-143479.jpg,2446758985-197610.jpg,2.0,,,,AW9ODYOD9PYHX
259,84,,1.0,64.0,2901947423-70311.jpg,2238577590-185467.jpg,3.0,,,,AW9ODYOD9PYHX
260,20,,1.0,0.0,2898635428-69104.jpg,2901943411-292945.jpg,2.0,,,,A1SHLWKA0UH1IS
261,21,,1.0,1.0,2874302418-65979.jpg,2238578544-111698.jpg,3.0,,,,A1SHLWKA0UH1IS
262,22,,1.0,2.0,2449442529-124446.jpg,2460547536-274181.jpg,2.0,,,,A1SHLWKA0UH1IS
263,23,,1.0,3.0,2864910426-287204.jpg,2874299429-139694.jpg,2.0,,,,A1SHLWKA0UH1IS
264,24,,1.0,4.0,2898624426-291546.jpg,2981235446-294900.jpg,3.0,,,,A1SHLWKA0UH1IS
265,25,,1.0,5.0,2449441881-272368.jpg,2883268412-365899.jpg,1.0,,,,A1SHLWKA0UH1IS
266,26,,1.0,6.0,2446759803-49249.jpg,2446760601-272099.jpg,1.0,,,,A1SHLWKA0UH1IS
267,27,left,1.0,7.0,left.jpg,,,left,0.5574,,A1SHLWKA0UH1IS
268,28,,1.0,8.0,2898633421-291973.jpg,2575118671-277663.jpg,2.0,,,,A1SHLWKA0UH1IS
269,29,,1.0,9.0,2898618390-216538.jpg,2986449336-296644.jpg,1.0,,,,A1SHLWKA0UH1IS
270,30,,1.0,10.0,2901939379-143479.jpg,2981240424-145794.jpg,3.0,,,,A1SHLWKA0UH1IS
271,31,,1.0,11.0,2868474407-362883.jpg,2238516618-25604.jpg,1.0,,,,A1SHLWKA0UH1IS
272,32,,1.0,12.0,2883268471-290842.jpg,2883255450-215310.jpg,2.0,,,,A1SHLWKA0UH1IS
273,33,,1.0,13.0,2238560245-182099.jpg,2549106624-127823.jpg,1.0,,,,A1SHLWKA0UH1IS
274,34,,1.0,14.0,2868475410-213219.jpg,2901946465-218350.jpg,1.0,,,,A1SHLWKA0UH1IS
275,35,,1.0,15.0,2238481198-19822.jpg,2901946436-293242.jpg,2.0,,,,A1SHLWKA0UH1IS
276,36,,1.0,16.0,2446758985-197609.jpg,2898624426-291544.jpg,3.0,,,,A1SHLWKA0UH1IS
277,37,,1.0,17.0,2512875899-126682.jpg,2460547536-274179.jpg,1.0,,,,A1SHLWKA0UH1IS
278,38,,1.0,18.0,2460547467-349421.jpg,2898631394-142727.jpg,1.0,,,,A1SHLWKA0UH1IS
279,39,,1.0,19.0,2452381505-199546.jpg,2994401319-148290.jpg,3.0,,,,A1SHLWKA0UH1IS
280,40,,1.0,20.0,2575120738-55529.jpg,2898632385-217138.jpg,1.0,,,,A1SHLWKA0UH1IS
281,41,,1.0,21.0,2458347385-199723.jpg,2238480434-93829.jpg,1.0,,,,A1SHLWKA0UH1IS
282,42,left,1.0,22.0,left.jpg,,,left,0.7076,,A1SHLWKA0UH1IS
283,43,,1.0,23.0,2883256307-365057.jpg,2864904453-63933.jpg,3.0,,,,A1SHLWKA0UH1IS
284,44,,1.0,24.0,2981241414-145842.jpg,2874301404-139813.jpg,2.0,,,,A1SHLWKA0UH1IS
285,45,,1.0,25.0,2964218374-144967.jpg,2981231446-294732.jpg,3.0,,,,A1SHLWKA0UH1IS
286,46,,1.0,26.0,2901939379-143480.jpg,2981229442-369621.jpg,2.0,,,,A1SHLWKA0UH1IS
287,47,,1.0,27.0,2901948350-218459.jpg,2417208001-267065.jpg,2.0,,,,A1SHLWKA0UH1IS
288,48,,1.0,28.0,2883254439-140941.jpg,2898632385-217136.jpg,2.0,,,,A1SHLWKA0UH1IS
289,49,right,1.0,29.0,right.jpg,,,right,0.5559,,A1SHLWKA0UH1IS
290,50,,1.0,30.0,2964213381-294060.jpg,2981244394-145974.jpg,1.0,,,,A1SHLWKA0UH1IS
291,51,,1.0,31.0,2864907432-362042.jpg,2864901420-212147.jpg,1.0,,,,A1SHLWKA0UH1IS
292,52,,1.0,32.0,2898634397-367080.jpg,2964217461-294238.jpg,3.0,,,,A1SHLWKA0UH1IS
293,53,,1.0,33.0,2901941401-292798.jpg,2883273443-68193.jpg,3.0,,,,A1SHLWKA0UH1IS
294,54,,1.0,34.0,2874303365-214262.jpg,2864911457-362260.jpg,3.0,,,,A1SHLWKA0UH1IS
295,55,,1.0,35.0,2238572663-35822.jpg,2864903351-286874.jpg,3.0,,,,A1SHLWKA0UH1IS
296,56,left,1.0,36.0,left.jpg,,,left,0.6455,,A1SHLWKA0UH1IS
297,57,,1.0,37.0,2592379964-131054.jpg,2575963989-130576.jpg,1.0,,,,A1SHLWKA0UH1IS
298,58,,1.0,38.0,2874302418-65978.jpg,2898633321-291943.jpg,3.0,,,,A1SHLWKA0UH1IS
299,59,,1.0,39.0,2446759347-347016.jpg,2238569117-333045.jpg,3.0,,,,A1SHLWKA0UH1IS
300,60,,1.0,40.0,2874307433-66280.jpg,2986447306-296584.jpg,1.0,,,,A1SHLWKA0UH1IS
301,61,,1.0,41.0,2452380832-348593.jpg,2238481813-19930.jpg,2.0,,,,A1SHLWKA0UH1IS
302,62,,1.0,42.0,2964223381-294447.jpg,2427874231-269884.jpg,1.0,,,,A1SHLWKA0UH1IS
303,63,,1.0,43.0,2883268412-365898.jpg,2984626312-370849.jpg,1.0,,,,A1SHLWKA0UH1IS
304,64,,1.0,44.0,2898635427-367120.jpg,2901946439-144040.jpg,1.0,,,,A1SHLWKA0UH1IS
305,65,,1.0,45.0,2898618444-142233.jpg,2898618444-142232.jpg,3.0,,,,A1SHLWKA0UH1IS
306,66,left,1.0,46.0,left.jpg,,,left,0.6091,,A1SHLWKA0UH1IS
307,67,,1.0,47.0,2238480677-317399.jpg,2238573546-258454.jpg,2.0,,,,A1SHLWKA0UH1IS
308,68,,1.0,48.0,2901947423-70311.jpg,2860312398-62572.jpg,1.0,,,,A1SHLWKA0UH1IS
309,69,,1.0,49.0,2238428357-313623.jpg,2575121987-353817.jpg,3.0,,,,A1SHLWKA0UH1IS
310,70,,1.0,50.0,2981231403-71642.jpg,2981244403-72215.jpg,2.0,,,,A1SHLWKA0UH1IS
311,71,,1.0,51.0,2592380177-354626.jpg,2864901386-286797.jpg,2.0,,,,A1SHLWKA0UH1IS
312,72,,1.0,52.0,2460547508-51571.jpg,2460547291-274110.jpg,1.0,,,,A1SHLWKA0UH1IS
313,73,,1.0,53.0,2592380177-354629.jpg,2579432534-130704.jpg,2.0,,,,A1SHLWKA0UH1IS
314,74,,1.0,54.0,2460547467-349422.jpg,2864909447-362146.jpg,3.0,,,,A1SHLWKA0UH1IS
315,75,,1.0,55.0,2898617468-68274.jpg,2901943387-368037.jpg,2.0,,,,A1SHLWKA0UH1IS
316,76,,1.0,56.0,2449442529-124445.jpg,2898632385-217137.jpg,3.0,,,,A1SHLWKA0UH1IS
317,77,,1.0,57.0,2874301407-363895.jpg,2901947323-70275.jpg,3.0,,,,A1SHLWKA0UH1IS
318,78,,1.0,58.0,2238580740-186218.jpg,2238550816-254000.jpg,1.0,,,,A1SHLWKA0UH1IS
319,79,,1.0,59.0,2874299429-139695.jpg,2901942443-69923.jpg,2.0,,,,A1SHLWKA0UH1IS
320,80,,1.0,60.0,2964216465-219242.jpg,2864900319-137787.jpg,2.0,,,,A1SHLWKA0UH1IS
321,81,,1.0,61.0,2238481928-19949.jpg,2981241419-145844.jpg,3.0,,,,A1SHLWKA0UH1IS
322,82,,1.0,62.0,2901952513-70703.jpg,2868469411-287540.jpg,2.0,,,,A1SHLWKA0UH1IS
323,83,,1.0,63.0,2986451363-73599.jpg,2238434559-90406.jpg,3.0,,,,A1SHLWKA0UH1IS
324,84,,1.0,64.0,2238425482-313537.jpg,2238436322-314047.jpg,2.0,,,,A1SHLWKA0UH1IS
325,20,,1.0,0.0,2901939379-143480.jpg,2981229442-369621.jpg,2.0,,,,A1LG7I4UFRWZRY
326,21,,1.0,1.0,2964218374-144967.jpg,2883254439-140940.jpg,2.0,,,,A1LG7I4UFRWZRY
327,22,,1.0,2.0,2964216465-219242.jpg,2898619327-366362.jpg,3.0,,,,A1LG7I4UFRWZRY
328,23,,1.0,3.0,2452381505-199546.jpg,2238567168-34916.jpg,2.0,,,,A1LG7I4UFRWZRY
329,24,,1.0,4.0,2449442529-124446.jpg,2460547536-274181.jpg,2.0,,,,A1LG7I4UFRWZRY
330,25,,1.0,5.0,2238425482-313537.jpg,2238436322-314047.jpg,2.0,,,,A1LG7I4UFRWZRY
331,26,,1.0,6.0,2874302418-65978.jpg,2238481198-19823.jpg,2.0,,,,A1LG7I4UFRWZRY
332,27,,1.0,7.0,2901939379-143479.jpg,2446758985-197610.jpg,2.0,,,,A1LG7I4UFRWZRY
333,28,,1.0,8.0,2901947423-70311.jpg,2238577590-185467.jpg,3.0,,,,A1LG7I4UFRWZRY
334,29,left,1.0,9.0,left.jpg,,,left,2.3361,,A1LG7I4UFRWZRY
335,30,,1.0,10.0,2238580740-186218.jpg,2238550816-254000.jpg,1.0,,,,A1LG7I4UFRWZRY
336,31,,1.0,11.0,2452380832-348593.jpg,2449442181-272436.jpg,3.0,,,,A1LG7I4UFRWZRY
337,32,,1.0,12.0,2238480677-317399.jpg,2238480278-19661.jpg,3.0,,,,A1LG7I4UFRWZRY
338,33,,1.0,13.0,2874299429-139695.jpg,2446760917-347439.jpg,3.0,,,,A1LG7I4UFRWZRY
339,34,,1.0,14.0,2898618444-142233.jpg,2898631359-142721.jpg,1.0,,,,A1LG7I4UFRWZRY
340,35,,1.0,15.0,2898634397-367080.jpg,2237944827-301472.jpg,1.0,,,,A1LG7I4UFRWZRY
341,36,,1.0,16.0,2238481198-19822.jpg,2862691449-137104.jpg,1.0,,,,A1LG7I4UFRWZRY
342,37,,1.0,17.0,2964213381-294060.jpg,2981244394-145974.jpg,1.0,,,,A1LG7I4UFRWZRY
343,38,,1.0,18.0,2238481928-19949.jpg,2981241419-145844.jpg,3.0,,,,A1LG7I4UFRWZRY
344,39,,1.0,19.0,2883268412-365898.jpg,2984615361-295510.jpg,2.0,,,,A1LG7I4UFRWZRY
345,40,,1.0,20.0,2898635427-367120.jpg,2901946439-144040.jpg,1.0,,,,A1LG7I4UFRWZRY
346,41,left,1.0,21.0,left.jpg,,,left,2.6771,,A1LG7I4UFRWZRY
347,42,,1.0,22.0,2460547467-349421.jpg,2452380166-273110.jpg,2.0,,,,A1LG7I4UFRWZRY
348,43,,1.0,23.0,2986451363-73599.jpg,2860302315-210704.jpg,2.0,,,,A1LG7I4UFRWZRY
349,44,,1.0,24.0,2874301407-363895.jpg,2883264368-67631.jpg,1.0,,,,A1LG7I4UFRWZRY
350,45,,1.0,25.0,2901941401-292798.jpg,2883273443-68193.jpg,3.0,,,,A1LG7I4UFRWZRY
351,46,,1.0,26.0,2446759347-347016.jpg,2238569117-333045.jpg,3.0,,,,A1LG7I4UFRWZRY
352,47,,1.0,27.0,2868474407-362883.jpg,2981246400-220363.jpg,2.0,,,,A1LG7I4UFRWZRY
353,48,,1.0,28.0,2449442529-124445.jpg,2898632385-217137.jpg,3.0,,,,A1LG7I4UFRWZRY
354,49,,0.0,29.0,right.jpg,,,right,,,A1LG7I4UFRWZRY
355,50,,1.0,30.0,2460547467-349422.jpg,2898618440-216545.jpg,1.0,,,,A1LG7I4UFRWZRY
356,51,,1.0,31.0,2898633421-291973.jpg,2512876023-52283.jpg,1.0,,,,A1LG7I4UFRWZRY
357,52,,1.0,32.0,2883268471-290842.jpg,2901947448-70314.jpg,3.0,,,,A1LG7I4UFRWZRY
358,53,,1.0,33.0,2238572663-35822.jpg,2986419333-73361.jpg,1.0,,,,A1LG7I4UFRWZRY
359,54,,1.0,34.0,2898617468-68274.jpg,2964207374-144577.jpg,3.0,,,,A1LG7I4UFRWZRY
360,55,,1.0,35.0,2981231403-71642.jpg,2981244403-72215.jpg,2.0,,,,A1LG7I4UFRWZRY
361,56,,1.0,36.0,2864910426-287204.jpg,2901939433-69672.jpg,3.0,,,,A1LG7I4UFRWZRY
362,57,,1.0,37.0,2898618390-216538.jpg,2986449336-296644.jpg,1.0,,,,A1LG7I4UFRWZRY
363,58,right,1.0,38.0,right.jpg,,,right,2.0944,,A1LG7I4UFRWZRY
364,59,,1.0,39.0,2592379964-131054.jpg,2592380272-354673.jpg,3.0,,,,A1LG7I4UFRWZRY
365,60,,1.0,40.0,2864907432-362042.jpg,2901947423-70310.jpg,2.0,,,,A1LG7I4UFRWZRY
366,61,,1.0,41.0,2883254439-140941.jpg,2898632385-217136.jpg,2.0,,,,A1LG7I4UFRWZRY
367,62,,1.0,42.0,2446758985-197609.jpg,2898624426-291544.jpg,3.0,,,,A1LG7I4UFRWZRY
368,63,,1.0,43.0,2449441881-272368.jpg,2449441881-272367.jpg,3.0,,,,A1LG7I4UFRWZRY
369,64,,1.0,44.0,2460547508-51571.jpg,2981232437-369759.jpg,2.0,,,,A1LG7I4UFRWZRY
370,65,,1.0,45.0,2868475410-213219.jpg,2901946465-218350.jpg,1.0,,,,A1LG7I4UFRWZRY
371,66,,1.0,46.0,2458347385-199723.jpg,2458347252-348911.jpg,3.0,,,,A1LG7I4UFRWZRY
372,67,,1.0,47.0,2898624426-291546.jpg,2964218432-369263.jpg,1.0,,,,A1LG7I4UFRWZRY
373,68,,0.0,48.0,left.jpg,,,left,,,A1LG7I4UFRWZRY
374,69,,1.0,49.0,2901952513-70703.jpg,2238481198-19821.jpg,3.0,,,,A1LG7I4UFRWZRY
375,70,,1.0,50.0,2964223381-294447.jpg,2901941438-69836.jpg,2.0,,,,A1LG7I4UFRWZRY
376,71,,1.0,51.0,2575120738-55529.jpg,2575120738-55528.jpg,2.0,,,,A1LG7I4UFRWZRY
377,72,,1.0,52.0,2901948350-218459.jpg,2804906319-133082.jpg,1.0,,,,A1LG7I4UFRWZRY
378,73,,1.0,53.0,2238428357-313623.jpg,2238499057-320266.jpg,1.0,,,,A1LG7I4UFRWZRY
379,74,,1.0,54.0,2512875899-126682.jpg,2460547536-274179.jpg,1.0,,,,A1LG7I4UFRWZRY
380,75,,1.0,55.0,2592380177-354629.jpg,2579432534-130704.jpg,2.0,,,,A1LG7I4UFRWZRY
381,76,,1.0,56.0,2238560245-182099.jpg,2549106624-127823.jpg,1.0,,,,A1LG7I4UFRWZRY
382,77,,1.0,57.0,2446759803-49249.jpg,2898618440-216547.jpg,2.0,,,,A1LG7I4UFRWZRY
383,78,,1.0,58.0,2874303365-214262.jpg,2609793677-355397.jpg,1.0,,,,A1LG7I4UFRWZRY
384,79,,1.0,59.0,2981241414-145842.jpg,2427873848-47312.jpg,3.0,,,,A1LG7I4UFRWZRY
385,80,,1.0,60.0,2874307433-66280.jpg,2981231422-369714.jpg,3.0,,,,A1LG7I4UFRWZRY
386,81,,1.0,61.0,2592380177-354626.jpg,2864901386-286797.jpg,2.0,,,,A1LG7I4UFRWZRY
387,82,,1.0,62.0,2883256307-365057.jpg,2611628310-206388.jpg,1.0,,,,A1LG7I4UFRWZRY
388,83,,1.0,63.0,2898635428-69104.jpg,2898625336-291572.jpg,3.0,,,,A1LG7I4UFRWZRY
389,84,,1.0,64.0,2874302418-65979.jpg,2413147898-43548.jpg,1.0,,,,A1LG7I4UFRWZRY
390,20,,1.0,0.0,2864907432-362042.jpg,2901947423-70310.jpg,2.0,,,,AFT9JOHMU11KY
391,21,,1.0,1.0,2898617468-68274.jpg,2864906345-212360.jpg,1.0,,,,AFT9JOHMU11KY
392,22,,1.0,2.0,2238425482-313537.jpg,2238436322-314047.jpg,2.0,,,,AFT9JOHMU11KY
393,23,,1.0,3.0,2964218374-144967.jpg,2981231446-294732.jpg,3.0,,,,AFT9JOHMU11KY
394,24,,1.0,4.0,2864910426-287204.jpg,2874299429-139694.jpg,2.0,,,,AFT9JOHMU11KY
395,25,,1.0,5.0,2901939379-143480.jpg,2901938432-367629.jpg,3.0,,,,AFT9JOHMU11KY
396,26,right,1.0,6.0,right.jpg,,,right,1.706,,AFT9JOHMU11KY
397,27,,1.0,7.0,2964213381-294060.jpg,2981244394-145974.jpg,1.0,,,,AFT9JOHMU11KY
398,28,,1.0,8.0,2449442529-124445.jpg,2898632385-217137.jpg,3.0,,,,AFT9JOHMU11KY
399,29,,1.0,9.0,2883256307-365057.jpg,2964210336-293945.jpg,2.0,,,,AFT9JOHMU11KY
400,30,,1.0,10.0,2238480677-317399.jpg,2238573546-258454.jpg,2.0,,,,AFT9JOHMU11KY
401,31,,1.0,11.0,2238560245-182099.jpg,2549106624-127823.jpg,1.0,,,,AFT9JOHMU11KY
402,32,,1.0,12.0,2238572663-35822.jpg,2864903351-286874.jpg,3.0,,,,AFT9JOHMU11KY
403,33,,1.0,13.0,2901948350-218459.jpg,2804906319-133082.jpg,1.0,,,,AFT9JOHMU11KY
404,34,,1.0,14.0,2883268471-290842.jpg,2883255450-215310.jpg,2.0,,,,AFT9JOHMU11KY
405,35,,1.0,15.0,2901939379-143479.jpg,2460547467-349423.jpg,1.0,,,,AFT9JOHMU11KY
406,36,,1.0,16.0,2981241414-145842.jpg,2856919327-359676.jpg,1.0,,,,AFT9JOHMU11KY
407,37,,1.0,17.0,2964216465-219242.jpg,2238544191-252422.jpg,1.0,,,,AFT9JOHMU11KY
408,38,,1.0,18.0,2901947423-70311.jpg,2860312398-62572.jpg,1.0,,,,AFT9JOHMU11KY
409,39,,1.0,19.0,2898634397-367080.jpg,2901934408-69289.jpg,2.0,,,,AFT9JOHMU11KY
410,40,,1.0,20.0,2898624426-291546.jpg,2964218432-369263.jpg,1.0,,,,AFT9JOHMU11KY
411,41,right,1.0,21.0,right.jpg,,,right,1.601,,AFT9JOHMU11KY
412,42,,1.0,22.0,2874302418-65979.jpg,2238578544-111698.jpg,3.0,,,,AFT9JOHMU11KY
413,43,,1.0,23.0,2460547508-51571.jpg,2901941438-69835.jpg,3.0,,,,AFT9JOHMU11KY
414,44,,1.0,24.0,2883254439-140941.jpg,2981231446-294730.jpg,3.0,,,,AFT9JOHMU11KY
415,45,,1.0,25.0,2901941401-292798.jpg,2883273443-68193.jpg,3.0,,,,AFT9JOHMU11KY
416,46,,1.0,26.0,2446759347-347016.jpg,2964224310-219528.jpg,1.0,,,,AFT9JOHMU11KY
417,47,,1.0,27.0,2452380832-348593.jpg,2449442181-272436.jpg,3.0,,,,AFT9JOHMU11KY
418,48,,1.0,28.0,2898635428-69104.jpg,2898625336-291572.jpg,3.0,,,,AFT9JOHMU11KY
419,49,,1.0,29.0,2458347385-199723.jpg,2458347252-348911.jpg,3.0,,,,AFT9JOHMU11KY
420,50,,1.0,30.0,2592380177-354626.jpg,2864901386-286797.jpg,2.0,,,,AFT9JOHMU11KY
421,51,,1.0,31.0,2238428357-313623.jpg,2575121987-353817.jpg,3.0,,,,AFT9JOHMU11KY
422,52,left,1.0,32.0,left.jpg,,,left,1.842,,AFT9JOHMU11KY
423,53,,1.0,33.0,2592380177-354629.jpg,2898633421-291974.jpg,1.0,,,,AFT9JOHMU11KY
424,54,,1.0,34.0,2898635427-367120.jpg,2901946439-144040.jpg,1.0,,,,AFT9JOHMU11KY
425,55,,1.0,35.0,2901952513-70703.jpg,2238481198-19821.jpg,3.0,,,,AFT9JOHMU11KY
426,56,left,1.0,36.0,left.jpg,,,left,1.989,,AFT9JOHMU11KY
427,57,,1.0,37.0,2868475410-213219.jpg,2901946465-218350.jpg,1.0,,,,AFT9JOHMU11KY
428,58,,1.0,38.0,2898618444-142233.jpg,2238555262-330312.jpg,2.0,,,,AFT9JOHMU11KY
429,59,,1.0,39.0,2883268412-365898.jpg,2984615361-295510.jpg,2.0,,,,AFT9JOHMU11KY
430,60,,1.0,40.0,2446759803-49249.jpg,2898618440-216547.jpg,2.0,,,,AFT9JOHMU11KY
431,61,,1.0,41.0,2460547467-349422.jpg,2864909447-362146.jpg,3.0,,,,AFT9JOHMU11KY
432,62,,1.0,42.0,2460547467-349421.jpg,2452380166-273110.jpg,2.0,,,,AFT9JOHMU11KY
433,63,,1.0,43.0,2874302418-65978.jpg,2898633321-291943.jpg,3.0,,,,AFT9JOHMU11KY
434,64,,1.0,44.0,2981231403-71642.jpg,2427873763-47290.jpg,3.0,,,,AFT9JOHMU11KY
435,65,,1.0,45.0,2964223381-294447.jpg,2901941438-69836.jpg,2.0,,,,AFT9JOHMU11KY
436,66,,1.0,46.0,2874301407-363895.jpg,2986397322-371109.jpg,2.0,,,,AFT9JOHMU11KY
437,67,,1.0,47.0,2874303365-214262.jpg,2609793677-355397.jpg,1.0,,,,AFT9JOHMU11KY
438,68,,1.0,48.0,2452381505-199546.jpg,2901938432-367627.jpg,1.0,,,,AFT9JOHMU11KY
439,69,,1.0,49.0,2238580740-186218.jpg,2964220333-71258.jpg,3.0,,,,AFT9JOHMU11KY
440,70,,1.0,50.0,2449441881-272368.jpg,2883268412-365899.jpg,1.0,,,,AFT9JOHMU11KY
441,71,,1.0,51.0,2449442529-124446.jpg,2446759803-49251.jpg,1.0,,,,AFT9JOHMU11KY
442,72,right,1.0,52.0,right.jpg,,,right,1.869,,AFT9JOHMU11KY
443,73,,1.0,53.0,2874299429-139695.jpg,2446760917-347439.jpg,3.0,,,,AFT9JOHMU11KY
444,74,,1.0,54.0,2575120738-55529.jpg,2238531493-28260.jpg,3.0,,,,AFT9JOHMU11KY
445,75,,1.0,55.0,2512875899-126682.jpg,2460547536-274179.jpg,1.0,,,,AFT9JOHMU11KY
446,76,,1.0,56.0,2898633421-291973.jpg,2575118671-277663.jpg,2.0,,,,AFT9JOHMU11KY
447,77,,1.0,57.0,2898618390-216538.jpg,2901939327-367670.jpg,2.0,,,,AFT9JOHMU11KY
448,78,,1.0,58.0,2238481198-19822.jpg,2901946436-293242.jpg,2.0,,,,AFT9JOHMU11KY
449,79,,1.0,59.0,2592379964-131054.jpg,2575963989-130576.jpg,1.0,,,,AFT9JOHMU11KY
450,80,,1.0,60.0,2874307433-66280.jpg,2981246400-220365.jpg,2.0,,,,AFT9JOHMU11KY
451,81,,1.0,61.0,2238481928-19949.jpg,2864900357-361688.jpg,2.0,,,,AFT9JOHMU11KY
452,82,,1.0,62.0,2446758985-197609.jpg,2864909447-362144.jpg,2.0,,,,AFT9JOHMU11KY
453,83,,1.0,63.0,2986451363-73599.jpg,2238434559-90406.jpg,3.0,,,,AFT9JOHMU11KY
454,84,,1.0,64.0,2868474407-362883.jpg,2238516618-25604.jpg,1.0,,,,AFT9JOHMU11KY
455,20,,1.0,0.0,2238572663-35822.jpg,2238571930-184143.jpg,2.0,,,,A2OK9GZQ92MVUA
456,21,,1.0,1.0,2238481198-19822.jpg,2238480803-19737.jpg,3.0,,,,A2OK9GZQ92MVUA
457,22,,1.0,2.0,2874302418-65978.jpg,2898626385-216899.jpg,1.0,,,,A2OK9GZQ92MVUA
458,23,,1.0,3.0,2868474407-362883.jpg,2238516618-25604.jpg,1.0,,,,A2OK9GZQ92MVUA
459,24,,1.0,4.0,2901947423-70311.jpg,2860312398-62572.jpg,1.0,,,,A2OK9GZQ92MVUA
460,25,,1.0,5.0,2986451363-73599.jpg,2901939327-367669.jpg,1.0,,,,A2OK9GZQ92MVUA
461,26,,1.0,6.0,2898635427-367120.jpg,2898621427-366486.jpg,3.0,,,,A2OK9GZQ92MVUA
462,27,,1.0,7.0,2452381505-199546.jpg,2994401319-148290.jpg,3.0,,,,A2OK9GZQ92MVUA
463,28,,1.0,8.0,2592379964-131054.jpg,2575963989-130576.jpg,1.0,,,,A2OK9GZQ92MVUA
464,29,,1.0,9.0,2883254439-140941.jpg,2446760844-124088.jpg,1.0,,,,A2OK9GZQ92MVUA
465,30,,1.0,10.0,2964223381-294447.jpg,2898628438-68785.jpg,3.0,,,,A2OK9GZQ92MVUA
466,31,,1.0,11.0,2964216465-219242.jpg,2238544191-252422.jpg,1.0,,,,A2OK9GZQ92MVUA
467,32,,1.0,12.0,2238481928-19949.jpg,2883264367-365620.jpg,1.0,,,,A2OK9GZQ92MVUA
468,33,left,1.0,13.0,left.jpg,,,left,0.967,,A2OK9GZQ92MVUA
469,34,,1.0,14.0,2874302418-65979.jpg,2238480648-19714.jpg,2.0,,,,A2OK9GZQ92MVUA
470,35,,1.0,15.0,2901941401-292798.jpg,2981243412-370222.jpg,2.0,,,,A2OK9GZQ92MVUA
471,36,,1.0,16.0,2874299429-139695.jpg,2883266388-67750.jpg,1.0,,,,A2OK9GZQ92MVUA
472,37,left,1.0,17.0,left.jpg,,,left,1.732,,A2OK9GZQ92MVUA
473,38,,1.0,18.0,2898634397-367080.jpg,2237944827-301472.jpg,1.0,,,,A2OK9GZQ92MVUA
474,39,,1.0,19.0,2864910426-287204.jpg,2874299429-139694.jpg,2.0,,,,A2OK9GZQ92MVUA
475,40,,1.0,20.0,2964213381-294060.jpg,2964213381-294061.jpg,3.0,,,,A2OK9GZQ92MVUA
476,41,,1.0,21.0,2446758985-197609.jpg,2864909447-362144.jpg,2.0,,,,A2OK9GZQ92MVUA
477,42,,1.0,22.0,2901952513-70703.jpg,2238481198-19821.jpg,3.0,,,,A2OK9GZQ92MVUA
478,43,,1.0,23.0,2446759347-347016.jpg,2964224310-219528.jpg,1.0,,,,A2OK9GZQ92MVUA
479,44,,1.0,24.0,2238428357-313623.jpg,2575121987-353817.jpg,3.0,,,,A2OK9GZQ92MVUA
480,45,,1.0,25.0,2901939379-143479.jpg,2460547467-349423.jpg,1.0,,,,A2OK9GZQ92MVUA
481,46,,1.0,26.0,2238480677-317399.jpg,2238480278-19661.jpg,3.0,,,,A2OK9GZQ92MVUA
482,47,,1.0,27.0,2864907432-362042.jpg,2901947423-70310.jpg,2.0,,,,A2OK9GZQ92MVUA
483,48,,1.0,28.0,2898618444-142233.jpg,2898618444-142232.jpg,3.0,,,,A2OK9GZQ92MVUA
484,49,,1.0,29.0,2449442529-124446.jpg,2898632385-217139.jpg,3.0,,,,A2OK9GZQ92MVUA
485,50,,1.0,30.0,2460547467-349422.jpg,2868487415-213924.jpg,2.0,,,,A2OK9GZQ92MVUA
486,51,,1.0,31.0,2868475410-213219.jpg,2238480803-19739.jpg,2.0,,,,A2OK9GZQ92MVUA
487,52,,1.0,32.0,2874307433-66280.jpg,2981231422-369714.jpg,3.0,,,,A2OK9GZQ92MVUA
488,53,right,1.0,33.0,right.jpg,,,right,2.623,,A2OK9GZQ92MVUA
489,54,,1.0,34.0,2981231403-71642.jpg,2981244403-72215.jpg,2.0,,,,A2OK9GZQ92MVUA
490,55,,1.0,35.0,2238425482-313537.jpg,2238436322-314047.jpg,2.0,,,,A2OK9GZQ92MVUA
491,56,,1.0,36.0,2449441881-272368.jpg,2883268412-365899.jpg,1.0,,,,A2OK9GZQ92MVUA
492,57,,1.0,37.0,2874301407-363895.jpg,2883264368-67631.jpg,1.0,,,,A2OK9GZQ92MVUA
493,58,,1.0,38.0,2592380177-354629.jpg,2579432534-130704.jpg,2.0,,,,A2OK9GZQ92MVUA
494,59,,1.0,39.0,2874303365-214262.jpg,2238563377-332054.jpg,2.0,,,,A2OK9GZQ92MVUA
495,60,,1.0,40.0,2901939379-143480.jpg,2901942428-69919.jpg,1.0,,,,A2OK9GZQ92MVUA
496,61,,1.0,41.0,2898618390-216538.jpg,2575120609-129862.jpg,3.0,,,,A2OK9GZQ92MVUA
497,62,,1.0,42.0,2898617468-68274.jpg,2864906345-212360.jpg,1.0,,,,A2OK9GZQ92MVUA
498,63,left,1.0,43.0,left.jpg,,,left,0.854,,A2OK9GZQ92MVUA
499,64,,1.0,44.0,2883268412-365898.jpg,2238436252-314037.jpg,3.0,,,,A2OK9GZQ92MVUA
500,65,,1.0,45.0,2898624426-291546.jpg,2964218432-369263.jpg,1.0,,,,A2OK9GZQ92MVUA
501,66,,1.0,46.0,2446759803-49249.jpg,2898618440-216547.jpg,2.0,,,,A2OK9GZQ92MVUA
502,67,,1.0,47.0,2238560245-182099.jpg,2874314526-289684.jpg,2.0,,,,A2OK9GZQ92MVUA
503,68,,1.0,48.0,2575120738-55529.jpg,2575120738-55528.jpg,2.0,,,,A2OK9GZQ92MVUA
504,69,,1.0,49.0,2964218374-144967.jpg,2981231446-294732.jpg,3.0,,,,A2OK9GZQ92MVUA
505,70,,1.0,50.0,2898635428-69104.jpg,2898625336-291572.jpg,3.0,,,,A2OK9GZQ92MVUA
506,71,,1.0,51.0,2592380177-354626.jpg,2238117096-228518.jpg,3.0,,,,A2OK9GZQ92MVUA
507,72,,1.0,52.0,2458347385-199723.jpg,2458347252-348911.jpg,3.0,,,,A2OK9GZQ92MVUA
508,73,,1.0,53.0,2460547508-51571.jpg,2460547291-274110.jpg,1.0,,,,A2OK9GZQ92MVUA
509,74,right,1.0,54.0,right.jpg,,,right,2.228,,A2OK9GZQ92MVUA
510,75,,1.0,55.0,2449442529-124445.jpg,2986408373-73286.jpg,2.0,,,,A2OK9GZQ92MVUA
511,76,,1.0,56.0,2883268471-290842.jpg,2883268471-290843.jpg,1.0,,,,A2OK9GZQ92MVUA
512,77,,1.0,57.0,2898633421-291973.jpg,2238550049-105691.jpg,3.0,,,,A2OK9GZQ92MVUA
513,78,,1.0,58.0,2238580740-186218.jpg,2964220333-71258.jpg,3.0,,,,A2OK9GZQ92MVUA
514,79,,1.0,59.0,2883256307-365057.jpg,2611628310-206388.jpg,1.0,,,,A2OK9GZQ92MVUA
515,80,,1.0,60.0,2512875899-126682.jpg,2592380177-354628.jpg,2.0,,,,A2OK9GZQ92MVUA
516,81,,1.0,61.0,2460547467-349421.jpg,2981235446-294901.jpg,3.0,,,,A2OK9GZQ92MVUA
517,82,,1.0,62.0,2901948350-218459.jpg,2417208001-267065.jpg,2.0,,,,A2OK9GZQ92MVUA
518,83,,1.0,63.0,2981241414-145842.jpg,2874301404-139813.jpg,2.0,,,,A2OK9GZQ92MVUA
519,84,,1.0,64.0,2452380832-348593.jpg,2238481813-19930.jpg,2.0,,,,A2OK9GZQ92MVUA
520,20,,1.0,0.0,2460547467-349421.jpg,2452380166-273110.jpg,2.0,,,,A2MGHT7XQIE473
521,21,,1.0,1.0,2460547467-349422.jpg,2864909447-362146.jpg,3.0,,,,A2MGHT7XQIE473
522,22,,1.0,2.0,2868475410-213219.jpg,2868474407-362885.jpg,3.0,,,,A2MGHT7XQIE473
523,23,,1.0,3.0,2898635427-367120.jpg,2901946439-144040.jpg,1.0,,,,A2MGHT7XQIE473
524,24,,1.0,4.0,2592380177-354629.jpg,2512875587-350044.jpg,3.0,,,,A2MGHT7XQIE473
525,25,,1.0,5.0,2883268412-365898.jpg,2238436252-314037.jpg,3.0,,,,A2MGHT7XQIE473
526,26,,1.0,6.0,2238481928-19949.jpg,2981241419-145844.jpg,3.0,,,,A2MGHT7XQIE473
527,27,,1.0,7.0,2575120738-55529.jpg,2575120738-55528.jpg,2.0,,,,A2MGHT7XQIE473
528,28,,1.0,8.0,2898618390-216538.jpg,2901939327-367670.jpg,2.0,,,,A2MGHT7XQIE473
529,29,,1.0,9.0,2452381505-199546.jpg,2901938432-367627.jpg,1.0,,,,A2MGHT7XQIE473
530,30,,1.0,10.0,2964218374-144967.jpg,2981231446-294732.jpg,3.0,,,,A2MGHT7XQIE473
531,31,,1.0,11.0,2883254439-140941.jpg,2898632385-217136.jpg,2.0,,,,A2MGHT7XQIE473
532,32,,1.0,12.0,2592379964-131054.jpg,2592380272-354673.jpg,3.0,,,,A2MGHT7XQIE473
533,33,,0.0,13.0,left.jpg,,,left,,,A2MGHT7XQIE473
534,34,,1.0,14.0,2898634397-367080.jpg,2964217461-294238.jpg,3.0,,,,A2MGHT7XQIE473
535,35,,1.0,15.0,2864907432-362042.jpg,2901947423-70310.jpg,2.0,,,,A2MGHT7XQIE473
536,36,,1.0,16.0,2874299429-139695.jpg,2901942443-69923.jpg,2.0,,,,A2MGHT7XQIE473
537,37,,1.0,17.0,2981241414-145842.jpg,2427873848-47312.jpg,3.0,,,,A2MGHT7XQIE473
538,38,,1.0,18.0,2883268471-290842.jpg,2901947448-70314.jpg,3.0,,,,A2MGHT7XQIE473
539,39,,1.0,19.0,2964213381-294060.jpg,2981244394-145974.jpg,1.0,,,,A2MGHT7XQIE473
540,40,,1.0,20.0,2452380832-348593.jpg,2449442181-272436.jpg,3.0,,,,A2MGHT7XQIE473
541,41,,1.0,21.0,2964216465-219242.jpg,2864900319-137787.jpg,2.0,,,,A2MGHT7XQIE473
542,42,,1.0,22.0,2901941401-292798.jpg,2981243412-370222.jpg,2.0,,,,A2MGHT7XQIE473
543,43,,0.0,23.0,left.jpg,,,left,,,A2MGHT7XQIE473
544,44,,1.0,24.0,2874301407-363895.jpg,2883264368-67631.jpg,1.0,,,,A2MGHT7XQIE473
545,45,,1.0,25.0,2238560245-182099.jpg,2549106624-127823.jpg,1.0,,,,A2MGHT7XQIE473
546,46,,1.0,26.0,2986451363-73599.jpg,2901939327-367669.jpg,1.0,,,,A2MGHT7XQIE473
547,47,,1.0,27.0,2446759347-347016.jpg,2964224310-219528.jpg,1.0,,,,A2MGHT7XQIE473
548,48,,1.0,28.0,2238428357-313623.jpg,2238499057-320266.jpg,1.0,,,,A2MGHT7XQIE473
549,49,,1.0,29.0,2901947423-70311.jpg,2238577590-185467.jpg,3.0,,,,A2MGHT7XQIE473
550,50,,1.0,30.0,2238481198-19822.jpg,2862691449-137104.jpg,1.0,,,,A2MGHT7XQIE473
551,51,,1.0,31.0,2901939379-143480.jpg,2901938432-367629.jpg,3.0,,,,A2MGHT7XQIE473
552,52,left,1.0,32.0,left.jpg,,,left,1.936,,A2MGHT7XQIE473
553,53,,1.0,33.0,2874302418-65978.jpg,2898633321-291943.jpg,3.0,,,,A2MGHT7XQIE473
554,54,,1.0,34.0,2901948350-218459.jpg,2417208001-267065.jpg,2.0,,,,A2MGHT7XQIE473
555,55,,1.0,35.0,2883256307-365057.jpg,2864904453-63933.jpg,3.0,,,,A2MGHT7XQIE473
556,56,,1.0,36.0,2901952513-70703.jpg,2238481198-19821.jpg,3.0,,,,A2MGHT7XQIE473
557,57,,1.0,37.0,2864910426-287204.jpg,2874299429-139694.jpg,2.0,,,,A2MGHT7XQIE473
558,58,,1.0,38.0,2446758985-197609.jpg,2864909447-362144.jpg,2.0,,,,A2MGHT7XQIE473
559,59,right,1.0,39.0,right.jpg,,,right,1.409,,A2MGHT7XQIE473
560,60,,1.0,40.0,2446759803-49249.jpg,2446760601-272099.jpg,1.0,,,,A2MGHT7XQIE473
561,61,,1.0,41.0,2238425482-313537.jpg,2238436322-314047.jpg,2.0,,,,A2MGHT7XQIE473
562,62,,1.0,42.0,2901939379-143479.jpg,2460547467-349423.jpg,1.0,,,,A2MGHT7XQIE473
563,63,,1.0,43.0,2898624426-291546.jpg,2981236443-71859.jpg,2.0,,,,A2MGHT7XQIE473
564,64,,1.0,44.0,2238572663-35822.jpg,2986419333-73361.jpg,1.0,,,,A2MGHT7XQIE473
565,65,,1.0,45.0,2874302418-65979.jpg,2238480648-19714.jpg,2.0,,,,A2MGHT7XQIE473
566,66,,1.0,46.0,2449442529-124445.jpg,2452380171-273112.jpg,1.0,,,,A2MGHT7XQIE473
567,67,,1.0,47.0,2449441881-272368.jpg,2984615358-72439.jpg,2.0,,,,A2MGHT7XQIE473
568,68,,0.0,48.0,right.jpg,,,right,,,A2MGHT7XQIE473
569,69,,1.0,49.0,2512875899-126682.jpg,2986447332-371497.jpg,3.0,,,,A2MGHT7XQIE473
570,70,,1.0,50.0,2449442529-124446.jpg,2446759803-49251.jpg,1.0,,,,A2MGHT7XQIE473
571,71,,1.0,51.0,2874303365-214262.jpg,2238563377-332054.jpg,2.0,,,,A2MGHT7XQIE473
572,72,,1.0,52.0,2460547508-51571.jpg,2981232437-369759.jpg,2.0,,,,A2MGHT7XQIE473
573,73,,1.0,53.0,2898618444-142233.jpg,2238555262-330312.jpg,2.0,,,,A2MGHT7XQIE473
574,74,,1.0,54.0,2868474407-362883.jpg,2901948383-70363.jpg,3.0,,,,A2MGHT7XQIE473
575,75,,1.0,55.0,2898617468-68274.jpg,2864906345-212360.jpg,1.0,,,,A2MGHT7XQIE473
576,76,,1.0,56.0,2238580740-186218.jpg,2238521193-26285.jpg,2.0,,,,A2MGHT7XQIE473
577,77,,1.0,57.0,2592380177-354626.jpg,2986408339-146952.jpg,1.0,,,,A2MGHT7XQIE473
578,78,,1.0,58.0,2981231403-71642.jpg,2274829821-263682.jpg,1.0,,,,A2MGHT7XQIE473
579,79,,1.0,59.0,2898633421-291973.jpg,2575118671-277663.jpg,2.0,,,,A2MGHT7XQIE473
580,80,,1.0,60.0,2964223381-294447.jpg,2898628438-68785.jpg,3.0,,,,A2MGHT7XQIE473
581,81,,1.0,61.0,2458347385-199723.jpg,2238480434-93829.jpg,1.0,,,,A2MGHT7XQIE473
582,82,,1.0,62.0,2238480677-317399.jpg,2238481630-168218.jpg,1.0,,,,A2MGHT7XQIE473
583,83,,1.0,63.0,2898635428-69104.jpg,2898625336-291572.jpg,3.0,,,,A2MGHT7XQIE473
584,84,,1.0,64.0,2874307433-66280.jpg,2986447306-296584.jpg,1.0,,,,A2MGHT7XQIE473
585,20,,1.0,0.0,2452380832-348593.jpg,2238328478-11678.jpg,1.0,,,,A17QEFBJIP3K04
586,21,,1.0,1.0,2901939379-143480.jpg,2981229442-369621.jpg,2.0,,,,A17QEFBJIP3K04
587,22,,1.0,2.0,2592380177-354626.jpg,2864901386-286797.jpg,2.0,,,,A17QEFBJIP3K04
588,23,,1.0,3.0,2986451363-73599.jpg,2238434559-90406.jpg,3.0,,,,A17QEFBJIP3K04
589,24,,1.0,4.0,2883256307-365057.jpg,2864904453-63933.jpg,3.0,,,,A17QEFBJIP3K04
590,25,,1.0,5.0,2898634397-367080.jpg,2237944827-301472.jpg,1.0,,,,A17QEFBJIP3K04
591,26,,1.0,6.0,2592379964-131054.jpg,2238479053-19457.jpg,2.0,,,,A17QEFBJIP3K04
592,27,,1.0,7.0,2460547508-51571.jpg,2460547291-274110.jpg,1.0,,,,A17QEFBJIP3K04
593,28,,1.0,8.0,2898635427-367120.jpg,2901946439-144040.jpg,1.0,,,,A17QEFBJIP3K04
594,29,right,1.0,9.0,right.jpg,,,right,2.5642,,A17QEFBJIP3K04
595,30,,1.0,10.0,2446759803-49249.jpg,2446760601-272099.jpg,1.0,,,,A17QEFBJIP3K04
596,31,,1.0,11.0,2898618390-216538.jpg,2575120609-129862.jpg,3.0,,,,A17QEFBJIP3K04
597,32,,1.0,12.0,2446759347-347016.jpg,2901951350-218702.jpg,2.0,,,,A17QEFBJIP3K04
598,33,,1.0,13.0,2898624426-291546.jpg,2981235446-294900.jpg,3.0,,,,A17QEFBJIP3K04
599,34,,1.0,14.0,2238425482-313537.jpg,2898633480-217190.jpg,3.0,,,,A17QEFBJIP3K04
600,35,,1.0,15.0,2575120738-55529.jpg,2238531493-28260.jpg,3.0,,,,A17QEFBJIP3K04
601,36,,1.0,16.0,2901948350-218459.jpg,2417208001-267065.jpg,2.0,,,,A17QEFBJIP3K04
602,37,right,1.0,17.0,right.jpg,,,right,1.8474,,A17QEFBJIP3K04
603,38,,1.0,18.0,2901947423-70311.jpg,2238573447-333826.jpg,2.0,,,,A17QEFBJIP3K04
604,39,,1.0,19.0,2238481928-19949.jpg,2981241419-145844.jpg,3.0,,,,A17QEFBJIP3K04
605,40,,1.0,20.0,2238580740-186218.jpg,2238550816-254000.jpg,1.0,,,,A17QEFBJIP3K04
606,41,,1.0,21.0,2868475410-213219.jpg,2901946465-218350.jpg,1.0,,,,A17QEFBJIP3K04
607,42,,1.0,22.0,2512875899-126682.jpg,2460547536-274179.jpg,1.0,,,,A17QEFBJIP3K04
608,43,,1.0,23.0,2238560245-182099.jpg,2874314526-289684.jpg,2.0,,,,A17QEFBJIP3K04
609,44,,1.0,24.0,2898618444-142233.jpg,2238555262-330312.jpg,2.0,,,,A17QEFBJIP3K04
610,45,,1.0,25.0,2883254439-140941.jpg,2981231446-294730.jpg,3.0,,,,A17QEFBJIP3K04
611,46,,1.0,26.0,2898617468-68274.jpg,2901943387-368037.jpg,2.0,,,,A17QEFBJIP3K04
612,47,right,1.0,27.0,right.jpg,,,right,2.367900001,,A17QEFBJIP3K04
613,48,,1.0,28.0,2964216465-219242.jpg,2238544191-252422.jpg,1.0,,,,A17QEFBJIP3K04
614,49,,1.0,29.0,2874302418-65978.jpg,2898633321-291943.jpg,3.0,,,,A17QEFBJIP3K04
615,50,,1.0,30.0,2868474407-362883.jpg,2238516618-25604.jpg,1.0,,,,A17QEFBJIP3K04
616,51,,1.0,31.0,2898633421-291973.jpg,2512876023-52283.jpg,1.0,,,,A17QEFBJIP3K04
617,52,,1.0,32.0,2238480677-317399.jpg,2238481630-168218.jpg,1.0,,,,A17QEFBJIP3K04
618,53,,1.0,33.0,2449442529-124445.jpg,2452380171-273112.jpg,1.0,,,,A17QEFBJIP3K04
619,54,,1.0,34.0,2460547467-349422.jpg,2864909447-362146.jpg,3.0,,,,A17QEFBJIP3K04
620,55,,1.0,35.0,2446758985-197609.jpg,2864909447-362144.jpg,2.0,,,,A17QEFBJIP3K04
621,56,,1.0,36.0,2864910426-287204.jpg,2874299429-139694.jpg,2.0,,,,A17QEFBJIP3K04
622,57,,1.0,37.0,2874301407-363895.jpg,2986397322-371109.jpg,2.0,,,,A17QEFBJIP3K04
623,58,,1.0,38.0,2901941401-292798.jpg,2883273443-68193.jpg,3.0,,,,A17QEFBJIP3K04
624,59,,1.0,39.0,2901939379-143479.jpg,2460547467-349423.jpg,1.0,,,,A17QEFBJIP3K04
625,60,,1.0,40.0,2874303365-214262.jpg,2609793677-355397.jpg,1.0,,,,A17QEFBJIP3K04
626,61,,1.0,41.0,2874302418-65979.jpg,2238578544-111698.jpg,3.0,,,,A17QEFBJIP3K04
627,62,,1.0,42.0,2901952513-70703.jpg,2238481198-19821.jpg,3.0,,,,A17QEFBJIP3K04
628,63,right,1.0,43.0,right.jpg,,,right,1.9364,,A17QEFBJIP3K04
629,64,,1.0,44.0,2449442529-124446.jpg,2446759803-49251.jpg,1.0,,,,A17QEFBJIP3K04
630,65,,1.0,45.0,2238572663-35822.jpg,2864903351-286874.jpg,3.0,,,,A17QEFBJIP3K04
631,66,,1.0,46.0,2452381505-199546.jpg,2238567168-34916.jpg,2.0,,,,A17QEFBJIP3K04
632,67,,1.0,47.0,2964223381-294447.jpg,2901941438-69836.jpg,2.0,,,,A17QEFBJIP3K04
633,68,,1.0,48.0,2964218374-144967.jpg,2883254439-140940.jpg,2.0,,,,A17QEFBJIP3K04
634,69,,1.0,49.0,2898635428-69104.jpg,2901943411-292945.jpg,2.0,,,,A17QEFBJIP3K04
635,70,,1.0,50.0,2964213381-294060.jpg,2458348012-349114.jpg,2.0,,,,A17QEFBJIP3K04
636,71,,1.0,51.0,2864907432-362042.jpg,2989726338-74002.jpg,3.0,,,,A17QEFBJIP3K04
637,72,,1.0,52.0,2981231403-71642.jpg,2274829821-263682.jpg,1.0,,,,A17QEFBJIP3K04
638,73,,1.0,53.0,2449441881-272368.jpg,2449441881-272367.jpg,3.0,,,,A17QEFBJIP3K04
639,74,,0.0,54.0,right.jpg,,,right,,,A17QEFBJIP3K04
640,75,,1.0,55.0,2874299429-139695.jpg,2901942443-69923.jpg,2.0,,,,A17QEFBJIP3K04
641,76,,1.0,56.0,2460547467-349421.jpg,2981235446-294901.jpg,3.0,,,,A17QEFBJIP3K04
642,77,,1.0,57.0,2458347385-199723.jpg,2458347252-348911.jpg,3.0,,,,A17QEFBJIP3K04
643,78,,1.0,58.0,2592380177-354629.jpg,2898633421-291974.jpg,1.0,,,,A17QEFBJIP3K04
644,79,,1.0,59.0,2981241414-145842.jpg,2856919327-359676.jpg,1.0,,,,A17QEFBJIP3K04
645,80,,1.0,60.0,2883268471-290842.jpg,2883255450-215310.jpg,2.0,,,,A17QEFBJIP3K04
646,81,,1.0,61.0,2874307433-66280.jpg,2981246400-220365.jpg,2.0,,,,A17QEFBJIP3K04
647,82,,1.0,62.0,2238428357-313623.jpg,2575121987-353817.jpg,3.0,,,,A17QEFBJIP3K04
648,83,,1.0,63.0,2238481198-19822.jpg,2238480803-19737.jpg,3.0,,,,A17QEFBJIP3K04
649,84,,1.0,64.0,2883268412-365898.jpg,2984626312-370849.jpg,1.0,,,,A17QEFBJIP3K04
650,20,,1.0,0.0,2238572663-35822.jpg,2238571930-184143.jpg,2.0,,,,A1N37RFT8OXBNN
651,21,,1.0,1.0,2883254439-140941.jpg,2898632385-217136.jpg,2.0,,,,A1N37RFT8OXBNN
652,22,,1.0,2.0,2446759347-347016.jpg,2238569117-333045.jpg,3.0,,,,A1N37RFT8OXBNN
653,23,,1.0,3.0,2238481928-19949.jpg,2981241419-145844.jpg,3.0,,,,A1N37RFT8OXBNN
654,24,,1.0,4.0,2898618390-216538.jpg,2986449336-296644.jpg,1.0,,,,A1N37RFT8OXBNN
655,25,,1.0,5.0,2864907432-362042.jpg,2901947423-70310.jpg,2.0,,,,A1N37RFT8OXBNN
656,26,,1.0,6.0,2964223381-294447.jpg,2427874231-269884.jpg,1.0,,,,A1N37RFT8OXBNN
657,27,,1.0,7.0,2449442529-124446.jpg,2898632385-217139.jpg,3.0,,,,A1N37RFT8OXBNN
658,28,,1.0,8.0,2981241414-145842.jpg,2427873848-47312.jpg,3.0,,,,A1N37RFT8OXBNN
659,29,,1.0,9.0,2986451363-73599.jpg,2860302315-210704.jpg,2.0,,,,A1N37RFT8OXBNN
660,30,right,1.0,10.0,right.jpg,,,right,1.129,,A1N37RFT8OXBNN
661,31,,1.0,11.0,2460547467-349422.jpg,2864909447-362146.jpg,3.0,,,,A1N37RFT8OXBNN
662,32,,1.0,12.0,2901947423-70311.jpg,2860312398-62572.jpg,1.0,,,,A1N37RFT8OXBNN
663,33,,1.0,13.0,2512875899-126682.jpg,2592380177-354628.jpg,2.0,,,,A1N37RFT8OXBNN
664,34,,1.0,14.0,2864910426-287204.jpg,2874299429-139694.jpg,2.0,,,,A1N37RFT8OXBNN
665,35,,1.0,15.0,2874299429-139695.jpg,2901942443-69923.jpg,2.0,,,,A1N37RFT8OXBNN
666,36,,1.0,16.0,2449441881-272368.jpg,2883268412-365899.jpg,1.0,,,,A1N37RFT8OXBNN
667,37,,1.0,17.0,2238560245-182099.jpg,2549106624-127823.jpg,1.0,,,,A1N37RFT8OXBNN
668,38,,1.0,18.0,2458347385-199723.jpg,2427874554-121863.jpg,2.0,,,,A1N37RFT8OXBNN
669,39,,1.0,19.0,2964218374-144967.jpg,2964218374-144968.jpg,1.0,,,,A1N37RFT8OXBNN
670,40,,1.0,20.0,2898617468-68274.jpg,2864906345-212360.jpg,1.0,,,,A1N37RFT8OXBNN
671,41,,1.0,21.0,2460547508-51571.jpg,2460547291-274110.jpg,1.0,,,,A1N37RFT8OXBNN
672,42,,1.0,22.0,2592379964-131054.jpg,2575963989-130576.jpg,1.0,,,,A1N37RFT8OXBNN
673,43,left,1.0,23.0,left.jpg,,,left,1.386,,A1N37RFT8OXBNN
674,44,,1.0,24.0,2238425482-313537.jpg,2238471391-240918.jpg,1.0,,,,A1N37RFT8OXBNN
675,45,,1.0,25.0,2575120738-55529.jpg,2238531493-28260.jpg,3.0,,,,A1N37RFT8OXBNN
676,46,,1.0,26.0,2898618444-142233.jpg,2898618444-142232.jpg,3.0,,,,A1N37RFT8OXBNN
677,47,left,1.0,27.0,left.jpg,,,left,0.958,,A1N37RFT8OXBNN
678,48,,1.0,28.0,2874303365-214262.jpg,2609793677-355397.jpg,1.0,,,,A1N37RFT8OXBNN
679,49,,1.0,29.0,2883256307-365057.jpg,2864904453-63933.jpg,3.0,,,,A1N37RFT8OXBNN
680,50,,1.0,30.0,2901948350-218459.jpg,2417208001-267065.jpg,2.0,,,,A1N37RFT8OXBNN
681,51,,1.0,31.0,2592380177-354626.jpg,2864901386-286797.jpg,2.0,,,,A1N37RFT8OXBNN
682,52,,1.0,32.0,2452380832-348593.jpg,2449442181-272436.jpg,3.0,,,,A1N37RFT8OXBNN
683,53,,1.0,33.0,2446758985-197609.jpg,2864909447-362144.jpg,2.0,,,,A1N37RFT8OXBNN
684,54,,1.0,34.0,2868475410-213219.jpg,2868474407-362885.jpg,3.0,,,,A1N37RFT8OXBNN
685,55,,1.0,35.0,2238481198-19822.jpg,2238480803-19737.jpg,3.0,,,,A1N37RFT8OXBNN
686,56,,1.0,36.0,2238580740-186218.jpg,2238521193-26285.jpg,2.0,,,,A1N37RFT8OXBNN
687,57,right,1.0,37.0,right.jpg,,,right,1.181,,A1N37RFT8OXBNN
688,58,,1.0,38.0,2868474407-362883.jpg,2901948383-70363.jpg,3.0,,,,A1N37RFT8OXBNN
689,59,,1.0,39.0,2592380177-354629.jpg,2579432534-130704.jpg,2.0,,,,A1N37RFT8OXBNN
690,60,,1.0,40.0,2874307433-66280.jpg,2986447306-296584.jpg,1.0,,,,A1N37RFT8OXBNN
691,61,,1.0,41.0,2238480677-317399.jpg,2238480278-19661.jpg,3.0,,,,A1N37RFT8OXBNN
692,62,,1.0,42.0,2883268412-365898.jpg,2984615361-295510.jpg,2.0,,,,A1N37RFT8OXBNN
693,63,,1.0,43.0,2449442529-124445.jpg,2452380171-273112.jpg,1.0,,,,A1N37RFT8OXBNN
694,64,,1.0,44.0,2898633421-291973.jpg,2575118671-277663.jpg,2.0,,,,A1N37RFT8OXBNN
695,65,,1.0,45.0,2898634397-367080.jpg,2964217461-294238.jpg,3.0,,,,A1N37RFT8OXBNN
696,66,,1.0,46.0,2964213381-294060.jpg,2981244394-145974.jpg,1.0,,,,A1N37RFT8OXBNN
697,67,,1.0,47.0,2901939379-143479.jpg,2460547467-349423.jpg,1.0,,,,A1N37RFT8OXBNN
698,68,right,1.0,48.0,right.jpg,,,right,1.063,,A1N37RFT8OXBNN
699,69,,1.0,49.0,2874301407-363895.jpg,2986397322-371109.jpg,2.0,,,,A1N37RFT8OXBNN
700,70,,1.0,50.0,2901939379-143480.jpg,2901942428-69919.jpg,1.0,,,,A1N37RFT8OXBNN
701,71,,1.0,51.0,2460547467-349421.jpg,2898631394-142727.jpg,1.0,,,,A1N37RFT8OXBNN
702,72,,1.0,52.0,2446759803-49249.jpg,2452380166-273109.jpg,3.0,,,,A1N37RFT8OXBNN
703,73,,1.0,53.0,2901941401-292798.jpg,2883273443-68193.jpg,3.0,,,,A1N37RFT8OXBNN
704,74,,1.0,54.0,2981231403-71642.jpg,2274829821-263682.jpg,1.0,,,,A1N37RFT8OXBNN
705,75,,1.0,55.0,2452381505-199546.jpg,2238567168-34916.jpg,2.0,,,,A1N37RFT8OXBNN
706,76,,1.0,56.0,2883268471-290842.jpg,2901947448-70314.jpg,3.0,,,,A1N37RFT8OXBNN
707,77,,1.0,57.0,2874302418-65979.jpg,2238480648-19714.jpg,2.0,,,,A1N37RFT8OXBNN
708,78,,1.0,58.0,2874302418-65978.jpg,2898626385-216899.jpg,1.0,,,,A1N37RFT8OXBNN
709,79,,1.0,59.0,2898635428-69104.jpg,2901943411-292945.jpg,2.0,,,,A1N37RFT8OXBNN
710,80,,1.0,60.0,2238428357-313623.jpg,2575121987-353817.jpg,3.0,,,,A1N37RFT8OXBNN
711,81,,1.0,61.0,2898635427-367120.jpg,2868479517-363220.jpg,2.0,,,,A1N37RFT8OXBNN
712,82,,1.0,62.0,2901952513-70703.jpg,2238481198-19821.jpg,3.0,,,,A1N37RFT8OXBNN
713,83,,1.0,63.0,2898624426-291546.jpg,2964218432-369263.jpg,1.0,,,,A1N37RFT8OXBNN
714,84,,1.0,64.0,2964216465-219242.jpg,2898619327-366362.jpg,3.0,,,,A1N37RFT8OXBNN
715,20,,1.0,0.0,2238428357-313623.jpg,2984615361-295509.jpg,2.0,,,,A24AWGSJ6PNF6K
716,21,,1.0,1.0,2898624426-291546.jpg,2981235446-294900.jpg,3.0,,,,A24AWGSJ6PNF6K
717,22,,1.0,2.0,2901948350-218459.jpg,2981246360-220352.jpg,3.0,,,,A24AWGSJ6PNF6K
718,23,,1.0,3.0,2868475410-213219.jpg,2901946465-218350.jpg,1.0,,,,A24AWGSJ6PNF6K
719,24,,1.0,4.0,2446759803-49249.jpg,2452380166-273109.jpg,3.0,,,,A24AWGSJ6PNF6K
720,25,,1.0,5.0,2964216465-219242.jpg,2864900319-137787.jpg,2.0,,,,A24AWGSJ6PNF6K
721,26,,1.0,6.0,2592379964-131054.jpg,2238479053-19457.jpg,2.0,,,,A24AWGSJ6PNF6K
722,27,,1.0,7.0,2898618444-142233.jpg,2238555262-330312.jpg,2.0,,,,A24AWGSJ6PNF6K
723,28,,1.0,8.0,2981231403-71642.jpg,2981244403-72215.jpg,2.0,,,,A24AWGSJ6PNF6K
724,29,,1.0,9.0,2446758985-197609.jpg,2898624426-291544.jpg,3.0,,,,A24AWGSJ6PNF6K
725,30,,1.0,10.0,2986451363-73599.jpg,2860302315-210704.jpg,2.0,,,,A24AWGSJ6PNF6K
726,31,,0.0,11.0,left.jpg,,,left,,,A24AWGSJ6PNF6K
727,32,,1.0,12.0,2864910426-287204.jpg,2901939433-69672.jpg,3.0,,,,A24AWGSJ6PNF6K
728,33,,1.0,13.0,2874303365-214262.jpg,2238563377-332054.jpg,2.0,,,,A24AWGSJ6PNF6K
729,34,,1.0,14.0,2238580740-186218.jpg,2964220333-71258.jpg,3.0,,,,A24AWGSJ6PNF6K
730,35,,1.0,15.0,2898618390-216538.jpg,2901939327-367670.jpg,2.0,,,,A24AWGSJ6PNF6K
731,36,,1.0,16.0,2449442529-124446.jpg,2460547536-274181.jpg,2.0,,,,A24AWGSJ6PNF6K
732,37,,1.0,17.0,2874307433-66280.jpg,2981231422-369714.jpg,3.0,,,,A24AWGSJ6PNF6K
733,38,,0.0,18.0,left.jpg,,,left,,,A24AWGSJ6PNF6K
734,39,,1.0,19.0,2238481198-19822.jpg,2238480803-19737.jpg,3.0,,,,A24AWGSJ6PNF6K
735,40,,1.0,20.0,2460547467-349422.jpg,2864909447-362146.jpg,3.0,,,,A24AWGSJ6PNF6K
736,41,,1.0,21.0,2901952513-70703.jpg,2864907361-287062.jpg,1.0,,,,A24AWGSJ6PNF6K
737,42,,1.0,22.0,2460547467-349421.jpg,2981235446-294901.jpg,3.0,,,,A24AWGSJ6PNF6K
738,43,,1.0,23.0,2458347385-199723.jpg,2427874554-121863.jpg,2.0,,,,A24AWGSJ6PNF6K
739,44,,1.0,24.0,2592380177-354629.jpg,2512875587-350044.jpg,3.0,,,,A24AWGSJ6PNF6K
740,45,,1.0,25.0,2901941401-292798.jpg,2981243412-370222.jpg,2.0,,,,A24AWGSJ6PNF6K
741,46,,1.0,26.0,2592380177-354626.jpg,2986408339-146952.jpg,1.0,,,,A24AWGSJ6PNF6K
742,47,,1.0,27.0,2864907432-362042.jpg,2864901420-212147.jpg,1.0,,,,A24AWGSJ6PNF6K
743,48,,1.0,28.0,2901947423-70311.jpg,2238573447-333826.jpg,2.0,,,,A24AWGSJ6PNF6K
744,49,,0.0,29.0,right.jpg,,,right,,,A24AWGSJ6PNF6K
745,50,,1.0,30.0,2883268412-365898.jpg,2984626312-370849.jpg,1.0,,,,A24AWGSJ6PNF6K
746,51,,1.0,31.0,2874302418-65979.jpg,2238578544-111698.jpg,3.0,,,,A24AWGSJ6PNF6K
747,52,,1.0,32.0,2874302418-65978.jpg,2898633321-291943.jpg,3.0,,,,A24AWGSJ6PNF6K
748,53,,1.0,33.0,2898635428-69104.jpg,2901943411-292945.jpg,2.0,,,,A24AWGSJ6PNF6K
749,54,,1.0,34.0,2981241414-145842.jpg,2856919327-359676.jpg,1.0,,,,A24AWGSJ6PNF6K
750,55,,1.0,35.0,2460547508-51571.jpg,2460547291-274110.jpg,1.0,,,,A24AWGSJ6PNF6K
751,56,,1.0,36.0,2238425482-313537.jpg,2898633480-217190.jpg,3.0,,,,A24AWGSJ6PNF6K
752,57,,1.0,37.0,2575120738-55529.jpg,2238531493-28260.jpg,3.0,,,,A24AWGSJ6PNF6K
753,58,,1.0,38.0,2238480677-317399.jpg,2238480278-19661.jpg,3.0,,,,A24AWGSJ6PNF6K
754,59,,1.0,39.0,2964213381-294060.jpg,2981244394-145974.jpg,1.0,,,,A24AWGSJ6PNF6K
755,60,,1.0,40.0,2883254439-140941.jpg,2446760844-124088.jpg,1.0,,,,A24AWGSJ6PNF6K
756,61,,0.0,41.0,left.jpg,,,left,,,A24AWGSJ6PNF6K
757,62,,1.0,42.0,2898635427-367120.jpg,2901946439-144040.jpg,1.0,,,,A24AWGSJ6PNF6K
758,63,,1.0,43.0,2964218374-144967.jpg,2981231446-294732.jpg,3.0,,,,A24AWGSJ6PNF6K
759,64,,1.0,44.0,2874301407-363895.jpg,2883264368-67631.jpg,1.0,,,,A24AWGSJ6PNF6K
760,65,,1.0,45.0,2898634397-367080.jpg,2237944827-301472.jpg,1.0,,,,A24AWGSJ6PNF6K
761,66,,1.0,46.0,2449442529-124445.jpg,2452380171-273112.jpg,1.0,,,,A24AWGSJ6PNF6K
762,67,,1.0,47.0,2452381505-199546.jpg,2901938432-367627.jpg,1.0,,,,A24AWGSJ6PNF6K
763,68,,1.0,48.0,2901939379-143480.jpg,2901938432-367629.jpg,3.0,,,,A24AWGSJ6PNF6K
764,69,,1.0,49.0,2238572663-35822.jpg,2864903351-286874.jpg,3.0,,,,A24AWGSJ6PNF6K
765,70,,1.0,50.0,2964223381-294447.jpg,2901941438-69836.jpg,2.0,,,,A24AWGSJ6PNF6K
766,71,,1.0,51.0,2238481928-19949.jpg,2883264367-365620.jpg,1.0,,,,A24AWGSJ6PNF6K
767,72,,0.0,52.0,left.jpg,,,left,,,A24AWGSJ6PNF6K
768,73,,1.0,53.0,2238560245-182099.jpg,2874314526-289684.jpg,2.0,,,,A24AWGSJ6PNF6K
769,74,,1.0,54.0,2898617468-68274.jpg,2864906345-212360.jpg,1.0,,,,A24AWGSJ6PNF6K
770,75,,1.0,55.0,2901939379-143479.jpg,2446758985-197610.jpg,2.0,,,,A24AWGSJ6PNF6K
771,76,,1.0,56.0,2898633421-291973.jpg,2512876023-52283.jpg,1.0,,,,A24AWGSJ6PNF6K
772,77,,1.0,57.0,2449441881-272368.jpg,2883268412-365899.jpg,1.0,,,,A24AWGSJ6PNF6K
773,78,,1.0,58.0,2452380832-348593.jpg,2238481813-19930.jpg,2.0,,,,A24AWGSJ6PNF6K
774,79,,1.0,59.0,2512875899-126682.jpg,2986447332-371497.jpg,3.0,,,,A24AWGSJ6PNF6K
775,80,,1.0,60.0,2868474407-362883.jpg,2238516618-25604.jpg,1.0,,,,A24AWGSJ6PNF6K
776,81,,1.0,61.0,2446759347-347016.jpg,2901951350-218702.jpg,2.0,,,,A24AWGSJ6PNF6K
777,82,,1.0,62.0,2874299429-139695.jpg,2883266388-67750.jpg,1.0,,,,A24AWGSJ6PNF6K
778,83,,1.0,63.0,2883256307-365057.jpg,2964210336-293945.jpg,2.0,,,,A24AWGSJ6PNF6K
779,84,,1.0,64.0,2883268471-290842.jpg,2883255450-215310.jpg,2.0,,,,A24AWGSJ6PNF6K
780,20,,1.0,0.0,2874301407-363895.jpg,2986397322-371109.jpg,2.0,,,,A1HUQ7QA5QWM5Q
781,21,,1.0,1.0,2898633421-291973.jpg,2238550049-105691.jpg,3.0,,,,A1HUQ7QA5QWM5Q
782,22,,1.0,2.0,2981231403-71642.jpg,2981244403-72215.jpg,2.0,,,,A1HUQ7QA5QWM5Q
783,23,,1.0,3.0,2901947423-70311.jpg,2238573447-333826.jpg,2.0,,,,A1HUQ7QA5QWM5Q
784,24,,1.0,4.0,2575120738-55529.jpg,2238531493-28260.jpg,3.0,,,,A1HUQ7QA5QWM5Q
785,25,,1.0,5.0,2964216465-219242.jpg,2898619327-366362.jpg,3.0,,,,A1HUQ7QA5QWM5Q
786,26,,0.0,6.0,right.jpg,,,right,,,A1HUQ7QA5QWM5Q
787,27,,1.0,7.0,2868474407-362883.jpg,2901948383-70363.jpg,3.0,,,,A1HUQ7QA5QWM5Q
788,28,,1.0,8.0,2964213381-294060.jpg,2458348012-349114.jpg,2.0,,,,A1HUQ7QA5QWM5Q
789,29,,1.0,9.0,2592379964-131054.jpg,2238479053-19457.jpg,2.0,,,,A1HUQ7QA5QWM5Q
790,30,,1.0,10.0,2452381505-199546.jpg,2901938432-367627.jpg,1.0,,,,A1HUQ7QA5QWM5Q
791,31,,1.0,11.0,2898618444-142233.jpg,2898618444-142232.jpg,3.0,,,,A1HUQ7QA5QWM5Q
792,32,,1.0,12.0,2874303365-214262.jpg,2238563377-332054.jpg,2.0,,,,A1HUQ7QA5QWM5Q
793,33,,1.0,13.0,2452380832-348593.jpg,2238481813-19930.jpg,2.0,,,,A1HUQ7QA5QWM5Q
794,34,,1.0,14.0,2883268471-290842.jpg,2883268471-290843.jpg,1.0,,,,A1HUQ7QA5QWM5Q
795,35,,1.0,15.0,2874302418-65979.jpg,2238578544-111698.jpg,3.0,,,,A1HUQ7QA5QWM5Q
796,36,,1.0,16.0,2864910426-287204.jpg,2874299429-139694.jpg,2.0,,,,A1HUQ7QA5QWM5Q
797,37,,1.0,17.0,2238480677-317399.jpg,2238481630-168218.jpg,1.0,,,,A1HUQ7QA5QWM5Q
798,38,left,1.0,18.0,left.jpg,,,left,2.0143,,A1HUQ7QA5QWM5Q
799,39,,1.0,19.0,2901952513-70703.jpg,2868469411-287540.jpg,2.0,,,,A1HUQ7QA5QWM5Q
800,40,,1.0,20.0,2592380177-354626.jpg,2238117096-228518.jpg,3.0,,,,A1HUQ7QA5QWM5Q
801,41,,1.0,21.0,2901939379-143479.jpg,2460547467-349423.jpg,1.0,,,,A1HUQ7QA5QWM5Q
802,42,,1.0,22.0,2238572663-35822.jpg,2238571930-184143.jpg,2.0,,,,A1HUQ7QA5QWM5Q
803,43,,1.0,23.0,2898634397-367080.jpg,2901934408-69289.jpg,2.0,,,,A1HUQ7QA5QWM5Q
804,44,,1.0,24.0,2874299429-139695.jpg,2883266388-67750.jpg,1.0,,,,A1HUQ7QA5QWM5Q
805,45,,1.0,25.0,2883256307-365057.jpg,2611628310-206388.jpg,1.0,,,,A1HUQ7QA5QWM5Q
806,46,,1.0,26.0,2981241414-145842.jpg,2427873848-47312.jpg,3.0,,,,A1HUQ7QA5QWM5Q
807,47,,1.0,27.0,2238580740-186218.jpg,2964220333-71258.jpg,3.0,,,,A1HUQ7QA5QWM5Q
808,48,,1.0,28.0,2238425482-313537.jpg,2898633480-217190.jpg,3.0,,,,A1HUQ7QA5QWM5Q
809,49,,1.0,29.0,2864907432-362042.jpg,2901947423-70310.jpg,2.0,,,,A1HUQ7QA5QWM5Q
810,50,,1.0,30.0,2964223381-294447.jpg,2427874231-269884.jpg,1.0,,,,A1HUQ7QA5QWM5Q
811,51,,1.0,31.0,2238481198-19822.jpg,2238480803-19737.jpg,3.0,,,,A1HUQ7QA5QWM5Q
812,52,,1.0,32.0,2449442529-124445.jpg,2452380171-273112.jpg,1.0,,,,A1HUQ7QA5QWM5Q
813,53,,1.0,33.0,2460547467-349421.jpg,2898631394-142727.jpg,1.0,,,,A1HUQ7QA5QWM5Q
814,54,right,1.0,34.0,right.jpg,,,right,2.2347,,A1HUQ7QA5QWM5Q
815,55,,1.0,35.0,2460547467-349422.jpg,2864909447-362146.jpg,3.0,,,,A1HUQ7QA5QWM5Q
816,56,,1.0,36.0,2901948350-218459.jpg,2804906319-133082.jpg,1.0,,,,A1HUQ7QA5QWM5Q
817,57,,1.0,37.0,2446759803-49249.jpg,2446760601-272099.jpg,1.0,,,,A1HUQ7QA5QWM5Q
818,58,,1.0,38.0,2874302418-65978.jpg,2898626385-216899.jpg,1.0,,,,A1HUQ7QA5QWM5Q
819,59,,1.0,39.0,2446759347-347016.jpg,2238569117-333045.jpg,3.0,,,,A1HUQ7QA5QWM5Q
820,60,,1.0,40.0,2446758985-197609.jpg,2981240424-145795.jpg,1.0,,,,A1HUQ7QA5QWM5Q
821,61,,1.0,41.0,2874307433-66280.jpg,2986447306-296584.jpg,1.0,,,,A1HUQ7QA5QWM5Q
822,62,,1.0,42.0,2592380177-354629.jpg,2579432534-130704.jpg,2.0,,,,A1HUQ7QA5QWM5Q
823,63,,1.0,43.0,2883268412-365898.jpg,2984615361-295510.jpg,2.0,,,,A1HUQ7QA5QWM5Q
824,64,,0.0,44.0,left.jpg,,,left,,,A1HUQ7QA5QWM5Q
825,65,,1.0,45.0,2868475410-213219.jpg,2901946465-218350.jpg,1.0,,,,A1HUQ7QA5QWM5Q
826,66,,1.0,46.0,2901939379-143480.jpg,2901942428-69919.jpg,1.0,,,,A1HUQ7QA5QWM5Q
827,67,,1.0,47.0,2901941401-292798.jpg,2883273443-68193.jpg,3.0,,,,A1HUQ7QA5QWM5Q
828,68,,1.0,48.0,2238428357-313623.jpg,2238499057-320266.jpg,1.0,,,,A1HUQ7QA5QWM5Q
829,69,,1.0,49.0,2449442529-124446.jpg,2460547536-274181.jpg,2.0,,,,A1HUQ7QA5QWM5Q
830,70,,0.0,50.0,left.jpg,,,left,,,A1HUQ7QA5QWM5Q
831,71,,1.0,51.0,2238481928-19949.jpg,2864900357-361688.jpg,2.0,,,,A1HUQ7QA5QWM5Q
832,72,,1.0,52.0,2898635427-367120.jpg,2898621427-366486.jpg,3.0,,,,A1HUQ7QA5QWM5Q
833,73,,1.0,53.0,2883254439-140941.jpg,2898632385-217136.jpg,2.0,,,,A1HUQ7QA5QWM5Q
834,74,,1.0,54.0,2898617468-68274.jpg,2864906345-212360.jpg,1.0,,,,A1HUQ7QA5QWM5Q
835,75,,1.0,55.0,2458347385-199723.jpg,2458347252-348911.jpg,3.0,,,,A1HUQ7QA5QWM5Q
836,76,,1.0,56.0,2238560245-182099.jpg,2874314526-289684.jpg,2.0,,,,A1HUQ7QA5QWM5Q
837,77,,1.0,57.0,2964218374-144967.jpg,2883254439-140940.jpg,2.0,,,,A1HUQ7QA5QWM5Q
838,78,,1.0,58.0,2898635428-69104.jpg,2898625336-291572.jpg,3.0,,,,A1HUQ7QA5QWM5Q
839,79,,1.0,59.0,2898618390-216538.jpg,2575120609-129862.jpg,3.0,,,,A1HUQ7QA5QWM5Q
840,80,,1.0,60.0,2449441881-272368.jpg,2883268412-365899.jpg,1.0,,,,A1HUQ7QA5QWM5Q
841,81,,1.0,61.0,2512875899-126682.jpg,2592380177-354628.jpg,2.0,,,,A1HUQ7QA5QWM5Q
842,82,,1.0,62.0,2898624426-291546.jpg,2981235446-294900.jpg,3.0,,,,A1HUQ7QA5QWM5Q
843,83,,1.0,63.0,2460547508-51571.jpg,2901941438-69835.jpg,3.0,,,,A1HUQ7QA5QWM5Q
844,84,,1.0,64.0,2986451363-73599.jpg,2901939327-367669.jpg,1.0,,,,A1HUQ7QA5QWM5Q
845,20,,1.0,0.0,2592380177-354626.jpg,2986408339-146952.jpg,1.0,,,,AB09F0Q4T10TE
846,21,,1.0,1.0,2238481198-19822.jpg,2862691449-137104.jpg,1.0,,,,AB09F0Q4T10TE
847,22,,1.0,2.0,2964218374-144967.jpg,2883254439-140940.jpg,2.0,,,,AB09F0Q4T10TE
848,23,,1.0,3.0,2238572663-35822.jpg,2864903351-286874.jpg,3.0,,,,AB09F0Q4T10TE
849,24,,1.0,4.0,2883268412-365898.jpg,2238436252-314037.jpg,3.0,,,,AB09F0Q4T10TE
850,25,,1.0,5.0,2460547467-349421.jpg,2452380166-273110.jpg,2.0,,,,AB09F0Q4T10TE
851,26,,1.0,6.0,2874301407-363895.jpg,2901947323-70275.jpg,3.0,,,,AB09F0Q4T10TE
852,27,,1.0,7.0,2874302418-65978.jpg,2238481198-19823.jpg,2.0,,,,AB09F0Q4T10TE
853,28,,1.0,8.0,2898624426-291546.jpg,2981236443-71859.jpg,2.0,,,,AB09F0Q4T10TE
854,29,,1.0,9.0,2449441881-272368.jpg,2449441881-272367.jpg,3.0,,,,AB09F0Q4T10TE
855,30,left,1.0,10.0,left.jpg,,,left,0.6451,,AB09F0Q4T10TE
856,31,,1.0,11.0,2898635427-367120.jpg,2901946439-144040.jpg,1.0,,,,AB09F0Q4T10TE
857,32,,1.0,12.0,2964213381-294060.jpg,2964213381-294061.jpg,3.0,,,,AB09F0Q4T10TE
858,33,,1.0,13.0,2449442529-124446.jpg,2446759803-49251.jpg,1.0,,,,AB09F0Q4T10TE
859,34,,1.0,14.0,2460547508-51571.jpg,2981232437-369759.jpg,2.0,,,,AB09F0Q4T10TE
860,35,,1.0,15.0,2981231403-71642.jpg,2274829821-263682.jpg,1.0,,,,AB09F0Q4T10TE
861,36,right,1.0,16.0,right.jpg,,,right,0.5607,,AB09F0Q4T10TE
862,37,,1.0,17.0,2864910426-287204.jpg,2901939433-69672.jpg,3.0,,,,AB09F0Q4T10TE
863,38,,1.0,18.0,2446759803-49249.jpg,2452380166-273109.jpg,3.0,,,,AB09F0Q4T10TE
864,39,,1.0,19.0,2898633421-291973.jpg,2238550049-105691.jpg,3.0,,,,AB09F0Q4T10TE
865,40,,1.0,20.0,2964216465-219242.jpg,2864900319-137787.jpg,2.0,,,,AB09F0Q4T10TE
866,41,,1.0,21.0,2964223381-294447.jpg,2901941438-69836.jpg,2.0,,,,AB09F0Q4T10TE
867,42,,1.0,22.0,2452380832-348593.jpg,2238481813-19930.jpg,2.0,,,,AB09F0Q4T10TE
868,43,,1.0,23.0,2868474407-362883.jpg,2981246400-220363.jpg,2.0,,,,AB09F0Q4T10TE
869,44,,1.0,24.0,2898634397-367080.jpg,2964217461-294238.jpg,3.0,,,,AB09F0Q4T10TE
870,45,,1.0,25.0,2883254439-140941.jpg,2898632385-217136.jpg,2.0,,,,AB09F0Q4T10TE
871,46,,1.0,26.0,2898618444-142233.jpg,2898618444-142232.jpg,3.0,,,,AB09F0Q4T10TE
872,47,,1.0,27.0,2986451363-73599.jpg,2860302315-210704.jpg,2.0,,,,AB09F0Q4T10TE
873,48,,1.0,28.0,2901947423-70311.jpg,2860312398-62572.jpg,1.0,,,,AB09F0Q4T10TE
874,49,,1.0,29.0,2883256307-365057.jpg,2964210336-293945.jpg,2.0,,,,AB09F0Q4T10TE
875,50,,1.0,30.0,2868475410-213219.jpg,2901946465-218350.jpg,1.0,,,,AB09F0Q4T10TE
876,51,,1.0,31.0,2446759347-347016.jpg,2964224310-219528.jpg,1.0,,,,AB09F0Q4T10TE
877,52,,1.0,32.0,2446758985-197609.jpg,2898624426-291544.jpg,3.0,,,,AB09F0Q4T10TE
878,53,left,1.0,33.0,left.jpg,,,left,0.5954,,AB09F0Q4T10TE
879,54,,1.0,34.0,2901939379-143479.jpg,2981240424-145794.jpg,3.0,,,,AB09F0Q4T10TE
880,55,,1.0,35.0,2981241414-145842.jpg,2874301404-139813.jpg,2.0,,,,AB09F0Q4T10TE
881,56,,1.0,36.0,2901939379-143480.jpg,2901942428-69919.jpg,1.0,,,,AB09F0Q4T10TE
882,57,,1.0,37.0,2238481928-19949.jpg,2883264367-365620.jpg,1.0,,,,AB09F0Q4T10TE
883,58,,1.0,38.0,2901948350-218459.jpg,2981246360-220352.jpg,3.0,,,,AB09F0Q4T10TE
884,59,left,1.0,39.0,left.jpg,,,left,0.5951,,AB09F0Q4T10TE
885,60,,1.0,40.0,2874302418-65979.jpg,2238578544-111698.jpg,3.0,,,,AB09F0Q4T10TE
886,61,,1.0,41.0,2238580740-186218.jpg,2238521193-26285.jpg,2.0,,,,AB09F0Q4T10TE
887,62,,1.0,42.0,2458347385-199723.jpg,2238480434-93829.jpg,1.0,,,,AB09F0Q4T10TE
888,63,,1.0,43.0,2898635428-69104.jpg,2446759803-49250.jpg,1.0,,,,AB09F0Q4T10TE
889,64,,1.0,44.0,2449442529-124445.jpg,2452380171-273112.jpg,1.0,,,,AB09F0Q4T10TE
890,65,,1.0,45.0,2874307433-66280.jpg,2986447306-296584.jpg,1.0,,,,AB09F0Q4T10TE
891,66,,1.0,46.0,2898618390-216538.jpg,2901939327-367670.jpg,2.0,,,,AB09F0Q4T10TE
892,67,right,1.0,47.0,right.jpg,,,right,0.6122,,AB09F0Q4T10TE
893,68,,1.0,48.0,2452381505-199546.jpg,2238567168-34916.jpg,2.0,,,,AB09F0Q4T10TE
894,69,,1.0,49.0,2864907432-362042.jpg,2989726338-74002.jpg,3.0,,,,AB09F0Q4T10TE
895,70,,1.0,50.0,2874299429-139695.jpg,2446760917-347439.jpg,3.0,,,,AB09F0Q4T10TE
896,71,,1.0,51.0,2238480677-317399.jpg,2238573546-258454.jpg,2.0,,,,AB09F0Q4T10TE
897,72,,1.0,52.0,2883268471-290842.jpg,2901947448-70314.jpg,3.0,,,,AB09F0Q4T10TE
898,73,,1.0,53.0,2238560245-182099.jpg,2549106624-127823.jpg,1.0,,,,AB09F0Q4T10TE
899,74,,1.0,54.0,2460547467-349422.jpg,2898618440-216545.jpg,1.0,,,,AB09F0Q4T10TE
900,75,,1.0,55.0,2575120738-55529.jpg,2575120738-55528.jpg,2.0,,,,AB09F0Q4T10TE
901,76,,1.0,56.0,2238425482-313537.jpg,2898633480-217190.jpg,3.0,,,,AB09F0Q4T10TE
902,77,,1.0,57.0,2592380177-354629.jpg,2512875587-350044.jpg,3.0,,,,AB09F0Q4T10TE
903,78,,1.0,58.0,2874303365-214262.jpg,2864911457-362260.jpg,3.0,,,,AB09F0Q4T10TE
904,79,,1.0,59.0,2901952513-70703.jpg,2868469411-287540.jpg,2.0,,,,AB09F0Q4T10TE
905,80,,1.0,60.0,2901941401-292798.jpg,2898618327-366317.jpg,1.0,,,,AB09F0Q4T10TE
906,81,,1.0,61.0,2592379964-131054.jpg,2575963989-130576.jpg,1.0,,,,AB09F0Q4T10TE
907,82,,1.0,62.0,2898617468-68274.jpg,2901943387-368037.jpg,2.0,,,,AB09F0Q4T10TE
908,83,,1.0,63.0,2512875899-126682.jpg,2460547536-274179.jpg,1.0,,,,AB09F0Q4T10TE
909,84,,1.0,64.0,2238428357-313623.jpg,2238499057-320266.jpg,1.0,,,,AB09F0Q4T10TE
910,20,,1.0,0.0,2981231403-71642.jpg,2427873763-47290.jpg,3.0,,,,A2ASRB2MTHDHPD
911,21,,1.0,1.0,2964213381-294060.jpg,2964213381-294061.jpg,3.0,,,,A2ASRB2MTHDHPD
912,22,,1.0,2.0,2901939379-143479.jpg,2460547467-349423.jpg,1.0,,,,A2ASRB2MTHDHPD
913,23,,1.0,3.0,2901941401-292798.jpg,2981243412-370222.jpg,2.0,,,,A2ASRB2MTHDHPD
914,24,,1.0,4.0,2449441881-272368.jpg,2449441881-272367.jpg,3.0,,,,A2ASRB2MTHDHPD
915,25,,1.0,5.0,2452380832-348593.jpg,2238481813-19930.jpg,2.0,,,,A2ASRB2MTHDHPD
916,26,,1.0,6.0,2898635428-69104.jpg,2901943411-292945.jpg,2.0,,,,A2ASRB2MTHDHPD
917,27,,1.0,7.0,2874307433-66280.jpg,2986447306-296584.jpg,1.0,,,,A2ASRB2MTHDHPD
918,28,,1.0,8.0,2901952513-70703.jpg,2238481198-19821.jpg,3.0,,,,A2ASRB2MTHDHPD
919,29,,1.0,9.0,2592380177-354629.jpg,2579432534-130704.jpg,2.0,,,,A2ASRB2MTHDHPD
920,30,left,1.0,10.0,left.jpg,,,left,0.8917,,A2ASRB2MTHDHPD
921,31,,1.0,11.0,2874302418-65979.jpg,2413147898-43548.jpg,1.0,,,,A2ASRB2MTHDHPD
922,32,,1.0,12.0,2883268412-365898.jpg,2238436252-314037.jpg,3.0,,,,A2ASRB2MTHDHPD
923,33,,1.0,13.0,2512875899-126682.jpg,2986447332-371497.jpg,3.0,,,,A2ASRB2MTHDHPD
924,34,,1.0,14.0,2458347385-199723.jpg,2458347252-348911.jpg,3.0,,,,A2ASRB2MTHDHPD
925,35,,1.0,15.0,2883254439-140941.jpg,2981231446-294730.jpg,3.0,,,,A2ASRB2MTHDHPD
926,36,,1.0,16.0,2874303365-214262.jpg,2864911457-362260.jpg,3.0,,,,A2ASRB2MTHDHPD
927,37,,1.0,17.0,2898618444-142233.jpg,2898618444-142232.jpg,3.0,,,,A2ASRB2MTHDHPD
928,38,left,1.0,18.0,left.jpg,,,left,0.9085,,A2ASRB2MTHDHPD
929,39,,1.0,19.0,2986451363-73599.jpg,2860302315-210704.jpg,2.0,,,,A2ASRB2MTHDHPD
930,40,,1.0,20.0,2238425482-313537.jpg,2238471391-240918.jpg,1.0,,,,A2ASRB2MTHDHPD
931,41,,1.0,21.0,2452381505-199546.jpg,2994401319-148290.jpg,3.0,,,,A2ASRB2MTHDHPD
932,42,,1.0,22.0,2898633421-291973.jpg,2575118671-277663.jpg,2.0,,,,A2ASRB2MTHDHPD
933,43,,1.0,23.0,2238481928-19949.jpg,2883264367-365620.jpg,1.0,,,,A2ASRB2MTHDHPD
934,44,,1.0,24.0,2883256307-365057.jpg,2611628310-206388.jpg,1.0,,,,A2ASRB2MTHDHPD
935,45,,1.0,25.0,2238572663-35822.jpg,2238571930-184143.jpg,2.0,,,,A2ASRB2MTHDHPD
936,46,,1.0,26.0,2898617468-68274.jpg,2864906345-212360.jpg,1.0,,,,A2ASRB2MTHDHPD
937,47,,1.0,27.0,2981241414-145842.jpg,2874301404-139813.jpg,2.0,,,,A2ASRB2MTHDHPD
938,48,,1.0,28.0,2964218374-144967.jpg,2981231446-294732.jpg,3.0,,,,A2ASRB2MTHDHPD
939,49,,1.0,29.0,2901947423-70311.jpg,2238573447-333826.jpg,2.0,,,,A2ASRB2MTHDHPD
940,50,,1.0,30.0,2874301407-363895.jpg,2986397322-371109.jpg,2.0,,,,A2ASRB2MTHDHPD
941,51,left,1.0,31.0,left.jpg,,,left,0.8015,,A2ASRB2MTHDHPD
942,52,,1.0,32.0,2446759347-347016.jpg,2901951350-218702.jpg,2.0,,,,A2ASRB2MTHDHPD
943,53,,1.0,33.0,2238580740-186218.jpg,2964220333-71258.jpg,3.0,,,,A2ASRB2MTHDHPD
944,54,,1.0,34.0,2868475410-213219.jpg,2868474407-362885.jpg,3.0,,,,A2ASRB2MTHDHPD
945,55,,1.0,35.0,2901948350-218459.jpg,2981246360-220352.jpg,3.0,,,,A2ASRB2MTHDHPD
946,56,,1.0,36.0,2874299429-139695.jpg,2883266388-67750.jpg,1.0,,,,A2ASRB2MTHDHPD
947,57,left,1.0,37.0,left.jpg,,,left,0.7765,,A2ASRB2MTHDHPD
948,58,,1.0,38.0,2874302418-65978.jpg,2898633321-291943.jpg,3.0,,,,A2ASRB2MTHDHPD
949,59,,1.0,39.0,2864910426-287204.jpg,2864902304-137862.jpg,1.0,,,,A2ASRB2MTHDHPD
950,60,,1.0,40.0,2964216465-219242.jpg,2898619327-366362.jpg,3.0,,,,A2ASRB2MTHDHPD
951,61,,1.0,41.0,2460547467-349421.jpg,2981235446-294901.jpg,3.0,,,,A2ASRB2MTHDHPD
952,62,,1.0,42.0,2592379964-131054.jpg,2575963989-130576.jpg,1.0,,,,A2ASRB2MTHDHPD
953,63,,1.0,43.0,2460547467-349422.jpg,2868487415-213924.jpg,2.0,,,,A2ASRB2MTHDHPD
954,64,,1.0,44.0,2898624426-291546.jpg,2964218432-369263.jpg,1.0,,,,A2ASRB2MTHDHPD
955,65,,1.0,45.0,2901939379-143480.jpg,2901942428-69919.jpg,1.0,,,,A2ASRB2MTHDHPD
956,66,,1.0,46.0,2898634397-367080.jpg,2237944827-301472.jpg,1.0,,,,A2ASRB2MTHDHPD
957,67,,1.0,47.0,2883268471-290842.jpg,2883268471-290843.jpg,1.0,,,,A2ASRB2MTHDHPD
958,68,,1.0,48.0,2964223381-294447.jpg,2427874231-269884.jpg,1.0,,,,A2ASRB2MTHDHPD
959,69,,1.0,49.0,2575120738-55529.jpg,2898632385-217138.jpg,1.0,,,,A2ASRB2MTHDHPD
960,70,right,1.0,50.0,right.jpg,,,right,1.0101,,A2ASRB2MTHDHPD
961,71,,1.0,51.0,2238428357-313623.jpg,2238499057-320266.jpg,1.0,,,,A2ASRB2MTHDHPD
962,72,,1.0,52.0,2446759803-49249.jpg,2898618440-216547.jpg,2.0,,,,A2ASRB2MTHDHPD
963,73,,1.0,53.0,2868474407-362883.jpg,2981246400-220363.jpg,2.0,,,,A2ASRB2MTHDHPD
964,74,,1.0,54.0,2898618390-216538.jpg,2901939327-367670.jpg,2.0,,,,A2ASRB2MTHDHPD
965,75,,1.0,55.0,2898635427-367120.jpg,2898621427-366486.jpg,3.0,,,,A2ASRB2MTHDHPD
966,76,,1.0,56.0,2238481198-19822.jpg,2862691449-137104.jpg,1.0,,,,A2ASRB2MTHDHPD
967,77,,1.0,57.0,2238480677-317399.jpg,2238480278-19661.jpg,3.0,,,,A2ASRB2MTHDHPD
968,78,,1.0,58.0,2446758985-197609.jpg,2981240424-145795.jpg,1.0,,,,A2ASRB2MTHDHPD
969,79,,1.0,59.0,2592380177-354626.jpg,2864901386-286797.jpg,2.0,,,,A2ASRB2MTHDHPD
970,80,,1.0,60.0,2864907432-362042.jpg,2864901420-212147.jpg,1.0,,,,A2ASRB2MTHDHPD
971,81,,1.0,61.0,2449442529-124445.jpg,2986408373-73286.jpg,2.0,,,,A2ASRB2MTHDHPD
972,82,,1.0,62.0,2238560245-182099.jpg,2874314526-289684.jpg,2.0,,,,A2ASRB2MTHDHPD
973,83,,1.0,63.0,2460547508-51571.jpg,2981232437-369759.jpg,2.0,,,,A2ASRB2MTHDHPD
974,84,,1.0,64.0,2449442529-124446.jpg,2460547536-274181.jpg,2.0,,,,A2ASRB2MTHDHPD
975,20,,1.0,0.0,2238580740-186218.jpg,2964220333-71258.jpg,3.0,,,,A1T3ZNKR5GG0TP
976,21,,1.0,1.0,2460547467-349421.jpg,2452380166-273110.jpg,2.0,,,,A1T3ZNKR5GG0TP
977,22,,1.0,2.0,2901948350-218459.jpg,2981246360-220352.jpg,3.0,,,,A1T3ZNKR5GG0TP
978,23,,1.0,3.0,2901941401-292798.jpg,2883273443-68193.jpg,3.0,,,,A1T3ZNKR5GG0TP
979,24,,1.0,4.0,2592380177-354629.jpg,2512875587-350044.jpg,3.0,,,,A1T3ZNKR5GG0TP
980,25,,1.0,5.0,2460547508-51571.jpg,2901941438-69835.jpg,3.0,,,,A1T3ZNKR5GG0TP
981,26,right,0.0,6.0,left.jpg,,,left,0.7668,,A1T3ZNKR5GG0TP
982,27,,1.0,7.0,2901939379-143479.jpg,2981240424-145794.jpg,3.0,,,,A1T3ZNKR5GG0TP
983,28,,1.0,8.0,2964218374-144967.jpg,2964218374-144968.jpg,1.0,,,,A1T3ZNKR5GG0TP
984,29,,1.0,9.0,2238560245-182099.jpg,2549106624-127823.jpg,1.0,,,,A1T3ZNKR5GG0TP
985,30,,1.0,10.0,2864907432-362042.jpg,2901947423-70310.jpg,2.0,,,,A1T3ZNKR5GG0TP
986,31,,1.0,11.0,2446759803-49249.jpg,2446760601-272099.jpg,1.0,,,,A1T3ZNKR5GG0TP
987,32,,1.0,12.0,2460547467-349422.jpg,2898618440-216545.jpg,1.0,,,,A1T3ZNKR5GG0TP
988,33,,1.0,13.0,2864910426-287204.jpg,2874299429-139694.jpg,2.0,,,,A1T3ZNKR5GG0TP
989,34,,1.0,14.0,2238425482-313537.jpg,2238471391-240918.jpg,1.0,,,,A1T3ZNKR5GG0TP
990,35,,1.0,15.0,2874302418-65978.jpg,2898626385-216899.jpg,1.0,,,,A1T3ZNKR5GG0TP
991,36,,1.0,16.0,2449441881-272368.jpg,2449441881-272367.jpg,3.0,,,,A1T3ZNKR5GG0TP
992,37,,1.0,17.0,2592380177-354626.jpg,2238117096-228518.jpg,3.0,,,,A1T3ZNKR5GG0TP
993,38,left,1.0,18.0,left.jpg,,,left,1.1456,,A1T3ZNKR5GG0TP
994,39,,1.0,19.0,2446759347-347016.jpg,2964224310-219528.jpg,1.0,,,,A1T3ZNKR5GG0TP
995,40,,1.0,20.0,2458347385-199723.jpg,2427874554-121863.jpg,2.0,,,,A1T3ZNKR5GG0TP
996,41,,1.0,21.0,2238572663-35822.jpg,2986419333-73361.jpg,1.0,,,,A1T3ZNKR5GG0TP
997,42,,1.0,22.0,2883254439-140941.jpg,2981231446-294730.jpg,3.0,,,,A1T3ZNKR5GG0TP
998,43,,1.0,23.0,2575120738-55529.jpg,2575120738-55528.jpg,2.0,,,,A1T3ZNKR5GG0TP
999,44,,1.0,24.0,2901952513-70703.jpg,2864907361-287062.jpg,1.0,,,,A1T3ZNKR5GG0TP
1000,45,,1.0,25.0,2901947423-70311.jpg,2238577590-185467.jpg,3.0,,,,A1T3ZNKR5GG0TP
1001,46,,1.0,26.0,2874303365-214262.jpg,2609793677-355397.jpg,1.0,,,,A1T3ZNKR5GG0TP
1002,47,right,1.0,27.0,right.jpg,,,right,1.0453,,A1T3ZNKR5GG0TP
1003,48,,1.0,28.0,2981231403-71642.jpg,2981244403-72215.jpg,2.0,,,,A1T3ZNKR5GG0TP
1004,49,,1.0,29.0,2898633421-291973.jpg,2238550049-105691.jpg,3.0,,,,A1T3ZNKR5GG0TP
1005,50,,1.0,30.0,2898635428-69104.jpg,2446759803-49250.jpg,1.0,,,,A1T3ZNKR5GG0TP
1006,51,,1.0,31.0,2964223381-294447.jpg,2898628438-68785.jpg,3.0,,,,A1T3ZNKR5GG0TP
1007,52,,1.0,32.0,2238428357-313623.jpg,2984615361-295509.jpg,2.0,,,,A1T3ZNKR5GG0TP
1008,53,,1.0,33.0,2901939379-143480.jpg,2981229442-369621.jpg,2.0,,,,A1T3ZNKR5GG0TP
1009,54,,1.0,34.0,2883268412-365898.jpg,2238436252-314037.jpg,3.0,,,,A1T3ZNKR5GG0TP
1010,55,,1.0,35.0,2883268471-290842.jpg,2883255450-215310.jpg,2.0,,,,A1T3ZNKR5GG0TP
1011,56,,1.0,36.0,2868474407-362883.jpg,2238516618-25604.jpg,1.0,,,,A1T3ZNKR5GG0TP
1012,57,,1.0,37.0,2964213381-294060.jpg,2981244394-145974.jpg,1.0,,,,A1T3ZNKR5GG0TP
1013,58,,1.0,38.0,2874301407-363895.jpg,2901947323-70275.jpg,3.0,,,,A1T3ZNKR5GG0TP
1014,59,left,0.0,39.0,right.jpg,,,right,0.1236,,A1T3ZNKR5GG0TP
1015,60,,1.0,40.0,2238480677-317399.jpg,2238573546-258454.jpg,2.0,,,,A1T3ZNKR5GG0TP
1016,61,,1.0,41.0,2898634397-367080.jpg,2964217461-294238.jpg,3.0,,,,A1T3ZNKR5GG0TP
1017,62,,1.0,42.0,2898624426-291546.jpg,2981236443-71859.jpg,2.0,,,,A1T3ZNKR5GG0TP
1018,63,,1.0,43.0,2512875899-126682.jpg,2460547536-274179.jpg,1.0,,,,A1T3ZNKR5GG0TP
1019,64,,1.0,44.0,2868475410-213219.jpg,2238480803-19739.jpg,2.0,,,,A1T3ZNKR5GG0TP
1020,65,,1.0,45.0,2898635427-367120.jpg,2898621427-366486.jpg,3.0,,,,A1T3ZNKR5GG0TP
1021,66,left,1.0,46.0,left.jpg,,,left,0.6784,,A1T3ZNKR5GG0TP
1022,67,,1.0,47.0,2449442529-124445.jpg,2898632385-217137.jpg,3.0,,,,A1T3ZNKR5GG0TP
1023,68,,1.0,48.0,2898618444-142233.jpg,2898631359-142721.jpg,1.0,,,,A1T3ZNKR5GG0TP
1024,69,,1.0,49.0,2449442529-124446.jpg,2460547536-274181.jpg,2.0,,,,A1T3ZNKR5GG0TP
1025,70,,1.0,50.0,2446758985-197609.jpg,2864909447-362144.jpg,2.0,,,,A1T3ZNKR5GG0TP
1026,71,,1.0,51.0,2964216465-219242.jpg,2864900319-137787.jpg,2.0,,,,A1T3ZNKR5GG0TP
1027,72,,1.0,52.0,2874302418-65979.jpg,2413147898-43548.jpg,1.0,,,,A1T3ZNKR5GG0TP
1028,73,,1.0,53.0,2986451363-73599.jpg,2860302315-210704.jpg,2.0,,,,A1T3ZNKR5GG0TP
1029,74,,1.0,54.0,2874299429-139695.jpg,2883266388-67750.jpg,1.0,,,,A1T3ZNKR5GG0TP
1030,75,,1.0,55.0,2898618390-216538.jpg,2901939327-367670.jpg,2.0,,,,A1T3ZNKR5GG0TP
1031,76,,1.0,56.0,2981241414-145842.jpg,2856919327-359676.jpg,1.0,,,,A1T3ZNKR5GG0TP
1032,77,,1.0,57.0,2874307433-66280.jpg,2981246400-220365.jpg,2.0,,,,A1T3ZNKR5GG0TP
1033,78,,1.0,58.0,2452381505-199546.jpg,2238567168-34916.jpg,2.0,,,,A1T3ZNKR5GG0TP
1034,79,,1.0,59.0,2592379964-131054.jpg,2592380272-354673.jpg,3.0,,,,A1T3ZNKR5GG0TP
1035,80,,1.0,60.0,2238481928-19949.jpg,2864900357-361688.jpg,2.0,,,,A1T3ZNKR5GG0TP
1036,81,,1.0,61.0,2883256307-365057.jpg,2864904453-63933.jpg,3.0,,,,A1T3ZNKR5GG0TP
1037,82,,1.0,62.0,2898617468-68274.jpg,2864906345-212360.jpg,1.0,,,,A1T3ZNKR5GG0TP
1038,83,,1.0,63.0,2452380832-348593.jpg,2449442181-272436.jpg,3.0,,,,A1T3ZNKR5GG0TP
1039,84,,1.0,64.0,2238481198-19822.jpg,2862691449-137104.jpg,1.0,,,,A1T3ZNKR5GG0TP
1040,20,,1.0,0.0,2592379964-131054.jpg,2592380272-354673.jpg,3.0,,,,A2EZB41QENZZJ9
1041,21,,1.0,1.0,2898635427-367120.jpg,2898621427-366486.jpg,3.0,,,,A2EZB41QENZZJ9
1042,22,,1.0,2.0,2458347385-199723.jpg,2458347252-348911.jpg,3.0,,,,A2EZB41QENZZJ9
1043,23,,1.0,3.0,2512875899-126682.jpg,2592380177-354628.jpg,2.0,,,,A2EZB41QENZZJ9
1044,24,,1.0,4.0,2238481928-19949.jpg,2883264367-365620.jpg,1.0,,,,A2EZB41QENZZJ9
1045,25,,1.0,5.0,2238572663-35822.jpg,2238571930-184143.jpg,2.0,,,,A2EZB41QENZZJ9
1046,26,,1.0,6.0,2449442529-124445.jpg,2986408373-73286.jpg,2.0,,,,A2EZB41QENZZJ9
1047,27,,1.0,7.0,2898617468-68274.jpg,2864906345-212360.jpg,1.0,,,,A2EZB41QENZZJ9
1048,28,,1.0,8.0,2981241414-145842.jpg,2856919327-359676.jpg,1.0,,,,A2EZB41QENZZJ9
1049,29,,1.0,9.0,2449441881-272368.jpg,2449441881-272367.jpg,3.0,,,,A2EZB41QENZZJ9
1050,30,,1.0,10.0,2238481198-19822.jpg,2862691449-137104.jpg,1.0,,,,A2EZB41QENZZJ9
1051,31,,1.0,11.0,2868475410-213219.jpg,2238480803-19739.jpg,2.0,,,,A2EZB41QENZZJ9
1052,32,,0.0,12.0,left.jpg,,,left,,,A2EZB41QENZZJ9
1053,33,,1.0,13.0,2898618390-216538.jpg,2575120609-129862.jpg,3.0,,,,A2EZB41QENZZJ9
1054,34,,1.0,14.0,2901939379-143479.jpg,2981240424-145794.jpg,3.0,,,,A2EZB41QENZZJ9
1055,35,,1.0,15.0,2883268412-365898.jpg,2984615361-295510.jpg,2.0,,,,A2EZB41QENZZJ9
1056,36,,1.0,16.0,2898634397-367080.jpg,2901934408-69289.jpg,2.0,,,,A2EZB41QENZZJ9
1057,37,,1.0,17.0,2874307433-66280.jpg,2981246400-220365.jpg,2.0,,,,A2EZB41QENZZJ9
1058,38,,1.0,18.0,2238425482-313537.jpg,2238471391-240918.jpg,1.0,,,,A2EZB41QENZZJ9
1059,39,,1.0,19.0,2964223381-294447.jpg,2901941438-69836.jpg,2.0,,,,A2EZB41QENZZJ9
1060,40,,1.0,20.0,2898635428-69104.jpg,2446759803-49250.jpg,1.0,,,,A2EZB41QENZZJ9
1061,41,,0.0,21.0,right.jpg,,,right,,,A2EZB41QENZZJ9
1062,42,,1.0,22.0,2901939379-143480.jpg,2901942428-69919.jpg,1.0,,,,A2EZB41QENZZJ9
1063,43,,1.0,23.0,2592380177-354626.jpg,2986408339-146952.jpg,1.0,,,,A2EZB41QENZZJ9
1064,44,,1.0,24.0,2883268471-290842.jpg,2883268471-290843.jpg,1.0,,,,A2EZB41QENZZJ9
1065,45,,1.0,25.0,2874302418-65978.jpg,2238481198-19823.jpg,2.0,,,,A2EZB41QENZZJ9
1066,46,,1.0,26.0,2238580740-186218.jpg,2238521193-26285.jpg,2.0,,,,A2EZB41QENZZJ9
1067,47,,1.0,27.0,2901947423-70311.jpg,2238573447-333826.jpg,2.0,,,,A2EZB41QENZZJ9
1068,48,,1.0,28.0,2238428357-313623.jpg,2238499057-320266.jpg,1.0,,,,A2EZB41QENZZJ9
1069,49,,1.0,29.0,2964213381-294060.jpg,2458348012-349114.jpg,2.0,,,,A2EZB41QENZZJ9
1070,50,,1.0,30.0,2898618444-142233.jpg,2898618444-142232.jpg,3.0,,,,A2EZB41QENZZJ9
1071,51,,1.0,31.0,2238560245-182099.jpg,2238480980-168129.jpg,3.0,,,,A2EZB41QENZZJ9
1072,52,,0.0,32.0,left.jpg,,,left,,,A2EZB41QENZZJ9
1073,53,,1.0,33.0,2864910426-287204.jpg,2864902304-137862.jpg,1.0,,,,A2EZB41QENZZJ9
1074,54,,1.0,34.0,2460547508-51571.jpg,2901941438-69835.jpg,3.0,,,,A2EZB41QENZZJ9
1075,55,,1.0,35.0,2874303365-214262.jpg,2864911457-362260.jpg,3.0,,,,A2EZB41QENZZJ9
1076,56,,1.0,36.0,2446759347-347016.jpg,2238569117-333045.jpg,3.0,,,,A2EZB41QENZZJ9
1077,57,left,1.0,37.0,left.jpg,,,left,1.632,,A2EZB41QENZZJ9
1078,58,,1.0,38.0,2592380177-354629.jpg,2512875587-350044.jpg,3.0,,,,A2EZB41QENZZJ9
1079,59,,1.0,39.0,2898624426-291546.jpg,2981235446-294900.jpg,3.0,,,,A2EZB41QENZZJ9
1080,60,,1.0,40.0,2986451363-73599.jpg,2901939327-367669.jpg,1.0,,,,A2EZB41QENZZJ9
1081,61,,1.0,41.0,2964218374-144967.jpg,2964218374-144968.jpg,1.0,,,,A2EZB41QENZZJ9
1082,62,,1.0,42.0,2874301407-363895.jpg,2986397322-371109.jpg,2.0,,,,A2EZB41QENZZJ9
1083,63,,1.0,43.0,2238480677-317399.jpg,2238573546-258454.jpg,2.0,,,,A2EZB41QENZZJ9
1084,64,,1.0,44.0,2874299429-139695.jpg,2901942443-69923.jpg,2.0,,,,A2EZB41QENZZJ9
1085,65,,1.0,45.0,2452380832-348593.jpg,2449442181-272436.jpg,3.0,,,,A2EZB41QENZZJ9
1086,66,,1.0,46.0,2575120738-55529.jpg,2575120738-55528.jpg,2.0,,,,A2EZB41QENZZJ9
1087,67,,1.0,47.0,2901948350-218459.jpg,2417208001-267065.jpg,2.0,,,,A2EZB41QENZZJ9
1088,68,,1.0,48.0,2864907432-362042.jpg,2864901420-212147.jpg,1.0,,,,A2EZB41QENZZJ9
1089,69,,1.0,49.0,2446759803-49249.jpg,2446760601-272099.jpg,1.0,,,,A2EZB41QENZZJ9
1090,70,,1.0,50.0,2901952513-70703.jpg,2238481198-19821.jpg,3.0,,,,A2EZB41QENZZJ9
1091,71,,1.0,51.0,2901941401-292798.jpg,2981243412-370222.jpg,2.0,,,,A2EZB41QENZZJ9
1092,72,,1.0,52.0,2981231403-71642.jpg,2274829821-263682.jpg,1.0,,,,A2EZB41QENZZJ9
1093,73,,0.0,53.0,right.jpg,,,right,,,A2EZB41QENZZJ9
1094,74,,1.0,54.0,2460547467-349422.jpg,2868487415-213924.jpg,2.0,,,,A2EZB41QENZZJ9
1095,75,,1.0,55.0,2446758985-197609.jpg,2981240424-145795.jpg,1.0,,,,A2EZB41QENZZJ9
1096,76,,1.0,56.0,2898633421-291973.jpg,2238550049-105691.jpg,3.0,,,,A2EZB41QENZZJ9
1097,77,,1.0,57.0,2874302418-65979.jpg,2238578544-111698.jpg,3.0,,,,A2EZB41QENZZJ9
1098,78,,1.0,58.0,2452381505-199546.jpg,2994401319-148290.jpg,3.0,,,,A2EZB41QENZZJ9
1099,79,,1.0,59.0,2868474407-362883.jpg,2238516618-25604.jpg,1.0,,,,A2EZB41QENZZJ9
1100,80,,1.0,60.0,2883256307-365057.jpg,2864904453-63933.jpg,3.0,,,,A2EZB41QENZZJ9
1101,81,,1.0,61.0,2460547467-349421.jpg,2452380166-273110.jpg,2.0,,,,A2EZB41QENZZJ9
1102,82,,1.0,62.0,2449442529-124446.jpg,2898632385-217139.jpg,3.0,,,,A2EZB41QENZZJ9
1103,83,,1.0,63.0,2883254439-140941.jpg,2446760844-124088.jpg,1.0,,,,A2EZB41QENZZJ9
1104,84,,1.0,64.0,2964216465-219242.jpg,2238544191-252422.jpg,1.0,,,,A2EZB41QENZZJ9
1105,20,,1.0,0.0,2883268412-365898.jpg,2984626312-370849.jpg,1.0,,,,A1F0VEHWK3IAF4
1106,21,,1.0,1.0,2449441881-272368.jpg,2984615358-72439.jpg,2.0,,,,A1F0VEHWK3IAF4
1107,22,,1.0,2.0,2874307433-66280.jpg,2981246400-220365.jpg,2.0,,,,A1F0VEHWK3IAF4
1108,23,,1.0,3.0,2575120738-55529.jpg,2575120738-55528.jpg,2.0,,,,A1F0VEHWK3IAF4
1109,24,,1.0,4.0,2901952513-70703.jpg,2868469411-287540.jpg,2.0,,,,A1F0VEHWK3IAF4
1110,25,,1.0,5.0,2964213381-294060.jpg,2964213381-294061.jpg,3.0,,,,A1F0VEHWK3IAF4
1111,26,,1.0,6.0,2864910426-287204.jpg,2864902304-137862.jpg,1.0,,,,A1F0VEHWK3IAF4
1112,27,,1.0,7.0,2238580740-186218.jpg,2238521193-26285.jpg,2.0,,,,A1F0VEHWK3IAF4
1113,28,,1.0,8.0,2452381505-199546.jpg,2994401319-148290.jpg,3.0,,,,A1F0VEHWK3IAF4
1114,29,,1.0,9.0,2898618444-142233.jpg,2898631359-142721.jpg,1.0,,,,A1F0VEHWK3IAF4
1115,30,,1.0,10.0,2238428357-313623.jpg,2238499057-320266.jpg,1.0,,,,A1F0VEHWK3IAF4
1116,31,,1.0,11.0,2898635427-367120.jpg,2898621427-366486.jpg,3.0,,,,A1F0VEHWK3IAF4
1117,32,right,1.0,12.0,right.jpg,,,right,1.9191,,A1F0VEHWK3IAF4
1118,33,,1.0,13.0,2874303365-214262.jpg,2864911457-362260.jpg,3.0,,,,A1F0VEHWK3IAF4
1119,34,,1.0,14.0,2449442529-124445.jpg,2898632385-217137.jpg,3.0,,,,A1F0VEHWK3IAF4
1120,35,,1.0,15.0,2238480677-317399.jpg,2238480278-19661.jpg,3.0,,,,A1F0VEHWK3IAF4
1121,36,,1.0,16.0,2898633421-291973.jpg,2512876023-52283.jpg,1.0,,,,A1F0VEHWK3IAF4
1122,37,,1.0,17.0,2898624426-291546.jpg,2981236443-71859.jpg,2.0,,,,A1F0VEHWK3IAF4
1123,38,,1.0,18.0,2901941401-292798.jpg,2981243412-370222.jpg,2.0,,,,A1F0VEHWK3IAF4
1124,39,,1.0,19.0,2986451363-73599.jpg,2238434559-90406.jpg,3.0,,,,A1F0VEHWK3IAF4
1125,40,,1.0,20.0,2964216465-219242.jpg,2238544191-252422.jpg,1.0,,,,A1F0VEHWK3IAF4
1126,41,right,1.0,21.0,right.jpg,,,right,1.569400001,,A1F0VEHWK3IAF4
1127,42,,1.0,22.0,2874299429-139695.jpg,2446760917-347439.jpg,3.0,,,,A1F0VEHWK3IAF4
1128,43,,1.0,23.0,2898634397-367080.jpg,2964217461-294238.jpg,3.0,,,,A1F0VEHWK3IAF4
1129,44,,1.0,24.0,2898635428-69104.jpg,2446759803-49250.jpg,1.0,,,,A1F0VEHWK3IAF4
1130,45,,1.0,25.0,2238425482-313537.jpg,2238436322-314047.jpg,2.0,,,,A1F0VEHWK3IAF4
1131,46,,1.0,26.0,2446759803-49249.jpg,2452380166-273109.jpg,3.0,,,,A1F0VEHWK3IAF4
1132,47,,1.0,27.0,2458347385-199723.jpg,2458347252-348911.jpg,3.0,,,,A1F0VEHWK3IAF4
1133,48,,1.0,28.0,2446759347-347016.jpg,2238569117-333045.jpg,3.0,,,,A1F0VEHWK3IAF4
1134,49,,1.0,29.0,2238481198-19822.jpg,2238480803-19737.jpg,3.0,,,,A1F0VEHWK3IAF4
1135,50,,1.0,30.0,2868475410-213219.jpg,2868474407-362885.jpg,3.0,,,,A1F0VEHWK3IAF4
1136,51,,1.0,31.0,2592380177-354629.jpg,2512875587-350044.jpg,3.0,,,,A1F0VEHWK3IAF4
1137,52,,1.0,32.0,2901947423-70311.jpg,2860312398-62572.jpg,1.0,,,,A1F0VEHWK3IAF4
1138,53,left,1.0,33.0,left.jpg,,,left,1.1176,,A1F0VEHWK3IAF4
1139,54,,1.0,34.0,2964223381-294447.jpg,2901941438-69836.jpg,2.0,,,,A1F0VEHWK3IAF4
1140,55,,1.0,35.0,2981231403-71642.jpg,2981244403-72215.jpg,2.0,,,,A1F0VEHWK3IAF4
1141,56,,1.0,36.0,2864907432-362042.jpg,2901947423-70310.jpg,2.0,,,,A1F0VEHWK3IAF4
1142,57,,1.0,37.0,2901939379-143479.jpg,2460547467-349423.jpg,1.0,,,,A1F0VEHWK3IAF4
1143,58,,1.0,38.0,2874301407-363895.jpg,2883264368-67631.jpg,1.0,,,,A1F0VEHWK3IAF4
1144,59,,1.0,39.0,2883268471-290842.jpg,2883255450-215310.jpg,2.0,,,,A1F0VEHWK3IAF4
1145,60,,1.0,40.0,2460547508-51571.jpg,2901941438-69835.jpg,3.0,,,,A1F0VEHWK3IAF4
1146,61,right,1.0,41.0,right.jpg,,,right,1.2547,,A1F0VEHWK3IAF4
1147,62,,1.0,42.0,2460547467-349421.jpg,2898631394-142727.jpg,1.0,,,,A1F0VEHWK3IAF4
1148,63,,1.0,43.0,2452380832-348593.jpg,2238481813-19930.jpg,2.0,,,,A1F0VEHWK3IAF4
1149,64,,1.0,44.0,2883254439-140941.jpg,2446760844-124088.jpg,1.0,,,,A1F0VEHWK3IAF4
1150,65,,1.0,45.0,2898617468-68274.jpg,2901943387-368037.jpg,2.0,,,,A1F0VEHWK3IAF4
1151,66,,1.0,46.0,2964218374-144967.jpg,2964218374-144968.jpg,1.0,,,,A1F0VEHWK3IAF4
1152,67,,1.0,47.0,2238572663-35822.jpg,2238571930-184143.jpg,2.0,,,,A1F0VEHWK3IAF4
1153,68,,1.0,48.0,2874302418-65979.jpg,2413147898-43548.jpg,1.0,,,,A1F0VEHWK3IAF4
1154,69,,1.0,49.0,2238560245-182099.jpg,2549106624-127823.jpg,1.0,,,,A1F0VEHWK3IAF4
1155,70,,1.0,50.0,2446758985-197609.jpg,2898624426-291544.jpg,3.0,,,,A1F0VEHWK3IAF4
1156,71,right,1.0,51.0,right.jpg,,,right,1.3307,,A1F0VEHWK3IAF4
1157,72,,1.0,52.0,2901948350-218459.jpg,2804906319-133082.jpg,1.0,,,,A1F0VEHWK3IAF4
1158,73,,1.0,53.0,2868474407-362883.jpg,2901948383-70363.jpg,3.0,,,,A1F0VEHWK3IAF4
1159,74,,1.0,54.0,2449442529-124446.jpg,2446759803-49251.jpg,1.0,,,,A1F0VEHWK3IAF4
1160,75,,1.0,55.0,2238481928-19949.jpg,2864900357-361688.jpg,2.0,,,,A1F0VEHWK3IAF4
1161,76,,1.0,56.0,2874302418-65978.jpg,2898626385-216899.jpg,1.0,,,,A1F0VEHWK3IAF4
1162,77,,1.0,57.0,2592380177-354626.jpg,2864901386-286797.jpg,2.0,,,,A1F0VEHWK3IAF4
1163,78,,1.0,58.0,2898618390-216538.jpg,2575120609-129862.jpg,3.0,,,,A1F0VEHWK3IAF4
1164,79,,1.0,59.0,2901939379-143480.jpg,2901942428-69919.jpg,1.0,,,,A1F0VEHWK3IAF4
1165,80,,1.0,60.0,2592379964-131054.jpg,2238479053-19457.jpg,2.0,,,,A1F0VEHWK3IAF4
1166,81,,1.0,61.0,2883256307-365057.jpg,2611628310-206388.jpg,1.0,,,,A1F0VEHWK3IAF4
1167,82,,1.0,62.0,2460547467-349422.jpg,2868487415-213924.jpg,2.0,,,,A1F0VEHWK3IAF4
1168,83,,1.0,63.0,2512875899-126682.jpg,2592380177-354628.jpg,2.0,,,,A1F0VEHWK3IAF4
1169,84,,1.0,64.0,2981241414-145842.jpg,2427873848-47312.jpg,3.0,,,,A1F0VEHWK3IAF4
1170,20,,1.0,0.0,2592379964-131054.jpg,2575963989-130576.jpg,1.0,,,,A22PJ0TUDOYK7I
1171,21,,1.0,1.0,2964223381-294447.jpg,2898628438-68785.jpg,3.0,,,,A22PJ0TUDOYK7I
1172,22,,1.0,2.0,2883254439-140941.jpg,2981231446-294730.jpg,3.0,,,,A22PJ0TUDOYK7I
1173,23,,1.0,3.0,2964213381-294060.jpg,2964213381-294061.jpg,3.0,,,,A22PJ0TUDOYK7I
1174,24,,1.0,4.0,2898624426-291546.jpg,2981236443-71859.jpg,2.0,,,,A22PJ0TUDOYK7I
1175,25,,1.0,5.0,2868475410-213219.jpg,2238480803-19739.jpg,2.0,,,,A22PJ0TUDOYK7I
1176,26,,1.0,6.0,2874307433-66280.jpg,2981231422-369714.jpg,3.0,,,,A22PJ0TUDOYK7I
1177,27,,1.0,7.0,2898617468-68274.jpg,2901943387-368037.jpg,2.0,,,,A22PJ0TUDOYK7I
1178,28,left,1.0,8.0,left.jpg,,,left,1.002,,A22PJ0TUDOYK7I
1179,29,,1.0,9.0,2446759347-347016.jpg,2901951350-218702.jpg,2.0,,,,A22PJ0TUDOYK7I
1180,30,,1.0,10.0,2898618390-216538.jpg,2575120609-129862.jpg,3.0,,,,A22PJ0TUDOYK7I
1181,31,,1.0,11.0,2238580740-186218.jpg,2238550816-254000.jpg,1.0,,,,A22PJ0TUDOYK7I
1182,32,,1.0,12.0,2874302418-65979.jpg,2238578544-111698.jpg,3.0,,,,A22PJ0TUDOYK7I
1183,33,,1.0,13.0,2592380177-354626.jpg,2986408339-146952.jpg,1.0,,,,A22PJ0TUDOYK7I
1184,34,,1.0,14.0,2864907432-362042.jpg,2901947423-70310.jpg,2.0,,,,A22PJ0TUDOYK7I
1185,35,,1.0,15.0,2238425482-313537.jpg,2898633480-217190.jpg,3.0,,,,A22PJ0TUDOYK7I
1186,36,,1.0,16.0,2575120738-55529.jpg,2238531493-28260.jpg,3.0,,,,A22PJ0TUDOYK7I
1187,37,,1.0,17.0,2898633421-291973.jpg,2238550049-105691.jpg,3.0,,,,A22PJ0TUDOYK7I
1188,38,,1.0,18.0,2446758985-197609.jpg,2864909447-362144.jpg,2.0,,,,A22PJ0TUDOYK7I
1189,39,,0.0,19.0,left.jpg,,,left,,,A22PJ0TUDOYK7I
1190,40,,1.0,20.0,2898635427-367120.jpg,2901946439-144040.jpg,1.0,,,,A22PJ0TUDOYK7I
1191,41,,1.0,21.0,2238428357-313623.jpg,2238499057-320266.jpg,1.0,,,,A22PJ0TUDOYK7I
1192,42,,1.0,22.0,2981241414-145842.jpg,2427873848-47312.jpg,3.0,,,,A22PJ0TUDOYK7I
1193,43,,1.0,23.0,2449442529-124445.jpg,2986408373-73286.jpg,2.0,,,,A22PJ0TUDOYK7I
1194,44,,1.0,24.0,2883256307-365057.jpg,2964210336-293945.jpg,2.0,,,,A22PJ0TUDOYK7I
1195,45,,1.0,25.0,2512875899-126682.jpg,2986447332-371497.jpg,3.0,,,,A22PJ0TUDOYK7I
1196,46,right,1.0,26.0,right.jpg,,,right,1.6037,,A22PJ0TUDOYK7I
1197,47,,1.0,27.0,2901939379-143479.jpg,2460547467-349423.jpg,1.0,,,,A22PJ0TUDOYK7I
1198,48,,1.0,28.0,2874301407-363895.jpg,2883264368-67631.jpg,1.0,,,,A22PJ0TUDOYK7I
1199,49,,1.0,29.0,2864910426-287204.jpg,2864902304-137862.jpg,1.0,,,,A22PJ0TUDOYK7I
1200,50,,1.0,30.0,2460547467-349422.jpg,2864909447-362146.jpg,3.0,,,,A22PJ0TUDOYK7I
1201,51,,1.0,31.0,2238480677-317399.jpg,2238480278-19661.jpg,3.0,,,,A22PJ0TUDOYK7I
1202,52,,1.0,32.0,2449441881-272368.jpg,2984615358-72439.jpg,2.0,,,,A22PJ0TUDOYK7I
1203,53,,1.0,33.0,2901952513-70703.jpg,2864907361-287062.jpg,1.0,,,,A22PJ0TUDOYK7I
1204,54,,1.0,34.0,2964216465-219242.jpg,2238544191-252422.jpg,1.0,,,,A22PJ0TUDOYK7I
1205,55,,1.0,35.0,2452381505-199546.jpg,2994401319-148290.jpg,3.0,,,,A22PJ0TUDOYK7I
1206,56,,1.0,36.0,2868474407-362883.jpg,2238516618-25604.jpg,1.0,,,,A22PJ0TUDOYK7I
1207,57,,0.0,37.0,right.jpg,,,right,,,A22PJ0TUDOYK7I
1208,58,,1.0,38.0,2874302418-65978.jpg,2898626385-216899.jpg,1.0,,,,A22PJ0TUDOYK7I
1209,59,,1.0,39.0,2981231403-71642.jpg,2274829821-263682.jpg,1.0,,,,A22PJ0TUDOYK7I
1210,60,,1.0,40.0,2238560245-182099.jpg,2549106624-127823.jpg,1.0,,,,A22PJ0TUDOYK7I
1211,61,,1.0,41.0,2452380832-348593.jpg,2238481813-19930.jpg,2.0,,,,A22PJ0TUDOYK7I
1212,62,,1.0,42.0,2458347385-199723.jpg,2427874554-121863.jpg,2.0,,,,A22PJ0TUDOYK7I
1213,63,,1.0,43.0,2898618444-142233.jpg,2898618444-142232.jpg,3.0,,,,A22PJ0TUDOYK7I
1214,64,,1.0,44.0,2592380177-354629.jpg,2898633421-291974.jpg,1.0,,,,A22PJ0TUDOYK7I
1215,65,,1.0,45.0,2874299429-139695.jpg,2901942443-69923.jpg,2.0,,,,A22PJ0TUDOYK7I
1216,66,,1.0,46.0,2898635428-69104.jpg,2446759803-49250.jpg,1.0,,,,A22PJ0TUDOYK7I
1217,67,,1.0,47.0,2874303365-214262.jpg,2238563377-332054.jpg,2.0,,,,A22PJ0TUDOYK7I
1218,68,,1.0,48.0,2964218374-144967.jpg,2964218374-144968.jpg,1.0,,,,A22PJ0TUDOYK7I
1219,69,,1.0,49.0,2883268412-365898.jpg,2238436252-314037.jpg,3.0,,,,A22PJ0TUDOYK7I
1220,70,,1.0,50.0,2446759803-49249.jpg,2452380166-273109.jpg,3.0,,,,A22PJ0TUDOYK7I
1221,71,,1.0,51.0,2901941401-292798.jpg,2981243412-370222.jpg,2.0,,,,A22PJ0TUDOYK7I
1222,72,,1.0,52.0,2986451363-73599.jpg,2238434559-90406.jpg,3.0,,,,A22PJ0TUDOYK7I
1223,73,,1.0,53.0,2460547508-51571.jpg,2981232437-369759.jpg,2.0,,,,A22PJ0TUDOYK7I
1224,74,,0.0,54.0,left.jpg,,,left,,,A22PJ0TUDOYK7I
1225,75,,1.0,55.0,2238481198-19822.jpg,2901946436-293242.jpg,2.0,,,,A22PJ0TUDOYK7I
1226,76,,1.0,56.0,2883268471-290842.jpg,2883268471-290843.jpg,1.0,,,,A22PJ0TUDOYK7I
1227,77,,1.0,57.0,2460547467-349421.jpg,2452380166-273110.jpg,2.0,,,,A22PJ0TUDOYK7I
1228,78,,1.0,58.0,2901948350-218459.jpg,2804906319-133082.jpg,1.0,,,,A22PJ0TUDOYK7I
1229,79,,1.0,59.0,2449442529-124446.jpg,2460547536-274181.jpg,2.0,,,,A22PJ0TUDOYK7I
1230,80,,1.0,60.0,2238481928-19949.jpg,2864900357-361688.jpg,2.0,,,,A22PJ0TUDOYK7I
1231,81,,1.0,61.0,2898634397-367080.jpg,2964217461-294238.jpg,3.0,,,,A22PJ0TUDOYK7I
1232,82,,1.0,62.0,2901939379-143480.jpg,2901942428-69919.jpg,1.0,,,,A22PJ0TUDOYK7I
1233,83,,1.0,63.0,2238572663-35822.jpg,2864903351-286874.jpg,3.0,,,,A22PJ0TUDOYK7I
1234,84,,1.0,64.0,2901947423-70311.jpg,2238573447-333826.jpg,2.0,,,,A22PJ0TUDOYK7I
1235,20,,1.0,0.0,2592379964-131054.jpg,2592380272-354673.jpg,3.0,,,,A1JT6ZF5PMQBM1
1236,21,,1.0,1.0,2898635427-367120.jpg,2898621427-366486.jpg,3.0,,,,A1JT6ZF5PMQBM1
1237,22,,1.0,2.0,2458347385-199723.jpg,2458347252-348911.jpg,3.0,,,,A1JT6ZF5PMQBM1
1238,23,,1.0,3.0,2512875899-126682.jpg,2592380177-354628.jpg,2.0,,,,A1JT6ZF5PMQBM1
1239,24,,1.0,4.0,2238481928-19949.jpg,2883264367-365620.jpg,1.0,,,,A1JT6ZF5PMQBM1
1240,25,,1.0,5.0,2238572663-35822.jpg,2238571930-184143.jpg,2.0,,,,A1JT6ZF5PMQBM1
1241,26,,1.0,6.0,2449442529-124445.jpg,2986408373-73286.jpg,2.0,,,,A1JT6ZF5PMQBM1
1242,27,,1.0,7.0,2898617468-68274.jpg,2864906345-212360.jpg,1.0,,,,A1JT6ZF5PMQBM1
