,layer,correct,test_test_response.keys,test_test_response.corr,test_test_response.rt,trials_2.thisRepN,trials_2.thisTrialN,trials_2.thisN,trials_2.thisIndex,trials_2.ran,image1,image2,subject
0,1.0,right,left,0.0,3.4835,0.0,0.0,0.0,0.0,1.0,2611628310-206388.jpg,2883256307-365057.jpg,AOQP9IL4MK3ZQ
1,1.0,right,left,0.0,3.9885,0.0,1.0,1.0,1.0,1.0,2964218432-369263.jpg,2898624426-291546.jpg,AOQP9IL4MK3ZQ
2,3.0,right,left,0.0,1.9228,0.0,2.0,2.0,2.0,1.0,2964207374-144577.jpg,2898617468-68274.jpg,AOQP9IL4MK3ZQ
3,1.0,right,right,1.0,1.7194,0.0,3.0,3.0,3.0,1.0,2238499057-320266.jpg,2238428357-313623.jpg,AOQP9IL4MK3ZQ
4,2.0,right,right,1.0,2.1216,0.0,4.0,4.0,4.0,1.0,2984615361-295510.jpg,2883268412-365898.jpg,AOQP9IL4MK3ZQ
5,1.0,right,left,0.0,1.6997,0.0,5.0,5.0,5.0,1.0,2898618440-216545.jpg,2460547467-349422.jpg,AOQP9IL4MK3ZQ
6,1.0,right,left,0.0,2.5002,0.0,6.0,6.0,6.0,1.0,2981244394-145974.jpg,2964213381-294060.jpg,AOQP9IL4MK3ZQ
7,3.0,right,right,1.0,2.2858,0.0,7.0,7.0,7.0,1.0,2449441881-272367.jpg,2449441881-272368.jpg,AOQP9IL4MK3ZQ
8,3.0,left,left,1.0,1.9007,0.0,8.0,8.0,8.0,1.0,2592379964-131054.jpg,2592380272-354673.jpg,AOQP9IL4MK3ZQ
9,3.0,left,right,0.0,2.8357,0.0,9.0,9.0,9.0,1.0,2964216465-219242.jpg,2898619327-366362.jpg,AOQP9IL4MK3ZQ
10,1.0,right,right,1.0,2.0466,0.0,10.0,10.0,10.0,1.0,2413147898-43548.jpg,2874302418-65979.jpg,AOQP9IL4MK3ZQ
11,1.0,left,left,1.0,2.6407,0.0,11.0,11.0,11.0,1.0,2238572663-35822.jpg,2986419333-73361.jpg,AOQP9IL4MK3ZQ
12,3.0,left,left,1.0,2.0138,0.0,12.0,12.0,12.0,1.0,2901952513-70703.jpg,2238481198-19821.jpg,AOQP9IL4MK3ZQ
13,2.0,left,left,1.0,2.1939,0.0,13.0,13.0,13.0,1.0,2592380177-354626.jpg,2864901386-286797.jpg,AOQP9IL4MK3ZQ
14,3.0,right,right,1.0,1.7911,0.0,14.0,14.0,14.0,1.0,2449442181-272436.jpg,2452380832-348593.jpg,AOQP9IL4MK3ZQ
15,3.0,left,left,1.0,3.1631,0.0,15.0,15.0,15.0,1.0,2874307433-66280.jpg,2981231422-369714.jpg,AOQP9IL4MK3ZQ
16,2.0,right,left,0.0,2.1818,0.0,16.0,16.0,16.0,1.0,2460547536-274181.jpg,2449442529-124446.jpg,AOQP9IL4MK3ZQ
17,1.0,left,left,1.0,3.0634,0.0,17.0,17.0,17.0,1.0,2874303365-214262.jpg,2609793677-355397.jpg,AOQP9IL4MK3ZQ
18,3.0,left,left,1.0,1.8993,0.0,18.0,18.0,18.0,1.0,2864910426-287204.jpg,2901939433-69672.jpg,AOQP9IL4MK3ZQ
19,3.0,left,left,1.0,2.3258,0.0,19.0,19.0,19.0,1.0,2874299429-139695.jpg,2446760917-347439.jpg,AOQP9IL4MK3ZQ
20,1.0,right,left,0.0,2.9609,0.0,20.0,20.0,20.0,1.0,2898631359-142721.jpg,2898618444-142233.jpg,AOQP9IL4MK3ZQ
21,1.0,right,right,1.0,1.8844,0.0,21.0,21.0,21.0,1.0,2883264368-67631.jpg,2874301407-363895.jpg,AOQP9IL4MK3ZQ
22,1.0,left,left,1.0,2.2008,0.0,22.0,22.0,22.0,1.0,2238560245-182099.jpg,2549106624-127823.jpg,AOQP9IL4MK3ZQ
23,1.0,right,right,1.0,2.2107,0.0,23.0,23.0,23.0,1.0,2238550816-254000.jpg,2238580740-186218.jpg,AOQP9IL4MK3ZQ
24,2.0,left,left,1.0,2.4841,0.0,24.0,24.0,24.0,1.0,2864907432-362042.jpg,2901947423-70310.jpg,AOQP9IL4MK3ZQ
25,1.0,left,right,0.0,2.1279,0.0,25.0,25.0,25.0,1.0,2898633421-291973.jpg,2512876023-52283.jpg,AOQP9IL4MK3ZQ
26,3.0,right,right,1.0,2.1899,0.0,26.0,26.0,26.0,1.0,2901947448-70314.jpg,2883268471-290842.jpg,AOQP9IL4MK3ZQ
27,2.0,right,left,0.0,2.3105,0.0,27.0,27.0,27.0,1.0,2981229442-369621.jpg,2901939379-143480.jpg,AOQP9IL4MK3ZQ
28,3.0,right,left,0.0,1.8543,0.0,28.0,28.0,28.0,1.0,2427873848-47312.jpg,2981241414-145842.jpg,AOQP9IL4MK3ZQ
29,3.0,right,right,1.0,3.0388,0.0,29.0,29.0,29.0,1.0,2238577590-185467.jpg,2901947423-70311.jpg,AOQP9IL4MK3ZQ
30,2.0,left,left,1.0,1.5449,0.0,30.0,30.0,30.0,1.0,2575120738-55529.jpg,2575120738-55528.jpg,AOQP9IL4MK3ZQ
31,1.0,right,right,1.0,2.2171,0.0,31.0,31.0,31.0,1.0,2804906319-133082.jpg,2901948350-218459.jpg,AOQP9IL4MK3ZQ
32,2.0,left,left,1.0,2.2081,0.0,32.0,32.0,32.0,1.0,2460547508-51571.jpg,2981232437-369759.jpg,AOQP9IL4MK3ZQ
33,2.0,left,right,0.0,3.283,0.0,33.0,33.0,33.0,1.0,2874302418-65978.jpg,2238481198-19823.jpg,AOQP9IL4MK3ZQ
34,2.0,right,left,0.0,2.7199,0.0,34.0,34.0,34.0,1.0,2981244403-72215.jpg,2981231403-71642.jpg,AOQP9IL4MK3ZQ
35,2.0,left,left,1.0,2.0825,0.0,35.0,35.0,35.0,1.0,2460547467-349421.jpg,2452380166-273110.jpg,AOQP9IL4MK3ZQ
36,1.0,left,left,1.0,2.1079,0.0,36.0,36.0,36.0,1.0,2898635427-367120.jpg,2901946439-144040.jpg,AOQP9IL4MK3ZQ
37,2.0,right,left,0.0,2.1989,0.0,37.0,37.0,37.0,1.0,2898632385-217136.jpg,2883254439-140941.jpg,AOQP9IL4MK3ZQ
38,3.0,left,right,0.0,2.4771,0.0,38.0,38.0,38.0,1.0,2898635428-69104.jpg,2898625336-291572.jpg,AOQP9IL4MK3ZQ
39,3.0,right,left,0.0,2.1922,0.0,39.0,39.0,39.0,1.0,2458347252-348911.jpg,2458347385-199723.jpg,AOQP9IL4MK3ZQ
40,1.0,right,left,0.0,1.5708,0.0,40.0,40.0,40.0,1.0,2901946465-218350.jpg,2868475410-213219.jpg,AOQP9IL4MK3ZQ
41,2.0,left,right,0.0,2.0997,0.0,41.0,41.0,41.0,1.0,2868474407-362883.jpg,2981246400-220363.jpg,AOQP9IL4MK3ZQ
42,1.0,right,right,1.0,1.6243,0.0,42.0,42.0,42.0,1.0,2460547536-274179.jpg,2512875899-126682.jpg,AOQP9IL4MK3ZQ
43,2.0,left,left,1.0,1.72,0.0,43.0,43.0,43.0,1.0,2238425482-313537.jpg,2238436322-314047.jpg,AOQP9IL4MK3ZQ
44,3.0,right,right,1.0,2.0193,0.0,44.0,44.0,44.0,1.0,2981241419-145844.jpg,2238481928-19949.jpg,AOQP9IL4MK3ZQ
45,3.0,left,right,0.0,2.3521,0.0,45.0,45.0,45.0,1.0,2446758985-197609.jpg,2898624426-291544.jpg,AOQP9IL4MK3ZQ
46,2.0,left,right,0.0,1.7393,0.0,46.0,46.0,46.0,1.0,2592380177-354629.jpg,2579432534-130704.jpg,AOQP9IL4MK3ZQ
47,2.0,left,left,1.0,1.5904,0.0,47.0,47.0,47.0,1.0,2964223381-294447.jpg,2901941438-69836.jpg,AOQP9IL4MK3ZQ
48,2.0,right,right,1.0,2.5126,0.0,48.0,48.0,48.0,1.0,2860302315-210704.jpg,2986451363-73599.jpg,AOQP9IL4MK3ZQ
49,3.0,right,right,1.0,2.8285,0.0,49.0,49.0,49.0,1.0,2238569117-333045.jpg,2446759347-347016.jpg,AOQP9IL4MK3ZQ
50,2.0,right,left,0.0,1.7168,0.0,50.0,50.0,50.0,1.0,2898618440-216547.jpg,2446759803-49249.jpg,AOQP9IL4MK3ZQ
51,3.0,right,right,1.0,1.8123,0.0,51.0,51.0,51.0,1.0,2883273443-68193.jpg,2901941401-292798.jpg,AOQP9IL4MK3ZQ
52,2.0,left,left,1.0,1.9267,0.0,52.0,52.0,52.0,1.0,2452381505-199546.jpg,2238567168-34916.jpg,AOQP9IL4MK3ZQ
53,1.0,left,left,1.0,2.1464,0.0,53.0,53.0,53.0,1.0,2238481198-19822.jpg,2862691449-137104.jpg,AOQP9IL4MK3ZQ
54,1.0,right,right,1.0,2.0116,0.0,54.0,54.0,54.0,1.0,2986449336-296644.jpg,2898618390-216538.jpg,AOQP9IL4MK3ZQ
55,1.0,left,left,1.0,2.7422,0.0,55.0,55.0,55.0,1.0,2898634397-367080.jpg,2237944827-301472.jpg,AOQP9IL4MK3ZQ
56,2.0,left,right,0.0,2.036,0.0,56.0,56.0,56.0,1.0,2901939379-143479.jpg,2446758985-197610.jpg,AOQP9IL4MK3ZQ
57,3.0,left,right,0.0,2.139,0.0,57.0,57.0,57.0,1.0,2449442529-124445.jpg,2898632385-217137.jpg,AOQP9IL4MK3ZQ
58,2.0,left,left,1.0,2.4946,0.0,58.0,58.0,58.0,1.0,2964218374-144967.jpg,2883254439-140940.jpg,AOQP9IL4MK3ZQ
59,3.0,left,right,0.0,2.9366,0.0,59.0,59.0,59.0,1.0,2238480677-317399.jpg,2238480278-19661.jpg,AOQP9IL4MK3ZQ
60,3.0,left,right,0.0,2.715,0.0,0.0,0.0,0.0,1.0,2512875899-126682.jpg,2986447332-371497.jpg,ACUK17I51KVXF
61,2.0,right,left,0.0,1.531,0.0,1.0,1.0,1.0,1.0,2981243412-370222.jpg,2901941401-292798.jpg,ACUK17I51KVXF
62,3.0,left,left,1.0,2.738,0.0,2.0,2.0,2.0,1.0,2868474407-362883.jpg,2901948383-70363.jpg,ACUK17I51KVXF
63,2.0,left,left,1.0,4.144,0.0,3.0,3.0,3.0,1.0,2898633421-291973.jpg,2575118671-277663.jpg,ACUK17I51KVXF
64,1.0,right,right,1.0,1.432,0.0,4.0,4.0,4.0,1.0,2274829821-263682.jpg,2981231403-71642.jpg,ACUK17I51KVXF
65,1.0,right,left,0.0,1.408,0.0,5.0,5.0,5.0,1.0,2901946439-144040.jpg,2898635427-367120.jpg,ACUK17I51KVXF
66,2.0,right,left,0.0,1.433,0.0,6.0,6.0,6.0,1.0,2984615358-72439.jpg,2449441881-272368.jpg,ACUK17I51KVXF
67,3.0,left,left,1.0,2.577,0.0,7.0,7.0,7.0,1.0,2883268471-290842.jpg,2901947448-70314.jpg,ACUK17I51KVXF
68,3.0,left,left,1.0,1.725,0.0,8.0,8.0,8.0,1.0,2592379964-131054.jpg,2592380272-354673.jpg,ACUK17I51KVXF
69,3.0,left,right,0.0,2.284,0.0,9.0,9.0,9.0,1.0,2874302418-65978.jpg,2898633321-291943.jpg,ACUK17I51KVXF
70,1.0,left,left,1.0,1.356,0.0,10.0,10.0,10.0,1.0,2446759803-49249.jpg,2446760601-272099.jpg,ACUK17I51KVXF
71,1.0,right,right,1.0,1.405,0.0,11.0,11.0,11.0,1.0,2238481630-168218.jpg,2238480677-317399.jpg,ACUK17I51KVXF
72,3.0,right,right,1.0,1.604,0.0,12.0,12.0,12.0,1.0,2981241419-145844.jpg,2238481928-19949.jpg,ACUK17I51KVXF
73,2.0,left,left,1.0,1.112,0.0,13.0,13.0,13.0,1.0,2575120738-55529.jpg,2575120738-55528.jpg,ACUK17I51KVXF
74,1.0,left,left,1.0,4.286,0.0,14.0,14.0,14.0,1.0,2446759347-347016.jpg,2964224310-219528.jpg,ACUK17I51KVXF
75,1.0,left,right,0.0,0.99,0.0,15.0,15.0,15.0,1.0,2458347385-199723.jpg,2238480434-93829.jpg,ACUK17I51KVXF
76,1.0,right,left,0.0,1.537,0.0,16.0,16.0,16.0,1.0,2981244394-145974.jpg,2964213381-294060.jpg,ACUK17I51KVXF
77,1.0,right,right,1.0,3.073,0.0,17.0,17.0,17.0,1.0,2452380171-273112.jpg,2449442529-124445.jpg,ACUK17I51KVXF
78,2.0,right,left,0.0,1.404,0.0,18.0,18.0,18.0,1.0,2901947423-70310.jpg,2864907432-362042.jpg,ACUK17I51KVXF
79,3.0,right,right,1.0,1.863,0.0,19.0,19.0,19.0,1.0,2238577590-185467.jpg,2901947423-70311.jpg,ACUK17I51KVXF
80,3.0,left,left,1.0,3.047,0.0,20.0,20.0,20.0,1.0,2460547467-349422.jpg,2864909447-362146.jpg,ACUK17I51KVXF
81,1.0,right,left,0.0,5.84,0.0,21.0,21.0,21.0,1.0,2986408339-146952.jpg,2592380177-354626.jpg,ACUK17I51KVXF
82,1.0,right,right,1.0,4.442,0.0,22.0,22.0,22.0,1.0,2864906345-212360.jpg,2898617468-68274.jpg,ACUK17I51KVXF
83,2.0,left,left,1.0,1.896,0.0,23.0,23.0,23.0,1.0,2874299429-139695.jpg,2901942443-69923.jpg,ACUK17I51KVXF
84,3.0,right,right,1.0,1.766,0.0,24.0,24.0,24.0,1.0,2864904453-63933.jpg,2883256307-365057.jpg,ACUK17I51KVXF
85,2.0,left,right,0.0,1.457,0.0,25.0,25.0,25.0,1.0,2238580740-186218.jpg,2238521193-26285.jpg,ACUK17I51KVXF
86,2.0,right,left,0.0,3.39,0.0,26.0,26.0,26.0,1.0,2238480648-19714.jpg,2874302418-65979.jpg,ACUK17I51KVXF
87,1.0,left,left,1.0,1.793,0.0,27.0,27.0,27.0,1.0,2901939379-143479.jpg,2460547467-349423.jpg,ACUK17I51KVXF
88,1.0,right,right,1.0,1.844,0.0,28.0,28.0,28.0,1.0,2883264368-67631.jpg,2874301407-363895.jpg,ACUK17I51KVXF
89,3.0,right,left,0.0,2.639,0.0,29.0,29.0,29.0,1.0,2964217461-294238.jpg,2898634397-367080.jpg,ACUK17I51KVXF
90,3.0,right,right,1.0,2.467,0.0,30.0,30.0,30.0,1.0,2449442181-272436.jpg,2452380832-348593.jpg,ACUK17I51KVXF
91,2.0,left,right,0.0,2.197,0.0,31.0,31.0,31.0,1.0,2964216465-219242.jpg,2864900319-137787.jpg,ACUK17I51KVXF
92,3.0,right,left,0.0,2.361,0.0,32.0,32.0,32.0,1.0,2901938432-367629.jpg,2901939379-143480.jpg,ACUK17I51KVXF
93,2.0,right,left,0.0,2.032,0.0,33.0,33.0,33.0,1.0,2874299429-139694.jpg,2864910426-287204.jpg,ACUK17I51KVXF
94,3.0,left,right,0.0,2.367,0.0,34.0,34.0,34.0,1.0,2898635428-69104.jpg,2898625336-291572.jpg,ACUK17I51KVXF
95,3.0,left,right,0.0,2.424,0.0,35.0,35.0,35.0,1.0,2964223381-294447.jpg,2898628438-68785.jpg,ACUK17I51KVXF
96,3.0,left,right,0.0,1.768,0.0,36.0,36.0,36.0,1.0,2868475410-213219.jpg,2868474407-362885.jpg,ACUK17I51KVXF
97,1.0,right,right,1.0,1.499,0.0,37.0,37.0,37.0,1.0,2549106624-127823.jpg,2238560245-182099.jpg,ACUK17I51KVXF
98,1.0,left,left,1.0,1.413,0.0,38.0,38.0,38.0,1.0,2452381505-199546.jpg,2901938432-367627.jpg,ACUK17I51KVXF
99,1.0,left,left,1.0,1.478,0.0,39.0,39.0,39.0,1.0,2238428357-313623.jpg,2238499057-320266.jpg,ACUK17I51KVXF
100,3.0,right,right,1.0,1.768,0.0,40.0,40.0,40.0,1.0,2238436252-314037.jpg,2883268412-365898.jpg,ACUK17I51KVXF
101,3.0,left,left,1.0,1.563,0.0,41.0,41.0,41.0,1.0,2901952513-70703.jpg,2238481198-19821.jpg,ACUK17I51KVXF
102,2.0,right,right,1.0,2.586,0.0,42.0,42.0,42.0,1.0,2238436322-314047.jpg,2238425482-313537.jpg,ACUK17I51KVXF
103,2.0,left,right,0.0,1.692,0.0,43.0,43.0,43.0,1.0,2874303365-214262.jpg,2238563377-332054.jpg,ACUK17I51KVXF
104,2.0,left,left,1.0,2.414,0.0,44.0,44.0,44.0,1.0,2446758985-197609.jpg,2864909447-362144.jpg,ACUK17I51KVXF
105,1.0,right,right,1.0,1.749,0.0,45.0,45.0,45.0,1.0,2986419333-73361.jpg,2238572663-35822.jpg,ACUK17I51KVXF
106,2.0,left,right,0.0,3.385,0.0,46.0,46.0,46.0,1.0,2460547467-349421.jpg,2452380166-273110.jpg,ACUK17I51KVXF
107,1.0,right,right,1.0,1.711,0.0,47.0,47.0,47.0,1.0,2901939327-367669.jpg,2986451363-73599.jpg,ACUK17I51KVXF
108,1.0,left,left,1.0,1.304,0.0,48.0,48.0,48.0,1.0,2874307433-66280.jpg,2986447306-296584.jpg,ACUK17I51KVXF
109,1.0,right,left,0.0,1.676,0.0,49.0,49.0,49.0,1.0,2446759803-49251.jpg,2449442529-124446.jpg,ACUK17I51KVXF
110,3.0,left,left,1.0,1.413,0.0,50.0,50.0,50.0,1.0,2964218374-144967.jpg,2981231446-294732.jpg,ACUK17I51KVXF
111,2.0,left,left,1.0,1.565,0.0,51.0,51.0,51.0,1.0,2901948350-218459.jpg,2417208001-267065.jpg,ACUK17I51KVXF
112,1.0,right,right,1.0,1.466,0.0,52.0,52.0,52.0,1.0,2862691449-137104.jpg,2238481198-19822.jpg,ACUK17I51KVXF
113,3.0,right,right,1.0,1.717,0.0,53.0,53.0,53.0,1.0,2427873848-47312.jpg,2981241414-145842.jpg,ACUK17I51KVXF
114,2.0,right,right,1.0,2.11,0.0,54.0,54.0,54.0,1.0,2898632385-217136.jpg,2883254439-140941.jpg,ACUK17I51KVXF
115,3.0,right,right,1.0,1.449,0.0,55.0,55.0,55.0,1.0,2512875587-350044.jpg,2592380177-354629.jpg,ACUK17I51KVXF
116,2.0,left,right,0.0,1.811,0.0,56.0,56.0,56.0,1.0,2898618390-216538.jpg,2901939327-367670.jpg,ACUK17I51KVXF
117,2.0,left,left,1.0,0.973,0.0,57.0,57.0,57.0,1.0,2898618444-142233.jpg,2238555262-330312.jpg,ACUK17I51KVXF
118,2.0,left,right,0.0,1.577,0.0,58.0,58.0,58.0,1.0,2460547508-51571.jpg,2981232437-369759.jpg,ACUK17I51KVXF
119,2.0,right,right,1.0,2.14,0.0,59.0,59.0,59.0,1.0,2981236443-71859.jpg,2898624426-291546.jpg,ACUK17I51KVXF
120,3.0,right,right,1.0,1.0948,0.0,0.0,0.0,0.0,1.0,2238550049-105691.jpg,2898633421-291973.jpg,A96TDNBSXG3NJ
121,2.0,left,left,1.0,1.1927,0.0,1.0,1.0,1.0,1.0,2883268471-290842.jpg,2883255450-215310.jpg,A96TDNBSXG3NJ
122,3.0,right,right,1.0,1.8044,0.0,2.0,2.0,2.0,1.0,2901941438-69835.jpg,2460547508-51571.jpg,A96TDNBSXG3NJ
123,1.0,left,left,1.0,2.3553,0.0,3.0,3.0,3.0,1.0,2901941401-292798.jpg,2898618327-366317.jpg,A96TDNBSXG3NJ
124,3.0,right,right,1.0,1.5405,0.0,4.0,4.0,4.0,1.0,2575121987-353817.jpg,2238428357-313623.jpg,A96TDNBSXG3NJ
125,3.0,right,right,1.0,5.1262,0.0,5.0,5.0,5.0,1.0,2238434559-90406.jpg,2986451363-73599.jpg,A96TDNBSXG3NJ
126,1.0,left,right,0.0,3.7856,0.0,6.0,6.0,6.0,1.0,2238481198-19822.jpg,2862691449-137104.jpg,A96TDNBSXG3NJ
127,2.0,right,left,0.0,0.0071,0.0,7.0,7.0,7.0,1.0,2238481198-19823.jpg,2874302418-65978.jpg,A96TDNBSXG3NJ
128,2.0,right,right,1.0,4.6391,0.0,8.0,8.0,8.0,1.0,2901951350-218702.jpg,2446759347-347016.jpg,A96TDNBSXG3NJ
129,2.0,right,left,0.0,1.6233,0.0,9.0,9.0,9.0,1.0,2238567168-34916.jpg,2452381505-199546.jpg,A96TDNBSXG3NJ
130,1.0,right,right,1.0,1.0938,0.0,10.0,10.0,10.0,1.0,2984626312-370849.jpg,2883268412-365898.jpg,A96TDNBSXG3NJ
131,3.0,left,left,1.0,1.7966,0.0,11.0,11.0,11.0,1.0,2592379964-131054.jpg,2592380272-354673.jpg,A96TDNBSXG3NJ
132,3.0,left,right,0.0,2.4525,0.0,12.0,12.0,12.0,1.0,2981231403-71642.jpg,2427873763-47290.jpg,A96TDNBSXG3NJ
133,3.0,left,left,1.0,1.3682,0.0,13.0,13.0,13.0,1.0,2964216465-219242.jpg,2898619327-366362.jpg,A96TDNBSXG3NJ
134,1.0,right,left,0.0,4.3426,0.0,14.0,14.0,14.0,1.0,2898631359-142721.jpg,2898618444-142233.jpg,A96TDNBSXG3NJ
135,1.0,right,right,1.0,3.2592,0.0,15.0,15.0,15.0,1.0,2986447306-296584.jpg,2874307433-66280.jpg,A96TDNBSXG3NJ
136,2.0,left,right,0.0,1.2692,0.0,16.0,16.0,16.0,1.0,2868474407-362883.jpg,2981246400-220363.jpg,A96TDNBSXG3NJ
137,3.0,right,left,0.0,5.0348,0.0,17.0,17.0,17.0,1.0,2898632385-217139.jpg,2449442529-124446.jpg,A96TDNBSXG3NJ
138,2.0,right,right,1.0,4.0956,0.0,18.0,18.0,18.0,1.0,2452380166-273110.jpg,2460547467-349421.jpg,A96TDNBSXG3NJ
139,2.0,left,left,1.0,6.2257,0.0,19.0,19.0,19.0,1.0,2449442529-124445.jpg,2986408373-73286.jpg,A96TDNBSXG3NJ
140,3.0,left,left,1.0,2.272,0.0,20.0,20.0,20.0,1.0,2575120738-55529.jpg,2238531493-28260.jpg,A96TDNBSXG3NJ
141,2.0,right,left,0.0,2.3534,0.0,21.0,21.0,21.0,1.0,2981229442-369621.jpg,2901939379-143480.jpg,A96TDNBSXG3NJ
142,1.0,left,right,0.0,1.1811,0.0,22.0,22.0,22.0,1.0,2874299429-139695.jpg,2883266388-67750.jpg,A96TDNBSXG3NJ
143,1.0,right,left,0.0,0.9092,0.0,23.0,23.0,23.0,1.0,2864907361-287062.jpg,2901952513-70703.jpg,A96TDNBSXG3NJ
144,3.0,left,right,0.0,0.903,0.0,24.0,24.0,24.0,1.0,2458347385-199723.jpg,2458347252-348911.jpg,A96TDNBSXG3NJ
145,2.0,right,left,0.0,0.7307,0.0,25.0,25.0,25.0,1.0,2883254439-140940.jpg,2964218374-144967.jpg,A96TDNBSXG3NJ
146,1.0,right,right,1.0,0.6387,0.0,26.0,26.0,26.0,1.0,2883268412-365899.jpg,2449441881-272368.jpg,A96TDNBSXG3NJ
147,1.0,right,left,0.0,0.9904,0.0,27.0,27.0,27.0,1.0,2901946465-218350.jpg,2868475410-213219.jpg,A96TDNBSXG3NJ
148,1.0,left,right,0.0,1.468,0.0,28.0,28.0,28.0,1.0,2898635428-69104.jpg,2446759803-49250.jpg,A96TDNBSXG3NJ
149,2.0,left,left,1.0,1.6348,0.0,29.0,29.0,29.0,1.0,2446758985-197609.jpg,2864909447-362144.jpg,A96TDNBSXG3NJ
150,1.0,left,right,0.0,1.3524,0.0,30.0,30.0,30.0,1.0,2898634397-367080.jpg,2237944827-301472.jpg,A96TDNBSXG3NJ
151,3.0,right,left,0.0,1.8456,0.0,31.0,31.0,31.0,1.0,2989726338-74002.jpg,2864907432-362042.jpg,A96TDNBSXG3NJ
152,1.0,left,left,1.0,1.2774,0.0,32.0,32.0,32.0,1.0,2964213381-294060.jpg,2981244394-145974.jpg,A96TDNBSXG3NJ
153,1.0,right,right,1.0,2.2355,0.0,33.0,33.0,33.0,1.0,2986449336-296644.jpg,2898618390-216538.jpg,A96TDNBSXG3NJ
154,3.0,left,right,0.0,3.791,0.0,34.0,34.0,34.0,1.0,2901947423-70311.jpg,2238577590-185467.jpg,A96TDNBSXG3NJ
155,3.0,right,left,0.0,1.7193,0.0,35.0,35.0,35.0,1.0,2986447332-371497.jpg,2512875899-126682.jpg,A96TDNBSXG3NJ
156,3.0,left,left,1.0,1.0182,0.0,36.0,36.0,36.0,1.0,2460547467-349422.jpg,2864909447-362146.jpg,A96TDNBSXG3NJ
157,1.0,left,right,0.0,2.6483,0.0,37.0,37.0,37.0,1.0,2874301407-363895.jpg,2883264368-67631.jpg,A96TDNBSXG3NJ
158,3.0,right,left,0.0,0.8258,0.0,38.0,38.0,38.0,1.0,2238480980-168129.jpg,2238560245-182099.jpg,A96TDNBSXG3NJ
159,2.0,right,left,0.0,2.4388,0.0,39.0,39.0,39.0,1.0,2868479517-363220.jpg,2898635427-367120.jpg,A96TDNBSXG3NJ
160,2.0,left,right,0.0,1.1096,0.0,40.0,40.0,40.0,1.0,2901939379-143479.jpg,2446758985-197610.jpg,A96TDNBSXG3NJ
161,2.0,right,left,0.0,0.6345,0.0,41.0,41.0,41.0,1.0,2238480648-19714.jpg,2874302418-65979.jpg,A96TDNBSXG3NJ
162,1.0,left,left,1.0,1.9941,0.0,42.0,42.0,42.0,1.0,2446759803-49249.jpg,2446760601-272099.jpg,A96TDNBSXG3NJ
163,2.0,left,right,0.0,4.9854,0.0,43.0,43.0,43.0,1.0,2874303365-214262.jpg,2238563377-332054.jpg,A96TDNBSXG3NJ
164,2.0,left,left,1.0,1.5438,0.0,44.0,44.0,44.0,1.0,2898624426-291546.jpg,2981236443-71859.jpg,A96TDNBSXG3NJ
165,1.0,right,right,1.0,0.7252,0.0,45.0,45.0,45.0,1.0,2238328478-11678.jpg,2452380832-348593.jpg,A96TDNBSXG3NJ
166,2.0,right,left,0.0,0.8338,0.0,46.0,46.0,46.0,1.0,2901941438-69836.jpg,2964223381-294447.jpg,A96TDNBSXG3NJ
167,2.0,right,right,1.0,0.9012,0.0,47.0,47.0,47.0,1.0,2874301404-139813.jpg,2981241414-145842.jpg,A96TDNBSXG3NJ
168,1.0,right,left,0.0,0.7233,0.0,48.0,48.0,48.0,1.0,2238471391-240918.jpg,2238425482-313537.jpg,A96TDNBSXG3NJ
169,3.0,right,right,1.0,0.9889,0.0,49.0,49.0,49.0,1.0,2512875587-350044.jpg,2592380177-354629.jpg,A96TDNBSXG3NJ
170,3.0,left,left,1.0,1.1038,0.0,50.0,50.0,50.0,1.0,2901948350-218459.jpg,2981246360-220352.jpg,A96TDNBSXG3NJ
171,1.0,left,right,0.0,1.3298,0.0,51.0,51.0,51.0,1.0,2592380177-354626.jpg,2986408339-146952.jpg,A96TDNBSXG3NJ
172,1.0,right,left,0.0,0.65,0.0,52.0,52.0,52.0,1.0,2864902304-137862.jpg,2864910426-287204.jpg,A96TDNBSXG3NJ
173,3.0,right,right,1.0,0.7302,0.0,53.0,53.0,53.0,1.0,2238480278-19661.jpg,2238480677-317399.jpg,A96TDNBSXG3NJ
174,3.0,right,left,0.0,0.6494,0.0,54.0,54.0,54.0,1.0,2981241419-145844.jpg,2238481928-19949.jpg,A96TDNBSXG3NJ
175,2.0,right,right,1.0,0.7881,0.0,55.0,55.0,55.0,1.0,2238571930-184143.jpg,2238572663-35822.jpg,A96TDNBSXG3NJ
176,2.0,left,left,1.0,0.6463,0.0,56.0,56.0,56.0,1.0,2883254439-140941.jpg,2898632385-217136.jpg,A96TDNBSXG3NJ
177,1.0,right,right,1.0,0.6509,0.0,57.0,57.0,57.0,1.0,2611628310-206388.jpg,2883256307-365057.jpg,A96TDNBSXG3NJ
178,3.0,right,left,0.0,0.7287,0.0,58.0,58.0,58.0,1.0,2964207374-144577.jpg,2898617468-68274.jpg,A96TDNBSXG3NJ
179,2.0,left,right,0.0,1.1816,0.0,59.0,59.0,59.0,1.0,2238580740-186218.jpg,2238521193-26285.jpg,A96TDNBSXG3NJ
180,2.0,left,right,0.0,3.0389,0.0,0.0,0.0,0.0,1.0,2238425482-313537.jpg,2238436322-314047.jpg,AW9ODYOD9PYHX
181,3.0,right,right,1.0,1.7668,0.0,1.0,1.0,1.0,1.0,2898632385-217137.jpg,2449442529-124445.jpg,AW9ODYOD9PYHX
182,3.0,left,left,1.0,1.5906,0.0,2.0,2.0,2.0,1.0,2874303365-214262.jpg,2864911457-362260.jpg,AW9ODYOD9PYHX
183,2.0,left,left,1.0,2.2662,0.0,3.0,3.0,3.0,1.0,2874302418-65978.jpg,2238481198-19823.jpg,AW9ODYOD9PYHX
184,2.0,right,left,0.0,2.2773,0.0,4.0,4.0,4.0,1.0,2981236443-71859.jpg,2898624426-291546.jpg,AW9ODYOD9PYHX
185,1.0,left,right,0.0,2.3326,0.0,5.0,5.0,5.0,1.0,2868475410-213219.jpg,2901946465-218350.jpg,AW9ODYOD9PYHX
186,1.0,left,left,1.0,1.5937,0.0,6.0,6.0,6.0,1.0,2575120738-55529.jpg,2898632385-217138.jpg,AW9ODYOD9PYHX
187,3.0,right,right,1.0,1.676,0.0,7.0,7.0,7.0,1.0,2238550049-105691.jpg,2898633421-291973.jpg,AW9ODYOD9PYHX
188,1.0,left,left,1.0,1.881,0.0,8.0,8.0,8.0,1.0,2446758985-197609.jpg,2981240424-145795.jpg,AW9ODYOD9PYHX
189,1.0,left,left,1.0,2.5121,0.0,9.0,9.0,9.0,1.0,2898635427-367120.jpg,2901946439-144040.jpg,AW9ODYOD9PYHX
190,1.0,right,right,1.0,1.9728,0.0,10.0,10.0,10.0,1.0,2460547291-274110.jpg,2460547508-51571.jpg,AW9ODYOD9PYHX
191,3.0,left,left,1.0,2.1713,0.0,11.0,11.0,11.0,1.0,2964218374-144967.jpg,2981231446-294732.jpg,AW9ODYOD9PYHX
192,2.0,left,left,1.0,2.4193,0.0,12.0,12.0,12.0,1.0,2238480677-317399.jpg,2238573546-258454.jpg,AW9ODYOD9PYHX
193,3.0,left,right,0.0,2.0707,0.0,13.0,13.0,13.0,1.0,2964223381-294447.jpg,2898628438-68785.jpg,AW9ODYOD9PYHX
194,3.0,right,right,1.0,2.415,0.0,14.0,14.0,14.0,1.0,2981231422-369714.jpg,2874307433-66280.jpg,AW9ODYOD9PYHX
195,1.0,left,left,1.0,1.6031,0.0,15.0,15.0,15.0,1.0,2898618444-142233.jpg,2898631359-142721.jpg,AW9ODYOD9PYHX
196,2.0,right,right,1.0,2.061,0.0,16.0,16.0,16.0,1.0,2417208001-267065.jpg,2901948350-218459.jpg,AW9ODYOD9PYHX
197,1.0,left,left,1.0,2.0622,0.0,17.0,17.0,17.0,1.0,2901941401-292798.jpg,2898618327-366317.jpg,AW9ODYOD9PYHX
198,2.0,right,right,1.0,1.6812,0.0,18.0,18.0,18.0,1.0,2427874554-121863.jpg,2458347385-199723.jpg,AW9ODYOD9PYHX
199,1.0,left,left,1.0,2.0748,0.0,19.0,19.0,19.0,1.0,2898634397-367080.jpg,2237944827-301472.jpg,AW9ODYOD9PYHX
200,3.0,right,right,1.0,1.6876,0.0,20.0,20.0,20.0,1.0,2449442181-272436.jpg,2452380832-348593.jpg,AW9ODYOD9PYHX
201,1.0,right,right,1.0,1.686,0.0,21.0,21.0,21.0,1.0,2964224310-219528.jpg,2446759347-347016.jpg,AW9ODYOD9PYHX
202,3.0,left,left,1.0,2.657,0.0,22.0,22.0,22.0,1.0,2898617468-68274.jpg,2964207374-144577.jpg,AW9ODYOD9PYHX
203,1.0,left,left,1.0,3.7664,0.0,23.0,23.0,23.0,1.0,2864907432-362042.jpg,2864901420-212147.jpg,AW9ODYOD9PYHX
204,3.0,left,left,1.0,2.6464,0.0,24.0,24.0,24.0,1.0,2883256307-365057.jpg,2864904453-63933.jpg,AW9ODYOD9PYHX
205,3.0,right,left,0.0,2.0634,0.0,25.0,25.0,25.0,1.0,2238481198-19821.jpg,2901952513-70703.jpg,AW9ODYOD9PYHX
206,1.0,left,left,1.0,2.4364,0.0,26.0,26.0,26.0,1.0,2901939379-143480.jpg,2901942428-69919.jpg,AW9ODYOD9PYHX
207,1.0,left,left,1.0,2.7417,0.0,27.0,27.0,27.0,1.0,2238481198-19822.jpg,2862691449-137104.jpg,AW9ODYOD9PYHX
208,2.0,left,right,0.0,2.8918,0.0,28.0,28.0,28.0,1.0,2460547467-349422.jpg,2868487415-213924.jpg,AW9ODYOD9PYHX
209,2.0,right,left,0.0,2.146,0.0,29.0,29.0,29.0,1.0,2981244403-72215.jpg,2981231403-71642.jpg,AW9ODYOD9PYHX
210,3.0,right,left,0.0,3.1704,0.0,30.0,30.0,30.0,1.0,2238578544-111698.jpg,2874302418-65979.jpg,AW9ODYOD9PYHX
211,1.0,right,right,1.0,3.7585,0.0,31.0,31.0,31.0,1.0,2549106624-127823.jpg,2238560245-182099.jpg,AW9ODYOD9PYHX
212,2.0,left,left,1.0,2.2543,0.0,32.0,32.0,32.0,1.0,2449442529-124446.jpg,2460547536-274181.jpg,AW9ODYOD9PYHX
213,3.0,left,right,0.0,2.0799,0.0,33.0,33.0,33.0,1.0,2874301407-363895.jpg,2901947323-70275.jpg,AW9ODYOD9PYHX
214,1.0,left,left,1.0,1.8042,0.0,34.0,34.0,34.0,1.0,2864910426-287204.jpg,2864902304-137862.jpg,AW9ODYOD9PYHX
215,2.0,right,right,1.0,2.2263,0.0,35.0,35.0,35.0,1.0,2901942443-69923.jpg,2874299429-139695.jpg,AW9ODYOD9PYHX
216,2.0,left,left,1.0,2.2007,0.0,36.0,36.0,36.0,1.0,2452381505-199546.jpg,2238567168-34916.jpg,AW9ODYOD9PYHX
217,3.0,right,left,0.0,1.5777,0.0,37.0,37.0,37.0,1.0,2898619327-366362.jpg,2964216465-219242.jpg,AW9ODYOD9PYHX
218,3.0,right,right,1.0,1.7576,0.0,38.0,38.0,38.0,1.0,2449441881-272367.jpg,2449441881-272368.jpg,AW9ODYOD9PYHX
219,2.0,right,right,1.0,1.5119,0.0,39.0,39.0,39.0,1.0,2238479053-19457.jpg,2592379964-131054.jpg,AW9ODYOD9PYHX
220,1.0,right,right,1.0,1.3804,0.0,40.0,40.0,40.0,1.0,2898633421-291974.jpg,2592380177-354629.jpg,AW9ODYOD9PYHX
221,3.0,right,right,1.0,1.4217,0.0,41.0,41.0,41.0,1.0,2575121987-353817.jpg,2238428357-313623.jpg,AW9ODYOD9PYHX
222,2.0,left,right,0.0,1.5739,0.0,42.0,42.0,42.0,1.0,2238481928-19949.jpg,2864900357-361688.jpg,AW9ODYOD9PYHX
223,3.0,left,left,1.0,1.5914,0.0,43.0,43.0,43.0,1.0,2460547467-349421.jpg,2981235446-294901.jpg,AW9ODYOD9PYHX
224,3.0,left,left,1.0,2.0836,0.0,44.0,44.0,44.0,1.0,2238580740-186218.jpg,2964220333-71258.jpg,AW9ODYOD9PYHX
225,1.0,right,right,1.0,1.6799,0.0,45.0,45.0,45.0,1.0,2986449336-296644.jpg,2898618390-216538.jpg,AW9ODYOD9PYHX
226,3.0,left,left,1.0,1.7009,0.0,46.0,46.0,46.0,1.0,2901947423-70311.jpg,2238577590-185467.jpg,AW9ODYOD9PYHX
227,2.0,left,right,0.0,2.2566,0.0,47.0,47.0,47.0,1.0,2981241414-145842.jpg,2874301404-139813.jpg,AW9ODYOD9PYHX
228,2.0,left,left,1.0,1.988,0.0,48.0,48.0,48.0,1.0,2986451363-73599.jpg,2860302315-210704.jpg,AW9ODYOD9PYHX
229,3.0,left,left,1.0,1.5111,0.0,49.0,49.0,49.0,1.0,2964213381-294060.jpg,2964213381-294061.jpg,AW9ODYOD9PYHX
230,3.0,right,left,0.0,2.471,0.0,50.0,50.0,50.0,1.0,2986447332-371497.jpg,2512875899-126682.jpg,AW9ODYOD9PYHX
231,2.0,right,right,1.0,1.7092,0.0,51.0,51.0,51.0,1.0,2238571930-184143.jpg,2238572663-35822.jpg,AW9ODYOD9PYHX
232,2.0,right,left,0.0,2.0622,0.0,52.0,52.0,52.0,1.0,2984615361-295510.jpg,2883268412-365898.jpg,AW9ODYOD9PYHX
233,2.0,right,right,1.0,2.0504,0.0,53.0,53.0,53.0,1.0,2901943411-292945.jpg,2898635428-69104.jpg,AW9ODYOD9PYHX
234,1.0,left,left,1.0,2.0653,0.0,54.0,54.0,54.0,1.0,2592380177-354626.jpg,2986408339-146952.jpg,AW9ODYOD9PYHX
235,2.0,right,left,0.0,1.6015,0.0,55.0,55.0,55.0,1.0,2898632385-217136.jpg,2883254439-140941.jpg,AW9ODYOD9PYHX
236,1.0,right,left,0.0,1.3155,0.0,56.0,56.0,56.0,1.0,2238516618-25604.jpg,2868474407-362883.jpg,AW9ODYOD9PYHX
237,1.0,right,right,1.0,1.6829,0.0,57.0,57.0,57.0,1.0,2446760601-272099.jpg,2446759803-49249.jpg,AW9ODYOD9PYHX
238,1.0,right,right,1.0,1.8843,0.0,58.0,58.0,58.0,1.0,2883268471-290843.jpg,2883268471-290842.jpg,AW9ODYOD9PYHX
239,2.0,right,right,1.0,2.6207,0.0,59.0,59.0,59.0,1.0,2446758985-197610.jpg,2901939379-143479.jpg,AW9ODYOD9PYHX
240,3.0,right,right,1.0,1.6388,0.0,0.0,0.0,0.0,1.0,2864911457-362260.jpg,2874303365-214262.jpg,A1SHLWKA0UH1IS
241,3.0,right,right,1.0,1.7653,0.0,1.0,1.0,1.0,1.0,2994401319-148290.jpg,2452381505-199546.jpg,A1SHLWKA0UH1IS
242,2.0,right,right,1.0,1.0309,0.0,2.0,2.0,2.0,1.0,2575118671-277663.jpg,2898633421-291973.jpg,A1SHLWKA0UH1IS
243,1.0,left,left,1.0,1.2142,0.0,3.0,3.0,3.0,1.0,2512875899-126682.jpg,2460547536-274179.jpg,A1SHLWKA0UH1IS
244,1.0,left,left,1.0,1.8505,0.0,4.0,4.0,4.0,1.0,2864907432-362042.jpg,2864901420-212147.jpg,A1SHLWKA0UH1IS
245,3.0,right,right,1.0,1.5972,0.0,5.0,5.0,5.0,1.0,2238578544-111698.jpg,2874302418-65979.jpg,A1SHLWKA0UH1IS
246,2.0,right,right,1.0,0.8827,0.0,6.0,6.0,6.0,1.0,2238481813-19930.jpg,2452380832-348593.jpg,A1SHLWKA0UH1IS
247,2.0,right,right,1.0,1.628,0.0,7.0,7.0,7.0,1.0,2874301404-139813.jpg,2981241414-145842.jpg,A1SHLWKA0UH1IS
248,3.0,left,left,1.0,0.9439,0.0,8.0,8.0,8.0,1.0,2238428357-313623.jpg,2575121987-353817.jpg,A1SHLWKA0UH1IS
249,2.0,left,left,1.0,1.566,0.0,9.0,9.0,9.0,1.0,2898635428-69104.jpg,2901943411-292945.jpg,A1SHLWKA0UH1IS
250,3.0,right,right,1.0,3.7146,0.0,10.0,10.0,10.0,1.0,2883273443-68193.jpg,2901941401-292798.jpg,A1SHLWKA0UH1IS
251,3.0,left,left,1.0,1.1906,0.0,11.0,11.0,11.0,1.0,2446759347-347016.jpg,2238569117-333045.jpg,A1SHLWKA0UH1IS
252,3.0,left,left,1.0,0.9992,0.0,12.0,12.0,12.0,1.0,2874302418-65978.jpg,2898633321-291943.jpg,A1SHLWKA0UH1IS
253,3.0,left,left,1.0,1.3973,0.0,13.0,13.0,13.0,1.0,2446758985-197609.jpg,2898624426-291544.jpg,A1SHLWKA0UH1IS
254,1.0,left,left,1.0,1.2808,0.0,14.0,14.0,14.0,1.0,2575120738-55529.jpg,2898632385-217138.jpg,A1SHLWKA0UH1IS
255,1.0,right,right,1.0,3.1481,0.0,15.0,15.0,15.0,1.0,2986447306-296584.jpg,2874307433-66280.jpg,A1SHLWKA0UH1IS
256,2.0,left,left,1.0,1.2733,0.0,16.0,16.0,16.0,1.0,2898617468-68274.jpg,2901943387-368037.jpg,A1SHLWKA0UH1IS
257,2.0,right,right,1.0,1.7468,0.0,17.0,17.0,17.0,1.0,2981244403-72215.jpg,2981231403-71642.jpg,A1SHLWKA0UH1IS
258,2.0,left,left,1.0,2.1624,0.0,18.0,18.0,18.0,1.0,2874299429-139695.jpg,2901942443-69923.jpg,A1SHLWKA0UH1IS
259,2.0,right,right,1.0,1.5953,0.0,19.0,19.0,19.0,1.0,2874299429-139694.jpg,2864910426-287204.jpg,A1SHLWKA0UH1IS
260,2.0,right,right,1.0,1.0446,0.0,20.0,20.0,20.0,1.0,2868469411-287540.jpg,2901952513-70703.jpg,A1SHLWKA0UH1IS
261,1.0,left,left,1.0,3.5693,0.0,21.0,21.0,21.0,1.0,2460547467-349421.jpg,2898631394-142727.jpg,A1SHLWKA0UH1IS
262,3.0,left,left,1.0,1.4586,0.0,22.0,22.0,22.0,1.0,2460547467-349422.jpg,2864909447-362146.jpg,A1SHLWKA0UH1IS
263,3.0,left,left,1.0,1.8493,0.0,23.0,23.0,23.0,1.0,2874301407-363895.jpg,2901947323-70275.jpg,A1SHLWKA0UH1IS
264,3.0,left,left,1.0,3.3836,0.0,24.0,24.0,24.0,1.0,2238481928-19949.jpg,2981241419-145844.jpg,A1SHLWKA0UH1IS
265,3.0,right,right,1.0,0.9741,0.0,25.0,25.0,25.0,1.0,2864903351-286874.jpg,2238572663-35822.jpg,A1SHLWKA0UH1IS
266,1.0,right,right,1.0,1.8129,0.0,26.0,26.0,26.0,1.0,2984626312-370849.jpg,2883268412-365898.jpg,A1SHLWKA0UH1IS
267,1.0,left,left,1.0,1.3652,0.0,27.0,27.0,27.0,1.0,2458347385-199723.jpg,2238480434-93829.jpg,A1SHLWKA0UH1IS
268,2.0,left,left,1.0,4.7636,0.0,28.0,28.0,28.0,1.0,2901939379-143480.jpg,2981229442-369621.jpg,A1SHLWKA0UH1IS
269,1.0,right,right,1.0,1.6906,0.0,29.0,29.0,29.0,1.0,2981244394-145974.jpg,2964213381-294060.jpg,A1SHLWKA0UH1IS
270,2.0,right,right,1.0,2.2507,0.0,30.0,30.0,30.0,1.0,2883255450-215310.jpg,2883268471-290842.jpg,A1SHLWKA0UH1IS
271,1.0,right,right,1.0,1.5489,0.0,31.0,31.0,31.0,1.0,2460547291-274110.jpg,2460547508-51571.jpg,A1SHLWKA0UH1IS
272,1.0,left,left,1.0,1.117,0.0,32.0,32.0,32.0,1.0,2592379964-131054.jpg,2575963989-130576.jpg,A1SHLWKA0UH1IS
273,1.0,left,left,1.0,1.1133,0.0,33.0,33.0,33.0,1.0,2868474407-362883.jpg,2238516618-25604.jpg,A1SHLWKA0UH1IS
274,1.0,right,right,1.0,1.216,0.0,34.0,34.0,34.0,1.0,2986449336-296644.jpg,2898618390-216538.jpg,A1SHLWKA0UH1IS
275,1.0,left,left,1.0,0.9973,0.0,35.0,35.0,35.0,1.0,2449441881-272368.jpg,2883268412-365899.jpg,A1SHLWKA0UH1IS
276,1.0,left,left,1.0,1.8141,0.0,36.0,36.0,36.0,1.0,2238580740-186218.jpg,2238550816-254000.jpg,A1SHLWKA0UH1IS
277,3.0,right,right,1.0,1.5291,0.0,37.0,37.0,37.0,1.0,2898632385-217137.jpg,2449442529-124445.jpg,A1SHLWKA0UH1IS
278,3.0,left,left,1.0,2.4971,0.0,38.0,38.0,38.0,1.0,2898624426-291546.jpg,2981235446-294900.jpg,A1SHLWKA0UH1IS
279,3.0,left,left,1.0,2.124,0.0,39.0,39.0,39.0,1.0,2986451363-73599.jpg,2238434559-90406.jpg,A1SHLWKA0UH1IS
280,3.0,right,right,1.0,1.6119,0.0,40.0,40.0,40.0,1.0,2981240424-145794.jpg,2901939379-143479.jpg,A1SHLWKA0UH1IS
281,3.0,left,left,1.0,2.0633,0.0,41.0,41.0,41.0,1.0,2964218374-144967.jpg,2981231446-294732.jpg,A1SHLWKA0UH1IS
282,2.0,right,right,1.0,1.3282,0.0,42.0,42.0,42.0,1.0,2864900319-137787.jpg,2964216465-219242.jpg,A1SHLWKA0UH1IS
283,1.0,left,right,0.0,1.8173,0.0,43.0,43.0,43.0,1.0,2898635427-367120.jpg,2901946439-144040.jpg,A1SHLWKA0UH1IS
284,3.0,left,left,1.0,0.9164,0.0,44.0,44.0,44.0,1.0,2898618444-142233.jpg,2898618444-142232.jpg,A1SHLWKA0UH1IS
285,1.0,right,right,1.0,1.767,0.0,45.0,45.0,45.0,1.0,2860312398-62572.jpg,2901947423-70311.jpg,A1SHLWKA0UH1IS
286,1.0,right,right,1.0,1.2173,0.0,46.0,46.0,46.0,1.0,2549106624-127823.jpg,2238560245-182099.jpg,A1SHLWKA0UH1IS
287,2.0,left,left,1.0,2.2014,0.0,47.0,47.0,47.0,1.0,2238481198-19822.jpg,2901946436-293242.jpg,A1SHLWKA0UH1IS
288,2.0,right,right,1.0,1.3134,0.0,48.0,48.0,48.0,1.0,2417208001-267065.jpg,2901948350-218459.jpg,A1SHLWKA0UH1IS
289,2.0,right,right,1.0,1.4972,0.0,49.0,49.0,49.0,1.0,2579432534-130704.jpg,2592380177-354629.jpg,A1SHLWKA0UH1IS
290,2.0,left,left,1.0,1.2987,0.0,50.0,50.0,50.0,1.0,2238425482-313537.jpg,2238436322-314047.jpg,A1SHLWKA0UH1IS
291,2.0,right,right,1.0,1.9157,0.0,51.0,51.0,51.0,1.0,2898632385-217136.jpg,2883254439-140941.jpg,A1SHLWKA0UH1IS
292,1.0,left,left,1.0,1.3611,0.0,52.0,52.0,52.0,1.0,2964223381-294447.jpg,2427874231-269884.jpg,A1SHLWKA0UH1IS
293,3.0,left,left,1.0,2.7791,0.0,53.0,53.0,53.0,1.0,2883256307-365057.jpg,2864904453-63933.jpg,A1SHLWKA0UH1IS
294,2.0,left,left,1.0,1.0282,0.0,54.0,54.0,54.0,1.0,2238480677-317399.jpg,2238573546-258454.jpg,A1SHLWKA0UH1IS
295,3.0,right,right,1.0,2.4317,0.0,55.0,55.0,55.0,1.0,2964217461-294238.jpg,2898634397-367080.jpg,A1SHLWKA0UH1IS
296,2.0,left,left,1.0,1.5629,0.0,56.0,56.0,56.0,1.0,2449442529-124446.jpg,2460547536-274181.jpg,A1SHLWKA0UH1IS
297,2.0,left,left,1.0,1.3301,0.0,57.0,57.0,57.0,1.0,2592380177-354626.jpg,2864901386-286797.jpg,A1SHLWKA0UH1IS
298,1.0,left,left,1.0,1.0488,0.0,58.0,58.0,58.0,1.0,2868475410-213219.jpg,2901946465-218350.jpg,A1SHLWKA0UH1IS
299,1.0,left,left,1.0,5.7834,0.0,59.0,59.0,59.0,1.0,2446759803-49249.jpg,2446760601-272099.jpg,A1SHLWKA0UH1IS
300,1.0,right,right,1.0,1.0815,0.0,0.0,0.0,0.0,1.0,2611628310-206388.jpg,2883256307-365057.jpg,A1LG7I4UFRWZRY
301,1.0,right,right,1.0,1.5581,0.0,1.0,1.0,1.0,1.0,2964218432-369263.jpg,2898624426-291546.jpg,A1LG7I4UFRWZRY
302,3.0,right,left,0.0,1.2455,0.0,2.0,2.0,2.0,1.0,2964207374-144577.jpg,2898617468-68274.jpg,A1LG7I4UFRWZRY
303,1.0,right,left,0.0,1.0012,0.0,3.0,3.0,3.0,1.0,2238499057-320266.jpg,2238428357-313623.jpg,A1LG7I4UFRWZRY
304,2.0,right,left,0.0,1.0745,0.0,4.0,4.0,4.0,1.0,2984615361-295510.jpg,2883268412-365898.jpg,A1LG7I4UFRWZRY
305,1.0,right,left,0.0,1.1279,0.0,5.0,5.0,5.0,1.0,2898618440-216545.jpg,2460547467-349422.jpg,A1LG7I4UFRWZRY
306,1.0,right,left,0.0,0.8855,0.0,6.0,6.0,6.0,1.0,2981244394-145974.jpg,2964213381-294060.jpg,A1LG7I4UFRWZRY
307,3.0,right,right,1.0,0.9246,0.0,7.0,7.0,7.0,1.0,2449441881-272367.jpg,2449441881-272368.jpg,A1LG7I4UFRWZRY
308,3.0,left,left,1.0,1.2862,0.0,8.0,8.0,8.0,1.0,2592379964-131054.jpg,2592380272-354673.jpg,A1LG7I4UFRWZRY
309,3.0,left,left,1.0,1.3385,0.0,9.0,9.0,9.0,1.0,2964216465-219242.jpg,2898619327-366362.jpg,A1LG7I4UFRWZRY
310,1.0,right,left,0.0,1.2274,0.0,10.0,10.0,10.0,1.0,2413147898-43548.jpg,2874302418-65979.jpg,A1LG7I4UFRWZRY
311,1.0,left,right,0.0,0.6966,0.0,11.0,11.0,11.0,1.0,2238572663-35822.jpg,2986419333-73361.jpg,A1LG7I4UFRWZRY
312,3.0,left,left,1.0,0.2876,0.0,12.0,12.0,12.0,1.0,2901952513-70703.jpg,2238481198-19821.jpg,A1LG7I4UFRWZRY
313,2.0,left,right,0.0,0.2678,0.0,13.0,13.0,13.0,1.0,2592380177-354626.jpg,2864901386-286797.jpg,A1LG7I4UFRWZRY
314,3.0,right,left,0.0,0.2302,0.0,14.0,14.0,14.0,1.0,2449442181-272436.jpg,2452380832-348593.jpg,A1LG7I4UFRWZRY
315,3.0,left,right,0.0,0.2542,0.0,15.0,15.0,15.0,1.0,2874307433-66280.jpg,2981231422-369714.jpg,A1LG7I4UFRWZRY
316,2.0,right,left,0.0,0.1644,0.0,16.0,16.0,16.0,1.0,2460547536-274181.jpg,2449442529-124446.jpg,A1LG7I4UFRWZRY
317,1.0,left,right,0.0,0.1597,0.0,17.0,17.0,17.0,1.0,2874303365-214262.jpg,2609793677-355397.jpg,A1LG7I4UFRWZRY
318,3.0,left,left,1.0,0.1756,0.0,18.0,18.0,18.0,1.0,2864910426-287204.jpg,2901939433-69672.jpg,A1LG7I4UFRWZRY
319,3.0,left,right,0.0,0.127,0.0,19.0,19.0,19.0,1.0,2874299429-139695.jpg,2446760917-347439.jpg,A1LG7I4UFRWZRY
320,1.0,right,left,0.0,0.1037,0.0,20.0,20.0,20.0,1.0,2898631359-142721.jpg,2898618444-142233.jpg,A1LG7I4UFRWZRY
321,1.0,right,right,1.0,0.126,0.0,21.0,21.0,21.0,1.0,2883264368-67631.jpg,2874301407-363895.jpg,A1LG7I4UFRWZRY
322,1.0,left,left,1.0,0.1188,0.0,22.0,22.0,22.0,1.0,2238560245-182099.jpg,2549106624-127823.jpg,A1LG7I4UFRWZRY
323,1.0,right,right,1.0,0.0809,0.0,23.0,23.0,23.0,1.0,2238550816-254000.jpg,2238580740-186218.jpg,A1LG7I4UFRWZRY
324,2.0,left,left,1.0,0.1243,0.0,24.0,24.0,24.0,1.0,2864907432-362042.jpg,2901947423-70310.jpg,A1LG7I4UFRWZRY
325,1.0,left,right,0.0,0.0816,0.0,25.0,25.0,25.0,1.0,2898633421-291973.jpg,2512876023-52283.jpg,A1LG7I4UFRWZRY
326,3.0,right,left,0.0,0.213,0.0,26.0,26.0,26.0,1.0,2901947448-70314.jpg,2883268471-290842.jpg,A1LG7I4UFRWZRY
327,2.0,right,right,1.0,0.1724,0.0,27.0,27.0,27.0,1.0,2981229442-369621.jpg,2901939379-143480.jpg,A1LG7I4UFRWZRY
328,3.0,right,left,0.0,0.1067,0.0,28.0,28.0,28.0,1.0,2427873848-47312.jpg,2981241414-145842.jpg,A1LG7I4UFRWZRY
329,3.0,right,right,1.0,0.1016,0.0,29.0,29.0,29.0,1.0,2238577590-185467.jpg,2901947423-70311.jpg,A1LG7I4UFRWZRY
330,2.0,left,left,1.0,0.1048,0.0,30.0,30.0,30.0,1.0,2575120738-55529.jpg,2575120738-55528.jpg,A1LG7I4UFRWZRY
331,1.0,right,right,1.0,0.0833,0.0,31.0,31.0,31.0,1.0,2804906319-133082.jpg,2901948350-218459.jpg,A1LG7I4UFRWZRY
332,2.0,left,left,1.0,0.0617,0.0,32.0,32.0,32.0,1.0,2460547508-51571.jpg,2981232437-369759.jpg,A1LG7I4UFRWZRY
333,2.0,left,right,0.0,0.1008,0.0,33.0,33.0,33.0,1.0,2874302418-65978.jpg,2238481198-19823.jpg,A1LG7I4UFRWZRY
334,2.0,right,left,0.0,0.1276,0.0,34.0,34.0,34.0,1.0,2981244403-72215.jpg,2981231403-71642.jpg,A1LG7I4UFRWZRY
335,2.0,left,right,0.0,0.0599,0.0,35.0,35.0,35.0,1.0,2460547467-349421.jpg,2452380166-273110.jpg,A1LG7I4UFRWZRY
336,1.0,left,left,1.0,0.1529,0.0,36.0,36.0,36.0,1.0,2898635427-367120.jpg,2901946439-144040.jpg,A1LG7I4UFRWZRY
337,2.0,right,right,1.0,0.058,0.0,37.0,37.0,37.0,1.0,2898632385-217136.jpg,2883254439-140941.jpg,A1LG7I4UFRWZRY
338,3.0,left,right,0.0,0.4277,0.0,38.0,38.0,38.0,1.0,2898635428-69104.jpg,2898625336-291572.jpg,A1LG7I4UFRWZRY
339,3.0,right,left,0.0,0.1575,0.0,39.0,39.0,39.0,1.0,2458347252-348911.jpg,2458347385-199723.jpg,A1LG7I4UFRWZRY
340,1.0,right,right,1.0,0.1929,0.0,40.0,40.0,40.0,1.0,2901946465-218350.jpg,2868475410-213219.jpg,A1LG7I4UFRWZRY
341,2.0,left,left,1.0,0.1099,0.0,41.0,41.0,41.0,1.0,2868474407-362883.jpg,2981246400-220363.jpg,A1LG7I4UFRWZRY
342,1.0,right,right,1.0,0.1258,0.0,42.0,42.0,42.0,1.0,2460547536-274179.jpg,2512875899-126682.jpg,A1LG7I4UFRWZRY
343,2.0,left,left,1.0,0.1061,0.0,43.0,43.0,43.0,1.0,2238425482-313537.jpg,2238436322-314047.jpg,A1LG7I4UFRWZRY
344,3.0,right,right,1.0,0.0442,0.0,44.0,44.0,44.0,1.0,2981241419-145844.jpg,2238481928-19949.jpg,A1LG7I4UFRWZRY
345,3.0,left,left,1.0,0.1167,0.0,45.0,45.0,45.0,1.0,2446758985-197609.jpg,2898624426-291544.jpg,A1LG7I4UFRWZRY
346,2.0,left,right,0.0,0.0664,0.0,46.0,46.0,46.0,1.0,2592380177-354629.jpg,2579432534-130704.jpg,A1LG7I4UFRWZRY
347,2.0,left,left,1.0,0.128,0.0,47.0,47.0,47.0,1.0,2964223381-294447.jpg,2901941438-69836.jpg,A1LG7I4UFRWZRY
348,2.0,right,right,1.0,0.0564,0.0,48.0,48.0,48.0,1.0,2860302315-210704.jpg,2986451363-73599.jpg,A1LG7I4UFRWZRY
349,3.0,right,left,0.0,0.1375,0.0,49.0,49.0,49.0,1.0,2238569117-333045.jpg,2446759347-347016.jpg,A1LG7I4UFRWZRY
350,2.0,right,right,1.0,0.1048,0.0,50.0,50.0,50.0,1.0,2898618440-216547.jpg,2446759803-49249.jpg,A1LG7I4UFRWZRY
351,3.0,right,left,0.0,0.1377,0.0,51.0,51.0,51.0,1.0,2883273443-68193.jpg,2901941401-292798.jpg,A1LG7I4UFRWZRY
352,2.0,left,right,0.0,0.0801,0.0,52.0,52.0,52.0,1.0,2452381505-199546.jpg,2238567168-34916.jpg,A1LG7I4UFRWZRY
353,1.0,left,left,1.0,0.0994,0.0,53.0,53.0,53.0,1.0,2238481198-19822.jpg,2862691449-137104.jpg,A1LG7I4UFRWZRY
354,1.0,right,right,1.0,0.1043,0.0,54.0,54.0,54.0,1.0,2986449336-296644.jpg,2898618390-216538.jpg,A1LG7I4UFRWZRY
355,1.0,left,left,1.0,0.1049,0.0,55.0,55.0,55.0,1.0,2898634397-367080.jpg,2237944827-301472.jpg,A1LG7I4UFRWZRY
356,2.0,left,right,0.0,0.1329,0.0,56.0,56.0,56.0,1.0,2901939379-143479.jpg,2446758985-197610.jpg,A1LG7I4UFRWZRY
357,3.0,left,left,1.0,0.1082,0.0,57.0,57.0,57.0,1.0,2449442529-124445.jpg,2898632385-217137.jpg,A1LG7I4UFRWZRY
358,2.0,left,right,0.0,0.0846,0.0,58.0,58.0,58.0,1.0,2964218374-144967.jpg,2883254439-140940.jpg,A1LG7I4UFRWZRY
359,3.0,left,left,1.0,0.1291,0.0,59.0,59.0,59.0,1.0,2238480677-317399.jpg,2238480278-19661.jpg,A1LG7I4UFRWZRY
360,3.0,left,left,1.0,3.441,0.0,0.0,0.0,0.0,1.0,2874299429-139695.jpg,2446760917-347439.jpg,AFT9JOHMU11KY
361,2.0,left,left,1.0,2.119,0.0,1.0,1.0,1.0,1.0,2446758985-197609.jpg,2864909447-362144.jpg,AFT9JOHMU11KY
362,2.0,right,left,0.0,1.84,0.0,2.0,2.0,2.0,1.0,2901934408-69289.jpg,2898634397-367080.jpg,AFT9JOHMU11KY
363,2.0,right,right,1.0,2.127,0.0,3.0,3.0,3.0,1.0,2964210336-293945.jpg,2883256307-365057.jpg,AFT9JOHMU11KY
364,2.0,right,right,1.0,1.737,0.0,4.0,4.0,4.0,1.0,2575118671-277663.jpg,2898633421-291973.jpg,AFT9JOHMU11KY
365,3.0,right,right,1.0,1.954,0.0,5.0,5.0,5.0,1.0,2901941438-69835.jpg,2460547508-51571.jpg,AFT9JOHMU11KY
366,2.0,left,left,1.0,1.652,0.0,6.0,6.0,6.0,1.0,2883268471-290842.jpg,2883255450-215310.jpg,AFT9JOHMU11KY
367,1.0,left,left,1.0,2.558,0.0,7.0,7.0,7.0,1.0,2901948350-218459.jpg,2804906319-133082.jpg,AFT9JOHMU11KY
368,2.0,left,left,1.0,3.364,0.0,8.0,8.0,8.0,1.0,2460547467-349421.jpg,2452380166-273110.jpg,AFT9JOHMU11KY
369,1.0,right,right,1.0,4.233,0.0,9.0,9.0,9.0,1.0,2460547467-349423.jpg,2901939379-143479.jpg,AFT9JOHMU11KY
370,1.0,left,left,1.0,2.254,0.0,10.0,10.0,10.0,1.0,2898617468-68274.jpg,2864906345-212360.jpg,AFT9JOHMU11KY
371,2.0,left,left,1.0,2.164,0.0,11.0,11.0,11.0,1.0,2883268412-365898.jpg,2984615361-295510.jpg,AFT9JOHMU11KY
372,2.0,left,right,0.0,2.093,0.0,12.0,12.0,12.0,1.0,2898618444-142233.jpg,2238555262-330312.jpg,AFT9JOHMU11KY
373,1.0,left,left,1.0,1.849,0.0,13.0,13.0,13.0,1.0,2874303365-214262.jpg,2609793677-355397.jpg,AFT9JOHMU11KY
374,2.0,left,right,0.0,2.633,0.0,14.0,14.0,14.0,1.0,2874307433-66280.jpg,2981246400-220365.jpg,AFT9JOHMU11KY
375,1.0,left,left,1.0,2.664,0.0,15.0,15.0,15.0,1.0,2592379964-131054.jpg,2575963989-130576.jpg,AFT9JOHMU11KY
376,3.0,left,left,1.0,3.45,0.0,16.0,16.0,16.0,1.0,2238580740-186218.jpg,2964220333-71258.jpg,AFT9JOHMU11KY
377,1.0,left,left,1.0,2.752,0.0,17.0,17.0,17.0,1.0,2449442529-124446.jpg,2446759803-49251.jpg,AFT9JOHMU11KY
378,1.0,right,right,1.0,2.607,0.0,18.0,18.0,18.0,1.0,2860312398-62572.jpg,2901947423-70311.jpg,AFT9JOHMU11KY
379,3.0,left,left,1.0,1.688,0.0,19.0,19.0,19.0,1.0,2238428357-313623.jpg,2575121987-353817.jpg,AFT9JOHMU11KY
380,3.0,left,right,0.0,1.705,0.0,20.0,20.0,20.0,1.0,2898635428-69104.jpg,2898625336-291572.jpg,AFT9JOHMU11KY
381,2.0,right,left,0.0,2.109,0.0,21.0,21.0,21.0,1.0,2898618440-216547.jpg,2446759803-49249.jpg,AFT9JOHMU11KY
382,3.0,right,right,1.0,1.479,0.0,22.0,22.0,22.0,1.0,2427873763-47290.jpg,2981231403-71642.jpg,AFT9JOHMU11KY
383,3.0,left,left,1.0,1.863,0.0,23.0,23.0,23.0,1.0,2901941401-292798.jpg,2883273443-68193.jpg,AFT9JOHMU11KY
384,3.0,left,right,0.0,1.476,0.0,24.0,24.0,24.0,1.0,2964218374-144967.jpg,2981231446-294732.jpg,AFT9JOHMU11KY
385,1.0,left,right,0.0,1.573,0.0,25.0,25.0,25.0,1.0,2592380177-354629.jpg,2898633421-291974.jpg,AFT9JOHMU11KY
386,1.0,right,left,0.0,2.105,0.0,26.0,26.0,26.0,1.0,2856919327-359676.jpg,2981241414-145842.jpg,AFT9JOHMU11KY
387,1.0,left,right,0.0,2.582,0.0,27.0,27.0,27.0,1.0,2446759347-347016.jpg,2964224310-219528.jpg,AFT9JOHMU11KY
388,3.0,left,left,1.0,1.735,0.0,28.0,28.0,28.0,1.0,2901939379-143480.jpg,2901938432-367629.jpg,AFT9JOHMU11KY
389,2.0,right,right,1.0,2.668,0.0,29.0,29.0,29.0,1.0,2238573546-258454.jpg,2238480677-317399.jpg,AFT9JOHMU11KY
390,3.0,left,left,1.0,1.478,0.0,30.0,30.0,30.0,1.0,2238572663-35822.jpg,2864903351-286874.jpg,AFT9JOHMU11KY
391,1.0,left,right,0.0,2.155,0.0,31.0,31.0,31.0,1.0,2868475410-213219.jpg,2901946465-218350.jpg,AFT9JOHMU11KY
392,3.0,left,left,1.0,1.434,0.0,32.0,32.0,32.0,1.0,2986451363-73599.jpg,2238434559-90406.jpg,AFT9JOHMU11KY
393,1.0,left,right,0.0,2.11,0.0,33.0,33.0,33.0,1.0,2868474407-362883.jpg,2238516618-25604.jpg,AFT9JOHMU11KY
394,2.0,left,right,0.0,2.193,0.0,34.0,34.0,34.0,1.0,2864907432-362042.jpg,2901947423-70310.jpg,AFT9JOHMU11KY
395,2.0,left,left,1.0,1.76,0.0,35.0,35.0,35.0,1.0,2238425482-313537.jpg,2238436322-314047.jpg,AFT9JOHMU11KY
396,2.0,left,right,0.0,2.052,0.0,36.0,36.0,36.0,1.0,2898618390-216538.jpg,2901939327-367670.jpg,AFT9JOHMU11KY
397,3.0,left,right,0.0,1.57,0.0,37.0,37.0,37.0,1.0,2575120738-55529.jpg,2238531493-28260.jpg,AFT9JOHMU11KY
398,3.0,left,left,1.0,1.73,0.0,38.0,38.0,38.0,1.0,2901952513-70703.jpg,2238481198-19821.jpg,AFT9JOHMU11KY
399,3.0,left,left,1.0,1.838,0.0,39.0,39.0,39.0,1.0,2874302418-65979.jpg,2238578544-111698.jpg,AFT9JOHMU11KY
400,2.0,right,left,0.0,2.266,0.0,40.0,40.0,40.0,1.0,2874299429-139694.jpg,2864910426-287204.jpg,AFT9JOHMU11KY
401,1.0,right,left,0.0,1.719,0.0,41.0,41.0,41.0,1.0,2238544191-252422.jpg,2964216465-219242.jpg,AFT9JOHMU11KY
402,1.0,left,right,0.0,1.759,0.0,42.0,42.0,42.0,1.0,2512875899-126682.jpg,2460547536-274179.jpg,AFT9JOHMU11KY
403,3.0,right,right,1.0,1.813,0.0,43.0,43.0,43.0,1.0,2449442181-272436.jpg,2452380832-348593.jpg,AFT9JOHMU11KY
404,1.0,right,right,1.0,1.91,0.0,44.0,44.0,44.0,1.0,2549106624-127823.jpg,2238560245-182099.jpg,AFT9JOHMU11KY
405,3.0,left,left,1.0,1.136,0.0,45.0,45.0,45.0,1.0,2883254439-140941.jpg,2981231446-294730.jpg,AFT9JOHMU11KY
406,3.0,left,right,0.0,1.639,0.0,46.0,46.0,46.0,1.0,2458347385-199723.jpg,2458347252-348911.jpg,AFT9JOHMU11KY
407,2.0,right,left,0.0,2.073,0.0,47.0,47.0,47.0,1.0,2986397322-371109.jpg,2874301407-363895.jpg,AFT9JOHMU11KY
408,3.0,left,right,0.0,1.647,0.0,48.0,48.0,48.0,1.0,2460547467-349422.jpg,2864909447-362146.jpg,AFT9JOHMU11KY
409,3.0,right,right,1.0,1.662,0.0,49.0,49.0,49.0,1.0,2898632385-217137.jpg,2449442529-124445.jpg,AFT9JOHMU11KY
410,1.0,left,left,1.0,1.913,0.0,50.0,50.0,50.0,1.0,2898624426-291546.jpg,2964218432-369263.jpg,AFT9JOHMU11KY
411,1.0,left,right,0.0,1.673,0.0,51.0,51.0,51.0,1.0,2964213381-294060.jpg,2981244394-145974.jpg,AFT9JOHMU11KY
412,3.0,right,right,1.0,2.371,0.0,52.0,52.0,52.0,1.0,2898633321-291943.jpg,2874302418-65978.jpg,AFT9JOHMU11KY
413,1.0,right,left,0.0,1.491,0.0,53.0,53.0,53.0,1.0,2901946439-144040.jpg,2898635427-367120.jpg,AFT9JOHMU11KY
414,2.0,left,right,0.0,1.304,0.0,54.0,54.0,54.0,1.0,2592380177-354626.jpg,2864901386-286797.jpg,AFT9JOHMU11KY
415,1.0,right,right,1.0,1.654,0.0,55.0,55.0,55.0,1.0,2901938432-367627.jpg,2452381505-199546.jpg,AFT9JOHMU11KY
416,2.0,left,right,0.0,1.979,0.0,56.0,56.0,56.0,1.0,2238481928-19949.jpg,2864900357-361688.jpg,AFT9JOHMU11KY
417,1.0,right,left,0.0,1.722,0.0,57.0,57.0,57.0,1.0,2883268412-365899.jpg,2449441881-272368.jpg,AFT9JOHMU11KY
418,2.0,right,right,1.0,1.544,0.0,58.0,58.0,58.0,1.0,2901946436-293242.jpg,2238481198-19822.jpg,AFT9JOHMU11KY
419,2.0,right,left,0.0,1.802,0.0,59.0,59.0,59.0,1.0,2901941438-69836.jpg,2964223381-294447.jpg,AFT9JOHMU11KY
420,1.0,right,right,1.0,1.664,0.0,0.0,0.0,0.0,1.0,2446760844-124088.jpg,2883254439-140941.jpg,A2OK9GZQ92MVUA
421,3.0,left,left,1.0,1.386,0.0,1.0,1.0,1.0,1.0,2238580740-186218.jpg,2964220333-71258.jpg,A2OK9GZQ92MVUA
422,2.0,left,left,1.0,2.031,0.0,2.0,2.0,2.0,1.0,2449442529-124445.jpg,2986408373-73286.jpg,A2OK9GZQ92MVUA
423,2.0,right,right,1.0,2.559,0.0,3.0,3.0,3.0,1.0,2238481813-19930.jpg,2452380832-348593.jpg,A2OK9GZQ92MVUA
424,2.0,right,right,1.0,2.79,0.0,4.0,4.0,4.0,1.0,2592380177-354628.jpg,2512875899-126682.jpg,A2OK9GZQ92MVUA
425,1.0,right,right,1.0,2.429,0.0,5.0,5.0,5.0,1.0,2964224310-219528.jpg,2446759347-347016.jpg,A2OK9GZQ92MVUA
426,1.0,right,left,0.0,4.068,0.0,6.0,6.0,6.0,1.0,2460547291-274110.jpg,2460547508-51571.jpg,A2OK9GZQ92MVUA
427,2.0,left,right,0.0,2.728,0.0,7.0,7.0,7.0,1.0,2981241414-145842.jpg,2874301404-139813.jpg,A2OK9GZQ92MVUA
428,2.0,right,left,0.0,1.213,0.0,8.0,8.0,8.0,1.0,2874314526-289684.jpg,2238560245-182099.jpg,A2OK9GZQ92MVUA
429,1.0,left,left,1.0,1.842,0.0,9.0,9.0,9.0,1.0,2898617468-68274.jpg,2864906345-212360.jpg,A2OK9GZQ92MVUA
430,3.0,left,right,0.0,2.038,0.0,10.0,10.0,10.0,1.0,2874307433-66280.jpg,2981231422-369714.jpg,A2OK9GZQ92MVUA
431,3.0,right,left,0.0,2.028,0.0,11.0,11.0,11.0,1.0,2981235446-294901.jpg,2460547467-349421.jpg,A2OK9GZQ92MVUA
432,3.0,right,right,1.0,1.441,0.0,12.0,12.0,12.0,1.0,2238480803-19737.jpg,2238481198-19822.jpg,A2OK9GZQ92MVUA
433,3.0,left,left,1.0,1.32,0.0,13.0,13.0,13.0,1.0,2238480677-317399.jpg,2238480278-19661.jpg,A2OK9GZQ92MVUA
434,2.0,right,right,1.0,2.025,0.0,14.0,14.0,14.0,1.0,2901947423-70310.jpg,2864907432-362042.jpg,A2OK9GZQ92MVUA
435,3.0,right,right,1.0,3.028,0.0,15.0,15.0,15.0,1.0,2238117096-228518.jpg,2592380177-354626.jpg,A2OK9GZQ92MVUA
436,3.0,left,left,1.0,2.163,0.0,16.0,16.0,16.0,1.0,2898635427-367120.jpg,2898621427-366486.jpg,A2OK9GZQ92MVUA
437,2.0,left,left,1.0,1.878,0.0,17.0,17.0,17.0,1.0,2238425482-313537.jpg,2238436322-314047.jpg,A2OK9GZQ92MVUA
438,2.0,right,right,1.0,3.253,0.0,18.0,18.0,18.0,1.0,2575120738-55528.jpg,2575120738-55529.jpg,A2OK9GZQ92MVUA
439,3.0,left,right,0.0,2.302,0.0,19.0,19.0,19.0,1.0,2898633421-291973.jpg,2238550049-105691.jpg,A2OK9GZQ92MVUA
440,1.0,left,left,1.0,1.357,0.0,20.0,20.0,20.0,1.0,2883256307-365057.jpg,2611628310-206388.jpg,A2OK9GZQ92MVUA
441,2.0,right,left,0.0,1.134,0.0,21.0,21.0,21.0,1.0,2238563377-332054.jpg,2874303365-214262.jpg,A2OK9GZQ92MVUA
442,2.0,left,right,0.0,1.715,0.0,22.0,22.0,22.0,1.0,2981231403-71642.jpg,2981244403-72215.jpg,A2OK9GZQ92MVUA
443,2.0,right,left,0.0,3.546,0.0,23.0,23.0,23.0,1.0,2874299429-139694.jpg,2864910426-287204.jpg,A2OK9GZQ92MVUA
444,3.0,left,left,1.0,1.264,0.0,24.0,24.0,24.0,1.0,2898618444-142233.jpg,2898618444-142232.jpg,A2OK9GZQ92MVUA
445,3.0,right,right,1.0,1.795,0.0,25.0,25.0,25.0,1.0,2898625336-291572.jpg,2898635428-69104.jpg,A2OK9GZQ92MVUA
446,3.0,left,left,1.0,3.907,0.0,26.0,26.0,26.0,1.0,2898618390-216538.jpg,2575120609-129862.jpg,A2OK9GZQ92MVUA
447,2.0,left,left,1.0,0.02,0.0,27.0,27.0,27.0,1.0,2446759803-49249.jpg,2898618440-216547.jpg,A2OK9GZQ92MVUA
448,1.0,right,left,0.0,3.207,0.0,28.0,28.0,28.0,1.0,2883264368-67631.jpg,2874301407-363895.jpg,A2OK9GZQ92MVUA
449,1.0,left,left,1.0,3.206,0.0,29.0,29.0,29.0,1.0,2901939379-143480.jpg,2901942428-69919.jpg,A2OK9GZQ92MVUA
450,3.0,left,left,1.0,1.243,0.0,30.0,30.0,30.0,1.0,2458347385-199723.jpg,2458347252-348911.jpg,A2OK9GZQ92MVUA
451,1.0,left,right,0.0,2.012,0.0,31.0,31.0,31.0,1.0,2238481928-19949.jpg,2883264367-365620.jpg,A2OK9GZQ92MVUA
452,3.0,left,left,1.0,1.183,0.0,32.0,32.0,32.0,1.0,2964218374-144967.jpg,2981231446-294732.jpg,A2OK9GZQ92MVUA
453,1.0,right,right,1.0,3.062,0.0,33.0,33.0,33.0,1.0,2238544191-252422.jpg,2964216465-219242.jpg,A2OK9GZQ92MVUA
454,3.0,right,left,0.0,2.662,0.0,34.0,34.0,34.0,1.0,2898632385-217139.jpg,2449442529-124446.jpg,A2OK9GZQ92MVUA
455,1.0,left,left,1.0,1.5,0.0,35.0,35.0,35.0,1.0,2898624426-291546.jpg,2964218432-369263.jpg,A2OK9GZQ92MVUA
456,2.0,right,left,0.0,1.722,0.0,36.0,36.0,36.0,1.0,2238571930-184143.jpg,2238572663-35822.jpg,A2OK9GZQ92MVUA
457,1.0,left,left,1.0,1.309,0.0,37.0,37.0,37.0,1.0,2986451363-73599.jpg,2901939327-367669.jpg,A2OK9GZQ92MVUA
458,3.0,left,left,1.0,1.348,0.0,38.0,38.0,38.0,1.0,2901952513-70703.jpg,2238481198-19821.jpg,A2OK9GZQ92MVUA
459,2.0,right,right,1.0,1.246,0.0,39.0,39.0,39.0,1.0,2238480803-19739.jpg,2868475410-213219.jpg,A2OK9GZQ92MVUA
460,1.0,right,left,0.0,1.593,0.0,40.0,40.0,40.0,1.0,2883268471-290843.jpg,2883268471-290842.jpg,A2OK9GZQ92MVUA
461,2.0,right,right,1.0,1.784,0.0,41.0,41.0,41.0,1.0,2864909447-362144.jpg,2446758985-197609.jpg,A2OK9GZQ92MVUA
462,3.0,right,left,0.0,2.098,0.0,42.0,42.0,42.0,1.0,2898628438-68785.jpg,2964223381-294447.jpg,A2OK9GZQ92MVUA
463,1.0,right,left,0.0,3.829,0.0,43.0,43.0,43.0,1.0,2238516618-25604.jpg,2868474407-362883.jpg,A2OK9GZQ92MVUA
464,1.0,right,right,1.0,1.808,0.0,44.0,44.0,44.0,1.0,2237944827-301472.jpg,2898634397-367080.jpg,A2OK9GZQ92MVUA
465,1.0,left,left,1.0,1.269,0.0,45.0,45.0,45.0,1.0,2874302418-65978.jpg,2898626385-216899.jpg,A2OK9GZQ92MVUA
466,1.0,right,left,0.0,1.802,0.0,46.0,46.0,46.0,1.0,2575963989-130576.jpg,2592379964-131054.jpg,A2OK9GZQ92MVUA
467,3.0,right,right,1.0,2.181,0.0,47.0,47.0,47.0,1.0,2238436252-314037.jpg,2883268412-365898.jpg,A2OK9GZQ92MVUA
468,3.0,right,left,0.0,1.043,0.0,48.0,48.0,48.0,1.0,2994401319-148290.jpg,2452381505-199546.jpg,A2OK9GZQ92MVUA
469,3.0,right,left,0.0,1.828,0.0,49.0,49.0,49.0,1.0,2575121987-353817.jpg,2238428357-313623.jpg,A2OK9GZQ92MVUA
470,2.0,left,left,1.0,1.012,0.0,50.0,50.0,50.0,1.0,2874302418-65979.jpg,2238480648-19714.jpg,A2OK9GZQ92MVUA
471,1.0,right,left,0.0,2.419,0.0,51.0,51.0,51.0,1.0,2883268412-365899.jpg,2449441881-272368.jpg,A2OK9GZQ92MVUA
472,2.0,right,left,0.0,2.666,0.0,52.0,52.0,52.0,1.0,2417208001-267065.jpg,2901948350-218459.jpg,A2OK9GZQ92MVUA
473,2.0,right,left,0.0,1.105,0.0,53.0,53.0,53.0,1.0,2981243412-370222.jpg,2901941401-292798.jpg,A2OK9GZQ92MVUA
474,2.0,right,left,0.0,2.075,0.0,54.0,54.0,54.0,1.0,2579432534-130704.jpg,2592380177-354629.jpg,A2OK9GZQ92MVUA
475,3.0,right,left,0.0,1.924,0.0,55.0,55.0,55.0,1.0,2964213381-294061.jpg,2964213381-294060.jpg,A2OK9GZQ92MVUA
476,1.0,left,right,0.0,1.072,0.0,56.0,56.0,56.0,1.0,2901939379-143479.jpg,2460547467-349423.jpg,A2OK9GZQ92MVUA
477,2.0,right,left,0.0,2.077,0.0,57.0,57.0,57.0,1.0,2868487415-213924.jpg,2460547467-349422.jpg,A2OK9GZQ92MVUA
478,1.0,right,right,1.0,3.152,0.0,58.0,58.0,58.0,1.0,2883266388-67750.jpg,2874299429-139695.jpg,A2OK9GZQ92MVUA
479,1.0,right,left,0.0,1.097,0.0,59.0,59.0,59.0,1.0,2860312398-62572.jpg,2901947423-70311.jpg,A2OK9GZQ92MVUA
480,3.0,left,left,1.0,1.52,0.0,0.0,0.0,0.0,1.0,2512875899-126682.jpg,2986447332-371497.jpg,A2MGHT7XQIE473
481,2.0,right,left,0.0,1.716,0.0,1.0,1.0,1.0,1.0,2981243412-370222.jpg,2901941401-292798.jpg,A2MGHT7XQIE473
482,3.0,left,right,0.0,1.468,0.0,2.0,2.0,2.0,1.0,2868474407-362883.jpg,2901948383-70363.jpg,A2MGHT7XQIE473
483,2.0,left,left,1.0,1.947,0.0,3.0,3.0,3.0,1.0,2898633421-291973.jpg,2575118671-277663.jpg,A2MGHT7XQIE473
484,1.0,right,left,0.0,1.832,0.0,4.0,4.0,4.0,1.0,2274829821-263682.jpg,2981231403-71642.jpg,A2MGHT7XQIE473
485,1.0,right,left,0.0,2.019,0.0,5.0,5.0,5.0,1.0,2901946439-144040.jpg,2898635427-367120.jpg,A2MGHT7XQIE473
486,2.0,right,right,1.0,1.629,0.0,6.0,6.0,6.0,1.0,2984615358-72439.jpg,2449441881-272368.jpg,A2MGHT7XQIE473
487,3.0,left,right,0.0,1.489,0.0,7.0,7.0,7.0,1.0,2883268471-290842.jpg,2901947448-70314.jpg,A2MGHT7XQIE473
488,3.0,left,right,0.0,1.622,0.0,8.0,8.0,8.0,1.0,2592379964-131054.jpg,2592380272-354673.jpg,A2MGHT7XQIE473
489,3.0,left,right,0.0,1.756,0.0,9.0,9.0,9.0,1.0,2874302418-65978.jpg,2898633321-291943.jpg,A2MGHT7XQIE473
490,1.0,left,right,0.0,2.441,0.0,10.0,10.0,10.0,1.0,2446759803-49249.jpg,2446760601-272099.jpg,A2MGHT7XQIE473
491,1.0,right,left,0.0,1.748,0.0,11.0,11.0,11.0,1.0,2238481630-168218.jpg,2238480677-317399.jpg,A2MGHT7XQIE473
492,3.0,right,left,0.0,1.668,0.0,12.0,12.0,12.0,1.0,2981241419-145844.jpg,2238481928-19949.jpg,A2MGHT7XQIE473
493,2.0,left,right,0.0,1.444,0.0,13.0,13.0,13.0,1.0,2575120738-55529.jpg,2575120738-55528.jpg,A2MGHT7XQIE473
494,1.0,left,right,0.0,2.227,0.0,14.0,14.0,14.0,1.0,2446759347-347016.jpg,2964224310-219528.jpg,A2MGHT7XQIE473
495,1.0,left,right,0.0,1.478,0.0,15.0,15.0,15.0,1.0,2458347385-199723.jpg,2238480434-93829.jpg,A2MGHT7XQIE473
496,1.0,right,left,0.0,1.475,0.0,16.0,16.0,16.0,1.0,2981244394-145974.jpg,2964213381-294060.jpg,A2MGHT7XQIE473
497,1.0,right,left,0.0,1.444,0.0,17.0,17.0,17.0,1.0,2452380171-273112.jpg,2449442529-124445.jpg,A2MGHT7XQIE473
498,2.0,right,left,0.0,1.252,0.0,18.0,18.0,18.0,1.0,2901947423-70310.jpg,2864907432-362042.jpg,A2MGHT7XQIE473
499,3.0,right,right,1.0,1.077,0.0,19.0,19.0,19.0,1.0,2238577590-185467.jpg,2901947423-70311.jpg,A2MGHT7XQIE473
500,3.0,left,right,0.0,1.753,0.0,20.0,20.0,20.0,1.0,2460547467-349422.jpg,2864909447-362146.jpg,A2MGHT7XQIE473
501,1.0,right,right,1.0,1.687,0.0,21.0,21.0,21.0,1.0,2986408339-146952.jpg,2592380177-354626.jpg,A2MGHT7XQIE473
502,1.0,right,left,0.0,1.184,0.0,22.0,22.0,22.0,1.0,2864906345-212360.jpg,2898617468-68274.jpg,A2MGHT7XQIE473
503,2.0,left,left,1.0,1.347,0.0,23.0,23.0,23.0,1.0,2874299429-139695.jpg,2901942443-69923.jpg,A2MGHT7XQIE473
504,3.0,right,right,1.0,1.086,0.0,24.0,24.0,24.0,1.0,2864904453-63933.jpg,2883256307-365057.jpg,A2MGHT7XQIE473
505,2.0,left,left,1.0,1.746,0.0,25.0,25.0,25.0,1.0,2238580740-186218.jpg,2238521193-26285.jpg,A2MGHT7XQIE473
506,2.0,right,left,0.0,1.953,0.0,26.0,26.0,26.0,1.0,2238480648-19714.jpg,2874302418-65979.jpg,A2MGHT7XQIE473
507,1.0,left,left,1.0,1.24,0.0,27.0,27.0,27.0,1.0,2901939379-143479.jpg,2460547467-349423.jpg,A2MGHT7XQIE473
508,1.0,right,right,1.0,1.512,0.0,28.0,28.0,28.0,1.0,2883264368-67631.jpg,2874301407-363895.jpg,A2MGHT7XQIE473
509,3.0,right,left,0.0,1.555,0.0,29.0,29.0,29.0,1.0,2964217461-294238.jpg,2898634397-367080.jpg,A2MGHT7XQIE473
510,3.0,right,right,1.0,1.73,0.0,30.0,30.0,30.0,1.0,2449442181-272436.jpg,2452380832-348593.jpg,A2MGHT7XQIE473
511,2.0,left,left,1.0,1.916,0.0,31.0,31.0,31.0,1.0,2964216465-219242.jpg,2864900319-137787.jpg,A2MGHT7XQIE473
512,3.0,right,right,1.0,0.96,0.0,32.0,32.0,32.0,1.0,2901938432-367629.jpg,2901939379-143480.jpg,A2MGHT7XQIE473
513,2.0,right,right,1.0,1.746,0.0,33.0,33.0,33.0,1.0,2874299429-139694.jpg,2864910426-287204.jpg,A2MGHT7XQIE473
514,3.0,left,left,1.0,1.508,0.0,34.0,34.0,34.0,1.0,2898635428-69104.jpg,2898625336-291572.jpg,A2MGHT7XQIE473
515,3.0,left,right,0.0,1.087,0.0,35.0,35.0,35.0,1.0,2964223381-294447.jpg,2898628438-68785.jpg,A2MGHT7XQIE473
516,3.0,left,left,1.0,1.25,0.0,36.0,36.0,36.0,1.0,2868475410-213219.jpg,2868474407-362885.jpg,A2MGHT7XQIE473
517,1.0,right,left,0.0,1.606,0.0,37.0,37.0,37.0,1.0,2549106624-127823.jpg,2238560245-182099.jpg,A2MGHT7XQIE473
518,1.0,left,right,0.0,1.354,0.0,38.0,38.0,38.0,1.0,2452381505-199546.jpg,2901938432-367627.jpg,A2MGHT7XQIE473
519,1.0,left,right,0.0,1.184,0.0,39.0,39.0,39.0,1.0,2238428357-313623.jpg,2238499057-320266.jpg,A2MGHT7XQIE473
520,3.0,right,right,1.0,1.339,0.0,40.0,40.0,40.0,1.0,2238436252-314037.jpg,2883268412-365898.jpg,A2MGHT7XQIE473
521,3.0,left,left,1.0,1.085,0.0,41.0,41.0,41.0,1.0,2901952513-70703.jpg,2238481198-19821.jpg,A2MGHT7XQIE473
522,2.0,right,left,0.0,2.136,0.0,42.0,42.0,42.0,1.0,2238436322-314047.jpg,2238425482-313537.jpg,A2MGHT7XQIE473
523,2.0,left,right,0.0,1.198,0.0,43.0,43.0,43.0,1.0,2874303365-214262.jpg,2238563377-332054.jpg,A2MGHT7XQIE473
524,2.0,left,right,0.0,1.99,0.0,44.0,44.0,44.0,1.0,2446758985-197609.jpg,2864909447-362144.jpg,A2MGHT7XQIE473
525,1.0,right,right,1.0,1.781,0.0,45.0,45.0,45.0,1.0,2986419333-73361.jpg,2238572663-35822.jpg,A2MGHT7XQIE473
526,2.0,left,right,0.0,1.206,0.0,46.0,46.0,46.0,1.0,2460547467-349421.jpg,2452380166-273110.jpg,A2MGHT7XQIE473
527,1.0,right,right,1.0,1.22,0.0,47.0,47.0,47.0,1.0,2901939327-367669.jpg,2986451363-73599.jpg,A2MGHT7XQIE473
528,1.0,left,right,0.0,1.297,0.0,48.0,48.0,48.0,1.0,2874307433-66280.jpg,2986447306-296584.jpg,A2MGHT7XQIE473
529,1.0,right,right,1.0,1.486,0.0,49.0,49.0,49.0,1.0,2446759803-49251.jpg,2449442529-124446.jpg,A2MGHT7XQIE473
530,3.0,left,left,1.0,1.202,0.0,50.0,50.0,50.0,1.0,2964218374-144967.jpg,2981231446-294732.jpg,A2MGHT7XQIE473
531,2.0,left,left,1.0,1.416,0.0,51.0,51.0,51.0,1.0,2901948350-218459.jpg,2417208001-267065.jpg,A2MGHT7XQIE473
532,1.0,right,right,1.0,1.091,0.0,52.0,52.0,52.0,1.0,2862691449-137104.jpg,2238481198-19822.jpg,A2MGHT7XQIE473
533,3.0,right,left,0.0,1.007,0.0,53.0,53.0,53.0,1.0,2427873848-47312.jpg,2981241414-145842.jpg,A2MGHT7XQIE473
534,2.0,right,right,1.0,0.916,0.0,54.0,54.0,54.0,1.0,2898632385-217136.jpg,2883254439-140941.jpg,A2MGHT7XQIE473
535,3.0,right,right,1.0,1.223,0.0,55.0,55.0,55.0,1.0,2512875587-350044.jpg,2592380177-354629.jpg,A2MGHT7XQIE473
536,2.0,left,left,1.0,1.498,0.0,56.0,56.0,56.0,1.0,2898618390-216538.jpg,2901939327-367670.jpg,A2MGHT7XQIE473
537,2.0,left,left,1.0,2.271,0.0,57.0,57.0,57.0,1.0,2898618444-142233.jpg,2238555262-330312.jpg,A2MGHT7XQIE473
538,2.0,left,right,0.0,1.39,0.0,58.0,58.0,58.0,1.0,2460547508-51571.jpg,2981232437-369759.jpg,A2MGHT7XQIE473
539,2.0,right,right,1.0,1.069,0.0,59.0,59.0,59.0,1.0,2981236443-71859.jpg,2898624426-291546.jpg,A2MGHT7XQIE473
540,2.0,right,left,0.0,1.7715,0.0,0.0,0.0,0.0,1.0,2238555262-330312.jpg,2898618444-142233.jpg,A17QEFBJIP3K04
541,3.0,right,right,1.0,0.0074,0.0,1.0,1.0,1.0,1.0,2238531493-28260.jpg,2575120738-55529.jpg,A17QEFBJIP3K04
542,2.0,left,left,1.0,0.007400001,0.0,2.0,2.0,2.0,1.0,2874307433-66280.jpg,2981246400-220365.jpg,A17QEFBJIP3K04
543,3.0,left,right,0.0,0.9899,0.0,3.0,3.0,3.0,1.0,2238428357-313623.jpg,2575121987-353817.jpg,A17QEFBJIP3K04
544,3.0,left,left,1.0,0.107299999,0.0,4.0,4.0,4.0,1.0,2898618390-216538.jpg,2575120609-129862.jpg,A17QEFBJIP3K04
545,1.0,right,right,1.0,0.1017,0.0,5.0,5.0,5.0,1.0,2446759803-49251.jpg,2449442529-124446.jpg,A17QEFBJIP3K04
546,1.0,left,left,1.0,0.0073,0.0,6.0,6.0,6.0,1.0,2868475410-213219.jpg,2901946465-218350.jpg,A17QEFBJIP3K04
547,3.0,left,right,0.0,0.1033,0.0,7.0,7.0,7.0,1.0,2898624426-291546.jpg,2981235446-294900.jpg,A17QEFBJIP3K04
548,2.0,left,left,1.0,0.0077,0.0,8.0,8.0,8.0,1.0,2898617468-68274.jpg,2901943387-368037.jpg,A17QEFBJIP3K04
549,3.0,right,right,1.0,0.007200001,0.0,9.0,9.0,9.0,1.0,2458347252-348911.jpg,2458347385-199723.jpg,A17QEFBJIP3K04
550,1.0,left,left,1.0,0.0082,0.0,10.0,10.0,10.0,1.0,2981231403-71642.jpg,2274829821-263682.jpg,A17QEFBJIP3K04
551,2.0,left,right,0.0,0.105,0.0,11.0,11.0,11.0,1.0,2964213381-294060.jpg,2458348012-349114.jpg,A17QEFBJIP3K04
552,1.0,right,left,0.0,0.1038,0.0,12.0,12.0,12.0,1.0,2238481630-168218.jpg,2238480677-317399.jpg,A17QEFBJIP3K04
553,1.0,left,right,0.0,0.0073,0.0,13.0,13.0,13.0,1.0,2981241414-145842.jpg,2856919327-359676.jpg,A17QEFBJIP3K04
554,3.0,right,left,0.0,0.1067,0.0,14.0,14.0,14.0,1.0,2989726338-74002.jpg,2864907432-362042.jpg,A17QEFBJIP3K04
555,3.0,left,right,0.0,0.1061,0.0,15.0,15.0,15.0,1.0,2883254439-140941.jpg,2981231446-294730.jpg,A17QEFBJIP3K04
556,2.0,left,left,1.0,0.0072,0.0,16.0,16.0,16.0,1.0,2901948350-218459.jpg,2417208001-267065.jpg,A17QEFBJIP3K04
557,1.0,right,right,1.0,0.007599999,0.0,17.0,17.0,17.0,1.0,2512876023-52283.jpg,2898633421-291973.jpg,A17QEFBJIP3K04
558,2.0,left,left,1.0,0.0076,0.0,18.0,18.0,18.0,1.0,2901947423-70311.jpg,2238573447-333826.jpg,A17QEFBJIP3K04
559,3.0,right,left,0.0,0.2005,0.0,19.0,19.0,19.0,1.0,2981241419-145844.jpg,2238481928-19949.jpg,A17QEFBJIP3K04
560,2.0,left,right,0.0,0.0076,0.0,20.0,20.0,20.0,1.0,2883268471-290842.jpg,2883255450-215310.jpg,A17QEFBJIP3K04
561,3.0,right,right,1.0,0.1095,0.0,21.0,21.0,21.0,1.0,2898633321-291943.jpg,2874302418-65978.jpg,A17QEFBJIP3K04
562,1.0,right,right,1.0,0.1085,0.0,22.0,22.0,22.0,1.0,2452380171-273112.jpg,2449442529-124445.jpg,A17QEFBJIP3K04
563,2.0,right,left,0.0,0.3105,0.0,23.0,23.0,23.0,1.0,2864909447-362144.jpg,2446758985-197609.jpg,A17QEFBJIP3K04
564,1.0,right,right,1.0,0.1061,0.0,24.0,24.0,24.0,1.0,2460547467-349423.jpg,2901939379-143479.jpg,A17QEFBJIP3K04
565,3.0,right,left,0.0,0.0087,0.0,25.0,25.0,25.0,1.0,2449441881-272367.jpg,2449441881-272368.jpg,A17QEFBJIP3K04
566,2.0,left,left,1.0,0.6011,0.0,26.0,26.0,26.0,1.0,2238560245-182099.jpg,2874314526-289684.jpg,A17QEFBJIP3K04
567,3.0,right,right,1.0,0.0075,0.0,27.0,27.0,27.0,1.0,2864903351-286874.jpg,2238572663-35822.jpg,A17QEFBJIP3K04
568,2.0,right,left,0.0,0.1081,0.0,28.0,28.0,28.0,1.0,2901941438-69836.jpg,2964223381-294447.jpg,A17QEFBJIP3K04
569,2.0,left,right,0.0,0.0075,0.0,29.0,29.0,29.0,1.0,2452381505-199546.jpg,2238567168-34916.jpg,A17QEFBJIP3K04
570,3.0,left,right,0.0,0.4012,0.0,30.0,30.0,30.0,1.0,2874302418-65979.jpg,2238578544-111698.jpg,A17QEFBJIP3K04
571,2.0,right,left,0.0,0.0075,0.0,31.0,31.0,31.0,1.0,2981229442-369621.jpg,2901939379-143480.jpg,A17QEFBJIP3K04
572,2.0,right,right,1.0,0.1065,0.0,32.0,32.0,32.0,1.0,2901943411-292945.jpg,2898635428-69104.jpg,A17QEFBJIP3K04
573,1.0,right,left,0.0,0.0087,0.0,33.0,33.0,33.0,1.0,2446760601-272099.jpg,2446759803-49249.jpg,A17QEFBJIP3K04
574,3.0,left,right,0.0,0.110400001,0.0,34.0,34.0,34.0,1.0,2460547467-349421.jpg,2981235446-294901.jpg,A17QEFBJIP3K04
575,3.0,right,right,1.0,0.1047,0.0,35.0,35.0,35.0,1.0,2898633480-217190.jpg,2238425482-313537.jpg,A17QEFBJIP3K04
576,3.0,right,right,1.0,0.103299999,0.0,36.0,36.0,36.0,1.0,2238480803-19737.jpg,2238481198-19822.jpg,A17QEFBJIP3K04
577,2.0,right,left,0.0,0.0078,0.0,37.0,37.0,37.0,1.0,2238479053-19457.jpg,2592379964-131054.jpg,A17QEFBJIP3K04
578,1.0,left,left,1.0,0.1021,0.0,38.0,38.0,38.0,1.0,2512875899-126682.jpg,2460547536-274179.jpg,A17QEFBJIP3K04
579,1.0,left,left,1.0,0.1079,0.0,39.0,39.0,39.0,1.0,2898635427-367120.jpg,2901946439-144040.jpg,A17QEFBJIP3K04
580,3.0,left,left,1.0,0.2046,0.0,40.0,40.0,40.0,1.0,2460547467-349422.jpg,2864909447-362146.jpg,A17QEFBJIP3K04
581,2.0,left,right,0.0,0.1092,0.0,41.0,41.0,41.0,1.0,2874301407-363895.jpg,2986397322-371109.jpg,A17QEFBJIP3K04
582,1.0,right,left,0.0,0.0072,0.0,42.0,42.0,42.0,1.0,2898633421-291974.jpg,2592380177-354629.jpg,A17QEFBJIP3K04
583,1.0,right,right,1.0,0.104200001,0.0,43.0,43.0,43.0,1.0,2984626312-370849.jpg,2883268412-365898.jpg,A17QEFBJIP3K04
584,2.0,right,left,0.0,0.0075,0.0,44.0,44.0,44.0,1.0,2901942443-69923.jpg,2874299429-139695.jpg,A17QEFBJIP3K04
585,1.0,right,right,1.0,0.0073,0.0,45.0,45.0,45.0,1.0,2237944827-301472.jpg,2898634397-367080.jpg,A17QEFBJIP3K04
586,1.0,left,left,1.0,0.1035,0.0,46.0,46.0,46.0,1.0,2874303365-214262.jpg,2609793677-355397.jpg,A17QEFBJIP3K04
587,3.0,left,right,0.0,0.1029,0.0,47.0,47.0,47.0,1.0,2901952513-70703.jpg,2238481198-19821.jpg,A17QEFBJIP3K04
588,3.0,right,left,0.0,0.107900001,0.0,48.0,48.0,48.0,1.0,2238434559-90406.jpg,2986451363-73599.jpg,A17QEFBJIP3K04
589,3.0,right,right,1.0,0.007200001,0.0,49.0,49.0,49.0,1.0,2883273443-68193.jpg,2901941401-292798.jpg,A17QEFBJIP3K04
590,1.0,right,left,0.0,0.0077,0.0,50.0,50.0,50.0,1.0,2238328478-11678.jpg,2452380832-348593.jpg,A17QEFBJIP3K04
591,1.0,left,right,0.0,0.0073,0.0,51.0,51.0,51.0,1.0,2238580740-186218.jpg,2238550816-254000.jpg,A17QEFBJIP3K04
592,3.0,left,left,1.0,0.0075,0.0,52.0,52.0,52.0,1.0,2883256307-365057.jpg,2864904453-63933.jpg,A17QEFBJIP3K04
593,2.0,left,right,0.0,0.0075,0.0,53.0,53.0,53.0,1.0,2964218374-144967.jpg,2883254439-140940.jpg,A17QEFBJIP3K04
594,1.0,left,right,0.0,0.106799999,0.0,54.0,54.0,54.0,1.0,2868474407-362883.jpg,2238516618-25604.jpg,A17QEFBJIP3K04
595,2.0,left,left,1.0,0.1088,0.0,55.0,55.0,55.0,1.0,2446759347-347016.jpg,2901951350-218702.jpg,A17QEFBJIP3K04
596,2.0,right,right,1.0,0.102099999,0.0,56.0,56.0,56.0,1.0,2864901386-286797.jpg,2592380177-354626.jpg,A17QEFBJIP3K04
597,2.0,left,left,1.0,0.105299999,0.0,57.0,57.0,57.0,1.0,2864910426-287204.jpg,2874299429-139694.jpg,A17QEFBJIP3K04
598,1.0,left,right,0.0,0.007400001,0.0,58.0,58.0,58.0,1.0,2964216465-219242.jpg,2238544191-252422.jpg,A17QEFBJIP3K04
599,1.0,left,left,1.0,2.304,0.0,0.0,0.0,0.0,1.0,2460547508-51571.jpg,2460547291-274110.jpg,A1N37RFT8OXBNN
600,3.0,left,left,1.0,2.403,0.0,1.0,1.0,1.0,1.0,2238481198-19822.jpg,2238480803-19737.jpg,A1N37RFT8OXBNN
601,2.0,right,right,1.0,3.743,0.0,2.0,2.0,2.0,1.0,2238567168-34916.jpg,2452381505-199546.jpg,A1N37RFT8OXBNN
602,1.0,right,right,1.0,2.139,0.0,3.0,3.0,3.0,1.0,2609793677-355397.jpg,2874303365-214262.jpg,A1N37RFT8OXBNN
603,1.0,left,left,1.0,3.097,0.0,4.0,4.0,4.0,1.0,2964223381-294447.jpg,2427874231-269884.jpg,A1N37RFT8OXBNN
604,1.0,left,left,1.0,2.702,0.0,5.0,5.0,5.0,1.0,2964218374-144967.jpg,2964218374-144968.jpg,A1N37RFT8OXBNN
605,1.0,left,left,1.0,4.013,0.0,6.0,6.0,6.0,1.0,2901939379-143479.jpg,2460547467-349423.jpg,A1N37RFT8OXBNN
606,1.0,left,left,1.0,2.202,0.0,7.0,7.0,7.0,1.0,2898617468-68274.jpg,2864906345-212360.jpg,A1N37RFT8OXBNN
607,3.0,left,left,1.0,3.538,0.0,8.0,8.0,8.0,1.0,2898618444-142233.jpg,2898618444-142232.jpg,A1N37RFT8OXBNN
608,2.0,right,right,1.0,3.648,0.0,9.0,9.0,9.0,1.0,2898632385-217136.jpg,2883254439-140941.jpg,A1N37RFT8OXBNN
609,3.0,right,right,1.0,4.318,0.0,10.0,10.0,10.0,1.0,2883273443-68193.jpg,2901941401-292798.jpg,A1N37RFT8OXBNN
610,3.0,right,right,1.0,3.178,0.0,11.0,11.0,11.0,1.0,2238531493-28260.jpg,2575120738-55529.jpg,A1N37RFT8OXBNN
611,1.0,left,left,1.0,3.355,0.0,12.0,12.0,12.0,1.0,2901947423-70311.jpg,2860312398-62572.jpg,A1N37RFT8OXBNN
612,3.0,left,right,0.0,4.107,0.0,13.0,13.0,13.0,1.0,2883256307-365057.jpg,2864904453-63933.jpg,A1N37RFT8OXBNN
613,2.0,left,left,1.0,5.95,0.0,14.0,14.0,14.0,1.0,2592380177-354626.jpg,2864901386-286797.jpg,A1N37RFT8OXBNN
614,2.0,right,right,1.0,3.253,0.0,15.0,15.0,15.0,1.0,2579432534-130704.jpg,2592380177-354629.jpg,A1N37RFT8OXBNN
615,3.0,left,left,1.0,5.818,0.0,16.0,16.0,16.0,1.0,2868474407-362883.jpg,2901948383-70363.jpg,A1N37RFT8OXBNN
616,2.0,right,right,1.0,4.373,0.0,17.0,17.0,17.0,1.0,2860302315-210704.jpg,2986451363-73599.jpg,A1N37RFT8OXBNN
617,2.0,left,left,1.0,5.928,0.0,18.0,18.0,18.0,1.0,2874302418-65979.jpg,2238480648-19714.jpg,A1N37RFT8OXBNN
618,3.0,right,right,1.0,1.856,0.0,19.0,19.0,19.0,1.0,2901947448-70314.jpg,2883268471-290842.jpg,A1N37RFT8OXBNN
619,1.0,left,right,0.0,2.749,0.0,20.0,20.0,20.0,1.0,2964213381-294060.jpg,2981244394-145974.jpg,A1N37RFT8OXBNN
620,3.0,right,right,1.0,3.33,0.0,21.0,21.0,21.0,1.0,2981241419-145844.jpg,2238481928-19949.jpg,A1N37RFT8OXBNN
621,1.0,right,right,1.0,4.33,0.0,22.0,22.0,22.0,1.0,2901942428-69919.jpg,2901939379-143480.jpg,A1N37RFT8OXBNN
622,2.0,right,right,1.0,3.144,0.0,23.0,23.0,23.0,1.0,2901943411-292945.jpg,2898635428-69104.jpg,A1N37RFT8OXBNN
623,2.0,right,left,0.0,2.431,0.0,24.0,24.0,24.0,1.0,2417208001-267065.jpg,2901948350-218459.jpg,A1N37RFT8OXBNN
624,2.0,left,left,1.0,2.487,0.0,25.0,25.0,25.0,1.0,2446758985-197609.jpg,2864909447-362144.jpg,A1N37RFT8OXBNN
625,3.0,right,right,1.0,2.081,0.0,26.0,26.0,26.0,1.0,2427873848-47312.jpg,2981241414-145842.jpg,A1N37RFT8OXBNN
626,2.0,left,right,0.0,2.793,0.0,27.0,27.0,27.0,1.0,2874301407-363895.jpg,2986397322-371109.jpg,A1N37RFT8OXBNN
627,3.0,right,right,1.0,1.772,0.0,28.0,28.0,28.0,1.0,2238569117-333045.jpg,2446759347-347016.jpg,A1N37RFT8OXBNN
628,1.0,left,left,1.0,2.23,0.0,29.0,29.0,29.0,1.0,2238425482-313537.jpg,2238471391-240918.jpg,A1N37RFT8OXBNN
629,1.0,left,left,1.0,2.122,0.0,30.0,30.0,30.0,1.0,2460547467-349421.jpg,2898631394-142727.jpg,A1N37RFT8OXBNN
630,3.0,right,right,1.0,1.936,0.0,31.0,31.0,31.0,1.0,2449442181-272436.jpg,2452380832-348593.jpg,A1N37RFT8OXBNN
631,3.0,right,left,0.0,9.172,0.0,32.0,32.0,32.0,1.0,2898632385-217139.jpg,2449442529-124446.jpg,A1N37RFT8OXBNN
632,1.0,left,left,1.0,4.903,0.0,33.0,33.0,33.0,1.0,2449441881-272368.jpg,2883268412-365899.jpg,A1N37RFT8OXBNN
633,3.0,left,left,1.0,2.873,0.0,34.0,34.0,34.0,1.0,2868475410-213219.jpg,2868474407-362885.jpg,A1N37RFT8OXBNN
634,1.0,left,left,1.0,2.871,0.0,35.0,35.0,35.0,1.0,2874302418-65978.jpg,2898626385-216899.jpg,A1N37RFT8OXBNN
635,3.0,left,left,1.0,3.287,0.0,36.0,36.0,36.0,1.0,2238480677-317399.jpg,2238480278-19661.jpg,A1N37RFT8OXBNN
636,1.0,right,right,1.0,2.32,0.0,37.0,37.0,37.0,1.0,2452380171-273112.jpg,2449442529-124445.jpg,A1N37RFT8OXBNN
637,2.0,left,right,0.0,3.499,0.0,38.0,38.0,38.0,1.0,2458347385-199723.jpg,2427874554-121863.jpg,A1N37RFT8OXBNN
638,1.0,right,right,1.0,3.942,0.0,39.0,39.0,39.0,1.0,2986447306-296584.jpg,2874307433-66280.jpg,A1N37RFT8OXBNN
639,2.0,right,right,1.0,2.664,0.0,40.0,40.0,40.0,1.0,2238521193-26285.jpg,2238580740-186218.jpg,A1N37RFT8OXBNN
640,2.0,right,right,1.0,3.318,0.0,41.0,41.0,41.0,1.0,2984615361-295510.jpg,2883268412-365898.jpg,A1N37RFT8OXBNN
641,1.0,left,left,1.0,2.857,0.0,42.0,42.0,42.0,1.0,2898618390-216538.jpg,2986449336-296644.jpg,A1N37RFT8OXBNN
642,2.0,right,right,1.0,13.695,0.0,43.0,43.0,43.0,1.0,2868479517-363220.jpg,2898635427-367120.jpg,A1N37RFT8OXBNN
643,3.0,left,right,0.0,25.44,0.0,44.0,44.0,44.0,1.0,2898634397-367080.jpg,2964217461-294238.jpg,A1N37RFT8OXBNN
644,2.0,right,right,1.0,2.661,0.0,45.0,45.0,45.0,1.0,2901942443-69923.jpg,2874299429-139695.jpg,A1N37RFT8OXBNN
645,2.0,left,right,0.0,3.146,0.0,46.0,46.0,46.0,1.0,2864910426-287204.jpg,2874299429-139694.jpg,A1N37RFT8OXBNN
646,1.0,left,left,1.0,2.747,0.0,47.0,47.0,47.0,1.0,2981231403-71642.jpg,2274829821-263682.jpg,A1N37RFT8OXBNN
647,3.0,left,right,0.0,3.189,0.0,48.0,48.0,48.0,1.0,2964216465-219242.jpg,2898619327-366362.jpg,A1N37RFT8OXBNN
648,1.0,left,left,1.0,2.077,0.0,49.0,49.0,49.0,1.0,2592379964-131054.jpg,2575963989-130576.jpg,A1N37RFT8OXBNN
649,1.0,left,left,1.0,3.869,0.0,50.0,50.0,50.0,1.0,2898624426-291546.jpg,2964218432-369263.jpg,A1N37RFT8OXBNN
650,1.0,left,left,1.0,2.788,0.0,51.0,51.0,51.0,1.0,2238560245-182099.jpg,2549106624-127823.jpg,A1N37RFT8OXBNN
651,2.0,right,right,1.0,4.538,0.0,52.0,52.0,52.0,1.0,2238571930-184143.jpg,2238572663-35822.jpg,A1N37RFT8OXBNN
652,3.0,right,right,1.0,2.973,0.0,53.0,53.0,53.0,1.0,2864909447-362146.jpg,2460547467-349422.jpg,A1N37RFT8OXBNN
653,3.0,right,right,1.0,5.779,0.0,54.0,54.0,54.0,1.0,2452380166-273109.jpg,2446759803-49249.jpg,A1N37RFT8OXBNN
654,2.0,left,right,0.0,2.386,0.0,55.0,55.0,55.0,1.0,2864907432-362042.jpg,2901947423-70310.jpg,A1N37RFT8OXBNN
655,3.0,right,right,1.0,2.191,0.0,56.0,56.0,56.0,1.0,2575121987-353817.jpg,2238428357-313623.jpg,A1N37RFT8OXBNN
656,3.0,left,left,1.0,3.077,0.0,57.0,57.0,57.0,1.0,2901952513-70703.jpg,2238481198-19821.jpg,A1N37RFT8OXBNN
657,2.0,left,left,1.0,2.08,0.0,58.0,58.0,58.0,1.0,2512875899-126682.jpg,2592380177-354628.jpg,A1N37RFT8OXBNN
658,2.0,left,left,1.0,2.387,0.0,59.0,59.0,59.0,1.0,2898633421-291973.jpg,2575118671-277663.jpg,A1N37RFT8OXBNN
659,3.0,left,left,1.0,9.4967,0.0,0.0,0.0,0.0,1.0,2874302418-65979.jpg,2238578544-111698.jpg,A24AWGSJ6PNF6K
660,2.0,left,right,0.0,6.1835,0.0,1.0,1.0,1.0,1.0,2898618390-216538.jpg,2901939327-367670.jpg,A24AWGSJ6PNF6K
661,2.0,right,left,0.0,4.8813,0.0,2.0,2.0,2.0,1.0,2860302315-210704.jpg,2986451363-73599.jpg,A24AWGSJ6PNF6K
662,2.0,right,right,1.0,4.5795,0.0,3.0,3.0,3.0,1.0,2460547536-274181.jpg,2449442529-124446.jpg,A24AWGSJ6PNF6K
663,3.0,right,right,1.0,7.4451,0.0,4.0,4.0,4.0,1.0,2981231422-369714.jpg,2874307433-66280.jpg,A24AWGSJ6PNF6K
664,1.0,right,right,1.0,7.1183,0.0,5.0,5.0,5.0,1.0,2512876023-52283.jpg,2898633421-291973.jpg,A24AWGSJ6PNF6K
665,2.0,left,left,1.0,4.8641,0.0,6.0,6.0,6.0,1.0,2238560245-182099.jpg,2874314526-289684.jpg,A24AWGSJ6PNF6K
666,3.0,left,left,1.0,6.4219,0.0,7.0,7.0,7.0,1.0,2460547467-349422.jpg,2864909447-362146.jpg,A24AWGSJ6PNF6K
667,1.0,left,left,1.0,8.6569,0.0,8.0,8.0,8.0,1.0,2874299429-139695.jpg,2883266388-67750.jpg,A24AWGSJ6PNF6K
668,1.0,left,right,0.0,6.5072,0.0,9.0,9.0,9.0,1.0,2901952513-70703.jpg,2864907361-287062.jpg,A24AWGSJ6PNF6K
669,2.0,left,left,1.0,7.5279,0.0,10.0,10.0,10.0,1.0,2592379964-131054.jpg,2238479053-19457.jpg,A24AWGSJ6PNF6K
670,1.0,right,left,0.0,4.5292,0.0,11.0,11.0,11.0,1.0,2986408339-146952.jpg,2592380177-354626.jpg,A24AWGSJ6PNF6K
671,3.0,left,left,1.0,4.8648,0.0,12.0,12.0,12.0,1.0,2238481198-19822.jpg,2238480803-19737.jpg,A24AWGSJ6PNF6K
672,3.0,left,left,1.0,6.5159,0.0,13.0,13.0,13.0,1.0,2575120738-55529.jpg,2238531493-28260.jpg,A24AWGSJ6PNF6K
673,2.0,right,right,1.0,5.7177,0.0,14.0,14.0,14.0,1.0,2901943411-292945.jpg,2898635428-69104.jpg,A24AWGSJ6PNF6K
674,2.0,right,right,1.0,7.7547,0.0,15.0,15.0,15.0,1.0,2427874554-121863.jpg,2458347385-199723.jpg,A24AWGSJ6PNF6K
675,3.0,left,right,0.0,6.1257,0.0,16.0,16.0,16.0,1.0,2874302418-65978.jpg,2898633321-291943.jpg,A24AWGSJ6PNF6K
676,3.0,left,right,0.0,11.2823,0.0,17.0,17.0,17.0,1.0,2238480677-317399.jpg,2238480278-19661.jpg,A24AWGSJ6PNF6K
677,2.0,right,right,1.0,5.521,0.0,18.0,18.0,18.0,1.0,2901941438-69836.jpg,2964223381-294447.jpg,A24AWGSJ6PNF6K
678,1.0,left,left,1.0,2.2697,0.0,19.0,19.0,19.0,1.0,2981241414-145842.jpg,2856919327-359676.jpg,A24AWGSJ6PNF6K
679,2.0,right,right,1.0,12.2519,0.0,20.0,20.0,20.0,1.0,2984615361-295509.jpg,2238428357-313623.jpg,A24AWGSJ6PNF6K
680,2.0,right,left,0.0,11.3542,0.0,21.0,21.0,21.0,1.0,2981244403-72215.jpg,2981231403-71642.jpg,A24AWGSJ6PNF6K
681,3.0,right,right,1.0,5.235,0.0,22.0,22.0,22.0,1.0,2512875587-350044.jpg,2592380177-354629.jpg,A24AWGSJ6PNF6K
682,3.0,right,right,1.0,4.2696,0.0,23.0,23.0,23.0,1.0,2981235446-294900.jpg,2898624426-291546.jpg,A24AWGSJ6PNF6K
683,1.0,right,right,1.0,3.5703,0.0,24.0,24.0,24.0,1.0,2452380171-273112.jpg,2449442529-124445.jpg,A24AWGSJ6PNF6K
684,1.0,right,left,0.0,6.1774,0.0,25.0,25.0,25.0,1.0,2883268412-365899.jpg,2449441881-272368.jpg,A24AWGSJ6PNF6K
685,3.0,left,left,1.0,5.8032,0.0,26.0,26.0,26.0,1.0,2901948350-218459.jpg,2981246360-220352.jpg,A24AWGSJ6PNF6K
686,3.0,left,left,1.0,5.2074,0.0,27.0,27.0,27.0,1.0,2964218374-144967.jpg,2981231446-294732.jpg,A24AWGSJ6PNF6K
687,2.0,right,right,1.0,6.2225,0.0,28.0,28.0,28.0,1.0,2446758985-197610.jpg,2901939379-143479.jpg,A24AWGSJ6PNF6K
688,2.0,left,right,0.0,4.7947,0.0,29.0,29.0,29.0,1.0,2901941401-292798.jpg,2981243412-370222.jpg,A24AWGSJ6PNF6K
689,1.0,left,left,1.0,4.5594,0.0,30.0,30.0,30.0,1.0,2868475410-213219.jpg,2901946465-218350.jpg,A24AWGSJ6PNF6K
690,1.0,right,right,1.0,9.3588,0.0,31.0,31.0,31.0,1.0,2883264368-67631.jpg,2874301407-363895.jpg,A24AWGSJ6PNF6K
691,2.0,left,left,1.0,7.0886,0.0,32.0,32.0,32.0,1.0,2446759347-347016.jpg,2901951350-218702.jpg,A24AWGSJ6PNF6K
692,2.0,left,right,0.0,6.2878,0.0,33.0,33.0,33.0,1.0,2883256307-365057.jpg,2964210336-293945.jpg,A24AWGSJ6PNF6K
693,1.0,right,left,0.0,8.0034,0.0,34.0,34.0,34.0,1.0,2883264367-365620.jpg,2238481928-19949.jpg,A24AWGSJ6PNF6K
694,2.0,left,right,0.0,6.2331,0.0,35.0,35.0,35.0,1.0,2874303365-214262.jpg,2238563377-332054.jpg,A24AWGSJ6PNF6K
695,3.0,right,right,1.0,6.8466,0.0,36.0,36.0,36.0,1.0,2898633480-217190.jpg,2238425482-313537.jpg,A24AWGSJ6PNF6K
696,1.0,left,right,0.0,7.1917,0.0,37.0,37.0,37.0,1.0,2883254439-140941.jpg,2446760844-124088.jpg,A24AWGSJ6PNF6K
697,1.0,right,right,1.0,3.9241,0.0,38.0,38.0,38.0,1.0,2238516618-25604.jpg,2868474407-362883.jpg,A24AWGSJ6PNF6K
698,2.0,right,left,0.0,3.8052,0.0,39.0,39.0,39.0,1.0,2864900319-137787.jpg,2964216465-219242.jpg,A24AWGSJ6PNF6K
699,1.0,right,right,1.0,10.0659,0.0,40.0,40.0,40.0,1.0,2984626312-370849.jpg,2883268412-365898.jpg,A24AWGSJ6PNF6K
700,1.0,left,right,0.0,2.8284,0.0,41.0,41.0,41.0,1.0,2452381505-199546.jpg,2901938432-367627.jpg,A24AWGSJ6PNF6K
701,3.0,left,left,1.0,4.3196,0.0,42.0,42.0,42.0,1.0,2446758985-197609.jpg,2898624426-291544.jpg,A24AWGSJ6PNF6K
702,2.0,right,left,0.0,5.4157,0.0,43.0,43.0,43.0,1.0,2883255450-215310.jpg,2883268471-290842.jpg,A24AWGSJ6PNF6K
703,3.0,right,right,1.0,4.3105,0.0,44.0,44.0,44.0,1.0,2964220333-71258.jpg,2238580740-186218.jpg,A24AWGSJ6PNF6K
704,2.0,left,right,0.0,2.7994,0.0,45.0,45.0,45.0,1.0,2898618444-142233.jpg,2238555262-330312.jpg,A24AWGSJ6PNF6K
705,1.0,left,left,1.0,4.0471,0.0,46.0,46.0,46.0,1.0,2898617468-68274.jpg,2864906345-212360.jpg,A24AWGSJ6PNF6K
706,3.0,right,right,1.0,4.2741,0.0,47.0,47.0,47.0,1.0,2981235446-294901.jpg,2460547467-349421.jpg,A24AWGSJ6PNF6K
707,3.0,left,left,1.0,3.5887,0.0,48.0,48.0,48.0,1.0,2512875899-126682.jpg,2986447332-371497.jpg,A24AWGSJ6PNF6K
708,3.0,left,right,0.0,5.8422,0.0,49.0,49.0,49.0,1.0,2238572663-35822.jpg,2864903351-286874.jpg,A24AWGSJ6PNF6K
709,1.0,left,left,1.0,4.2202,0.0,50.0,50.0,50.0,1.0,2898634397-367080.jpg,2237944827-301472.jpg,A24AWGSJ6PNF6K
710,1.0,left,right,0.0,5.5168,0.0,51.0,51.0,51.0,1.0,2898635427-367120.jpg,2901946439-144040.jpg,A24AWGSJ6PNF6K
711,3.0,right,right,1.0,4.3215,0.0,52.0,52.0,52.0,1.0,2452380166-273109.jpg,2446759803-49249.jpg,A24AWGSJ6PNF6K
712,3.0,left,left,1.0,5.237,0.0,53.0,53.0,53.0,1.0,2901939379-143480.jpg,2901938432-367629.jpg,A24AWGSJ6PNF6K
713,3.0,right,left,0.0,7.3981,0.0,54.0,54.0,54.0,1.0,2901939433-69672.jpg,2864910426-287204.jpg,A24AWGSJ6PNF6K
714,1.0,left,left,1.0,5.7849,0.0,55.0,55.0,55.0,1.0,2460547508-51571.jpg,2460547291-274110.jpg,A24AWGSJ6PNF6K
715,1.0,right,left,0.0,4.5842,0.0,56.0,56.0,56.0,1.0,2981244394-145974.jpg,2964213381-294060.jpg,A24AWGSJ6PNF6K
716,1.0,left,left,1.0,5.2342,0.0,57.0,57.0,57.0,1.0,2864907432-362042.jpg,2864901420-212147.jpg,A24AWGSJ6PNF6K
717,2.0,left,left,1.0,6.6191,0.0,58.0,58.0,58.0,1.0,2901947423-70311.jpg,2238573447-333826.jpg,A24AWGSJ6PNF6K
718,2.0,right,right,1.0,4.5244,0.0,59.0,59.0,59.0,1.0,2238481813-19930.jpg,2452380832-348593.jpg,A24AWGSJ6PNF6K
719,1.0,left,right,0.0,1.7068,0.0,0.0,0.0,0.0,1.0,2238480677-317399.jpg,2238481630-168218.jpg,A1HUQ7QA5QWM5Q
720,3.0,left,right,0.0,0.13,0.0,1.0,1.0,1.0,1.0,2458347385-199723.jpg,2458347252-348911.jpg,A1HUQ7QA5QWM5Q
721,3.0,right,right,1.0,0.1295,0.0,2.0,2.0,2.0,1.0,2238480803-19737.jpg,2238481198-19822.jpg,A1HUQ7QA5QWM5Q
722,3.0,right,right,1.0,0.0092,0.0,3.0,3.0,3.0,1.0,2238117096-228518.jpg,2592380177-354626.jpg,A1HUQ7QA5QWM5Q
723,2.0,left,right,0.0,0.1284,0.0,4.0,4.0,4.0,1.0,2901952513-70703.jpg,2868469411-287540.jpg,A1HUQ7QA5QWM5Q
724,2.0,left,right,0.0,0.1297,0.0,5.0,5.0,5.0,1.0,2901947423-70311.jpg,2238573447-333826.jpg,A1HUQ7QA5QWM5Q
725,1.0,left,right,0.0,0.1269,0.0,6.0,6.0,6.0,1.0,2238428357-313623.jpg,2238499057-320266.jpg,A1HUQ7QA5QWM5Q
726,3.0,right,right,1.0,0.0091,0.0,7.0,7.0,7.0,1.0,2981235446-294900.jpg,2898624426-291546.jpg,A1HUQ7QA5QWM5Q
727,3.0,right,right,1.0,0.1318,0.0,8.0,8.0,8.0,1.0,2575120609-129862.jpg,2898618390-216538.jpg,A1HUQ7QA5QWM5Q
728,1.0,left,right,0.0,0.0097,0.0,9.0,9.0,9.0,1.0,2449441881-272368.jpg,2883268412-365899.jpg,A1HUQ7QA5QWM5Q
729,3.0,left,right,0.0,0.1273,0.0,10.0,10.0,10.0,1.0,2901941401-292798.jpg,2883273443-68193.jpg,A1HUQ7QA5QWM5Q
730,1.0,left,left,1.0,0.258,0.0,11.0,11.0,11.0,1.0,2449442529-124445.jpg,2452380171-273112.jpg,A1HUQ7QA5QWM5Q
731,1.0,left,left,1.0,0.1307,0.0,12.0,12.0,12.0,1.0,2898617468-68274.jpg,2864906345-212360.jpg,A1HUQ7QA5QWM5Q
732,1.0,left,left,1.0,0.0096,0.0,13.0,13.0,13.0,1.0,2446759803-49249.jpg,2446760601-272099.jpg,A1HUQ7QA5QWM5Q
733,3.0,left,left,1.0,0.1295,0.0,14.0,14.0,14.0,1.0,2460547508-51571.jpg,2901941438-69835.jpg,A1HUQ7QA5QWM5Q
734,2.0,right,right,1.0,0.1287,0.0,15.0,15.0,15.0,1.0,2901947423-70310.jpg,2864907432-362042.jpg,A1HUQ7QA5QWM5Q
735,1.0,left,right,0.0,0.1263,0.0,16.0,16.0,16.0,1.0,2460547467-349421.jpg,2898631394-142727.jpg,A1HUQ7QA5QWM5Q
736,1.0,right,left,0.0,0.0097,0.0,17.0,17.0,17.0,1.0,2427874231-269884.jpg,2964223381-294447.jpg,A1HUQ7QA5QWM5Q
737,2.0,left,right,0.0,0.0096,0.0,18.0,18.0,18.0,1.0,2238572663-35822.jpg,2238571930-184143.jpg,A1HUQ7QA5QWM5Q
738,2.0,left,left,1.0,0.0093,0.0,19.0,19.0,19.0,1.0,2981231403-71642.jpg,2981244403-72215.jpg,A1HUQ7QA5QWM5Q
739,2.0,left,left,1.0,0.133,0.0,20.0,20.0,20.0,1.0,2964213381-294060.jpg,2458348012-349114.jpg,A1HUQ7QA5QWM5Q
740,3.0,right,left,0.0,0.1298,0.0,21.0,21.0,21.0,1.0,2238578544-111698.jpg,2874302418-65979.jpg,A1HUQ7QA5QWM5Q
741,2.0,left,right,0.0,0.1341,0.0,22.0,22.0,22.0,1.0,2452380832-348593.jpg,2238481813-19930.jpg,A1HUQ7QA5QWM5Q
742,3.0,left,right,0.0,0.1384,0.0,23.0,23.0,23.0,1.0,2981241414-145842.jpg,2427873848-47312.jpg,A1HUQ7QA5QWM5Q
743,1.0,right,right,1.0,0.1325,0.0,24.0,24.0,24.0,1.0,2901942428-69919.jpg,2901939379-143480.jpg,A1HUQ7QA5QWM5Q
744,1.0,right,left,0.0,0.0092,0.0,25.0,25.0,25.0,1.0,2901946465-218350.jpg,2868475410-213219.jpg,A1HUQ7QA5QWM5Q
745,3.0,left,right,0.0,0.3796,0.0,26.0,26.0,26.0,1.0,2898633421-291973.jpg,2238550049-105691.jpg,A1HUQ7QA5QWM5Q
746,2.0,left,right,0.0,0.1366,0.0,27.0,27.0,27.0,1.0,2449442529-124446.jpg,2460547536-274181.jpg,A1HUQ7QA5QWM5Q
747,2.0,left,right,0.0,0.1267,0.0,28.0,28.0,28.0,1.0,2874301407-363895.jpg,2986397322-371109.jpg,A1HUQ7QA5QWM5Q
748,1.0,left,left,1.0,0.1257,0.0,29.0,29.0,29.0,1.0,2874299429-139695.jpg,2883266388-67750.jpg,A1HUQ7QA5QWM5Q
749,2.0,left,right,0.0,0.009,0.0,30.0,30.0,30.0,1.0,2874303365-214262.jpg,2238563377-332054.jpg,A1HUQ7QA5QWM5Q
750,1.0,left,left,1.0,0.0093,0.0,31.0,31.0,31.0,1.0,2883256307-365057.jpg,2611628310-206388.jpg,A1HUQ7QA5QWM5Q
751,2.0,left,right,0.0,0.0091,0.0,32.0,32.0,32.0,1.0,2238481928-19949.jpg,2864900357-361688.jpg,A1HUQ7QA5QWM5Q
752,1.0,left,left,1.0,0.0094,0.0,33.0,33.0,33.0,1.0,2901948350-218459.jpg,2804906319-133082.jpg,A1HUQ7QA5QWM5Q
753,2.0,left,right,0.0,0.0092,0.0,34.0,34.0,34.0,1.0,2238560245-182099.jpg,2874314526-289684.jpg,A1HUQ7QA5QWM5Q
754,3.0,right,right,1.0,0.1284,0.0,35.0,35.0,35.0,1.0,2864909447-362146.jpg,2460547467-349422.jpg,A1HUQ7QA5QWM5Q
755,3.0,right,left,0.0,0.0093,0.0,36.0,36.0,36.0,1.0,2898621427-366486.jpg,2898635427-367120.jpg,A1HUQ7QA5QWM5Q
756,2.0,right,right,1.0,0.0095,0.0,37.0,37.0,37.0,1.0,2874299429-139694.jpg,2864910426-287204.jpg,A1HUQ7QA5QWM5Q
757,3.0,right,right,1.0,0.1418,0.0,38.0,38.0,38.0,1.0,2898625336-291572.jpg,2898635428-69104.jpg,A1HUQ7QA5QWM5Q
758,1.0,left,left,1.0,0.1309,0.0,39.0,39.0,39.0,1.0,2901939379-143479.jpg,2460547467-349423.jpg,A1HUQ7QA5QWM5Q
759,3.0,left,right,0.0,0.0095,0.0,40.0,40.0,40.0,1.0,2868474407-362883.jpg,2901948383-70363.jpg,A1HUQ7QA5QWM5Q
760,2.0,left,left,1.0,0.0098,0.0,41.0,41.0,41.0,1.0,2898634397-367080.jpg,2901934408-69289.jpg,A1HUQ7QA5QWM5Q
761,3.0,right,right,1.0,0.0096,0.0,42.0,42.0,42.0,1.0,2964220333-71258.jpg,2238580740-186218.jpg,A1HUQ7QA5QWM5Q
762,2.0,left,left,1.0,0.0095,0.0,43.0,43.0,43.0,1.0,2512875899-126682.jpg,2592380177-354628.jpg,A1HUQ7QA5QWM5Q
763,3.0,right,right,1.0,0.0103,0.0,44.0,44.0,44.0,1.0,2898618444-142232.jpg,2898618444-142233.jpg,A1HUQ7QA5QWM5Q
764,2.0,right,left,0.0,0.0093,0.0,45.0,45.0,45.0,1.0,2883254439-140940.jpg,2964218374-144967.jpg,A1HUQ7QA5QWM5Q
765,2.0,right,left,0.0,0.1281,0.0,46.0,46.0,46.0,1.0,2898632385-217136.jpg,2883254439-140941.jpg,A1HUQ7QA5QWM5Q
766,3.0,right,left,0.0,0.1286,0.0,47.0,47.0,47.0,1.0,2898633480-217190.jpg,2238425482-313537.jpg,A1HUQ7QA5QWM5Q
767,1.0,right,left,0.0,0.9916,0.0,48.0,48.0,48.0,1.0,2883268471-290843.jpg,2883268471-290842.jpg,A1HUQ7QA5QWM5Q
768,1.0,left,right,0.0,0.1307,0.0,49.0,49.0,49.0,1.0,2986451363-73599.jpg,2901939327-367669.jpg,A1HUQ7QA5QWM5Q
769,1.0,left,right,0.0,0.13,0.0,50.0,50.0,50.0,1.0,2446758985-197609.jpg,2981240424-145795.jpg,A1HUQ7QA5QWM5Q
770,2.0,right,right,1.0,0.1338,0.0,51.0,51.0,51.0,1.0,2238479053-19457.jpg,2592379964-131054.jpg,A1HUQ7QA5QWM5Q
771,1.0,left,left,1.0,0.1347,0.0,52.0,52.0,52.0,1.0,2452381505-199546.jpg,2901938432-367627.jpg,A1HUQ7QA5QWM5Q
772,3.0,right,right,1.0,0.0104,0.0,53.0,53.0,53.0,1.0,2238531493-28260.jpg,2575120738-55529.jpg,A1HUQ7QA5QWM5Q
773,3.0,right,left,0.0,0.01,0.0,54.0,54.0,54.0,1.0,2898619327-366362.jpg,2964216465-219242.jpg,A1HUQ7QA5QWM5Q
774,1.0,left,right,0.0,0.0094,0.0,55.0,55.0,55.0,1.0,2874302418-65978.jpg,2898626385-216899.jpg,A1HUQ7QA5QWM5Q
775,3.0,left,left,1.0,0.0107,0.0,56.0,56.0,56.0,1.0,2446759347-347016.jpg,2238569117-333045.jpg,A1HUQ7QA5QWM5Q
776,2.0,right,right,1.0,0.0092,0.0,57.0,57.0,57.0,1.0,2984615361-295510.jpg,2883268412-365898.jpg,A1HUQ7QA5QWM5Q
777,1.0,left,right,0.0,0.2485,0.0,58.0,58.0,58.0,1.0,2874307433-66280.jpg,2986447306-296584.jpg,A1HUQ7QA5QWM5Q
778,2.0,left,right,0.0,0.1352,0.0,59.0,59.0,59.0,1.0,2592380177-354629.jpg,2579432534-130704.jpg,A1HUQ7QA5QWM5Q
779,3.0,left,left,1.0,1.4986,0.0,0.0,0.0,0.0,1.0,2874301407-363895.jpg,2901947323-70275.jpg,AB09F0Q4T10TE
780,2.0,right,left,0.0,3.0388,0.0,1.0,1.0,1.0,1.0,2901939327-367670.jpg,2898618390-216538.jpg,AB09F0Q4T10TE
781,1.0,left,right,0.0,1.9007,0.0,2.0,2.0,2.0,1.0,2238560245-182099.jpg,2549106624-127823.jpg,AB09F0Q4T10TE
782,3.0,left,left,1.0,2.2562,0.0,3.0,3.0,3.0,1.0,2964213381-294060.jpg,2964213381-294061.jpg,AB09F0Q4T10TE
783,2.0,left,left,1.0,1.4735,0.0,4.0,4.0,4.0,1.0,2883256307-365057.jpg,2964210336-293945.jpg,AB09F0Q4T10TE
784,3.0,right,left,0.0,5.1168,0.0,5.0,5.0,5.0,1.0,2901947448-70314.jpg,2883268471-290842.jpg,AB09F0Q4T10TE
785,3.0,right,right,1.0,2.6457,0.0,6.0,6.0,6.0,1.0,2238550049-105691.jpg,2898633421-291973.jpg,AB09F0Q4T10TE
786,1.0,right,right,1.0,2.9017,0.0,7.0,7.0,7.0,1.0,2446759803-49251.jpg,2449442529-124446.jpg,AB09F0Q4T10TE
787,1.0,left,right,0.0,3.0229,0.0,8.0,8.0,8.0,1.0,2512875899-126682.jpg,2460547536-274179.jpg,AB09F0Q4T10TE
788,1.0,left,right,0.0,1.9797,0.0,9.0,9.0,9.0,1.0,2238481928-19949.jpg,2883264367-365620.jpg,AB09F0Q4T10TE
789,3.0,right,right,1.0,2.4499,0.0,10.0,10.0,10.0,1.0,2449441881-272367.jpg,2449441881-272368.jpg,AB09F0Q4T10TE
790,1.0,right,left,0.0,2.7662,0.0,11.0,11.0,11.0,1.0,2901946439-144040.jpg,2898635427-367120.jpg,AB09F0Q4T10TE
791,3.0,right,right,1.0,1.8216,0.0,12.0,12.0,12.0,1.0,2452380166-273109.jpg,2446759803-49249.jpg,AB09F0Q4T10TE
792,2.0,left,right,0.0,2.1576,0.0,13.0,13.0,13.0,1.0,2901952513-70703.jpg,2868469411-287540.jpg,AB09F0Q4T10TE
793,3.0,left,right,0.0,2.9469,0.0,14.0,14.0,14.0,1.0,2874303365-214262.jpg,2864911457-362260.jpg,AB09F0Q4T10TE
794,1.0,right,right,1.0,4.3541,0.0,15.0,15.0,15.0,1.0,2901942428-69919.jpg,2901939379-143480.jpg,AB09F0Q4T10TE
795,2.0,right,left,0.0,1.8609,0.0,16.0,16.0,16.0,1.0,2238481198-19823.jpg,2874302418-65978.jpg,AB09F0Q4T10TE
796,2.0,left,left,1.0,1.3341,0.0,17.0,17.0,17.0,1.0,2964218374-144967.jpg,2883254439-140940.jpg,AB09F0Q4T10TE
797,1.0,right,right,1.0,2.1892,0.0,18.0,18.0,18.0,1.0,2964224310-219528.jpg,2446759347-347016.jpg,AB09F0Q4T10TE
798,3.0,left,left,1.0,1.9611,0.0,19.0,19.0,19.0,1.0,2864910426-287204.jpg,2901939433-69672.jpg,AB09F0Q4T10TE
799,2.0,right,right,1.0,2.7511,0.0,20.0,20.0,20.0,1.0,2864900319-137787.jpg,2964216465-219242.jpg,AB09F0Q4T10TE
800,1.0,left,left,1.0,1.3569,0.0,21.0,21.0,21.0,1.0,2592380177-354626.jpg,2986408339-146952.jpg,AB09F0Q4T10TE
801,3.0,right,left,0.0,2.3185,0.0,22.0,22.0,22.0,1.0,2446760917-347439.jpg,2874299429-139695.jpg,AB09F0Q4T10TE
802,2.0,right,right,1.0,2.3368,0.0,23.0,23.0,23.0,1.0,2874301404-139813.jpg,2981241414-145842.jpg,AB09F0Q4T10TE
803,3.0,right,right,1.0,2.0727,0.0,24.0,24.0,24.0,1.0,2898618444-142232.jpg,2898618444-142233.jpg,AB09F0Q4T10TE
804,2.0,right,right,1.0,1.0902,0.0,25.0,25.0,25.0,1.0,2901943387-368037.jpg,2898617468-68274.jpg,AB09F0Q4T10TE
805,2.0,right,right,1.0,2.7683,0.0,26.0,26.0,26.0,1.0,2981232437-369759.jpg,2460547508-51571.jpg,AB09F0Q4T10TE
806,1.0,right,right,1.0,2.6606,0.0,27.0,27.0,27.0,1.0,2446759803-49250.jpg,2898635428-69104.jpg,AB09F0Q4T10TE
807,2.0,right,left,0.0,1.8334,0.0,28.0,28.0,28.0,1.0,2901941438-69836.jpg,2964223381-294447.jpg,AB09F0Q4T10TE
808,2.0,left,left,1.0,2.2983,0.0,29.0,29.0,29.0,1.0,2898624426-291546.jpg,2981236443-71859.jpg,AB09F0Q4T10TE
809,1.0,right,left,0.0,1.3382,0.0,30.0,30.0,30.0,1.0,2901946465-218350.jpg,2868475410-213219.jpg,AB09F0Q4T10TE
810,1.0,left,left,1.0,0.7341,0.0,31.0,31.0,31.0,1.0,2460547467-349422.jpg,2898618440-216545.jpg,AB09F0Q4T10TE
811,1.0,left,left,1.0,2.8199,0.0,32.0,32.0,32.0,1.0,2592379964-131054.jpg,2575963989-130576.jpg,AB09F0Q4T10TE
812,2.0,left,left,1.0,3.5327,0.0,33.0,33.0,33.0,1.0,2452380832-348593.jpg,2238481813-19930.jpg,AB09F0Q4T10TE
813,2.0,left,left,1.0,2.754,0.0,34.0,34.0,34.0,1.0,2238480677-317399.jpg,2238573546-258454.jpg,AB09F0Q4T10TE
814,3.0,left,left,1.0,4.6332,0.0,35.0,35.0,35.0,1.0,2898634397-367080.jpg,2964217461-294238.jpg,AB09F0Q4T10TE
815,3.0,left,left,1.0,1.1092,0.0,36.0,36.0,36.0,1.0,2901939379-143479.jpg,2981240424-145794.jpg,AB09F0Q4T10TE
816,3.0,left,left,1.0,2.0327,0.0,37.0,37.0,37.0,1.0,2874302418-65979.jpg,2238578544-111698.jpg,AB09F0Q4T10TE
817,1.0,left,right,0.0,2.2432,0.0,38.0,38.0,38.0,1.0,2901941401-292798.jpg,2898618327-366317.jpg,AB09F0Q4T10TE
818,2.0,left,left,1.0,2.3878,0.0,39.0,39.0,39.0,1.0,2986451363-73599.jpg,2860302315-210704.jpg,AB09F0Q4T10TE
819,3.0,left,right,0.0,2.1007,0.0,40.0,40.0,40.0,1.0,2864907432-362042.jpg,2989726338-74002.jpg,AB09F0Q4T10TE
820,2.0,right,left,0.0,1.8354,0.0,41.0,41.0,41.0,1.0,2898632385-217136.jpg,2883254439-140941.jpg,AB09F0Q4T10TE
821,3.0,left,right,0.0,1.7483,0.0,42.0,42.0,42.0,1.0,2238572663-35822.jpg,2864903351-286874.jpg,AB09F0Q4T10TE
822,3.0,left,right,0.0,4.0329,0.0,43.0,43.0,43.0,1.0,2901948350-218459.jpg,2981246360-220352.jpg,AB09F0Q4T10TE
823,1.0,right,right,1.0,2.1325,0.0,44.0,44.0,44.0,1.0,2986447306-296584.jpg,2874307433-66280.jpg,AB09F0Q4T10TE
824,3.0,left,right,0.0,1.3318,0.0,45.0,45.0,45.0,1.0,2446758985-197609.jpg,2898624426-291544.jpg,AB09F0Q4T10TE
825,1.0,right,right,1.0,1.3646,0.0,46.0,46.0,46.0,1.0,2860312398-62572.jpg,2901947423-70311.jpg,AB09F0Q4T10TE
826,2.0,right,right,1.0,1.3775,0.0,47.0,47.0,47.0,1.0,2452380166-273110.jpg,2460547467-349421.jpg,AB09F0Q4T10TE
827,3.0,right,right,1.0,1.4155,0.0,48.0,48.0,48.0,1.0,2512875587-350044.jpg,2592380177-354629.jpg,AB09F0Q4T10TE
828,1.0,left,right,0.0,1.9637,0.0,49.0,49.0,49.0,1.0,2981231403-71642.jpg,2274829821-263682.jpg,AB09F0Q4T10TE
829,1.0,right,right,1.0,2.2655,0.0,50.0,50.0,50.0,1.0,2452380171-273112.jpg,2449442529-124445.jpg,AB09F0Q4T10TE
830,2.0,right,right,1.0,2.6435,0.0,51.0,51.0,51.0,1.0,2575120738-55528.jpg,2575120738-55529.jpg,AB09F0Q4T10TE
831,2.0,right,right,1.0,3.6843,0.0,52.0,52.0,52.0,1.0,2981246400-220363.jpg,2868474407-362883.jpg,AB09F0Q4T10TE
832,1.0,left,left,1.0,1.6338,0.0,53.0,53.0,53.0,1.0,2458347385-199723.jpg,2238480434-93829.jpg,AB09F0Q4T10TE
833,2.0,left,left,1.0,2.7945,0.0,54.0,54.0,54.0,1.0,2452381505-199546.jpg,2238567168-34916.jpg,AB09F0Q4T10TE
834,1.0,left,right,0.0,4.1215,0.0,55.0,55.0,55.0,1.0,2238428357-313623.jpg,2238499057-320266.jpg,AB09F0Q4T10TE
835,3.0,left,left,1.0,1.8276,0.0,56.0,56.0,56.0,1.0,2883268412-365898.jpg,2238436252-314037.jpg,AB09F0Q4T10TE
836,3.0,left,left,1.0,3.4324,0.0,57.0,57.0,57.0,1.0,2238425482-313537.jpg,2898633480-217190.jpg,AB09F0Q4T10TE
837,2.0,left,right,0.0,4.4426,0.0,58.0,58.0,58.0,1.0,2238580740-186218.jpg,2238521193-26285.jpg,AB09F0Q4T10TE
838,1.0,right,right,1.0,1.571,0.0,59.0,59.0,59.0,1.0,2862691449-137104.jpg,2238481198-19822.jpg,AB09F0Q4T10TE
839,3.0,right,right,1.0,4.3838,0.0,0.0,0.0,0.0,1.0,2981235446-294901.jpg,2460547467-349421.jpg,A2ASRB2MTHDHPD
840,3.0,left,right,0.0,1.9601,0.0,1.0,1.0,1.0,1.0,2964216465-219242.jpg,2898619327-366362.jpg,A2ASRB2MTHDHPD
841,2.0,left,left,1.0,1.6745,0.0,2.0,2.0,2.0,1.0,2592380177-354626.jpg,2864901386-286797.jpg,A2ASRB2MTHDHPD
842,1.0,left,left,1.0,2.2422,0.0,3.0,3.0,3.0,1.0,2901939379-143480.jpg,2901942428-69919.jpg,A2ASRB2MTHDHPD
843,2.0,right,right,1.0,1.5729,0.0,4.0,4.0,4.0,1.0,2868487415-213924.jpg,2460547467-349422.jpg,A2ASRB2MTHDHPD
844,1.0,right,right,1.0,1.6744,0.0,5.0,5.0,5.0,1.0,2238499057-320266.jpg,2238428357-313623.jpg,A2ASRB2MTHDHPD
845,3.0,right,right,1.0,2.1905,0.0,6.0,6.0,6.0,1.0,2238436252-314037.jpg,2883268412-365898.jpg,A2ASRB2MTHDHPD
846,2.0,right,left,0.0,2.056,0.0,7.0,7.0,7.0,1.0,2981246400-220363.jpg,2868474407-362883.jpg,A2ASRB2MTHDHPD
847,2.0,right,right,1.0,4.7479,0.0,8.0,8.0,8.0,1.0,2860302315-210704.jpg,2986451363-73599.jpg,A2ASRB2MTHDHPD
848,1.0,left,left,1.0,1.5616,0.0,9.0,9.0,9.0,1.0,2898624426-291546.jpg,2964218432-369263.jpg,A2ASRB2MTHDHPD
849,3.0,left,right,0.0,1.6043,0.0,10.0,10.0,10.0,1.0,2868475410-213219.jpg,2868474407-362885.jpg,A2ASRB2MTHDHPD
850,3.0,left,left,1.0,1.1524,0.0,11.0,11.0,11.0,1.0,2238480677-317399.jpg,2238480278-19661.jpg,A2ASRB2MTHDHPD
851,1.0,right,left,0.0,1.6552,0.0,12.0,12.0,12.0,1.0,2575963989-130576.jpg,2592379964-131054.jpg,A2ASRB2MTHDHPD
852,1.0,left,left,1.0,1.8713,0.0,13.0,13.0,13.0,1.0,2864907432-362042.jpg,2864901420-212147.jpg,A2ASRB2MTHDHPD
853,3.0,right,left,0.0,1.5038,0.0,14.0,14.0,14.0,1.0,2981231446-294730.jpg,2883254439-140941.jpg,A2ASRB2MTHDHPD
854,1.0,left,left,1.0,1.9726,0.0,15.0,15.0,15.0,1.0,2575120738-55529.jpg,2898632385-217138.jpg,A2ASRB2MTHDHPD
855,2.0,right,right,1.0,2.2225,0.0,16.0,16.0,16.0,1.0,2981243412-370222.jpg,2901941401-292798.jpg,A2ASRB2MTHDHPD
856,3.0,right,left,0.0,1.1362,0.0,17.0,17.0,17.0,1.0,2986447332-371497.jpg,2512875899-126682.jpg,A2ASRB2MTHDHPD
857,2.0,left,left,1.0,1.0851,0.0,18.0,18.0,18.0,1.0,2898633421-291973.jpg,2575118671-277663.jpg,A2ASRB2MTHDHPD
858,3.0,right,left,0.0,1.8218,0.0,19.0,19.0,19.0,1.0,2994401319-148290.jpg,2452381505-199546.jpg,A2ASRB2MTHDHPD
859,3.0,right,right,1.0,1.1553,0.0,20.0,20.0,20.0,1.0,2981231446-294732.jpg,2964218374-144967.jpg,A2ASRB2MTHDHPD
860,2.0,left,left,1.0,1.072,0.0,21.0,21.0,21.0,1.0,2460547508-51571.jpg,2981232437-369759.jpg,A2ASRB2MTHDHPD
861,2.0,left,right,0.0,2.6237,0.0,22.0,22.0,22.0,1.0,2592380177-354629.jpg,2579432534-130704.jpg,A2ASRB2MTHDHPD
862,2.0,left,left,1.0,1.6222,0.0,23.0,23.0,23.0,1.0,2452380832-348593.jpg,2238481813-19930.jpg,A2ASRB2MTHDHPD
863,2.0,left,right,0.0,2.2386,0.0,24.0,24.0,24.0,1.0,2446759803-49249.jpg,2898618440-216547.jpg,A2ASRB2MTHDHPD
864,1.0,right,right,1.0,2.4936,0.0,25.0,25.0,25.0,1.0,2883266388-67750.jpg,2874299429-139695.jpg,A2ASRB2MTHDHPD
865,3.0,right,right,1.0,1.9348,0.0,26.0,26.0,26.0,1.0,2964213381-294061.jpg,2964213381-294060.jpg,A2ASRB2MTHDHPD
866,1.0,right,left,0.0,2.2755,0.0,27.0,27.0,27.0,1.0,2864902304-137862.jpg,2864910426-287204.jpg,A2ASRB2MTHDHPD
867,1.0,right,right,1.0,2.2395,0.0,28.0,28.0,28.0,1.0,2427874231-269884.jpg,2964223381-294447.jpg,A2ASRB2MTHDHPD
868,3.0,right,right,1.0,2.4139,0.0,29.0,29.0,29.0,1.0,2427873763-47290.jpg,2981231403-71642.jpg,A2ASRB2MTHDHPD
869,3.0,right,left,0.0,1.2531,0.0,30.0,30.0,30.0,1.0,2898633321-291943.jpg,2874302418-65978.jpg,A2ASRB2MTHDHPD
870,3.0,left,left,1.0,1.1695,0.0,31.0,31.0,31.0,1.0,2458347385-199723.jpg,2458347252-348911.jpg,A2ASRB2MTHDHPD
871,2.0,right,left,0.0,2.4254,0.0,32.0,32.0,32.0,1.0,2874314526-289684.jpg,2238560245-182099.jpg,A2ASRB2MTHDHPD
872,2.0,right,right,1.0,1.2688,0.0,33.0,33.0,33.0,1.0,2460547536-274181.jpg,2449442529-124446.jpg,A2ASRB2MTHDHPD
873,1.0,left,right,0.0,1.6711,0.0,34.0,34.0,34.0,1.0,2874307433-66280.jpg,2986447306-296584.jpg,A2ASRB2MTHDHPD
874,1.0,left,right,0.0,1.9555,0.0,35.0,35.0,35.0,1.0,2898634397-367080.jpg,2237944827-301472.jpg,A2ASRB2MTHDHPD
875,3.0,left,right,0.0,2.2897,0.0,36.0,36.0,36.0,1.0,2898618444-142233.jpg,2898618444-142232.jpg,A2ASRB2MTHDHPD
876,2.0,right,left,0.0,1.9569,0.0,37.0,37.0,37.0,1.0,2238571930-184143.jpg,2238572663-35822.jpg,A2ASRB2MTHDHPD
877,3.0,right,left,0.0,1.3197,0.0,38.0,38.0,38.0,1.0,2898621427-366486.jpg,2898635427-367120.jpg,A2ASRB2MTHDHPD
878,1.0,left,right,0.0,1.5901,0.0,39.0,39.0,39.0,1.0,2898617468-68274.jpg,2864906345-212360.jpg,A2ASRB2MTHDHPD
879,1.0,left,right,0.0,1.3851,0.0,40.0,40.0,40.0,1.0,2238481928-19949.jpg,2883264367-365620.jpg,A2ASRB2MTHDHPD
880,2.0,right,right,1.0,1.1368,0.0,41.0,41.0,41.0,1.0,2901943411-292945.jpg,2898635428-69104.jpg,A2ASRB2MTHDHPD
881,1.0,right,left,0.0,1.5034,0.0,42.0,42.0,42.0,1.0,2611628310-206388.jpg,2883256307-365057.jpg,A2ASRB2MTHDHPD
882,2.0,left,left,1.0,2.2723,0.0,43.0,43.0,43.0,1.0,2449442529-124445.jpg,2986408373-73286.jpg,A2ASRB2MTHDHPD
883,3.0,left,right,0.0,1.4875,0.0,44.0,44.0,44.0,1.0,2901952513-70703.jpg,2238481198-19821.jpg,A2ASRB2MTHDHPD
884,3.0,left,left,1.0,1.2864,0.0,45.0,45.0,45.0,1.0,2449441881-272368.jpg,2449441881-272367.jpg,A2ASRB2MTHDHPD
885,3.0,right,left,0.0,1.0687,0.0,46.0,46.0,46.0,1.0,2864911457-362260.jpg,2874303365-214262.jpg,A2ASRB2MTHDHPD
886,3.0,left,right,0.0,1.2029,0.0,47.0,47.0,47.0,1.0,2901948350-218459.jpg,2981246360-220352.jpg,A2ASRB2MTHDHPD
887,2.0,left,right,0.0,2.3068,0.0,48.0,48.0,48.0,1.0,2898618390-216538.jpg,2901939327-367670.jpg,A2ASRB2MTHDHPD
888,1.0,right,right,1.0,1.5544,0.0,49.0,49.0,49.0,1.0,2413147898-43548.jpg,2874302418-65979.jpg,A2ASRB2MTHDHPD
889,1.0,right,right,1.0,13.1967,0.0,50.0,50.0,50.0,1.0,2460547467-349423.jpg,2901939379-143479.jpg,A2ASRB2MTHDHPD
890,1.0,left,right,0.0,1.7955,0.0,51.0,51.0,51.0,1.0,2446758985-197609.jpg,2981240424-145795.jpg,A2ASRB2MTHDHPD
891,2.0,left,left,1.0,1.2689,0.0,52.0,52.0,52.0,1.0,2874301407-363895.jpg,2986397322-371109.jpg,A2ASRB2MTHDHPD
892,1.0,left,right,0.0,1.6411,0.0,53.0,53.0,53.0,1.0,2238425482-313537.jpg,2238471391-240918.jpg,A2ASRB2MTHDHPD
893,1.0,left,left,1.0,3.5122,0.0,54.0,54.0,54.0,1.0,2883268471-290842.jpg,2883268471-290843.jpg,A2ASRB2MTHDHPD
894,2.0,right,right,1.0,0.8083,0.0,55.0,55.0,55.0,1.0,2901951350-218702.jpg,2446759347-347016.jpg,A2ASRB2MTHDHPD
895,3.0,right,left,0.0,1.3027,0.0,56.0,56.0,56.0,1.0,2964220333-71258.jpg,2238580740-186218.jpg,A2ASRB2MTHDHPD
896,2.0,right,left,0.0,0.6178,0.0,57.0,57.0,57.0,1.0,2238573447-333826.jpg,2901947423-70311.jpg,A2ASRB2MTHDHPD
897,1.0,left,right,0.0,0.8347,0.0,58.0,58.0,58.0,1.0,2238481198-19822.jpg,2862691449-137104.jpg,A2ASRB2MTHDHPD
898,2.0,left,right,0.0,0.9185,0.0,59.0,59.0,59.0,1.0,2981241414-145842.jpg,2874301404-139813.jpg,A2ASRB2MTHDHPD
899,1.0,right,right,1.0,2.0977,0.0,0.0,0.0,0.0,1.0,2549106624-127823.jpg,2238560245-182099.jpg,A1T3ZNKR5GG0TP
900,2.0,right,right,1.0,1.9859,0.0,1.0,1.0,1.0,1.0,2981246400-220365.jpg,2874307433-66280.jpg,A1T3ZNKR5GG0TP
901,3.0,left,right,0.0,1.8092,0.0,2.0,2.0,2.0,1.0,2449442529-124445.jpg,2898632385-217137.jpg,A1T3ZNKR5GG0TP
902,2.0,right,right,1.0,1.9498,0.0,3.0,3.0,3.0,1.0,2981229442-369621.jpg,2901939379-143480.jpg,A1T3ZNKR5GG0TP
903,1.0,left,left,1.0,1.5061,0.0,4.0,4.0,4.0,1.0,2238572663-35822.jpg,2986419333-73361.jpg,A1T3ZNKR5GG0TP
904,3.0,left,left,1.0,1.7511,0.0,5.0,5.0,5.0,1.0,2901939379-143479.jpg,2981240424-145794.jpg,A1T3ZNKR5GG0TP
905,1.0,left,right,0.0,1.3901,0.0,6.0,6.0,6.0,1.0,2868474407-362883.jpg,2238516618-25604.jpg,A1T3ZNKR5GG0TP
