Unnamed: 0,layer,correct,test_test_response.keys,test_test_response.corr,test_test_response.rt,trials_2.thisRepN,trials_2.thisTrialN,trials_2.thisN,trials_2.thisIndex,trials_2.ran,image1,image2,subject,time_gap,level_0,level_1,level_2,level_3,level_4,level_5,level_6
120,1.0,right,right,1.0,2.688,0.0,0.0,0.0,0.0,1.0,2238540598-30035.jpg,2862691449-137104.jpg,A15V2JYNSMUREO,pilot_24_hours,0.52204466,0.4159331,0.27141595,0.18060559,0.11782777,0.20327143,0.13199764
121,1.0,left,left,1.0,1.342,0.0,1.0,1.0,1.0,1.0,2446760940-198145.jpg,2449443300-198739.jpg,A15V2JYNSMUREO,pilot_24_hours,0.5343318,0.36858132,0.2612735,0.20441175,0.10212794,0.25091743,0.18629892
122,3.0,right,right,1.0,1.158,0.0,2.0,2.0,2.0,1.0,2238539138-29878.jpg,2446760524-123999.jpg,A15V2JYNSMUREO,pilot_24_hours,0.31188673,0.33697963,0.2568794,0.18181463,0.13801888,0.3870004,0.47968417
123,1.0,right,right,1.0,1.466,0.0,3.0,3.0,3.0,1.0,2898633421-291973.jpg,2446758985-197609.jpg,A15V2JYNSMUREO,pilot_24_hours,0.5579947,0.3543023,0.21951197,0.11676287,0.09287247,0.17682074,0.14729133
124,2.0,right,right,1.0,1.869,0.0,4.0,4.0,4.0,1.0,2860304305-210777.jpg,2238575092-334269.jpg,A15V2JYNSMUREO,pilot_24_hours,0.42194977,0.40210843,0.3434655,0.35853982,0.2972185,0.29614875,0.3615738
125,1.0,left,left,1.0,1.084,0.0,5.0,5.0,5.0,1.0,2898633480-217190.jpg,2446760147-347245.jpg,A15V2JYNSMUREO,pilot_24_hours,0.401844,0.31508884,0.21657626,0.15563214,0.09162798,0.24119,0.15777855
126,1.0,left,right,0.0,1.157,0.0,6.0,6.0,6.0,1.0,2512876023-52283.jpg,2864908323-64106.jpg,A15V2JYNSMUREO,pilot_24_hours,0.5590991,0.41319773,0.2669807,0.14314245,0.0872989,0.24113582,0.2205433
127,2.0,left,left,1.0,1.45,0.0,7.0,7.0,7.0,1.0,2883254439-140940.jpg,2575121890-204630.jpg,A15V2JYNSMUREO,pilot_24_hours,0.302787,0.33237693,0.2613997,0.17279522,0.09310601,0.25940925,0.12184409
128,2.0,left,right,0.0,1.285,0.0,8.0,8.0,8.0,1.0,2883255450-215311.jpg,2868485399-139476.jpg,A15V2JYNSMUREO,pilot_24_hours,0.3480901,0.37148955,0.31916454,0.29955557,0.24536566,0.3815465,0.40050507
129,3.0,right,right,1.0,1.091,0.0,9.0,9.0,9.0,1.0,2864909422-362141.jpg,2901939379-143479.jpg,A15V2JYNSMUREO,pilot_24_hours,0.30258784,0.33718032,0.25163117,0.14617628,0.16214828,0.3513442,0.47057888
130,2.0,left,left,1.0,1.159,0.0,10.0,10.0,10.0,1.0,2868475410-213219.jpg,2575964140-205051.jpg,A15V2JYNSMUREO,pilot_24_hours,0.3925159,0.35779077,0.31225294,0.3192761,0.23367733,0.27952403,0.34475544
131,2.0,left,left,1.0,1.435,0.0,11.0,11.0,11.0,1.0,2625337302-355866.jpg,2238478760-167789.jpg,A15V2JYNSMUREO,pilot_24_hours,0.35460815,0.346533,0.29101038,0.21982884,0.14153425,0.26771253,0.2289221
132,1.0,right,right,1.0,0.924,0.0,12.0,12.0,12.0,1.0,2575120738-55529.jpg,2898632385-217138.jpg,A15V2JYNSMUREO,pilot_24_hours,0.5639598,0.3402834,0.25403792,0.19583048,0.23839176,0.3934025,0.46560585
133,1.0,left,right,0.0,0.947,0.0,13.0,13.0,13.0,1.0,2238584869-113153.jpg,2864901420-212147.jpg,A15V2JYNSMUREO,pilot_24_hours,0.5442235,0.38257775,0.27661014,0.194215,0.15521435,0.29529202,0.25769275
134,3.0,left,right,0.0,1.172,0.0,14.0,14.0,14.0,1.0,2238550049-105691.jpg,2964219468-71238.jpg,A15V2JYNSMUREO,pilot_24_hours,0.3515072,0.3400462,0.23197325,0.14561646,0.14732508,0.34722954,0.37767243
135,1.0,left,left,1.0,1.22,0.0,15.0,15.0,15.0,1.0,2238516618-25604.jpg,2238573549-110485.jpg,A15V2JYNSMUREO,pilot_24_hours,0.49884462,0.4043614,0.2359574,0.12278469,0.11772836,0.13660277,0.1270015
136,3.0,left,right,0.0,0.954,0.0,16.0,16.0,16.0,1.0,2964216465-219242.jpg,2446760917-347439.jpg,A15V2JYNSMUREO,pilot_24_hours,0.2652782,0.2801582,0.22310808,0.17375293,0.20828101,0.3970382,0.45953056
137,2.0,right,left,0.0,1.182,0.0,17.0,17.0,17.0,1.0,2238470979-92615.jpg,2986400320-221190.jpg,A15V2JYNSMUREO,pilot_24_hours,0.42150924,0.35738373,0.25371566,0.14559878,0.08850242,0.17278206,0.10133039
138,2.0,right,right,1.0,1.196,0.0,18.0,18.0,18.0,1.0,2238520921-248323.jpg,2964213381-294060.jpg,A15V2JYNSMUREO,pilot_24_hours,0.31931362,0.26260912,0.19414665,0.14581928,0.081651196,0.18988629,0.15432642
139,3.0,left,left,1.0,1.714,0.0,19.0,19.0,19.0,1.0,2238129579-80916.jpg,2238161924-82646.jpg,A15V2JYNSMUREO,pilot_24_hours,0.3073202,0.33130622,0.24299899,0.17230347,0.23010255,0.3389266,0.38690913
140,1.0,left,right,0.0,1.076,0.0,20.0,20.0,20.0,1.0,2238584018-38513.jpg,2449443163-50093.jpg,A15V2JYNSMUREO,pilot_24_hours,0.5161536,0.3793073,0.26275203,0.18887994,0.10088034,0.25827536,0.21569166
141,1.0,left,left,1.0,1.646,0.0,21.0,21.0,21.0,1.0,2238480434-93829.jpg,2804906319-133082.jpg,A15V2JYNSMUREO,pilot_24_hours,0.51561254,0.38049287,0.21146114,0.09205678,0.08155852,0.178649,0.14489178
142,3.0,left,right,0.0,1.117,0.0,22.0,22.0,22.0,1.0,2238521193-26286.jpg,2446760306-272024.jpg,A15V2JYNSMUREO,pilot_24_hours,0.36645237,0.30536518,0.23714988,0.18336673,0.20081837,0.3938985,0.40598384
143,2.0,left,left,1.0,1.432,0.0,23.0,23.0,23.0,1.0,2238126735-154721.jpg,2575122854-130480.jpg,A15V2JYNSMUREO,pilot_24_hours,0.35043386,0.32226226,0.2658018,0.19446547,0.15394293,0.1964433,0.1837817
144,2.0,left,right,0.0,1.293,0.0,24.0,24.0,24.0,1.0,2238471391-240918.jpg,2901943388-69995.jpg,A15V2JYNSMUREO,pilot_24_hours,0.39837804,0.38977963,0.28017825,0.20054668,0.15112503,0.19227739,0.15728621
145,2.0,right,right,1.0,1.826,0.0,25.0,25.0,25.0,1.0,2901951459-144433.jpg,2238429999-90218.jpg,A15V2JYNSMUREO,pilot_24_hours,0.447259,0.3890973,0.2806712,0.23255062,0.16242519,0.22648184,0.17847791
146,3.0,right,right,1.0,1.309,0.0,26.0,26.0,26.0,1.0,2864911339-138231.jpg,2449442529-124446.jpg,A15V2JYNSMUREO,pilot_24_hours,0.26274702,0.30962634,0.2333699,0.1605805,0.19716239,0.3123342,0.42238653
147,3.0,left,right,0.0,3.31,0.0,27.0,27.0,27.0,1.0,2964224310-219527.jpg,2238490590-169598.jpg,A15V2JYNSMUREO,pilot_24_hours,0.36884835,0.3309385,0.24786398,0.16177255,0.1765129,0.4141495,0.4610115
148,2.0,left,left,1.0,1.052,0.0,28.0,28.0,28.0,1.0,2452380166-273109.jpg,2592379781-279345.jpg,A15V2JYNSMUREO,pilot_24_hours,0.29143566,0.31444487,0.23212524,0.17037818,0.10632919,0.15362506,0.1621678
149,1.0,right,right,1.0,1.26,0.0,29.0,29.0,29.0,1.0,2986402377-371266.jpg,2898624426-291546.jpg,A15V2JYNSMUREO,pilot_24_hours,0.43547595,0.33835298,0.21718264,0.129932,0.09877238,0.1568951,0.12488727
150,3.0,right,left,0.0,1.125,0.0,30.0,30.0,30.0,1.0,2898618440-216545.jpg,2898626385-216899.jpg,A15V2JYNSMUREO,pilot_24_hours,0.35918316,0.342735,0.25117853,0.14836462,0.15878534,0.3272129,0.40771788
151,2.0,left,left,1.0,1.032,0.0,31.0,31.0,31.0,1.0,2446759803-49249.jpg,2238468265-166556.jpg,A15V2JYNSMUREO,pilot_24_hours,0.32775447,0.33825707,0.23867166,0.18461046,0.094710626,0.14903869,0.1332509
152,3.0,left,left,1.0,1.318,0.0,32.0,32.0,32.0,1.0,2964218374-144968.jpg,2238525773-27014.jpg,A15V2JYNSMUREO,pilot_24_hours,0.31025356,0.32571408,0.22546248,0.15128145,0.15338917,0.35618955,0.45221356
153,3.0,right,right,1.0,1.342,0.0,33.0,33.0,33.0,1.0,2424122568-45517.jpg,2901938432-367627.jpg,A15V2JYNSMUREO,pilot_24_hours,0.29698327,0.31735566,0.24400364,0.1772435,0.17652404,0.39610434,0.45669812
154,1.0,right,right,1.0,1.172,0.0,34.0,34.0,34.0,1.0,2986401333-73218.jpg,2901934573-69337.jpg,A15V2JYNSMUREO,pilot_24_hours,0.38738668,0.30743137,0.20539655,0.100283735,0.08137866,0.19558698,0.13636512
155,3.0,right,right,1.0,1.081,0.0,35.0,35.0,35.0,1.0,2417207297-342139.jpg,2981231446-294731.jpg,A15V2JYNSMUREO,pilot_24_hours,0.31571046,0.3135265,0.24269943,0.16856322,0.25787663,0.4136047,0.4673031
156,1.0,right,left,0.0,1.248,0.0,36.0,36.0,36.0,1.0,2874316384-140749.jpg,2864909447-362146.jpg,A15V2JYNSMUREO,pilot_24_hours,0.4044628,0.3428597,0.2594657,0.13602942,0.06271384,0.14660306,0.072791725
157,3.0,left,right,0.0,0.978,0.0,37.0,37.0,37.0,1.0,2575964140-205050.jpg,2446760226-272005.jpg,A15V2JYNSMUREO,pilot_24_hours,0.33729175,0.33787432,0.25154126,0.18734649,0.19078736,0.33439663,0.40437984
158,3.0,right,right,1.0,0.859,0.0,38.0,38.0,38.0,1.0,2864904453-63932.jpg,2898632385-217137.jpg,A15V2JYNSMUREO,pilot_24_hours,0.27244273,0.3007648,0.21394722,0.14565074,0.19594023,0.43483174,0.4611801
159,3.0,right,right,1.0,1.086,0.0,39.0,39.0,39.0,1.0,2898617396-291219.jpg,2964209380-218956.jpg,A15V2JYNSMUREO,pilot_24_hours,0.31388637,0.33204678,0.25619873,0.18618377,0.21419857,0.3956408,0.47680306
160,3.0,left,left,1.0,1.087,0.0,40.0,40.0,40.0,1.0,2864906345-212360.jpg,2994403305-222559.jpg,A15V2JYNSMUREO,pilot_24_hours,0.3196521,0.34907302,0.24485254,0.15133701,0.12168309,0.3396057,0.37176284
161,1.0,right,right,1.0,1.004,0.0,41.0,41.0,41.0,1.0,2901934573-69336.jpg,2460547467-349421.jpg,A15V2JYNSMUREO,pilot_24_hours,0.4743195,0.32548413,0.24925873,0.14967118,0.07511208,0.19980064,0.1245887
162,2.0,left,left,1.0,0.865,0.0,42.0,42.0,42.0,1.0,2898617468-68274.jpg,2238585512-336576.jpg,A15V2JYNSMUREO,pilot_24_hours,0.26965234,0.32668218,0.22122465,0.16338322,0.09618742,0.18083853,0.14817783
163,3.0,right,right,1.0,0.951,0.0,43.0,43.0,43.0,1.0,2238562336-256366.jpg,2883255450-215309.jpg,A15V2JYNSMUREO,pilot_24_hours,0.28617913,0.31050637,0.23493215,0.16023651,0.17145784,0.39252922,0.47656265
164,3.0,left,left,1.0,1.0,0.0,44.0,44.0,44.0,1.0,2994405328-74628.jpg,2883273443-68192.jpg,A15V2JYNSMUREO,pilot_24_hours,0.34804448,0.3013018,0.20080294,0.14024596,0.1128016,0.30968478,0.36260268
165,2.0,right,left,0.0,1.272,0.0,45.0,45.0,45.0,1.0,2901936369-143233.jpg,2883272438-68133.jpg,A15V2JYNSMUREO,pilot_24_hours,0.3302181,0.32111344,0.24912237,0.18834953,0.116073586,0.2222739,0.14720194
166,1.0,right,left,0.0,1.263,0.0,46.0,46.0,46.0,1.0,2238436632-314069.jpg,2898635427-367120.jpg,A15V2JYNSMUREO,pilot_24_hours,0.49568942,0.35207435,0.23896421,0.18337227,0.162181,0.2929602,0.22639994
167,3.0,left,left,1.0,1.287,0.0,47.0,47.0,47.0,1.0,2579432576-279079.jpg,2458348144-125787.jpg,A15V2JYNSMUREO,pilot_24_hours,0.30523363,0.30783203,0.23841257,0.17293367,0.12678708,0.40917727,0.41916132
168,2.0,left,right,0.0,1.318,0.0,48.0,48.0,48.0,1.0,2592380138-56727.jpg,2430664847-345753.jpg,A15V2JYNSMUREO,pilot_24_hours,0.38168284,0.34952417,0.29910022,0.25173178,0.12648837,0.22809352,0.17082538
169,2.0,left,left,1.0,1.715,0.0,49.0,49.0,49.0,1.0,2986408352-371293.jpg,2446759580-197801.jpg,A15V2JYNSMUREO,pilot_24_hours,0.40418226,0.34020033,0.26585078,0.22360146,0.2126852,0.27810314,0.15453531
170,2.0,right,left,0.0,1.197,0.0,50.0,50.0,50.0,1.0,2446758985-197610.jpg,2274829821-263682.jpg,A15V2JYNSMUREO,pilot_24_hours,0.30499113,0.313028,0.21953526,0.14475143,0.13665628,0.22398743,0.20534874
171,2.0,left,right,0.0,0.994,0.0,51.0,51.0,51.0,1.0,2238561223-33794.jpg,2592380177-354626.jpg,A15V2JYNSMUREO,pilot_24_hours,0.32021108,0.3479251,0.22706166,0.14362559,0.08871445,0.18310118,0.12582922
172,2.0,left,right,0.0,1.002,0.0,52.0,52.0,52.0,1.0,2868485396-288511.jpg,2868472420-213024.jpg,A15V2JYNSMUREO,pilot_24_hours,0.25245333,0.29735646,0.23065652,0.15117048,0.098469935,0.22543697,0.18716367
173,1.0,left,right,0.0,1.32,0.0,53.0,53.0,53.0,1.0,2238496457-319749.jpg,2238570142-333223.jpg,A15V2JYNSMUREO,pilot_24_hours,0.43349692,0.34202334,0.22792818,0.1432057,0.11319223,0.18072954,0.18809153
174,1.0,right,left,0.0,0.938,0.0,54.0,54.0,54.0,1.0,2989724308-73928.jpg,2883254439-140941.jpg,A15V2JYNSMUREO,pilot_24_hours,0.5314096,0.36307305,0.24539003,0.1621706,0.1198793,0.29482386,0.2830761
175,1.0,right,right,1.0,1.528,0.0,55.0,55.0,55.0,1.0,2238433340-164524.jpg,2964213381-294061.jpg,A15V2JYNSMUREO,pilot_24_hours,0.40370548,0.26199293,0.19974966,0.10820377,0.09436314,0.20766257,0.19068943
176,1.0,right,right,1.0,0.996,0.0,56.0,56.0,56.0,1.0,2592380255-205552.jpg,2238375302-311538.jpg,A15V2JYNSMUREO,pilot_24_hours,0.43756682,0.31479737,0.20351876,0.13681813,0.081817165,0.16757396,0.10835687
177,1.0,left,right,0.0,1.38,0.0,57.0,57.0,57.0,1.0,2331570830-189984.jpg,2446760483-49429.jpg,A15V2JYNSMUREO,pilot_24_hours,0.5170055,0.42255893,0.2668635,0.11170049,0.05608718,0.16165696,0.09217889
178,3.0,right,left,0.0,1.137,0.0,58.0,58.0,58.0,1.0,2238373603-13733.jpg,2238499155-170911.jpg,A15V2JYNSMUREO,pilot_24_hours,0.3340723,0.33302116,0.22988743,0.15791692,0.1490195,0.30271912,0.37455055
179,2.0,right,right,1.0,0.992,0.0,59.0,59.0,59.0,1.0,2238510189-98616.jpg,2901941426-292805.jpg,A15V2JYNSMUREO,pilot_24_hours,0.3752859,0.33592662,0.24120426,0.215474,0.23166406,0.2693015,0.23033628
180,1.0,left,left,1.0,3.466,0.0,0.0,0.0,0.0,1.0,2238516618-25604.jpg,2238573549-110485.jpg,A1BM11Y4W27OUR,pilot_24_hours,0.49884462,0.4043614,0.2359574,0.12278469,0.11772836,0.13660277,0.1270015
181,1.0,left,left,1.0,3.183,0.0,1.0,1.0,1.0,1.0,2898632385-217137.jpg,2238360884-87525.jpg,A1BM11Y4W27OUR,pilot_24_hours,0.42334822,0.33770457,0.23720996,0.15756787,0.11094591,0.21687394,0.15921824
182,3.0,right,right,1.0,2.966,0.0,2.0,2.0,2.0,1.0,2417207511-266975.jpg,2883254439-140941.jpg,A1BM11Y4W27OUR,pilot_24_hours,0.24119233,0.27503914,0.22223748,0.15936452,0.15360081,0.40911376,0.44489413
183,3.0,left,left,1.0,8.669,0.0,3.0,3.0,3.0,1.0,2446758985-197609.jpg,2984618344-146295.jpg,A1BM11Y4W27OUR,pilot_24_hours,0.31798512,0.34565994,0.23667333,0.15913327,0.17024198,0.4137755,0.45701513
184,1.0,left,left,1.0,6.356,0.0,4.0,4.0,4.0,1.0,2625337302-355866.jpg,2425492472-343825.jpg,A1BM11Y4W27OUR,pilot_24_hours,0.4046076,0.34404197,0.21794295,0.10963725,0.066952154,0.18619053,0.105765715
185,1.0,left,left,1.0,6.037,0.0,5.0,5.0,5.0,1.0,2446760940-198145.jpg,2449443300-198739.jpg,A1BM11Y4W27OUR,pilot_24_hours,0.5343318,0.36858132,0.2612735,0.20441175,0.10212794,0.25091743,0.18629892
186,1.0,left,left,1.0,2.424,0.0,6.0,6.0,6.0,1.0,2964218374-144968.jpg,2238411877-313125.jpg,A1BM11Y4W27OUR,pilot_24_hours,0.42013174,0.3505115,0.2520835,0.16756912,0.10827869,0.20003079,0.17689455
187,3.0,left,right,0.0,4.585,0.0,7.0,7.0,7.0,1.0,2238499155-170911.jpg,2238373603-13733.jpg,A1BM11Y4W27OUR,pilot_24_hours,0.3340723,0.33302116,0.22988743,0.15791692,0.1490195,0.30271912,0.37455055
188,2.0,left,left,1.0,4.937,0.0,8.0,8.0,8.0,1.0,2238550049-105691.jpg,2449443271-272729.jpg,A1BM11Y4W27OUR,pilot_24_hours,0.42094997,0.38386247,0.26790863,0.2068803,0.14920181,0.16714372,0.18595387
189,3.0,left,left,1.0,3.021,0.0,9.0,9.0,9.0,1.0,2898632385-217138.jpg,2460547992-349586.jpg,A1BM11Y4W27OUR,pilot_24_hours,0.2548184,0.28521895,0.21039405,0.14219706,0.16120829,0.38927937,0.45929104
190,3.0,right,right,1.0,2.128,0.0,10.0,10.0,10.0,1.0,2862687442-360837.jpg,2274829821-263682.jpg,A1BM11Y4W27OUR,pilot_24_hours,0.2922676,0.2731102,0.20256752,0.16258444,0.20173846,0.3711989,0.33181265
191,1.0,right,right,1.0,2.544,0.0,11.0,11.0,11.0,1.0,2868470400-212889.jpg,2238471391-240918.jpg,A1BM11Y4W27OUR,pilot_24_hours,0.47667378,0.3364348,0.20209776,0.0870446,0.057772476,0.14205296,0.09701835
192,1.0,left,left,1.0,2.322,0.0,12.0,12.0,12.0,1.0,2868485396-288511.jpg,2868470456-287597.jpg,A1BM11Y4W27OUR,pilot_24_hours,0.417615,0.3119249,0.20560846,0.11747707,0.099348865,0.22590134,0.2297621
193,2.0,right,right,1.0,3.756,0.0,13.0,13.0,13.0,1.0,2874301437-363905.jpg,2238521193-26286.jpg,A1BM11Y4W27OUR,pilot_24_hours,0.32280988,0.30151463,0.23563439,0.16889897,0.13111599,0.18523662,0.14842017
194,2.0,left,left,1.0,2.7,0.0,14.0,14.0,14.0,1.0,2238584018-38513.jpg,2898633321-291943.jpg,A1BM11Y4W27OUR,pilot_24_hours,0.34084257,0.3547991,0.29044953,0.25740162,0.1502739,0.32602564,0.24610053
195,1.0,left,left,1.0,2.24,0.0,15.0,15.0,15.0,1.0,2901938432-367627.jpg,2579432708-56394.jpg,A1BM11Y4W27OUR,pilot_24_hours,0.52924746,0.34956065,0.23690203,0.17881735,0.107455224,0.25101942,0.2640147
196,1.0,left,right,0.0,4.208,0.0,16.0,16.0,16.0,1.0,2331570830-189984.jpg,2446760483-49429.jpg,A1BM11Y4W27OUR,pilot_24_hours,0.5170055,0.42255893,0.2668635,0.11170049,0.05608718,0.16165696,0.09217889
197,3.0,left,left,1.0,2.765,0.0,17.0,17.0,17.0,1.0,2964224310-219527.jpg,2238490590-169598.jpg,A1BM11Y4W27OUR,pilot_24_hours,0.36884835,0.3309385,0.24786398,0.16177255,0.1765129,0.4141495,0.4610115
198,3.0,right,right,1.0,5.398,0.0,18.0,18.0,18.0,1.0,2864909422-362141.jpg,2901939379-143479.jpg,A1BM11Y4W27OUR,pilot_24_hours,0.30258784,0.33718032,0.25163117,0.14617628,0.16214828,0.3513442,0.47057888
199,2.0,left,right,0.0,3.169,0.0,19.0,19.0,19.0,1.0,2512876023-52283.jpg,2898636443-69154.jpg,A1BM11Y4W27OUR,pilot_24_hours,0.4003126,0.3679571,0.26199216,0.1908277,0.10450467,0.20407732,0.1556658
200,3.0,right,right,1.0,2.75,0.0,20.0,20.0,20.0,1.0,2238554179-106663.jpg,2460547467-349421.jpg,A1BM11Y4W27OUR,pilot_24_hours,0.26533198,0.31470224,0.24480726,0.16084567,0.18932115,0.3873429,0.4559279
201,2.0,left,left,1.0,2.099,0.0,21.0,21.0,21.0,1.0,2238126735-154721.jpg,2575122854-130480.jpg,A1BM11Y4W27OUR,pilot_24_hours,0.35043386,0.32226226,0.2658018,0.19446547,0.15394293,0.1964433,0.1837817
202,3.0,right,left,0.0,2.594,0.0,22.0,22.0,22.0,1.0,2446760917-347439.jpg,2964216465-219242.jpg,A1BM11Y4W27OUR,pilot_24_hours,0.2652782,0.2801582,0.22310808,0.17375293,0.20828101,0.3970382,0.45953056
203,3.0,right,right,1.0,2.557,0.0,23.0,23.0,23.0,1.0,2901936309-143207.jpg,2898635427-367120.jpg,A1BM11Y4W27OUR,pilot_24_hours,0.2975004,0.33484793,0.23464131,0.14970599,0.17151691,0.44463232,0.47626737
204,2.0,right,right,1.0,2.831,0.0,24.0,24.0,24.0,1.0,2238547522-328488.jpg,2575964140-205050.jpg,A1BM11Y4W27OUR,pilot_24_hours,0.3139831,0.31142753,0.24144258,0.17848802,0.12763526,0.17947571,0.19570804
205,2.0,right,right,1.0,3.721,0.0,25.0,25.0,25.0,1.0,2868485399-139476.jpg,2883255450-215311.jpg,A1BM11Y4W27OUR,pilot_24_hours,0.3480901,0.37148955,0.31916454,0.29955557,0.24536566,0.3815465,0.40050507
206,1.0,right,left,0.0,3.135,0.0,26.0,26.0,26.0,1.0,2868488422-363715.jpg,2901941426-292805.jpg,A1BM11Y4W27OUR,pilot_24_hours,0.5188631,0.3965502,0.22574446,0.10683108,0.12296906,0.14635065,0.13755642
207,2.0,right,right,1.0,2.638,0.0,27.0,27.0,27.0,1.0,2430664847-345753.jpg,2592380138-56727.jpg,A1BM11Y4W27OUR,pilot_24_hours,0.38168284,0.34952417,0.29910022,0.25173178,0.12648837,0.22809352,0.17082538
208,2.0,right,right,1.0,4.02,0.0,28.0,28.0,28.0,1.0,2860304305-210777.jpg,2238575092-334269.jpg,A1BM11Y4W27OUR,pilot_24_hours,0.42194977,0.40210843,0.3434655,0.35853982,0.2972185,0.29614875,0.3615738
209,1.0,left,left,1.0,2.857,0.0,29.0,29.0,29.0,1.0,2868475410-213219.jpg,2238216693-10721.jpg,A1BM11Y4W27OUR,pilot_24_hours,0.37922972,0.33410308,0.240206,0.13248356,0.05559561,0.18673739,0.14141212
210,3.0,left,right,0.0,2.649,0.0,30.0,30.0,30.0,1.0,2994405328-74628.jpg,2883273443-68192.jpg,A1BM11Y4W27OUR,pilot_24_hours,0.34804448,0.3013018,0.20080294,0.14024596,0.1128016,0.30968478,0.36260268
211,1.0,right,right,1.0,2.53,0.0,31.0,31.0,31.0,1.0,2592380255-205552.jpg,2238375302-311538.jpg,A1BM11Y4W27OUR,pilot_24_hours,0.43756682,0.31479737,0.20351876,0.13681813,0.081817165,0.16757396,0.10835687
212,1.0,right,right,1.0,2.53,0.0,32.0,32.0,32.0,1.0,2238540598-30035.jpg,2862691449-137104.jpg,A1BM11Y4W27OUR,pilot_24_hours,0.52204466,0.4159331,0.27141595,0.18060559,0.11782777,0.20327143,0.13199764
213,3.0,left,left,1.0,2.866,0.0,33.0,33.0,33.0,1.0,2981231446-294731.jpg,2417207297-342139.jpg,A1BM11Y4W27OUR,pilot_24_hours,0.31571046,0.3135265,0.24269943,0.16856322,0.25787663,0.4136047,0.4673031
214,1.0,left,left,1.0,3.334,0.0,34.0,34.0,34.0,1.0,2452380166-273109.jpg,2452380171-273112.jpg,A1BM11Y4W27OUR,pilot_24_hours,0.75012785,0.39150938,0.272213,0.23516478,0.20961566,0.444914,0.47867903
215,3.0,right,right,1.0,3.132,0.0,35.0,35.0,35.0,1.0,2901936407-367476.jpg,2901934573-69337.jpg,A1BM11Y4W27OUR,pilot_24_hours,0.29673764,0.29660484,0.21707354,0.15228151,0.1664457,0.41575736,0.46685842
216,1.0,right,right,1.0,3.333,0.0,36.0,36.0,36.0,1.0,2868488456-288710.jpg,2964209380-218956.jpg,A1BM11Y4W27OUR,pilot_24_hours,0.456467,0.34459835,0.23194402,0.12546536,0.09308236,0.158905,0.19139077
217,3.0,right,right,1.0,7.021,0.0,37.0,37.0,37.0,1.0,2874303453-66056.jpg,2864909447-362146.jpg,A1BM11Y4W27OUR,pilot_24_hours,0.31959572,0.31706437,0.23701133,0.17674902,0.23878618,0.4514477,0.45315826
218,2.0,right,right,1.0,7.83,0.0,38.0,38.0,38.0,1.0,2449442365-198476.jpg,2898626385-216899.jpg,A1BM11Y4W27OUR,pilot_24_hours,0.3731326,0.34398237,0.25237963,0.15251409,0.11101224,0.15835525,0.13039324
219,3.0,right,right,1.0,3.575,0.0,39.0,39.0,39.0,1.0,2812983311-281946.jpg,2883254439-140940.jpg,A1BM11Y4W27OUR,pilot_24_hours,0.3006712,0.3146375,0.24826571,0.1951422,0.21086107,0.45176968,0.4767652
220,2.0,right,right,1.0,4.245,0.0,40.0,40.0,40.0,1.0,2901951459-144433.jpg,2238429999-90218.jpg,A1BM11Y4W27OUR,pilot_24_hours,0.447259,0.3890973,0.2806712,0.23255062,0.16242519,0.22648184,0.17847791
221,1.0,right,right,1.0,3.49,0.0,41.0,41.0,41.0,1.0,2592380177-354629.jpg,2446759803-49249.jpg,A1BM11Y4W27OUR,pilot_24_hours,0.6109863,0.37322015,0.26128942,0.2009064,0.16047344,0.29054978,0.30657643
222,3.0,left,left,1.0,2.736,0.0,42.0,42.0,42.0,1.0,2898624426-291546.jpg,2864902304-137862.jpg,A1BM11Y4W27OUR,pilot_24_hours,0.25735348,0.35344133,0.22365823,0.14610878,0.13300084,0.3606336,0.47226366
223,3.0,left,left,1.0,2.349,0.0,43.0,43.0,43.0,1.0,2449442529-124446.jpg,2864911339-138231.jpg,A1BM11Y4W27OUR,pilot_24_hours,0.26274702,0.30962634,0.2333699,0.1605805,0.19716239,0.3123342,0.42238653
224,3.0,left,right,0.0,3.645,0.0,44.0,44.0,44.0,1.0,2238496457-319749.jpg,2460547467-349422.jpg,A1BM11Y4W27OUR,pilot_24_hours,0.18729074,0.3172406,0.21510226,0.14293809,0.11073542,0.2905059,0.2723532
225,2.0,left,left,1.0,2.197,0.0,45.0,45.0,45.0,1.0,2964213381-294060.jpg,2238520921-248323.jpg,A1BM11Y4W27OUR,pilot_24_hours,0.31931362,0.26260912,0.19414665,0.14581928,0.081651196,0.18988629,0.15432642
226,2.0,right,right,1.0,2.656,0.0,46.0,46.0,46.0,1.0,2238585512-336576.jpg,2898617468-68274.jpg,A1BM11Y4W27OUR,pilot_24_hours,0.26965234,0.32668218,0.22122465,0.16338322,0.09618742,0.18083853,0.14817783
227,2.0,right,right,1.0,4.15,0.0,47.0,47.0,47.0,1.0,2446760226-272006.jpg,2579432576-279079.jpg,A1BM11Y4W27OUR,pilot_24_hours,0.31084266,0.3441389,0.2727468,0.22629432,0.1681439,0.28038946,0.23063093
228,2.0,left,left,1.0,3.492,0.0,48.0,48.0,48.0,1.0,2898633480-217190.jpg,2986450334-147216.jpg,A1BM11Y4W27OUR,pilot_24_hours,0.36065188,0.3510691,0.25097817,0.18711598,0.075358994,0.21282814,0.12845029
229,2.0,right,right,1.0,2.752,0.0,49.0,49.0,49.0,1.0,2981234334-145491.jpg,2964213381-294061.jpg,A1BM11Y4W27OUR,pilot_24_hours,0.26996055,0.22882977,0.19355488,0.14240453,0.08652604,0.21422824,0.14907101
230,2.0,right,right,1.0,3.634,0.0,50.0,50.0,50.0,1.0,2981241419-145844.jpg,2238584869-113153.jpg,A1BM11Y4W27OUR,pilot_24_hours,0.3216093,0.3363846,0.26486647,0.21386726,0.14191724,0.281348,0.22522415
231,3.0,left,left,1.0,3.769,0.0,51.0,51.0,51.0,1.0,2238480434-93829.jpg,2238479903-19596.jpg,A1BM11Y4W27OUR,pilot_24_hours,0.3733531,0.33456278,0.21266297,0.15295373,0.20590934,0.38776866,0.41758478
232,1.0,left,left,1.0,4.097,0.0,52.0,52.0,52.0,1.0,2238129579-80916.jpg,2460547477-349426.jpg,A1BM11Y4W27OUR,pilot_24_hours,0.5761153,0.34457296,0.22767116,0.15816705,0.12293139,0.19182707,0.18375939
233,1.0,right,right,1.0,10.189,0.0,53.0,53.0,53.0,1.0,2238506233-23904.jpg,2238561223-33794.jpg,A1BM11Y4W27OUR,pilot_24_hours,0.52831537,0.42328984,0.26581034,0.13961811,0.08286752,0.12375006,0.09342231
234,2.0,right,right,1.0,3.415,0.0,54.0,54.0,54.0,1.0,2901936369-143233.jpg,2883272438-68133.jpg,A1BM11Y4W27OUR,pilot_24_hours,0.3302181,0.32111344,0.24912237,0.18834953,0.116073586,0.2222739,0.14720194
235,3.0,right,right,1.0,2.894,0.0,55.0,55.0,55.0,1.0,2238538133-29662.jpg,2986400320-221190.jpg,A1BM11Y4W27OUR,pilot_24_hours,0.33736572,0.284637,0.21064721,0.17542246,0.2520948,0.41156995,0.33431122
236,1.0,right,right,1.0,2.878,0.0,56.0,56.0,56.0,1.0,2986397365-221133.jpg,2864906345-212360.jpg,A1BM11Y4W27OUR,pilot_24_hours,0.4451475,0.37965855,0.252699,0.12303681,0.060855567,0.15152828,0.08421643
237,2.0,right,left,0.0,2.976,0.0,57.0,57.0,57.0,1.0,2446759580-197801.jpg,2986408352-371293.jpg,A1BM11Y4W27OUR,pilot_24_hours,0.40418226,0.34020033,0.26585078,0.22360146,0.2126852,0.27810314,0.15453531
238,1.0,left,left,1.0,2.231,0.0,58.0,58.0,58.0,1.0,2446760524-123999.jpg,2446760621-272102.jpg,A1BM11Y4W27OUR,pilot_24_hours,0.56017715,0.354624,0.25317731,0.18050651,0.14684361,0.29251763,0.3041001
239,2.0,left,left,1.0,2.332,0.0,59.0,59.0,59.0,1.0,2883255450-215309.jpg,2868476439-138927.jpg,A1BM11Y4W27OUR,pilot_24_hours,0.29852188,0.31273416,0.23042811,0.16144267,0.09186735,0.18564348,0.17272455
240,2.0,left,left,1.0,7.839,0.0,0.0,0.0,0.0,1.0,2901934573-69337.jpg,2238345946-235007.jpg,A1C3IJCMZ66VD2,pilot_24_hours,0.29557958,0.275084,0.19792153,0.14649393,0.09066655,0.21115631,0.1996295
241,2.0,right,left,0.0,2.548,0.0,1.0,1.0,1.0,1.0,2592380177-354626.jpg,2238561223-33794.jpg,A1C3IJCMZ66VD2,pilot_24_hours,0.32021108,0.3479251,0.22706166,0.14362559,0.08871445,0.18310118,0.12582922
242,1.0,right,right,1.0,2.362,0.0,2.0,2.0,2.0,1.0,2898633421-291973.jpg,2446758985-197609.jpg,A1C3IJCMZ66VD2,pilot_24_hours,0.5579947,0.3543023,0.21951197,0.11676287,0.09287247,0.17682074,0.14729133
243,1.0,left,left,1.0,2.219,0.0,3.0,3.0,3.0,1.0,2964218374-144968.jpg,2238411877-313125.jpg,A1C3IJCMZ66VD2,pilot_24_hours,0.42013174,0.3505115,0.2520835,0.16756912,0.10827869,0.20003079,0.17689455
244,2.0,right,right,1.0,2.659,0.0,4.0,4.0,4.0,1.0,2238568685-183597.jpg,2981231446-294731.jpg,A1C3IJCMZ66VD2,pilot_24_hours,0.3326582,0.3074758,0.24429011,0.20221736,0.14451179,0.18218349,0.15221024
245,2.0,right,left,0.0,4.627,0.0,5.0,5.0,5.0,1.0,2592380234-131135.jpg,2238496457-319749.jpg,A1C3IJCMZ66VD2,pilot_24_hours,0.32511356,0.30925903,0.23221867,0.15815726,0.11003423,0.22559501,0.15404871
246,2.0,right,right,1.0,2.006,0.0,6.0,6.0,6.0,1.0,2273188118-40829.jpg,2898632385-217138.jpg,A1C3IJCMZ66VD2,pilot_24_hours,0.2811311,0.31085286,0.2330383,0.20231685,0.14555275,0.19239971,0.20220506
247,1.0,right,right,1.0,2.849,0.0,7.0,7.0,7.0,1.0,2825712309-134957.jpg,2238521193-26286.jpg,A1C3IJCMZ66VD2,pilot_24_hours,0.5222137,0.41726744,0.27024394,0.1322952,0.064563535,0.124206915,0.12006892
248,2.0,left,left,1.0,2.411,0.0,8.0,8.0,8.0,1.0,2898624426-291546.jpg,2549106844-127878.jpg,A1C3IJCMZ66VD2,pilot_24_hours,0.26257366,0.3248858,0.21998724,0.14956693,0.11572851,0.24024555,0.20294277
249,3.0,right,left,0.0,1.775,0.0,9.0,9.0,9.0,1.0,2238436851-238821.jpg,2868475410-213219.jpg,A1C3IJCMZ66VD2,pilot_24_hours,0.2991732,0.2800154,0.2235462,0.14550053,0.15182039,0.3598194,0.47297004
250,3.0,right,left,0.0,1.969,0.0,10.0,10.0,10.0,1.0,2238539138-29878.jpg,2446760524-123999.jpg,A1C3IJCMZ66VD2,pilot_24_hours,0.31188673,0.33697963,0.2568794,0.18181463,0.13801888,0.3870004,0.47968417
251,3.0,left,left,1.0,2.897,0.0,11.0,11.0,11.0,1.0,2986400320-221190.jpg,2238538133-29662.jpg,A1C3IJCMZ66VD2,pilot_24_hours,0.33736572,0.284637,0.21064721,0.17542246,0.2520948,0.41156995,0.33431122
252,3.0,right,left,0.0,3.869,0.0,12.0,12.0,12.0,1.0,2446760917-347439.jpg,2964216465-219242.jpg,A1C3IJCMZ66VD2,pilot_24_hours,0.2652782,0.2801582,0.22310808,0.17375293,0.20828101,0.3970382,0.45953056
253,3.0,left,left,1.0,2.519,0.0,13.0,13.0,13.0,1.0,2238499155-170911.jpg,2238373603-13733.jpg,A1C3IJCMZ66VD2,pilot_24_hours,0.3340723,0.33302116,0.22988743,0.15791692,0.1490195,0.30271912,0.37455055
254,1.0,left,left,1.0,2.269,0.0,14.0,14.0,14.0,1.0,2898626385-216899.jpg,2989715328-73658.jpg,A1C3IJCMZ66VD2,pilot_24_hours,0.5036279,0.39926985,0.27442378,0.13776554,0.08747883,0.18041508,0.13786203
255,2.0,right,right,1.0,2.939,0.0,15.0,15.0,15.0,1.0,2901951459-144433.jpg,2238429999-90218.jpg,A1C3IJCMZ66VD2,pilot_24_hours,0.447259,0.3890973,0.2806712,0.23255062,0.16242519,0.22648184,0.17847791
256,2.0,left,left,1.0,1.604,0.0,16.0,16.0,16.0,1.0,2901939379-143479.jpg,2449443292-348022.jpg,A1C3IJCMZ66VD2,pilot_24_hours,0.31333137,0.32723096,0.22934283,0.1543935,0.087466784,0.1310264,0.13766873
257,1.0,right,right,1.0,1.674,0.0,17.0,17.0,17.0,1.0,2452380166-273110.jpg,2883254439-140940.jpg,A1C3IJCMZ66VD2,pilot_24_hours,0.52784115,0.34596097,0.24716364,0.17175348,0.12226688,0.31752273,0.26190567
258,1.0,right,right,1.0,1.601,0.0,18.0,18.0,18.0,1.0,2238481610-168214.jpg,2449442529-124446.jpg,A1C3IJCMZ66VD2,pilot_24_hours,0.4785815,0.33074775,0.22479819,0.13900007,0.09203736,0.18333405,0.18588386
259,3.0,right,left,0.0,1.771,0.0,19.0,19.0,19.0,1.0,2862687442-360837.jpg,2274829821-263682.jpg,A1C3IJCMZ66VD2,pilot_24_hours,0.2922676,0.2731102,0.20256752,0.16258444,0.20173846,0.3711989,0.33181265
260,2.0,left,left,1.0,1.637,0.0,20.0,20.0,20.0,1.0,2898635427-367120.jpg,2237941457-301342.jpg,A1C3IJCMZ66VD2,pilot_24_hours,0.35691357,0.30959147,0.23748793,0.20920154,0.1133823,0.22680485,0.13709489
261,1.0,right,left,0.0,2.042,0.0,21.0,21.0,21.0,1.0,2868488422-363713.jpg,2986408352-371293.jpg,A1C3IJCMZ66VD2,pilot_24_hours,0.5112164,0.43097124,0.25315034,0.1422687,0.08862453,0.21023029,0.13950233
262,3.0,right,right,1.0,2.241,0.0,22.0,22.0,22.0,1.0,2446760692-347392.jpg,2446760940-198145.jpg,A1C3IJCMZ66VD2,pilot_24_hours,0.26612943,0.29178837,0.24343349,0.14910349,0.23485276,0.41458067,0.47591442
263,3.0,right,right,1.0,1.937,0.0,23.0,23.0,23.0,1.0,2460547508-51571.jpg,2238375302-311538.jpg,A1C3IJCMZ66VD2,pilot_24_hours,0.24705386,0.23613794,0.21341173,0.1490605,0.18382554,0.343115,0.4488432
264,1.0,right,left,0.0,1.526,0.0,24.0,24.0,24.0,1.0,2864908323-64106.jpg,2512876023-52283.jpg,A1C3IJCMZ66VD2,pilot_24_hours,0.5590991,0.41319773,0.2669807,0.14314245,0.0872989,0.24113582,0.2205433
265,2.0,right,right,1.0,1.574,0.0,25.0,25.0,25.0,1.0,2898633321-291943.jpg,2238584018-38513.jpg,A1C3IJCMZ66VD2,pilot_24_hours,0.34084257,0.3547991,0.29044953,0.25740162,0.1502739,0.32602564,0.24610053
266,3.0,left,left,1.0,2.383,0.0,26.0,26.0,26.0,1.0,2238550049-105691.jpg,2964219468-71238.jpg,A1C3IJCMZ66VD2,pilot_24_hours,0.3515072,0.3400462,0.23197325,0.14561646,0.14732508,0.34722954,0.37767243
267,2.0,left,left,1.0,1.695,0.0,27.0,27.0,27.0,1.0,2898617468-68274.jpg,2238585512-336576.jpg,A1C3IJCMZ66VD2,pilot_24_hours,0.26965234,0.32668218,0.22122465,0.16338322,0.09618742,0.18083853,0.14817783
268,1.0,left,left,1.0,2.322,0.0,28.0,28.0,28.0,1.0,2964213381-294061.jpg,2238433340-164524.jpg,A1C3IJCMZ66VD2,pilot_24_hours,0.40370548,0.26199293,0.19974966,0.10820377,0.09436314,0.20766257,0.19068943
269,2.0,left,left,1.0,2.017,0.0,29.0,29.0,29.0,1.0,2579432576-279079.jpg,2446760226-272006.jpg,A1C3IJCMZ66VD2,pilot_24_hours,0.31084266,0.3441389,0.2727468,0.22629432,0.1681439,0.28038946,0.23063093
270,3.0,right,right,1.0,1.553,0.0,30.0,30.0,30.0,1.0,2874303453-66056.jpg,2864909447-362146.jpg,A1C3IJCMZ66VD2,pilot_24_hours,0.31959572,0.31706437,0.23701133,0.17674902,0.23878618,0.4514477,0.45315826
271,1.0,left,left,1.0,2.5,0.0,31.0,31.0,31.0,1.0,2331570830-189984.jpg,2446760483-49429.jpg,A1C3IJCMZ66VD2,pilot_24_hours,0.5170055,0.42255893,0.2668635,0.11170049,0.05608718,0.16165696,0.09217889
272,3.0,left,right,0.0,1.667,0.0,32.0,32.0,32.0,1.0,2238126735-154721.jpg,2901951430-218724.jpg,A1C3IJCMZ66VD2,pilot_24_hours,0.3033925,0.31921074,0.23528793,0.14443031,0.17073512,0.35031363,0.46681494
273,1.0,left,left,1.0,1.675,0.0,33.0,33.0,33.0,1.0,2238516618-25604.jpg,2238573549-110485.jpg,A1C3IJCMZ66VD2,pilot_24_hours,0.49884462,0.4043614,0.2359574,0.12278469,0.11772836,0.13660277,0.1270015
274,3.0,left,left,1.0,1.647,0.0,34.0,34.0,34.0,1.0,2446759803-49249.jpg,2238498786-244797.jpg,A1C3IJCMZ66VD2,pilot_24_hours,0.24973479,0.3615281,0.23668213,0.1581866,0.13646886,0.37617946,0.4630595
275,1.0,right,right,1.0,1.331,0.0,35.0,35.0,35.0,1.0,2425492472-343825.jpg,2625337302-355866.jpg,A1C3IJCMZ66VD2,pilot_24_hours,0.4046076,0.34404197,0.21794295,0.10963725,0.066952154,0.18619053,0.105765715
276,2.0,right,right,1.0,1.73,0.0,36.0,36.0,36.0,1.0,2238520921-248323.jpg,2964213381-294060.jpg,A1C3IJCMZ66VD2,pilot_24_hours,0.31931362,0.26260912,0.19414665,0.14581928,0.081651196,0.18988629,0.15432642
277,1.0,right,left,0.0,1.854,0.0,37.0,37.0,37.0,1.0,2986419351-296471.jpg,2592380138-56727.jpg,A1C3IJCMZ66VD2,pilot_24_hours,0.46054566,0.37004048,0.23391384,0.11330234,0.06780545,0.21505636,0.16523293
278,3.0,left,left,1.0,2.012,0.0,38.0,38.0,38.0,1.0,2883255450-215311.jpg,2575964014-130589.jpg,A1C3IJCMZ66VD2,pilot_24_hours,0.28275034,0.3047399,0.23060478,0.14404039,0.11875494,0.3297401,0.47829005
279,3.0,left,left,1.0,2.786,0.0,39.0,39.0,39.0,1.0,2238471391-240918.jpg,2986399339-146857.jpg,A1C3IJCMZ66VD2,pilot_24_hours,0.27068946,0.27949244,0.21374303,0.15675913,0.113788195,0.2405059,0.23036471
280,1.0,right,right,1.0,1.791,0.0,40.0,40.0,40.0,1.0,2986397365-221133.jpg,2864906345-212360.jpg,A1C3IJCMZ66VD2,pilot_24_hours,0.4451475,0.37965855,0.252699,0.12303681,0.060855567,0.15152828,0.08421643
281,2.0,left,left,1.0,1.794,0.0,41.0,41.0,41.0,1.0,2238480434-93829.jpg,2592380255-205551.jpg,A1C3IJCMZ66VD2,pilot_24_hours,0.3839254,0.29685736,0.21725695,0.15408884,0.08308763,0.17321397,0.09206139
282,3.0,right,right,1.0,1.606,0.0,42.0,42.0,42.0,1.0,2238328478-11678.jpg,2862691449-137104.jpg,A1C3IJCMZ66VD2,pilot_24_hours,0.36767977,0.3426417,0.24200304,0.14279757,0.16467124,0.39299294,0.47483164
283,2.0,left,left,1.0,2.086,0.0,43.0,43.0,43.0,1.0,2575964140-205050.jpg,2238547522-328488.jpg,A1C3IJCMZ66VD2,pilot_24_hours,0.3139831,0.31142753,0.24144258,0.17848802,0.12763526,0.17947571,0.19570804
284,2.0,left,left,1.0,2.887,0.0,44.0,44.0,44.0,1.0,2238575092-334269.jpg,2860304305-210777.jpg,A1C3IJCMZ66VD2,pilot_24_hours,0.42194977,0.40210843,0.3434655,0.35853982,0.2972185,0.29614875,0.3615738
285,2.0,right,left,0.0,2.413,0.0,45.0,45.0,45.0,1.0,2901936369-143233.jpg,2883272438-68133.jpg,A1C3IJCMZ66VD2,pilot_24_hours,0.3302181,0.32111344,0.24912237,0.18834953,0.116073586,0.2222739,0.14720194
286,3.0,right,right,1.0,1.473,0.0,46.0,46.0,46.0,1.0,2238380901-236499.jpg,2452380166-273109.jpg,A1C3IJCMZ66VD2,pilot_24_hours,0.26408038,0.3195326,0.24932545,0.18707481,0.130848,0.32875007,0.44182703
287,1.0,left,right,0.0,1.839,0.0,47.0,47.0,47.0,1.0,2964224310-219527.jpg,2238380178-14011.jpg,A1C3IJCMZ66VD2,pilot_24_hours,0.47662294,0.3767535,0.233892,0.106938966,0.09160477,0.123137265,0.09846386
288,3.0,right,left,0.0,2.201,0.0,48.0,48.0,48.0,1.0,2237858043-1434.jpg,2898633480-217190.jpg,A1C3IJCMZ66VD2,pilot_24_hours,0.31712067,0.3232628,0.25342265,0.17336623,0.22365187,0.41992524,0.47910497
289,1.0,right,left,0.0,1.988,0.0,49.0,49.0,49.0,1.0,2864901420-212147.jpg,2238584869-113153.jpg,A1C3IJCMZ66VD2,pilot_24_hours,0.5442235,0.38257775,0.27661014,0.194215,0.15521435,0.29529202,0.25769275
290,1.0,right,right,1.0,1.593,0.0,50.0,50.0,50.0,1.0,2901934573-69336.jpg,2460547467-349421.jpg,A1C3IJCMZ66VD2,pilot_24_hours,0.4743195,0.32548413,0.24925873,0.14967118,0.07511208,0.19980064,0.1245887
291,1.0,right,left,0.0,1.648,0.0,51.0,51.0,51.0,1.0,2868488422-363715.jpg,2901941426-292805.jpg,A1C3IJCMZ66VD2,pilot_24_hours,0.5188631,0.3965502,0.22574446,0.10683108,0.12296906,0.14635065,0.13755642
292,1.0,right,left,0.0,1.593,0.0,52.0,52.0,52.0,1.0,2460547477-349426.jpg,2238129579-80916.jpg,A1C3IJCMZ66VD2,pilot_24_hours,0.5761153,0.34457296,0.22767116,0.15816705,0.12293139,0.19182707,0.18375939
293,2.0,right,right,1.0,2.668,0.0,53.0,53.0,53.0,1.0,2825702353-60662.jpg,2994405328-74628.jpg,A1C3IJCMZ66VD2,pilot_24_hours,0.4243706,0.35623288,0.22364776,0.16463007,0.06308987,0.18950747,0.1044181
294,1.0,right,right,1.0,1.769,0.0,54.0,54.0,54.0,1.0,2868488456-288710.jpg,2964209380-218956.jpg,A1C3IJCMZ66VD2,pilot_24_hours,0.456467,0.34459835,0.23194402,0.12546536,0.09308236,0.158905,0.19139077
295,2.0,left,left,1.0,1.941,0.0,55.0,55.0,55.0,1.0,2883254439-140941.jpg,2237965109-79314.jpg,A1C3IJCMZ66VD2,pilot_24_hours,0.29142603,0.30357695,0.22813335,0.15174149,0.09355728,0.1820631,0.10429122
296,3.0,left,left,1.0,1.845,0.0,56.0,56.0,56.0,1.0,2901938432-367627.jpg,2424122568-45517.jpg,A1C3IJCMZ66VD2,pilot_24_hours,0.29698327,0.31735566,0.24400364,0.1772435,0.17652404,0.39610434,0.45669812
297,2.0,right,right,1.0,1.611,0.0,57.0,57.0,57.0,1.0,2868472420-213024.jpg,2868485396-288511.jpg,A1C3IJCMZ66VD2,pilot_24_hours,0.25245333,0.29735646,0.23065652,0.15117048,0.098469935,0.22543697,0.18716367
298,3.0,right,right,1.0,1.635,0.0,58.0,58.0,58.0,1.0,2864904453-63932.jpg,2898632385-217137.jpg,A1C3IJCMZ66VD2,pilot_24_hours,0.27244273,0.3007648,0.21394722,0.14565074,0.19594023,0.43483174,0.4611801
299,3.0,right,right,1.0,1.404,0.0,59.0,59.0,59.0,1.0,2238562336-256366.jpg,2883255450-215309.jpg,A1C3IJCMZ66VD2,pilot_24_hours,0.28617913,0.31050637,0.23493215,0.16023651,0.17145784,0.39252922,0.47656265
300,3.0,right,right,1.0,3.208200001,0.0,0.0,0.0,0.0,1.0,2238490590-169598.jpg,2964224310-219527.jpg,A1C4TOGS0NS8K9,pilot_24_hours,0.36884835,0.3309385,0.24786398,0.16177255,0.1765129,0.4141495,0.4610115
301,2.0,left,left,1.0,2.6485,0.0,1.0,1.0,1.0,1.0,2981231446-294731.jpg,2238568685-183597.jpg,A1C4TOGS0NS8K9,pilot_24_hours,0.3326582,0.3074758,0.24429011,0.20221736,0.14451179,0.18218349,0.15221024
302,3.0,left,left,1.0,2.176699999,0.0,2.0,2.0,2.0,1.0,2238496457-319749.jpg,2460547467-349422.jpg,A1C4TOGS0NS8K9,pilot_24_hours,0.18729074,0.3172406,0.21510226,0.14293809,0.11073542,0.2905059,0.2723532
303,1.0,left,left,1.0,3.265400002,0.0,3.0,3.0,3.0,1.0,2446760524-123999.jpg,2446760621-272102.jpg,A1C4TOGS0NS8K9,pilot_24_hours,0.56017715,0.354624,0.25317731,0.18050651,0.14684361,0.29251763,0.3041001
304,3.0,right,left,0.0,1.8589,0.0,4.0,4.0,4.0,1.0,2446760692-347392.jpg,2446760940-198145.jpg,A1C4TOGS0NS8K9,pilot_24_hours,0.26612943,0.29178837,0.24343349,0.14910349,0.23485276,0.41458067,0.47591442
305,2.0,left,right,0.0,1.609800001,0.0,5.0,5.0,5.0,1.0,2883255450-215309.jpg,2868476439-138927.jpg,A1C4TOGS0NS8K9,pilot_24_hours,0.29852188,0.31273416,0.23042811,0.16144267,0.09186735,0.18564348,0.17272455
306,1.0,right,right,1.0,2.0159,0.0,6.0,6.0,6.0,1.0,2986419351-296471.jpg,2592380138-56727.jpg,A1C4TOGS0NS8K9,pilot_24_hours,0.46054566,0.37004048,0.23391384,0.11330234,0.06780545,0.21505636,0.16523293
307,1.0,right,right,1.0,1.766300001,0.0,7.0,7.0,7.0,1.0,2446760621-272103.jpg,2238499155-170911.jpg,A1C4TOGS0NS8K9,pilot_24_hours,0.5482933,0.4191881,0.26024532,0.1367969,0.046643652,0.16794172,0.09893926
308,3.0,right,right,1.0,2.6616,0.0,8.0,8.0,8.0,1.0,2446760306-272024.jpg,2238521193-26286.jpg,A1C4TOGS0NS8K9,pilot_24_hours,0.36645237,0.30536518,0.23714988,0.18336673,0.20081837,0.3938985,0.40598384
309,1.0,right,right,1.0,1.920800001,0.0,9.0,9.0,9.0,1.0,2452380171-273112.jpg,2452380166-273109.jpg,A1C4TOGS0NS8K9,pilot_24_hours,0.75012785,0.39150938,0.272213,0.23516478,0.20961566,0.444914,0.47867903
310,3.0,left,left,1.0,2.665799999,0.0,10.0,10.0,10.0,1.0,2964218374-144968.jpg,2238525773-27014.jpg,A1C4TOGS0NS8K9,pilot_24_hours,0.31025356,0.32571408,0.22546248,0.15128145,0.15338917,0.35618955,0.45221356
311,3.0,right,right,1.0,2.483300001,0.0,11.0,11.0,11.0,1.0,2864909422-362141.jpg,2901939379-143479.jpg,A1C4TOGS0NS8K9,pilot_24_hours,0.30258784,0.33718032,0.25163117,0.14617628,0.16214828,0.3513442,0.47057888
312,1.0,left,left,1.0,2.791700001,0.0,12.0,12.0,12.0,1.0,2868485396-288511.jpg,2868470456-287597.jpg,A1C4TOGS0NS8K9,pilot_24_hours,0.417615,0.3119249,0.20560846,0.11747707,0.099348865,0.22590134,0.2297621
313,1.0,right,right,1.0,3.495699999,0.0,13.0,13.0,13.0,1.0,2446760147-347245.jpg,2898633480-217190.jpg,A1C4TOGS0NS8K9,pilot_24_hours,0.401844,0.31508884,0.21657626,0.15563214,0.09162798,0.24119,0.15777855
314,1.0,left,left,1.0,2.25,0.0,14.0,14.0,14.0,1.0,2964213381-294060.jpg,2898631359-142720.jpg,A1C4TOGS0NS8K9,pilot_24_hours,0.38301757,0.23589788,0.1527817,0.07503883,0.08113245,0.15108076,0.14740919
315,3.0,right,right,1.0,2.843900002,0.0,15.0,15.0,15.0,1.0,2864911339-138231.jpg,2449442529-124446.jpg,A1C4TOGS0NS8K9,pilot_24_hours,0.26274702,0.30962634,0.2333699,0.1605805,0.19716239,0.3123342,0.42238653
316,3.0,right,left,0.0,2.5566,0.0,16.0,16.0,16.0,1.0,2964222378-71332.jpg,2238429999-90218.jpg,A1C4TOGS0NS8K9,pilot_24_hours,0.3795617,0.33195207,0.2365827,0.14056121,0.13223155,0.30626556,0.32499933
317,2.0,left,left,1.0,2.552299999,0.0,17.0,17.0,17.0,1.0,2964216465-219242.jpg,2512875796-274856.jpg,A1C4TOGS0NS8K9,pilot_24_hours,0.3356087,0.29077962,0.22294627,0.15261614,0.08791806,0.15000099,0.15925962
318,3.0,left,right,0.0,3.781799999,0.0,18.0,18.0,18.0,1.0,2238480434-93829.jpg,2238479903-19596.jpg,A1C4TOGS0NS8K9,pilot_24_hours,0.3733531,0.33456278,0.21266297,0.15295373,0.20590934,0.38776866,0.41758478
319,3.0,right,right,1.0,2.744800001,0.0,19.0,19.0,19.0,1.0,2856916345-210056.jpg,2986408352-371293.jpg,A1C4TOGS0NS8K9,pilot_24_hours,0.32377374,0.31024593,0.2235383,0.14102311,0.09101871,0.32255796,0.22837847
320,1.0,left,left,1.0,1.8375,0.0,20.0,20.0,20.0,1.0,2579432576-279079.jpg,2901934574-143126.jpg,A1C4TOGS0NS8K9,pilot_24_hours,0.4354434,0.38090435,0.28486657,0.17389455,0.09728459,0.21984848,0.1316088
321,1.0,right,right,1.0,2.7195,0.0,21.0,21.0,21.0,1.0,2579432708-56394.jpg,2901938432-367627.jpg,A1C4TOGS0NS8K9,pilot_24_hours,0.52924746,0.34956065,0.23690203,0.17881735,0.107455224,0.25101942,0.2640147
322,2.0,left,left,1.0,2.088800001,0.0,22.0,22.0,22.0,1.0,2898632385-217137.jpg,2238480803-19739.jpg,A1C4TOGS0NS8K9,pilot_24_hours,0.37733212,0.37367064,0.33790275,0.36829898,0.35403305,0.4598726,0.40648404
323,3.0,left,left,1.0,1.5889,0.0,23.0,23.0,23.0,1.0,2238584869-113153.jpg,2986455373-73646.jpg,A1C4TOGS0NS8K9,pilot_24_hours,0.31297758,0.31809872,0.24675979,0.16095181,0.1664197,0.41340193,0.47941926
324,2.0,right,right,1.0,1.2985,0.0,24.0,24.0,24.0,1.0,2862686459-136888.jpg,2238516618-25604.jpg,A1C4TOGS0NS8K9,pilot_24_hours,0.3623062,0.34919378,0.29119805,0.24408679,0.16484572,0.1900102,0.18655969
325,1.0,right,right,1.0,3.297200001,0.0,25.0,25.0,25.0,1.0,2238570526-257884.jpg,2274829821-263682.jpg,A1C4TOGS0NS8K9,pilot_24_hours,0.50656027,0.41411665,0.25535145,0.12128986,0.09929722,0.10096954,0.086663626
326,1.0,left,left,1.0,2.324,0.0,26.0,26.0,26.0,1.0,2864906345-212360.jpg,2986397365-221133.jpg,A1C4TOGS0NS8K9,pilot_24_hours,0.4451475,0.37965855,0.252699,0.12303681,0.060855567,0.15152828,0.08421643
327,2.0,left,left,1.0,1.9589,0.0,27.0,27.0,27.0,1.0,2898632385-217138.jpg,2273188118-40829.jpg,A1C4TOGS0NS8K9,pilot_24_hours,0.2811311,0.31085286,0.2330383,0.20231685,0.14555275,0.19239971,0.20220506
328,2.0,right,right,1.0,2.1391,0.0,28.0,28.0,28.0,1.0,2825702353-60662.jpg,2994405328-74628.jpg,A1C4TOGS0NS8K9,pilot_24_hours,0.4243706,0.35623288,0.22364776,0.16463007,0.06308987,0.18950747,0.1044181
329,2.0,right,right,1.0,3.798299999,0.0,29.0,29.0,29.0,1.0,2575122854-130480.jpg,2238126735-154721.jpg,A1C4TOGS0NS8K9,pilot_24_hours,0.35043386,0.32226226,0.2658018,0.19446547,0.15394293,0.1964433,0.1837817
330,2.0,left,left,1.0,1.944200001,0.0,30.0,30.0,30.0,1.0,2238584018-38513.jpg,2898633321-291943.jpg,A1C4TOGS0NS8K9,pilot_24_hours,0.34084257,0.3547991,0.29044953,0.25740162,0.1502739,0.32602564,0.24610053
331,1.0,right,right,1.0,2.274799999,0.0,31.0,31.0,31.0,1.0,2868488456-288710.jpg,2964209380-218956.jpg,A1C4TOGS0NS8K9,pilot_24_hours,0.456467,0.34459835,0.23194402,0.12546536,0.09308236,0.158905,0.19139077
332,1.0,right,right,1.0,2.632,0.0,32.0,32.0,32.0,1.0,2592380177-354629.jpg,2446759803-49249.jpg,A1C4TOGS0NS8K9,pilot_24_hours,0.6109863,0.37322015,0.26128942,0.2009064,0.16047344,0.29054978,0.30657643
333,1.0,right,right,1.0,2.069,0.0,33.0,33.0,33.0,1.0,2986402377-371266.jpg,2898624426-291546.jpg,A1C4TOGS0NS8K9,pilot_24_hours,0.43547595,0.33835298,0.21718264,0.129932,0.09877238,0.1568951,0.12488727
334,3.0,right,right,1.0,4.417700001,0.0,34.0,34.0,34.0,1.0,2598726160-205998.jpg,2625337302-355866.jpg,A1C4TOGS0NS8K9,pilot_24_hours,0.31374305,0.30709344,0.23661417,0.14769979,0.1457408,0.35450298,0.39746064
335,1.0,left,left,1.0,2.6241,0.0,35.0,35.0,35.0,1.0,2883254439-140941.jpg,2989724308-73928.jpg,A1C4TOGS0NS8K9,pilot_24_hours,0.5314096,0.36307305,0.24539003,0.1621706,0.1198793,0.29482386,0.2830761
336,1.0,left,left,1.0,1.452,0.0,36.0,36.0,36.0,1.0,2575964140-205050.jpg,2238482920-168428.jpg,A1C4TOGS0NS8K9,pilot_24_hours,0.48217258,0.36454535,0.19429061,0.11500581,0.10924043,0.21501979,0.17829707
337,1.0,right,right,1.0,2.354699999,0.0,37.0,37.0,37.0,1.0,2238433340-164524.jpg,2964213381-294061.jpg,A1C4TOGS0NS8K9,pilot_24_hours,0.40370548,0.26199293,0.19974966,0.10820377,0.09436314,0.20766257,0.19068943
338,2.0,left,left,1.0,1.728200001,0.0,38.0,38.0,38.0,1.0,2898617468-68274.jpg,2238585512-336576.jpg,A1C4TOGS0NS8K9,pilot_24_hours,0.26965234,0.32668218,0.22122465,0.16338322,0.09618742,0.18083853,0.14817783
339,2.0,left,left,1.0,1.8759,0.0,39.0,39.0,39.0,1.0,2238129579-80916.jpg,2898618444-142233.jpg,A1C4TOGS0NS8K9,pilot_24_hours,0.31743658,0.3261902,0.26256773,0.26691085,0.22008708,0.17676915,0.17562969
340,3.0,left,left,1.0,4.139300001,0.0,40.0,40.0,40.0,1.0,2238550049-105691.jpg,2964219468-71238.jpg,A1C4TOGS0NS8K9,pilot_24_hours,0.3515072,0.3400462,0.23197325,0.14561646,0.14732508,0.34722954,0.37767243
341,1.0,right,right,1.0,2.970800001,0.0,41.0,41.0,41.0,1.0,2874316384-140749.jpg,2864909447-362146.jpg,A1C4TOGS0NS8K9,pilot_24_hours,0.4044628,0.3428597,0.2594657,0.13602942,0.06271384,0.14660306,0.072791725
342,3.0,right,right,1.0,3.164700001,0.0,42.0,42.0,42.0,1.0,2898618440-216545.jpg,2898626385-216899.jpg,A1C4TOGS0NS8K9,pilot_24_hours,0.35918316,0.342735,0.25117853,0.14836462,0.15878534,0.3272129,0.40771788
343,3.0,left,left,1.0,1.7881,0.0,43.0,43.0,43.0,1.0,2901941426-292805.jpg,2901945303-70125.jpg,A1C4TOGS0NS8K9,pilot_24_hours,0.36854064,0.2924684,0.21367696,0.15487064,0.27229917,0.32441938,0.41407865
344,1.0,right,right,1.0,1.9505,0.0,44.0,44.0,44.0,1.0,2237949408-4018.jpg,2883272438-68133.jpg,A1C4TOGS0NS8K9,pilot_24_hours,0.44570017,0.35941356,0.26945367,0.17155612,0.06630301,0.20539743,0.09356518
345,3.0,left,left,1.0,1.932200001,0.0,45.0,45.0,45.0,1.0,2512876023-52283.jpg,2238576267-334532.jpg,A1C4TOGS0NS8K9,pilot_24_hours,0.36667582,0.32949203,0.24366534,0.1652935,0.15580362,0.35672474,0.3527369
346,2.0,right,right,1.0,1.8801,0.0,46.0,46.0,46.0,1.0,2592380049-131077.jpg,2238375302-311538.jpg,A1C4TOGS0NS8K9,pilot_24_hours,0.31900045,0.26229,0.21270254,0.15550582,0.10436945,0.15471885,0.15166123
347,2.0,right,right,1.0,1.956599998,0.0,47.0,47.0,47.0,1.0,2575121890-204630.jpg,2883254439-140940.jpg,A1C4TOGS0NS8K9,pilot_24_hours,0.302787,0.33237693,0.2613997,0.17279522,0.09310601,0.25940925,0.12184409
348,2.0,left,left,1.0,2.776700001,0.0,48.0,48.0,48.0,1.0,2238575092-334269.jpg,2860304305-210777.jpg,A1C4TOGS0NS8K9,pilot_24_hours,0.42194977,0.40210843,0.3434655,0.35853982,0.2972185,0.29614875,0.3615738
349,3.0,left,left,1.0,2.570699999,0.0,49.0,49.0,49.0,1.0,2868475410-213219.jpg,2238436851-238821.jpg,A1C4TOGS0NS8K9,pilot_24_hours,0.2991732,0.2800154,0.2235462,0.14550053,0.15182039,0.3598194,0.47297004
350,2.0,right,left,0.0,2.821,0.0,50.0,50.0,50.0,1.0,2238345946-235007.jpg,2901934573-69337.jpg,A1C4TOGS0NS8K9,pilot_24_hours,0.29557958,0.275084,0.19792153,0.14649393,0.09066655,0.21115631,0.1996295
351,2.0,right,left,0.0,1.523,0.0,51.0,51.0,51.0,1.0,2449442529-124445.jpg,2331570830-189984.jpg,A1C4TOGS0NS8K9,pilot_24_hours,0.31678942,0.3272308,0.21633253,0.15377618,0.106605865,0.17691717,0.10630542
352,2.0,left,left,1.0,2.575699999,0.0,52.0,52.0,52.0,1.0,2898635427-367120.jpg,2237941457-301342.jpg,A1C4TOGS0NS8K9,pilot_24_hours,0.35691357,0.30959147,0.23748793,0.20920154,0.1133823,0.22680485,0.13709489
353,2.0,right,right,1.0,1.7215,0.0,53.0,53.0,53.0,1.0,2986455341-296758.jpg,2862691449-137104.jpg,A1C4TOGS0NS8K9,pilot_24_hours,0.40747947,0.3240772,0.22803429,0.14329463,0.10225295,0.15623593,0.068349
354,3.0,left,left,1.0,1.391900002,0.0,54.0,54.0,54.0,1.0,2238471391-240918.jpg,2986399339-146857.jpg,A1C4TOGS0NS8K9,pilot_24_hours,0.27068946,0.27949244,0.21374303,0.15675913,0.113788195,0.2405059,0.23036471
355,2.0,right,right,1.0,3.116599998,0.0,55.0,55.0,55.0,1.0,2238470979-92615.jpg,2986400320-221190.jpg,A1C4TOGS0NS8K9,pilot_24_hours,0.42150924,0.35738373,0.25371566,0.14559878,0.08850242,0.17278206,0.10133039
356,1.0,right,right,1.0,1.4615,0.0,56.0,56.0,56.0,1.0,2901934573-69336.jpg,2460547467-349421.jpg,A1C4TOGS0NS8K9,pilot_24_hours,0.4743195,0.32548413,0.24925873,0.14967118,0.07511208,0.19980064,0.1245887
357,2.0,right,left,0.0,1.8065,0.0,57.0,57.0,57.0,1.0,2868485399-139476.jpg,2883255450-215311.jpg,A1C4TOGS0NS8K9,pilot_24_hours,0.3480901,0.37148955,0.31916454,0.29955557,0.24536566,0.3815465,0.40050507
358,3.0,left,left,1.0,2.691300001,0.0,58.0,58.0,58.0,1.0,2446758985-197609.jpg,2984618344-146295.jpg,A1C4TOGS0NS8K9,pilot_24_hours,0.31798512,0.34565994,0.23667333,0.15913327,0.17024198,0.4137755,0.45701513
359,3.0,right,right,1.0,2.9659,0.0,59.0,59.0,59.0,1.0,2883271323-68049.jpg,2238561223-33794.jpg,A1C4TOGS0NS8K9,pilot_24_hours,0.33370516,0.35223866,0.24926654,0.15522537,0.1832255,0.35637364,0.3627914
360,3.0,left,left,1.0,3.8125,0.0,0.0,0.0,0.0,1.0,2238584869-113153.jpg,2986455373-73646.jpg,A1FJGB5JLZ81XB,pilot_24_hours,0.31297758,0.31809872,0.24675979,0.16095181,0.1664197,0.41340193,0.47941926
361,1.0,left,left,1.0,3.5768,0.0,1.0,1.0,1.0,1.0,2901934573-69337.jpg,2986401333-73218.jpg,A1FJGB5JLZ81XB,pilot_24_hours,0.38738668,0.30743137,0.20539655,0.100283735,0.08137866,0.19558698,0.13636512
362,2.0,right,right,1.0,1.7921,0.0,2.0,2.0,2.0,1.0,2237941457-301342.jpg,2898635427-367120.jpg,A1FJGB5JLZ81XB,pilot_24_hours,0.35691357,0.30959147,0.23748793,0.20920154,0.1133823,0.22680485,0.13709489
363,2.0,right,right,1.0,2.2187,0.0,3.0,3.0,3.0,1.0,2238478760-167789.jpg,2625337302-355866.jpg,A1FJGB5JLZ81XB,pilot_24_hours,0.35460815,0.346533,0.29101038,0.21982884,0.14153425,0.26771253,0.2289221
364,3.0,right,right,1.0,2.9836,0.0,4.0,4.0,4.0,1.0,2238373603-13733.jpg,2238499155-170911.jpg,A1FJGB5JLZ81XB,pilot_24_hours,0.3340723,0.33302116,0.22988743,0.15791692,0.1490195,0.30271912,0.37455055
365,1.0,right,right,1.0,2.7317,0.0,5.0,5.0,5.0,1.0,2460547477-349426.jpg,2238129579-80916.jpg,A1FJGB5JLZ81XB,pilot_24_hours,0.5761153,0.34457296,0.22767116,0.15816705,0.12293139,0.19182707,0.18375939
366,2.0,left,left,1.0,2.1078,0.0,6.0,6.0,6.0,1.0,2994405328-74628.jpg,2825702353-60662.jpg,A1FJGB5JLZ81XB,pilot_24_hours,0.4243706,0.35623288,0.22364776,0.16463007,0.06308987,0.18950747,0.1044181
367,2.0,right,right,1.0,2.2718,0.0,7.0,7.0,7.0,1.0,2446759580-197801.jpg,2986408352-371293.jpg,A1FJGB5JLZ81XB,pilot_24_hours,0.40418226,0.34020033,0.26585078,0.22360146,0.2126852,0.27810314,0.15453531
368,3.0,right,right,1.0,3.0933,0.0,8.0,8.0,8.0,1.0,2984618344-146295.jpg,2446758985-197609.jpg,A1FJGB5JLZ81XB,pilot_24_hours,0.31798512,0.34565994,0.23667333,0.15913327,0.17024198,0.4137755,0.45701513
369,3.0,left,left,1.0,1.9549,0.0,9.0,9.0,9.0,1.0,2964209380-218956.jpg,2898617396-291219.jpg,A1FJGB5JLZ81XB,pilot_24_hours,0.31388637,0.33204678,0.25619873,0.18618377,0.21419857,0.3956408,0.47680306
370,1.0,left,left,1.0,2.6102,0.0,10.0,10.0,10.0,1.0,2864909447-362146.jpg,2874316384-140749.jpg,A1FJGB5JLZ81XB,pilot_24_hours,0.4044628,0.3428597,0.2594657,0.13602942,0.06271384,0.14660306,0.072791725
371,1.0,right,right,1.0,2.3197,0.0,11.0,11.0,11.0,1.0,2989724308-73928.jpg,2883254439-140941.jpg,A1FJGB5JLZ81XB,pilot_24_hours,0.5314096,0.36307305,0.24539003,0.1621706,0.1198793,0.29482386,0.2830761
372,2.0,left,left,1.0,3.6784,0.0,12.0,12.0,12.0,1.0,2446760524-123999.jpg,2238552469-106359.jpg,A1FJGB5JLZ81XB,pilot_24_hours,0.3089218,0.3230599,0.24942684,0.20474748,0.1483926,0.167834,0.14118037
373,1.0,right,right,1.0,1.8564,0.0,13.0,13.0,13.0,1.0,2856919327-359676.jpg,2238126735-154721.jpg,A1FJGB5JLZ81XB,pilot_24_hours,0.4664125,0.39360818,0.26463348,0.14242677,0.11934235,0.17453347,0.17232908
374,3.0,left,left,1.0,1.5161,0.0,14.0,14.0,14.0,1.0,2964218374-144968.jpg,2238525773-27014.jpg,A1FJGB5JLZ81XB,pilot_24_hours,0.31025356,0.32571408,0.22546248,0.15128145,0.15338917,0.35618955,0.45221356
375,3.0,left,left,1.0,2.0507,0.0,15.0,15.0,15.0,1.0,2238375302-311538.jpg,2460547508-51571.jpg,A1FJGB5JLZ81XB,pilot_24_hours,0.24705386,0.23613794,0.21341173,0.1490605,0.18382554,0.343115,0.4488432
376,1.0,right,right,1.0,1.9479,0.0,16.0,16.0,16.0,1.0,2864908323-64106.jpg,2512876023-52283.jpg,A1FJGB5JLZ81XB,pilot_24_hours,0.5590991,0.41319773,0.2669807,0.14314245,0.0872989,0.24113582,0.2205433
377,1.0,left,left,1.0,2.8838,0.0,17.0,17.0,17.0,1.0,2964216465-219242.jpg,2592380049-131079.jpg,A1FJGB5JLZ81XB,pilot_24_hours,0.39023435,0.32042423,0.2234117,0.13068482,0.08141602,0.17134468,0.18704443
378,3.0,right,right,1.0,1.6895,0.0,18.0,18.0,18.0,1.0,2238380314-88261.jpg,2868485396-288511.jpg,A1FJGB5JLZ81XB,pilot_24_hours,0.28004867,0.31828037,0.24196663,0.14429817,0.1305821,0.37503555,0.4687688
379,3.0,right,right,1.0,4.4416,0.0,19.0,19.0,19.0,1.0,2898618440-216545.jpg,2898626385-216899.jpg,A1FJGB5JLZ81XB,pilot_24_hours,0.35918316,0.342735,0.25117853,0.14836462,0.15878534,0.3272129,0.40771788
380,3.0,right,right,1.0,2.4307,0.0,20.0,20.0,20.0,1.0,2237858043-1434.jpg,2898633480-217190.jpg,A1FJGB5JLZ81XB,pilot_24_hours,0.31712067,0.3232628,0.25342265,0.17336623,0.22365187,0.41992524,0.47910497
381,2.0,right,left,0.0,2.2217,0.0,21.0,21.0,21.0,1.0,2868485399-139476.jpg,2883255450-215311.jpg,A1FJGB5JLZ81XB,pilot_24_hours,0.3480901,0.37148955,0.31916454,0.29955557,0.24536566,0.3815465,0.40050507
382,2.0,right,right,1.0,2.752,0.0,22.0,22.0,22.0,1.0,2901936369-143233.jpg,2883272438-68133.jpg,A1FJGB5JLZ81XB,pilot_24_hours,0.3302181,0.32111344,0.24912237,0.18834953,0.116073586,0.2222739,0.14720194
383,1.0,right,right,1.0,2.0952,0.0,23.0,23.0,23.0,1.0,2986397365-221133.jpg,2864906345-212360.jpg,A1FJGB5JLZ81XB,pilot_24_hours,0.4451475,0.37965855,0.252699,0.12303681,0.060855567,0.15152828,0.08421643
384,2.0,right,right,1.0,1.5069,0.0,24.0,24.0,24.0,1.0,2446760226-272006.jpg,2579432576-279079.jpg,A1FJGB5JLZ81XB,pilot_24_hours,0.31084266,0.3441389,0.2727468,0.22629432,0.1681439,0.28038946,0.23063093
385,2.0,left,left,1.0,2.3093,0.0,25.0,25.0,25.0,1.0,2883254439-140940.jpg,2575121890-204630.jpg,A1FJGB5JLZ81XB,pilot_24_hours,0.302787,0.33237693,0.2613997,0.17279522,0.09310601,0.25940925,0.12184409
386,1.0,right,right,1.0,1.6224,0.0,26.0,26.0,26.0,1.0,2868470400-212889.jpg,2238471391-240918.jpg,A1FJGB5JLZ81XB,pilot_24_hours,0.47667378,0.3364348,0.20209776,0.0870446,0.057772476,0.14205296,0.09701835
387,2.0,left,left,1.0,2.108,0.0,27.0,27.0,27.0,1.0,2460547467-349421.jpg,2238470079-92499.jpg,A1FJGB5JLZ81XB,pilot_24_hours,0.33233327,0.33112508,0.25407332,0.15361314,0.0913698,0.14554864,0.07424046
388,1.0,left,left,1.0,1.8386,0.0,28.0,28.0,28.0,1.0,2592380138-56727.jpg,2986419351-296471.jpg,A1FJGB5JLZ81XB,pilot_24_hours,0.46054566,0.37004048,0.23391384,0.11330234,0.06780545,0.21505636,0.16523293
389,3.0,left,left,1.0,1.2419,0.0,29.0,29.0,29.0,1.0,2238584018-38513.jpg,2452381442-348755.jpg,A1FJGB5JLZ81XB,pilot_24_hours,0.26039526,0.28949594,0.20563807,0.14346804,0.10809358,0.37909612,0.38188928
390,3.0,right,right,1.0,1.8892,0.0,30.0,30.0,30.0,1.0,2864904453-63932.jpg,2898632385-217137.jpg,A1FJGB5JLZ81XB,pilot_24_hours,0.27244273,0.3007648,0.21394722,0.14565074,0.19594023,0.43483174,0.4611801
391,1.0,right,right,1.0,2.0262,0.0,31.0,31.0,31.0,1.0,2575120738-55529.jpg,2898632385-217138.jpg,A1FJGB5JLZ81XB,pilot_24_hours,0.5639598,0.3402834,0.25403792,0.19583048,0.23839176,0.3934025,0.46560585
392,2.0,left,left,1.0,1.2407,0.0,32.0,32.0,32.0,1.0,2964213381-294061.jpg,2981234334-145491.jpg,A1FJGB5JLZ81XB,pilot_24_hours,0.26996055,0.22882977,0.19355488,0.14240453,0.08652604,0.21422824,0.14907101
393,1.0,right,right,1.0,3.5113,0.0,33.0,33.0,33.0,1.0,2898631359-142720.jpg,2964213381-294060.jpg,A1FJGB5JLZ81XB,pilot_24_hours,0.38301757,0.23589788,0.1527817,0.07503883,0.08113245,0.15108076,0.14740919
394,1.0,left,left,1.0,3.1615,0.0,34.0,34.0,34.0,1.0,2981231446-294731.jpg,2986450330-221526.jpg,A1FJGB5JLZ81XB,pilot_24_hours,0.39533114,0.32558495,0.23161195,0.14196096,0.10091646,0.19270413,0.13340037
395,2.0,right,right,1.0,3.3919,0.0,35.0,35.0,35.0,1.0,2592380177-354626.jpg,2238561223-33794.jpg,A1FJGB5JLZ81XB,pilot_24_hours,0.32021108,0.3479251,0.22706166,0.14362559,0.08871445,0.18310118,0.12582922
396,1.0,left,right,0.0,2.0986,0.0,36.0,36.0,36.0,1.0,2238521193-26286.jpg,2825712309-134957.jpg,A1FJGB5JLZ81XB,pilot_24_hours,0.5222137,0.41726744,0.27024394,0.1322952,0.064563535,0.124206915,0.12006892
397,3.0,left,left,1.0,1.8393,0.0,37.0,37.0,37.0,1.0,2331570830-189984.jpg,2458348012-349114.jpg,A1FJGB5JLZ81XB,pilot_24_hours,0.29594696,0.2533724,0.18092698,0.14469998,0.119993284,0.26003626,0.1888824
398,2.0,right,right,1.0,3.175,0.0,38.0,38.0,38.0,1.0,2592380234-131135.jpg,2238496457-319749.jpg,A1FJGB5JLZ81XB,pilot_24_hours,0.32511356,0.30925903,0.23221867,0.15815726,0.11003423,0.22559501,0.15404871
399,3.0,right,right,1.0,3.3071,0.0,39.0,39.0,39.0,1.0,2964218374-144967.jpg,2238575092-334269.jpg,A1FJGB5JLZ81XB,pilot_24_hours,0.3661971,0.3274746,0.21920173,0.18649317,0.22771029,0.34543207,0.42861867
400,3.0,left,left,1.0,3.6966,0.0,40.0,40.0,40.0,1.0,2274829821-263682.jpg,2862687442-360837.jpg,A1FJGB5JLZ81XB,pilot_24_hours,0.2922676,0.2731102,0.20256752,0.16258444,0.20173846,0.3711989,0.33181265
401,1.0,right,right,1.0,1.5146,0.0,41.0,41.0,41.0,1.0,2452380171-273112.jpg,2452380166-273109.jpg,A1FJGB5JLZ81XB,pilot_24_hours,0.75012785,0.39150938,0.272213,0.23516478,0.20961566,0.444914,0.47867903
402,2.0,right,left,0.0,2.199,0.0,42.0,42.0,42.0,1.0,2238510189-98616.jpg,2901941426-292805.jpg,A1FJGB5JLZ81XB,pilot_24_hours,0.3752859,0.33592662,0.24120426,0.215474,0.23166406,0.2693015,0.23033628
403,3.0,right,right,1.0,2.2045,0.0,43.0,43.0,43.0,1.0,2964219468-71238.jpg,2238550049-105691.jpg,A1FJGB5JLZ81XB,pilot_24_hours,0.3515072,0.3400462,0.23197325,0.14561646,0.14732508,0.34722954,0.37767243
404,1.0,right,right,1.0,2.1619,0.0,44.0,44.0,44.0,1.0,2986450334-147215.jpg,2901939379-143479.jpg,A1FJGB5JLZ81XB,pilot_24_hours,0.4630127,0.34697786,0.23998168,0.17007715,0.11958921,0.2579222,0.18294598
405,1.0,left,left,1.0,2.8994,0.0,45.0,45.0,45.0,1.0,2901938432-367627.jpg,2579432708-56394.jpg,A1FJGB5JLZ81XB,pilot_24_hours,0.52924746,0.34956065,0.23690203,0.17881735,0.107455224,0.25101942,0.2640147
406,2.0,left,right,0.0,2.5959,0.0,46.0,46.0,46.0,1.0,2964224310-219527.jpg,2964213441-294073.jpg,A1FJGB5JLZ81XB,pilot_24_hours,0.46034423,0.3816157,0.27283522,0.19975938,0.13305978,0.17242219,0.1657409
407,1.0,right,right,1.0,2.0483,0.0,47.0,47.0,47.0,1.0,2592380177-354629.jpg,2446759803-49249.jpg,A1FJGB5JLZ81XB,pilot_24_hours,0.6109863,0.37322015,0.26128942,0.2009064,0.16047344,0.29054978,0.30657643
408,3.0,right,right,1.0,2.2537,0.0,48.0,48.0,48.0,1.0,2446760692-347392.jpg,2446760940-198145.jpg,A1FJGB5JLZ81XB,pilot_24_hours,0.26612943,0.29178837,0.24343349,0.14910349,0.23485276,0.41458067,0.47591442
409,3.0,right,right,1.0,2.4282,0.0,49.0,49.0,49.0,1.0,2446760226-272005.jpg,2575964140-205050.jpg,A1FJGB5JLZ81XB,pilot_24_hours,0.33729175,0.33787432,0.25154126,0.18734649,0.19078736,0.33439663,0.40437984
410,3.0,right,right,1.0,2.0973,0.0,50.0,50.0,50.0,1.0,2238328478-11678.jpg,2862691449-137104.jpg,A1FJGB5JLZ81XB,pilot_24_hours,0.36767977,0.3426417,0.24200304,0.14279757,0.16467124,0.39299294,0.47483164
411,2.0,left,left,1.0,2.4314,0.0,51.0,51.0,51.0,1.0,2868475410-213219.jpg,2575964140-205051.jpg,A1FJGB5JLZ81XB,pilot_24_hours,0.3925159,0.35779077,0.31225294,0.3192761,0.23367733,0.27952403,0.34475544
412,2.0,right,right,1.0,2.1927,0.0,52.0,52.0,52.0,1.0,2868476439-138927.jpg,2883255450-215309.jpg,A1FJGB5JLZ81XB,pilot_24_hours,0.29852188,0.31273416,0.23042811,0.16144267,0.09186735,0.18564348,0.17272455
413,2.0,left,left,1.0,1.5652,0.0,53.0,53.0,53.0,1.0,2898624426-291546.jpg,2549106844-127878.jpg,A1FJGB5JLZ81XB,pilot_24_hours,0.26257366,0.3248858,0.21998724,0.14956693,0.11572851,0.24024555,0.20294277
414,1.0,left,left,1.0,1.7789,0.0,54.0,54.0,54.0,1.0,2898617468-68274.jpg,2512875899-126682.jpg,A1FJGB5JLZ81XB,pilot_24_hours,0.5249055,0.3206202,0.21088545,0.1333882,0.12607074,0.20905584,0.21350141
415,1.0,right,right,1.0,3.0769,0.0,55.0,55.0,55.0,1.0,2238573549-110485.jpg,2238516618-25604.jpg,A1FJGB5JLZ81XB,pilot_24_hours,0.49884462,0.4043614,0.2359574,0.12278469,0.11772836,0.13660277,0.1270015
416,3.0,left,left,1.0,2.9136,0.0,56.0,56.0,56.0,1.0,2986400320-221190.jpg,2238538133-29662.jpg,A1FJGB5JLZ81XB,pilot_24_hours,0.33736572,0.284637,0.21064721,0.17542246,0.2520948,0.41156995,0.33431122
417,2.0,right,right,1.0,1.677,0.0,57.0,57.0,57.0,1.0,2868469458-64561.jpg,2449442529-124446.jpg,A1FJGB5JLZ81XB,pilot_24_hours,0.40431896,0.35704,0.27167544,0.23042862,0.16038002,0.20828697,0.17324853
418,2.0,left,left,1.0,1.8385,0.0,58.0,58.0,58.0,1.0,2238480434-93829.jpg,2592380255-205551.jpg,A1FJGB5JLZ81XB,pilot_24_hours,0.3839254,0.29685736,0.21725695,0.15408884,0.08308763,0.17321397,0.09206139
419,3.0,right,left,0.0,2.4265,0.0,59.0,59.0,59.0,1.0,2964222378-71332.jpg,2238429999-90218.jpg,A1FJGB5JLZ81XB,pilot_24_hours,0.3795617,0.33195207,0.2365827,0.14056121,0.13223155,0.30626556,0.32499933
420,3.0,right,left,0.0,2.008,0.0,0.0,0.0,0.0,1.0,2989721347-371917.jpg,2964213381-294061.jpg,A1O7XFRTZ46PN5,pilot_24_hours,0.24393013,0.25191373,0.206694,0.15142342,0.19974308,0.3472538,0.43095496
421,1.0,right,left,0.0,3.426,0.0,1.0,1.0,1.0,1.0,2989724308-73928.jpg,2883254439-140941.jpg,A1O7XFRTZ46PN5,pilot_24_hours,0.5314096,0.36307305,0.24539003,0.1621706,0.1198793,0.29482386,0.2830761
422,3.0,left,right,0.0,1.442,0.0,2.0,2.0,2.0,1.0,2238584869-113153.jpg,2986455373-73646.jpg,A1O7XFRTZ46PN5,pilot_24_hours,0.31297758,0.31809872,0.24675979,0.16095181,0.1664197,0.41340193,0.47941926
423,3.0,left,left,1.0,1.104,0.0,3.0,3.0,3.0,1.0,2238471391-240918.jpg,2986399339-146857.jpg,A1O7XFRTZ46PN5,pilot_24_hours,0.27068946,0.27949244,0.21374303,0.15675913,0.113788195,0.2405059,0.23036471
424,2.0,right,left,0.0,1.659,0.0,4.0,4.0,4.0,1.0,2592380177-354626.jpg,2238561223-33794.jpg,A1O7XFRTZ46PN5,pilot_24_hours,0.32021108,0.3479251,0.22706166,0.14362559,0.08871445,0.18310118,0.12582922
425,1.0,right,right,1.0,1.186,0.0,5.0,5.0,5.0,1.0,2238481610-168214.jpg,2449442529-124446.jpg,A1O7XFRTZ46PN5,pilot_24_hours,0.4785815,0.33074775,0.22479819,0.13900007,0.09203736,0.18333405,0.18588386
426,3.0,right,right,1.0,1.297,0.0,6.0,6.0,6.0,1.0,2238328478-11678.jpg,2862691449-137104.jpg,A1O7XFRTZ46PN5,pilot_24_hours,0.36767977,0.3426417,0.24200304,0.14279757,0.16467124,0.39299294,0.47483164
427,2.0,left,left,1.0,1.093,0.0,7.0,7.0,7.0,1.0,2238375302-311538.jpg,2592380049-131077.jpg,A1O7XFRTZ46PN5,pilot_24_hours,0.31900045,0.26229,0.21270254,0.15550582,0.10436945,0.15471885,0.15166123
428,2.0,left,right,0.0,1.169,0.0,8.0,8.0,8.0,1.0,2986400320-221190.jpg,2238470979-92615.jpg,A1O7XFRTZ46PN5,pilot_24_hours,0.42150924,0.35738373,0.25371566,0.14559878,0.08850242,0.17278206,0.10133039
429,3.0,left,left,1.0,1.185,0.0,9.0,9.0,9.0,1.0,2579432576-279079.jpg,2458348144-125787.jpg,A1O7XFRTZ46PN5,pilot_24_hours,0.30523363,0.30783203,0.23841257,0.17293367,0.12678708,0.40917727,0.41916132
430,1.0,left,right,0.0,1.503,0.0,10.0,10.0,10.0,1.0,2898632385-217138.jpg,2575120738-55529.jpg,A1O7XFRTZ46PN5,pilot_24_hours,0.5639598,0.3402834,0.25403792,0.19583048,0.23839176,0.3934025,0.46560585
431,1.0,right,right,1.0,1.191,0.0,11.0,11.0,11.0,1.0,2868488422-363713.jpg,2986408352-371293.jpg,A1O7XFRTZ46PN5,pilot_24_hours,0.5112164,0.43097124,0.25315034,0.1422687,0.08862453,0.21023029,0.13950233
432,2.0,left,left,1.0,1.179,0.0,12.0,12.0,12.0,1.0,2964216465-219242.jpg,2512875796-274856.jpg,A1O7XFRTZ46PN5,pilot_24_hours,0.3356087,0.29077962,0.22294627,0.15261614,0.08791806,0.15000099,0.15925962
433,2.0,right,right,1.0,1.003,0.0,13.0,13.0,13.0,1.0,2238480803-19739.jpg,2898632385-217137.jpg,A1O7XFRTZ46PN5,pilot_24_hours,0.37733212,0.37367064,0.33790275,0.36829898,0.35403305,0.4598726,0.40648404
434,2.0,left,right,0.0,1.11,0.0,14.0,14.0,14.0,1.0,2625337302-355866.jpg,2238478760-167789.jpg,A1O7XFRTZ46PN5,pilot_24_hours,0.35460815,0.346533,0.29101038,0.21982884,0.14153425,0.26771253,0.2289221
435,2.0,left,left,1.0,0.826,0.0,15.0,15.0,15.0,1.0,2883255450-215311.jpg,2868485399-139476.jpg,A1O7XFRTZ46PN5,pilot_24_hours,0.3480901,0.37148955,0.31916454,0.29955557,0.24536566,0.3815465,0.40050507
436,1.0,left,right,0.0,1.062,0.0,16.0,16.0,16.0,1.0,2868485396-288511.jpg,2868470456-287597.jpg,A1O7XFRTZ46PN5,pilot_24_hours,0.417615,0.3119249,0.20560846,0.11747707,0.099348865,0.22590134,0.2297621
437,3.0,left,left,1.0,0.676,0.0,17.0,17.0,17.0,1.0,2864909447-362146.jpg,2874303453-66056.jpg,A1O7XFRTZ46PN5,pilot_24_hours,0.31959572,0.31706437,0.23701133,0.17674902,0.23878618,0.4514477,0.45315826
438,1.0,left,right,0.0,1.513,0.0,18.0,18.0,18.0,1.0,2575964140-205050.jpg,2238482920-168428.jpg,A1O7XFRTZ46PN5,pilot_24_hours,0.48217258,0.36454535,0.19429061,0.11500581,0.10924043,0.21501979,0.17829707
439,2.0,right,right,1.0,0.783,0.0,19.0,19.0,19.0,1.0,2449443292-348022.jpg,2901939379-143479.jpg,A1O7XFRTZ46PN5,pilot_24_hours,0.31333137,0.32723096,0.22934283,0.1543935,0.087466784,0.1310264,0.13766873
440,2.0,left,right,0.0,1.085,0.0,20.0,20.0,20.0,1.0,2964224310-219527.jpg,2964213441-294073.jpg,A1O7XFRTZ46PN5,pilot_24_hours,0.46034423,0.3816157,0.27283522,0.19975938,0.13305978,0.17242219,0.1657409
441,2.0,right,left,0.0,1.568,0.0,21.0,21.0,21.0,1.0,2446758985-197610.jpg,2274829821-263682.jpg,A1O7XFRTZ46PN5,pilot_24_hours,0.30499113,0.313028,0.21953526,0.14475143,0.13665628,0.22398743,0.20534874
442,3.0,right,right,1.0,1.241,0.0,22.0,22.0,22.0,1.0,2994403305-222559.jpg,2864906345-212360.jpg,A1O7XFRTZ46PN5,pilot_24_hours,0.3196521,0.34907302,0.24485254,0.15133701,0.12168309,0.3396057,0.37176284
443,1.0,right,right,1.0,1.012,0.0,23.0,23.0,23.0,1.0,2898633421-291973.jpg,2446758985-197609.jpg,A1O7XFRTZ46PN5,pilot_24_hours,0.5579947,0.3543023,0.21951197,0.11676287,0.09287247,0.17682074,0.14729133
444,3.0,right,right,1.0,1.547,0.0,24.0,24.0,24.0,1.0,2883273443-68192.jpg,2994405328-74628.jpg,A1O7XFRTZ46PN5,pilot_24_hours,0.34804448,0.3013018,0.20080294,0.14024596,0.1128016,0.30968478,0.36260268
445,3.0,right,left,0.0,1.87,0.0,25.0,25.0,25.0,1.0,2238161924-82646.jpg,2238129579-80916.jpg,A1O7XFRTZ46PN5,pilot_24_hours,0.3073202,0.33130622,0.24299899,0.17230347,0.23010255,0.3389266,0.38690913
446,2.0,right,left,0.0,1.135,0.0,26.0,26.0,26.0,1.0,2430664847-345753.jpg,2592380138-56727.jpg,A1O7XFRTZ46PN5,pilot_24_hours,0.38168284,0.34952417,0.29910022,0.25173178,0.12648837,0.22809352,0.17082538
447,2.0,right,right,1.0,1.898,0.0,27.0,27.0,27.0,1.0,2449442365-198476.jpg,2898626385-216899.jpg,A1O7XFRTZ46PN5,pilot_24_hours,0.3731326,0.34398237,0.25237963,0.15251409,0.11101224,0.15835525,0.13039324
448,1.0,right,right,1.0,1.467,0.0,28.0,28.0,28.0,1.0,2446760147-347245.jpg,2898633480-217190.jpg,A1O7XFRTZ46PN5,pilot_24_hours,0.401844,0.31508884,0.21657626,0.15563214,0.09162798,0.24119,0.15777855
449,2.0,left,left,1.0,1.144,0.0,29.0,29.0,29.0,1.0,2964218374-144968.jpg,2238521157-323782.jpg,A1O7XFRTZ46PN5,pilot_24_hours,0.34119523,0.35228813,0.2665745,0.20896505,0.120526426,0.17296852,0.19319427
450,3.0,right,right,1.0,1.385,0.0,30.0,30.0,30.0,1.0,2238554179-106663.jpg,2460547467-349421.jpg,A1O7XFRTZ46PN5,pilot_24_hours,0.26533198,0.31470224,0.24480726,0.16084567,0.18932115,0.3873429,0.4559279
451,1.0,right,right,1.0,0.985,0.0,31.0,31.0,31.0,1.0,2238429999-90216.jpg,2883255450-215309.jpg,A1O7XFRTZ46PN5,pilot_24_hours,0.532993,0.33541533,0.23490979,0.1442822,0.14110518,0.32234943,0.32952595
452,1.0,left,left,1.0,1.4,0.0,32.0,32.0,32.0,1.0,2898624426-291546.jpg,2986402377-371266.jpg,A1O7XFRTZ46PN5,pilot_24_hours,0.43547595,0.33835298,0.21718264,0.129932,0.09877238,0.1568951,0.12488727
453,3.0,left,left,1.0,2.168,0.0,33.0,33.0,33.0,1.0,2901941426-292805.jpg,2901945303-70125.jpg,A1O7XFRTZ46PN5,pilot_24_hours,0.36854064,0.2924684,0.21367696,0.15487064,0.27229917,0.32441938,0.41407865
454,1.0,left,right,0.0,1.939,0.0,34.0,34.0,34.0,1.0,2964213381-294060.jpg,2898631359-142720.jpg,A1O7XFRTZ46PN5,pilot_24_hours,0.38301757,0.23589788,0.1527817,0.07503883,0.08113245,0.15108076,0.14740919
455,2.0,left,left,1.0,1.409,0.0,35.0,35.0,35.0,1.0,2898635427-367120.jpg,2237941457-301342.jpg,A1O7XFRTZ46PN5,pilot_24_hours,0.35691357,0.30959147,0.23748793,0.20920154,0.1133823,0.22680485,0.13709489
456,1.0,right,left,0.0,1.412,0.0,36.0,36.0,36.0,1.0,2238482972-317759.jpg,2238550049-105691.jpg,A1O7XFRTZ46PN5,pilot_24_hours,0.5102766,0.39227292,0.22878721,0.13969229,0.12639695,0.1810901,0.1493936
457,3.0,right,right,1.0,1.225,0.0,37.0,37.0,37.0,1.0,2238498786-244797.jpg,2446759803-49249.jpg,A1O7XFRTZ46PN5,pilot_24_hours,0.24973479,0.3615281,0.23668213,0.1581866,0.13646886,0.37617946,0.4630595
458,1.0,left,right,0.0,1.312,0.0,38.0,38.0,38.0,1.0,2452380166-273109.jpg,2452380171-273112.jpg,A1O7XFRTZ46PN5,pilot_24_hours,0.75012785,0.39150938,0.272213,0.23516478,0.20961566,0.444914,0.47867903
459,3.0,right,left,0.0,2.095,0.0,39.0,39.0,39.0,1.0,2238470979-92618.jpg,2238516618-25604.jpg,A1O7XFRTZ46PN5,pilot_24_hours,0.34304777,0.31676227,0.22127812,0.14646259,0.19318965,0.40266585,0.47644082
460,2.0,left,left,1.0,1.958,0.0,40.0,40.0,40.0,1.0,2898617468-68274.jpg,2238585512-336576.jpg,A1O7XFRTZ46PN5,pilot_24_hours,0.26965234,0.32668218,0.22122465,0.16338322,0.09618742,0.18083853,0.14817783
461,2.0,left,left,1.0,1.66,0.0,41.0,41.0,41.0,1.0,2238496457-319749.jpg,2592380234-131135.jpg,A1O7XFRTZ46PN5,pilot_24_hours,0.32511356,0.30925903,0.23221867,0.15815726,0.11003423,0.22559501,0.15404871
462,2.0,left,left,1.0,1.894,0.0,42.0,42.0,42.0,1.0,2238499155-170911.jpg,2452380832-348593.jpg,A1O7XFRTZ46PN5,pilot_24_hours,0.32653862,0.35121658,0.23237893,0.15419199,0.10304267,0.18862517,0.13828656
463,1.0,right,left,0.0,2.868,0.0,43.0,43.0,43.0,1.0,2449443300-198739.jpg,2446760940-198145.jpg,A1O7XFRTZ46PN5,pilot_24_hours,0.5343318,0.36858132,0.2612735,0.20441175,0.10212794,0.25091743,0.18629892
464,3.0,left,left,1.0,1.452,0.0,44.0,44.0,44.0,1.0,2238429999-90218.jpg,2964222378-71332.jpg,A1O7XFRTZ46PN5,pilot_24_hours,0.3795617,0.33195207,0.2365827,0.14056121,0.13223155,0.30626556,0.32499933
465,1.0,right,right,1.0,1.29,0.0,45.0,45.0,45.0,1.0,2238216693-10721.jpg,2868475410-213219.jpg,A1O7XFRTZ46PN5,pilot_24_hours,0.37922972,0.33410308,0.240206,0.13248356,0.05559561,0.18673739,0.14141212
466,1.0,left,left,1.0,1.453,0.0,46.0,46.0,46.0,1.0,2964209380-218956.jpg,2868488456-288710.jpg,A1O7XFRTZ46PN5,pilot_24_hours,0.456467,0.34459835,0.23194402,0.12546536,0.09308236,0.158905,0.19139077
467,2.0,right,right,1.0,1.483,0.0,47.0,47.0,47.0,1.0,2238345946-235007.jpg,2901934573-69337.jpg,A1O7XFRTZ46PN5,pilot_24_hours,0.29557958,0.275084,0.19792153,0.14649393,0.09066655,0.21115631,0.1996295
468,3.0,right,right,1.0,1.437,0.0,48.0,48.0,48.0,1.0,2424122568-45517.jpg,2901938432-367627.jpg,A1O7XFRTZ46PN5,pilot_24_hours,0.29698327,0.31735566,0.24400364,0.1772435,0.17652404,0.39610434,0.45669812
469,3.0,right,left,0.0,1.492,0.0,49.0,49.0,49.0,1.0,2458348012-349114.jpg,2331570830-189984.jpg,A1O7XFRTZ46PN5,pilot_24_hours,0.29594696,0.2533724,0.18092698,0.14469998,0.119993284,0.26003626,0.1888824
470,3.0,left,left,1.0,1.434,0.0,50.0,50.0,50.0,1.0,2883272438-68133.jpg,2592380136-279476.jpg,A1O7XFRTZ46PN5,pilot_24_hours,0.31263468,0.30688712,0.24193086,0.16068009,0.105715126,0.39325702,0.4408119
471,1.0,left,left,1.0,1.057,0.0,51.0,51.0,51.0,1.0,2981231446-294731.jpg,2986450330-221526.jpg,A1O7XFRTZ46PN5,pilot_24_hours,0.39533114,0.32558495,0.23161195,0.14196096,0.10091646,0.19270413,0.13340037
472,2.0,right,right,1.0,1.601,0.0,52.0,52.0,52.0,1.0,2238552469-106359.jpg,2446760524-123999.jpg,A1O7XFRTZ46PN5,pilot_24_hours,0.3089218,0.3230599,0.24942684,0.20474748,0.1483926,0.167834,0.14118037
473,3.0,left,right,0.0,1.406,0.0,53.0,53.0,53.0,1.0,2238126735-154721.jpg,2901951430-218724.jpg,A1O7XFRTZ46PN5,pilot_24_hours,0.3033925,0.31921074,0.23528793,0.14443031,0.17073512,0.35031363,0.46681494
474,3.0,left,left,1.0,1.325,0.0,54.0,54.0,54.0,1.0,2238584018-38513.jpg,2452381442-348755.jpg,A1O7XFRTZ46PN5,pilot_24_hours,0.26039526,0.28949594,0.20563807,0.14346804,0.10809358,0.37909612,0.38188928
475,1.0,right,left,0.0,1.341,0.0,55.0,55.0,55.0,1.0,2864908323-64106.jpg,2512876023-52283.jpg,A1O7XFRTZ46PN5,pilot_24_hours,0.5590991,0.41319773,0.2669807,0.14314245,0.0872989,0.24113582,0.2205433
476,2.0,right,left,0.0,1.097,0.0,56.0,56.0,56.0,1.0,2874301437-363905.jpg,2238521193-26286.jpg,A1O7XFRTZ46PN5,pilot_24_hours,0.32280988,0.30151463,0.23563439,0.16889897,0.13111599,0.18523662,0.14842017
477,1.0,left,left,1.0,1.23,0.0,57.0,57.0,57.0,1.0,2238480434-93829.jpg,2804906319-133082.jpg,A1O7XFRTZ46PN5,pilot_24_hours,0.51561254,0.38049287,0.21146114,0.09205678,0.08155852,0.178649,0.14489178
478,3.0,right,left,0.0,1.292,0.0,58.0,58.0,58.0,1.0,2964218374-144967.jpg,2238575092-334269.jpg,A1O7XFRTZ46PN5,pilot_24_hours,0.3661971,0.3274746,0.21920173,0.18649317,0.22771029,0.34543207,0.42861867
479,1.0,left,left,1.0,1.089,0.0,59.0,59.0,59.0,1.0,2883254439-140940.jpg,2452380166-273110.jpg,A1O7XFRTZ46PN5,pilot_24_hours,0.52784115,0.34596097,0.24716364,0.17175348,0.12226688,0.31752273,0.26190567
540,2.0,left,left,1.0,3.0257,0.0,0.0,0.0,0.0,1.0,2898633480-217190.jpg,2986450334-147216.jpg,A1OZPLHNIU1519,pilot_24_hours,0.36065188,0.3510691,0.25097817,0.18711598,0.075358994,0.21282814,0.12845029
541,3.0,right,right,1.0,1.2559,0.0,1.0,1.0,1.0,1.0,2989721347-371917.jpg,2964213381-294061.jpg,A1OZPLHNIU1519,pilot_24_hours,0.24393013,0.25191373,0.206694,0.15142342,0.19974308,0.3472538,0.43095496
542,1.0,right,right,1.0,4.5572,0.0,2.0,2.0,2.0,1.0,2238570526-257884.jpg,2274829821-263682.jpg,A1OZPLHNIU1519,pilot_24_hours,0.50656027,0.41411665,0.25535145,0.12128986,0.09929722,0.10096954,0.086663626
543,1.0,left,left,1.0,2.4696,0.0,3.0,3.0,3.0,1.0,2883255450-215309.jpg,2238429999-90216.jpg,A1OZPLHNIU1519,pilot_24_hours,0.532993,0.33541533,0.23490979,0.1442822,0.14110518,0.32234943,0.32952595
544,1.0,left,left,1.0,1.6181,0.0,4.0,4.0,4.0,1.0,2883254439-140941.jpg,2989724308-73928.jpg,A1OZPLHNIU1519,pilot_24_hours,0.5314096,0.36307305,0.24539003,0.1621706,0.1198793,0.29482386,0.2830761
545,3.0,left,right,0.0,3.2712,0.0,5.0,5.0,5.0,1.0,2238471391-240918.jpg,2986399339-146857.jpg,A1OZPLHNIU1519,pilot_24_hours,0.27068946,0.27949244,0.21374303,0.15675913,0.113788195,0.2405059,0.23036471
546,3.0,left,left,1.0,1.2849,0.0,6.0,6.0,6.0,1.0,2981231446-294731.jpg,2417207297-342139.jpg,A1OZPLHNIU1519,pilot_24_hours,0.31571046,0.3135265,0.24269943,0.16856322,0.25787663,0.4136047,0.4673031
547,1.0,right,right,1.0,2.2551,0.0,7.0,7.0,7.0,1.0,2989727350-222011.jpg,2986400320-221190.jpg,A1OZPLHNIU1519,pilot_24_hours,0.511346,0.39407682,0.21966946,0.12616548,0.10871637,0.17165594,0.095818885
548,2.0,left,left,1.0,1.5556,0.0,8.0,8.0,8.0,1.0,2238584869-113153.jpg,2981241419-145844.jpg,A1OZPLHNIU1519,pilot_24_hours,0.3216093,0.3363846,0.26486647,0.21386726,0.14191724,0.281348,0.22522415
549,2.0,right,right,1.0,1.4752,0.0,9.0,9.0,9.0,1.0,2898633321-291943.jpg,2238584018-38513.jpg,A1OZPLHNIU1519,pilot_24_hours,0.34084257,0.3547991,0.29044953,0.25740162,0.1502739,0.32602564,0.24610053
550,2.0,right,right,1.0,2.1752,0.0,10.0,10.0,10.0,1.0,2592380255-205551.jpg,2238480434-93829.jpg,A1OZPLHNIU1519,pilot_24_hours,0.3839254,0.29685736,0.21725695,0.15408884,0.08308763,0.17321397,0.09206139
551,2.0,left,left,1.0,4.2716,0.0,11.0,11.0,11.0,1.0,2331570830-189984.jpg,2449442529-124445.jpg,A1OZPLHNIU1519,pilot_24_hours,0.31678942,0.3272308,0.21633253,0.15377618,0.106605865,0.17691717,0.10630542
552,1.0,right,right,1.0,3.0919,0.0,12.0,12.0,12.0,1.0,2868488456-288710.jpg,2964209380-218956.jpg,A1OZPLHNIU1519,pilot_24_hours,0.456467,0.34459835,0.23194402,0.12546536,0.09308236,0.158905,0.19139077
553,2.0,right,right,1.0,1.8374,0.0,13.0,13.0,13.0,1.0,2237941457-301342.jpg,2898635427-367120.jpg,A1OZPLHNIU1519,pilot_24_hours,0.35691357,0.30959147,0.23748793,0.20920154,0.1133823,0.22680485,0.13709489
554,2.0,right,right,1.0,2.4112,0.0,14.0,14.0,14.0,1.0,2238552469-106359.jpg,2446760524-123999.jpg,A1OZPLHNIU1519,pilot_24_hours,0.3089218,0.3230599,0.24942684,0.20474748,0.1483926,0.167834,0.14118037
555,2.0,right,left,0.0,1.9135,0.0,15.0,15.0,15.0,1.0,2592379781-279345.jpg,2452380166-273109.jpg,A1OZPLHNIU1519,pilot_24_hours,0.29143566,0.31444487,0.23212524,0.17037818,0.10632919,0.15362506,0.1621678
556,3.0,left,right,0.0,3.2365,0.0,16.0,16.0,16.0,1.0,2238496457-319749.jpg,2460547467-349422.jpg,A1OZPLHNIU1519,pilot_24_hours,0.18729074,0.3172406,0.21510226,0.14293809,0.11073542,0.2905059,0.2723532
557,1.0,right,left,0.0,3.5457,0.0,17.0,17.0,17.0,1.0,2460547477-349426.jpg,2238129579-80916.jpg,A1OZPLHNIU1519,pilot_24_hours,0.5761153,0.34457296,0.22767116,0.15816705,0.12293139,0.19182707,0.18375939
558,2.0,right,right,1.0,2.1303,0.0,18.0,18.0,18.0,1.0,2238555799-106905.jpg,2864909447-362146.jpg,A1OZPLHNIU1519,pilot_24_hours,0.39200357,0.36895412,0.27291727,0.2510437,0.15882553,0.24213922,0.16193335
559,1.0,right,left,0.0,3.4843,0.0,19.0,19.0,19.0,1.0,2986448334-147157.jpg,2238429999-90218.jpg,A1OZPLHNIU1519,pilot_24_hours,0.5355583,0.406426,0.26055005,0.12961626,0.06281603,0.21154524,0.093346395
560,1.0,right,left,0.0,2.2238,0.0,20.0,20.0,20.0,1.0,2986401333-73218.jpg,2901934573-69337.jpg,A1OZPLHNIU1519,pilot_24_hours,0.38738668,0.30743137,0.20539655,0.100283735,0.08137866,0.19558698,0.13636512
561,3.0,right,right,1.0,2.375,0.0,21.0,21.0,21.0,1.0,2864909422-362141.jpg,2901939379-143479.jpg,A1OZPLHNIU1519,pilot_24_hours,0.30258784,0.33718032,0.25163117,0.14617628,0.16214828,0.3513442,0.47057888
562,2.0,right,right,1.0,1.9676,0.0,22.0,22.0,22.0,1.0,2862686459-136888.jpg,2238516618-25604.jpg,A1OZPLHNIU1519,pilot_24_hours,0.3623062,0.34919378,0.29119805,0.24408679,0.16484572,0.1900102,0.18655969
563,1.0,left,left,1.0,2.2137,0.0,23.0,23.0,23.0,1.0,2898632385-217138.jpg,2575120738-55529.jpg,A1OZPLHNIU1519,pilot_24_hours,0.5639598,0.3402834,0.25403792,0.19583048,0.23839176,0.3934025,0.46560585
564,3.0,left,left,1.0,2.5481,0.0,24.0,24.0,24.0,1.0,2964216465-219242.jpg,2446760917-347439.jpg,A1OZPLHNIU1519,pilot_24_hours,0.2652782,0.2801582,0.22310808,0.17375293,0.20828101,0.3970382,0.45953056
565,1.0,right,left,0.0,3.3256,0.0,25.0,25.0,25.0,1.0,2986402377-371266.jpg,2898624426-291546.jpg,A1OZPLHNIU1519,pilot_24_hours,0.43547595,0.33835298,0.21718264,0.129932,0.09877238,0.1568951,0.12488727
566,1.0,left,left,1.0,1.1908,0.0,26.0,26.0,26.0,1.0,2625337302-355866.jpg,2425492472-343825.jpg,A1OZPLHNIU1519,pilot_24_hours,0.4046076,0.34404197,0.21794295,0.10963725,0.066952154,0.18619053,0.105765715
567,3.0,right,right,1.0,2.1174,0.0,27.0,27.0,27.0,1.0,2238498786-244797.jpg,2446759803-49249.jpg,A1OZPLHNIU1519,pilot_24_hours,0.24973479,0.3615281,0.23668213,0.1581866,0.13646886,0.37617946,0.4630595
568,3.0,right,right,1.0,3.9531,0.0,28.0,28.0,28.0,1.0,2458348144-125787.jpg,2579432576-279079.jpg,A1OZPLHNIU1519,pilot_24_hours,0.30523363,0.30783203,0.23841257,0.17293367,0.12678708,0.40917727,0.41916132
569,2.0,right,left,0.0,2.7933,0.0,29.0,29.0,29.0,1.0,2592380188-56743.jpg,2446760940-198145.jpg,A1OZPLHNIU1519,pilot_24_hours,0.30199936,0.28761953,0.23077404,0.17768675,0.1080484,0.23352697,0.15992793
570,1.0,left,right,0.0,3.4726,0.0,30.0,30.0,30.0,1.0,2964218374-144968.jpg,2238411877-313125.jpg,A1OZPLHNIU1519,pilot_24_hours,0.42013174,0.3505115,0.2520835,0.16756912,0.10827869,0.20003079,0.17689455
571,1.0,left,left,1.0,3.7172,0.0,31.0,31.0,31.0,1.0,2883272438-68133.jpg,2237949408-4018.jpg,A1OZPLHNIU1519,pilot_24_hours,0.44570017,0.35941356,0.26945367,0.17155612,0.06630301,0.20539743,0.09356518
572,2.0,left,left,1.0,1.2377,0.0,32.0,32.0,32.0,1.0,2238499155-170911.jpg,2452380832-348593.jpg,A1OZPLHNIU1519,pilot_24_hours,0.32653862,0.35121658,0.23237893,0.15419199,0.10304267,0.18862517,0.13828656
573,3.0,left,left,1.0,2.9238,0.0,33.0,33.0,33.0,1.0,2986408352-371293.jpg,2856916345-210056.jpg,A1OZPLHNIU1519,pilot_24_hours,0.32377374,0.31024593,0.2235383,0.14102311,0.09101871,0.32255796,0.22837847
574,3.0,left,left,1.0,2.7812,0.0,34.0,34.0,34.0,1.0,2868485396-288511.jpg,2238380314-88261.jpg,A1OZPLHNIU1519,pilot_24_hours,0.28004867,0.31828037,0.24196663,0.14429817,0.1305821,0.37503555,0.4687688
575,3.0,left,left,1.0,2.7651,0.0,35.0,35.0,35.0,1.0,2238375302-311538.jpg,2460547508-51571.jpg,A1OZPLHNIU1519,pilot_24_hours,0.24705386,0.23613794,0.21341173,0.1490605,0.18382554,0.343115,0.4488432
576,2.0,right,right,1.0,2.7814,0.0,36.0,36.0,36.0,1.0,2575964140-205051.jpg,2868475410-213219.jpg,A1OZPLHNIU1519,pilot_24_hours,0.3925159,0.35779077,0.31225294,0.3192761,0.23367733,0.27952403,0.34475544
577,2.0,left,left,1.0,1.9016,0.0,37.0,37.0,37.0,1.0,2449442529-124446.jpg,2868469458-64561.jpg,A1OZPLHNIU1519,pilot_24_hours,0.40431896,0.35704,0.27167544,0.23042862,0.16038002,0.20828697,0.17324853
578,2.0,right,right,1.0,2.2172,0.0,38.0,38.0,38.0,1.0,2449443271-272729.jpg,2238550049-105691.jpg,A1OZPLHNIU1519,pilot_24_hours,0.42094997,0.38386247,0.26790863,0.2068803,0.14920181,0.16714372,0.18595387
579,3.0,right,right,1.0,2.8066,0.0,39.0,39.0,39.0,1.0,2446760306-272024.jpg,2238521193-26286.jpg,A1OZPLHNIU1519,pilot_24_hours,0.36645237,0.30536518,0.23714988,0.18336673,0.20081837,0.3938985,0.40598384
580,2.0,left,left,1.0,1.9731,0.0,40.0,40.0,40.0,1.0,2460547467-349421.jpg,2238470079-92499.jpg,A1OZPLHNIU1519,pilot_24_hours,0.33233327,0.33112508,0.25407332,0.15361314,0.0913698,0.14554864,0.07424046
581,2.0,left,left,1.0,1.7241,0.0,41.0,41.0,41.0,1.0,2864906345-212360.jpg,2238087237-303447.jpg,A1OZPLHNIU1519,pilot_24_hours,0.3513021,0.3436853,0.2936624,0.32289785,0.22245182,0.278777,0.23146148
582,3.0,right,right,1.0,1.5275,0.0,42.0,42.0,42.0,1.0,2238328478-11678.jpg,2862691449-137104.jpg,A1OZPLHNIU1519,pilot_24_hours,0.36767977,0.3426417,0.24200304,0.14279757,0.16467124,0.39299294,0.47483164
583,1.0,right,left,0.0,3.7204,0.0,43.0,43.0,43.0,1.0,2238481575-168208.jpg,2883255450-215311.jpg,A1OZPLHNIU1519,pilot_24_hours,0.5994278,0.3695289,0.2444796,0.1843015,0.13160874,0.21206382,0.27771425
584,1.0,left,left,1.0,2.715,0.0,44.0,44.0,44.0,1.0,2901938432-367627.jpg,2579432708-56394.jpg,A1OZPLHNIU1519,pilot_24_hours,0.52924746,0.34956065,0.23690203,0.17881735,0.107455224,0.25101942,0.2640147
585,3.0,right,right,1.0,2.5346,0.0,45.0,45.0,45.0,1.0,2238576267-334532.jpg,2512876023-52283.jpg,A1OZPLHNIU1519,pilot_24_hours,0.36667582,0.32949203,0.24366534,0.1652935,0.15580362,0.35672474,0.3527369
586,3.0,right,right,1.0,2.9504,0.0,46.0,46.0,46.0,1.0,2446760226-272005.jpg,2575964140-205050.jpg,A1OZPLHNIU1519,pilot_24_hours,0.33729175,0.33787432,0.25154126,0.18734649,0.19078736,0.33439663,0.40437984
587,3.0,left,left,1.0,1.5504,0.0,47.0,47.0,47.0,1.0,2592380138-56727.jpg,2238537701-251772.jpg,A1OZPLHNIU1519,pilot_24_hours,0.30289376,0.31398985,0.2394589,0.16558748,0.13100684,0.3477351,0.32632682
588,3.0,left,left,1.0,2.4391,0.0,48.0,48.0,48.0,1.0,2446758985-197609.jpg,2984618344-146295.jpg,A1OZPLHNIU1519,pilot_24_hours,0.31798512,0.34565994,0.23667333,0.15913327,0.17024198,0.4137755,0.45701513
589,2.0,right,right,1.0,1.5813,0.0,49.0,49.0,49.0,1.0,2825702353-60662.jpg,2994405328-74628.jpg,A1OZPLHNIU1519,pilot_24_hours,0.4243706,0.35623288,0.22364776,0.16463007,0.06308987,0.18950747,0.1044181
590,2.0,right,left,0.0,3.5804,0.0,50.0,50.0,50.0,1.0,2575122854-130480.jpg,2238126735-154721.jpg,A1OZPLHNIU1519,pilot_24_hours,0.35043386,0.32226226,0.2658018,0.19446547,0.15394293,0.1964433,0.1837817
591,1.0,right,right,1.0,2.7251,0.0,51.0,51.0,51.0,1.0,2238360884-87525.jpg,2898632385-217137.jpg,A1OZPLHNIU1519,pilot_24_hours,0.42334822,0.33770457,0.23720996,0.15756787,0.11094591,0.21687394,0.15921824
592,2.0,right,right,1.0,1.878,0.0,52.0,52.0,52.0,1.0,2592380177-354626.jpg,2238561223-33794.jpg,A1OZPLHNIU1519,pilot_24_hours,0.32021108,0.3479251,0.22706166,0.14362559,0.08871445,0.18310118,0.12582922
593,1.0,right,left,0.0,3.1217,0.0,53.0,53.0,53.0,1.0,2592380285-205564.jpg,2238575092-334269.jpg,A1OZPLHNIU1519,pilot_24_hours,0.5206832,0.3940882,0.2067041,0.13042028,0.08601879,0.13036826,0.11354689
594,1.0,right,left,0.0,1.934,0.0,54.0,54.0,54.0,1.0,2868488422-363715.jpg,2901941426-292805.jpg,A1OZPLHNIU1519,pilot_24_hours,0.5188631,0.3965502,0.22574446,0.10683108,0.12296906,0.14635065,0.13755642
595,1.0,left,left,1.0,2.2208,0.0,55.0,55.0,55.0,1.0,2964213381-294060.jpg,2898631359-142720.jpg,A1OZPLHNIU1519,pilot_24_hours,0.38301757,0.23589788,0.1527817,0.07503883,0.08113245,0.15108076,0.14740919
596,3.0,left,right,0.0,4.2913,0.0,56.0,56.0,56.0,1.0,2898626385-216899.jpg,2898618440-216545.jpg,A1OZPLHNIU1519,pilot_24_hours,0.35918316,0.342735,0.25117853,0.14836462,0.15878534,0.3272129,0.40771788
597,1.0,left,left,1.0,2.614,0.0,57.0,57.0,57.0,1.0,2964224310-219527.jpg,2238380178-14011.jpg,A1OZPLHNIU1519,pilot_24_hours,0.47662294,0.3767535,0.233892,0.106938966,0.09160477,0.123137265,0.09846386
598,3.0,right,right,1.0,2.412,0.0,58.0,58.0,58.0,1.0,2862684406-285700.jpg,2898617468-68274.jpg,A1OZPLHNIU1519,pilot_24_hours,0.2495468,0.3476117,0.22785415,0.14783514,0.1289081,0.34327453,0.45425552
599,3.0,left,left,1.0,2.2755,0.0,59.0,59.0,59.0,1.0,2883254439-140940.jpg,2812983311-281946.jpg,A1OZPLHNIU1519,pilot_24_hours,0.3006712,0.3146375,0.24826571,0.1951422,0.21086107,0.45176968,0.4767652
660,1.0,left,left,1.0,6.324,0.0,0.0,0.0,0.0,1.0,2898635427-367120.jpg,2238436632-314069.jpg,A1QSX79P1W1058,pilot_24_hours,0.49568942,0.35207435,0.23896421,0.18337227,0.162181,0.2929602,0.22639994
661,3.0,right,right,1.0,2.856,0.0,1.0,1.0,1.0,1.0,2986455373-73646.jpg,2238584869-113153.jpg,A1QSX79P1W1058,pilot_24_hours,0.31297758,0.31809872,0.24675979,0.16095181,0.1664197,0.41340193,0.47941926
662,2.0,left,left,1.0,2.973,0.0,2.0,2.0,2.0,1.0,2452380166-273109.jpg,2592379781-279345.jpg,A1QSX79P1W1058,pilot_24_hours,0.29143566,0.31444487,0.23212524,0.17037818,0.10632919,0.15362506,0.1621678
663,1.0,left,left,1.0,1.887,0.0,3.0,3.0,3.0,1.0,2964213381-294061.jpg,2238433340-164524.jpg,A1QSX79P1W1058,pilot_24_hours,0.40370548,0.26199293,0.19974966,0.10820377,0.09436314,0.20766257,0.19068943
664,3.0,left,left,1.0,1.873,0.0,4.0,4.0,4.0,1.0,2964224310-219527.jpg,2238490590-169598.jpg,A1QSX79P1W1058,pilot_24_hours,0.36884835,0.3309385,0.24786398,0.16177255,0.1765129,0.4141495,0.4610115
665,3.0,left,right,0.0,2.519,0.0,5.0,5.0,5.0,1.0,2238429999-90218.jpg,2964222378-71332.jpg,A1QSX79P1W1058,pilot_24_hours,0.3795617,0.33195207,0.2365827,0.14056121,0.13223155,0.30626556,0.32499933
666,2.0,left,left,1.0,2.934,0.0,6.0,6.0,6.0,1.0,2625337302-355866.jpg,2238478760-167789.jpg,A1QSX79P1W1058,pilot_24_hours,0.35460815,0.346533,0.29101038,0.21982884,0.14153425,0.26771253,0.2289221
667,1.0,right,right,1.0,2.801,0.0,7.0,7.0,7.0,1.0,2986450330-221526.jpg,2981231446-294731.jpg,A1QSX79P1W1058,pilot_24_hours,0.39533114,0.32558495,0.23161195,0.14196096,0.10091646,0.19270413,0.13340037
668,3.0,left,left,1.0,2.805,0.0,8.0,8.0,8.0,1.0,2898624426-291546.jpg,2864902304-137862.jpg,A1QSX79P1W1058,pilot_24_hours,0.25735348,0.35344133,0.22365823,0.14610878,0.13300084,0.3606336,0.47226366
669,2.0,right,right,1.0,2.532,0.0,9.0,9.0,9.0,1.0,2273188118-40829.jpg,2898632385-217138.jpg,A1QSX79P1W1058,pilot_24_hours,0.2811311,0.31085286,0.2330383,0.20231685,0.14555275,0.19239971,0.20220506
670,3.0,left,left,1.0,3.357,0.0,10.0,10.0,10.0,1.0,2446759803-49249.jpg,2238498786-244797.jpg,A1QSX79P1W1058,pilot_24_hours,0.24973479,0.3615281,0.23668213,0.1581866,0.13646886,0.37617946,0.4630595
671,3.0,right,right,1.0,3.158,0.0,11.0,11.0,11.0,1.0,2856916345-210056.jpg,2986408352-371293.jpg,A1QSX79P1W1058,pilot_24_hours,0.32377374,0.31024593,0.2235383,0.14102311,0.09101871,0.32255796,0.22837847
672,3.0,right,left,0.0,3.12,0.0,12.0,12.0,12.0,1.0,2994403305-222559.jpg,2864906345-212360.jpg,A1QSX79P1W1058,pilot_24_hours,0.3196521,0.34907302,0.24485254,0.15133701,0.12168309,0.3396057,0.37176284
673,2.0,left,left,1.0,3.035,0.0,13.0,13.0,13.0,1.0,2994405328-74628.jpg,2825702353-60662.jpg,A1QSX79P1W1058,pilot_24_hours,0.4243706,0.35623288,0.22364776,0.16463007,0.06308987,0.18950747,0.1044181
674,1.0,right,right,1.0,2.419,0.0,14.0,14.0,14.0,1.0,2986450334-147215.jpg,2901939379-143479.jpg,A1QSX79P1W1058,pilot_24_hours,0.4630127,0.34697786,0.23998168,0.17007715,0.11958921,0.2579222,0.18294598
675,1.0,right,left,0.0,2.347,0.0,15.0,15.0,15.0,1.0,2446760483-49429.jpg,2331570830-189984.jpg,A1QSX79P1W1058,pilot_24_hours,0.5170055,0.42255893,0.2668635,0.11170049,0.05608718,0.16165696,0.09217889
676,1.0,left,left,1.0,2.587,0.0,16.0,16.0,16.0,1.0,2898626385-216899.jpg,2989715328-73658.jpg,A1QSX79P1W1058,pilot_24_hours,0.5036279,0.39926985,0.27442378,0.13776554,0.08747883,0.18041508,0.13786203
677,2.0,right,right,1.0,2.617,0.0,17.0,17.0,17.0,1.0,2575122854-130480.jpg,2238126735-154721.jpg,A1QSX79P1W1058,pilot_24_hours,0.35043386,0.32226226,0.2658018,0.19446547,0.15394293,0.1964433,0.1837817
678,3.0,left,right,0.0,3.116,0.0,18.0,18.0,18.0,1.0,2238550049-105691.jpg,2964219468-71238.jpg,A1QSX79P1W1058,pilot_24_hours,0.3515072,0.3400462,0.23197325,0.14561646,0.14732508,0.34722954,0.37767243
679,1.0,right,right,1.0,2.636,0.0,19.0,19.0,19.0,1.0,2238570142-333223.jpg,2238496457-319749.jpg,A1QSX79P1W1058,pilot_24_hours,0.43349692,0.34202334,0.22792818,0.1432057,0.11319223,0.18072954,0.18809153
680,1.0,left,left,1.0,3.593,0.0,20.0,20.0,20.0,1.0,2592380138-56727.jpg,2986419351-296471.jpg,A1QSX79P1W1058,pilot_24_hours,0.46054566,0.37004048,0.23391384,0.11330234,0.06780545,0.21505636,0.16523293
681,2.0,right,right,1.0,1.98,0.0,21.0,21.0,21.0,1.0,2898618444-142233.jpg,2238129579-80916.jpg,A1QSX79P1W1058,pilot_24_hours,0.31743658,0.3261902,0.26256773,0.26691085,0.22008708,0.17676915,0.17562969
682,3.0,left,left,1.0,3.012,0.0,22.0,22.0,22.0,1.0,2868475410-213219.jpg,2238436851-238821.jpg,A1QSX79P1W1058,pilot_24_hours,0.2991732,0.2800154,0.2235462,0.14550053,0.15182039,0.3598194,0.47297004
683,3.0,right,right,1.0,2.133,0.0,23.0,23.0,23.0,1.0,2452381442-348755.jpg,2238584018-38513.jpg,A1QSX79P1W1058,pilot_24_hours,0.26039526,0.28949594,0.20563807,0.14346804,0.10809358,0.37909612,0.38188928
684,2.0,left,left,1.0,2.575,0.0,24.0,24.0,24.0,1.0,2446760940-198145.jpg,2592380188-56743.jpg,A1QSX79P1W1058,pilot_24_hours,0.30199936,0.28761953,0.23077404,0.17768675,0.1080484,0.23352697,0.15992793
685,3.0,left,left,1.0,3.642,0.0,25.0,25.0,25.0,1.0,2986400320-221190.jpg,2238538133-29662.jpg,A1QSX79P1W1058,pilot_24_hours,0.33736572,0.284637,0.21064721,0.17542246,0.2520948,0.41156995,0.33431122
686,2.0,left,left,1.0,2.438,0.0,26.0,26.0,26.0,1.0,2446758985-197609.jpg,2635396318-58409.jpg,A1QSX79P1W1058,pilot_24_hours,0.2823232,0.33466405,0.23903644,0.18376991,0.09932567,0.16736121,0.095421635
687,2.0,right,right,1.0,2.293,0.0,27.0,27.0,27.0,1.0,2446758985-197610.jpg,2274829821-263682.jpg,A1QSX79P1W1058,pilot_24_hours,0.30499113,0.313028,0.21953526,0.14475143,0.13665628,0.22398743,0.20534874
688,1.0,left,left,1.0,2.945,0.0,28.0,28.0,28.0,1.0,2883255450-215309.jpg,2238429999-90216.jpg,A1QSX79P1W1058,pilot_24_hours,0.532993,0.33541533,0.23490979,0.1442822,0.14110518,0.32234943,0.32952595
689,2.0,right,right,1.0,2.515,0.0,29.0,29.0,29.0,1.0,2238547522-328488.jpg,2575964140-205050.jpg,A1QSX79P1W1058,pilot_24_hours,0.3139831,0.31142753,0.24144258,0.17848802,0.12763526,0.17947571,0.19570804
690,1.0,left,right,0.0,2.13,0.0,30.0,30.0,30.0,1.0,2238499155-170911.jpg,2446760621-272103.jpg,A1QSX79P1W1058,pilot_24_hours,0.5482933,0.4191881,0.26024532,0.1367969,0.046643652,0.16794172,0.09893926
691,1.0,left,left,1.0,2.346,0.0,31.0,31.0,31.0,1.0,2901934573-69337.jpg,2986401333-73218.jpg,A1QSX79P1W1058,pilot_24_hours,0.38738668,0.30743137,0.20539655,0.100283735,0.08137866,0.19558698,0.13636512
692,1.0,right,right,1.0,2.429,0.0,32.0,32.0,32.0,1.0,2238540598-30035.jpg,2862691449-137104.jpg,A1QSX79P1W1058,pilot_24_hours,0.52204466,0.4159331,0.27141595,0.18060559,0.11782777,0.20327143,0.13199764
693,1.0,right,right,1.0,2.803,0.0,33.0,33.0,33.0,1.0,2804906319-133082.jpg,2238480434-93829.jpg,A1QSX79P1W1058,pilot_24_hours,0.51561254,0.38049287,0.21146114,0.09205678,0.08155852,0.178649,0.14489178
694,2.0,left,left,1.0,2.309,0.0,34.0,34.0,34.0,1.0,2238561223-33794.jpg,2592380177-354626.jpg,A1QSX79P1W1058,pilot_24_hours,0.32021108,0.3479251,0.22706166,0.14362559,0.08871445,0.18310118,0.12582922
695,1.0,left,left,1.0,2.577,0.0,35.0,35.0,35.0,1.0,2964218374-144968.jpg,2238411877-313125.jpg,A1QSX79P1W1058,pilot_24_hours,0.42013174,0.3505115,0.2520835,0.16756912,0.10827869,0.20003079,0.17689455
696,3.0,left,left,1.0,2.025,0.0,36.0,36.0,36.0,1.0,2883255450-215311.jpg,2575964014-130589.jpg,A1QSX79P1W1058,pilot_24_hours,0.28275034,0.3047399,0.23060478,0.14404039,0.11875494,0.3297401,0.47829005
697,1.0,left,right,0.0,2.3,0.0,37.0,37.0,37.0,1.0,2883254439-140940.jpg,2452380166-273110.jpg,A1QSX79P1W1058,pilot_24_hours,0.52784115,0.34596097,0.24716364,0.17175348,0.12226688,0.31752273,0.26190567
698,3.0,left,left,1.0,2.284,0.0,38.0,38.0,38.0,1.0,2449442529-124446.jpg,2864911339-138231.jpg,A1QSX79P1W1058,pilot_24_hours,0.26274702,0.30962634,0.2333699,0.1605805,0.19716239,0.3123342,0.42238653
699,2.0,left,right,0.0,2.684,0.0,39.0,39.0,39.0,1.0,2883272438-68133.jpg,2901936369-143233.jpg,A1QSX79P1W1058,pilot_24_hours,0.3302181,0.32111344,0.24912237,0.18834953,0.116073586,0.2222739,0.14720194
700,2.0,left,left,1.0,2.304,0.0,40.0,40.0,40.0,1.0,2901941426-292805.jpg,2238510189-98616.jpg,A1QSX79P1W1058,pilot_24_hours,0.3752859,0.33592662,0.24120426,0.215474,0.23166406,0.2693015,0.23033628
701,2.0,right,right,1.0,2.279,0.0,41.0,41.0,41.0,1.0,2986450334-147216.jpg,2898633480-217190.jpg,A1QSX79P1W1058,pilot_24_hours,0.36065188,0.3510691,0.25097817,0.18711598,0.075358994,0.21282814,0.12845029
702,3.0,left,left,1.0,2.529,0.0,42.0,42.0,42.0,1.0,2901938432-367627.jpg,2424122568-45517.jpg,A1QSX79P1W1058,pilot_24_hours,0.29698327,0.31735566,0.24400364,0.1772435,0.17652404,0.39610434,0.45669812
703,3.0,left,left,1.0,2.672,0.0,43.0,43.0,43.0,1.0,2964213381-294060.jpg,2989724308-73930.jpg,A1QSX79P1W1058,pilot_24_hours,0.23445262,0.22585575,0.17186204,0.15859841,0.24638791,0.2972721,0.32870835
704,2.0,right,right,1.0,2.282,0.0,44.0,44.0,44.0,1.0,2868472420-213024.jpg,2868485396-288511.jpg,A1QSX79P1W1058,pilot_24_hours,0.25245333,0.29735646,0.23065652,0.15117048,0.098469935,0.22543697,0.18716367
705,1.0,right,right,1.0,2.551,0.0,45.0,45.0,45.0,1.0,2901934573-69336.jpg,2460547467-349421.jpg,A1QSX79P1W1058,pilot_24_hours,0.4743195,0.32548413,0.24925873,0.14967118,0.07511208,0.19980064,0.1245887
706,2.0,left,left,1.0,2.726,0.0,46.0,46.0,46.0,1.0,2898632385-217137.jpg,2238480803-19739.jpg,A1QSX79P1W1058,pilot_24_hours,0.37733212,0.37367064,0.33790275,0.36829898,0.35403305,0.4598726,0.40648404
707,3.0,left,right,0.0,1.721,0.0,47.0,47.0,47.0,1.0,2238575092-334269.jpg,2964218374-144967.jpg,A1QSX79P1W1058,pilot_24_hours,0.3661971,0.3274746,0.21920173,0.18649317,0.22771029,0.34543207,0.42861867
708,3.0,left,left,1.0,2.109,0.0,48.0,48.0,48.0,1.0,2964216465-219242.jpg,2446760917-347439.jpg,A1QSX79P1W1058,pilot_24_hours,0.2652782,0.2801582,0.22310808,0.17375293,0.20828101,0.3970382,0.45953056
709,2.0,left,left,1.0,2.003,0.0,49.0,49.0,49.0,1.0,2883254439-140941.jpg,2237965109-79314.jpg,A1QSX79P1W1058,pilot_24_hours,0.29142603,0.30357695,0.22813335,0.15174149,0.09355728,0.1820631,0.10429122
710,1.0,right,right,1.0,2.679,0.0,50.0,50.0,50.0,1.0,2874316384-140749.jpg,2864909447-362146.jpg,A1QSX79P1W1058,pilot_24_hours,0.4044628,0.3428597,0.2594657,0.13602942,0.06271384,0.14660306,0.072791725
711,1.0,right,left,0.0,2.417,0.0,51.0,51.0,51.0,1.0,2825712309-134957.jpg,2238521193-26286.jpg,A1QSX79P1W1058,pilot_24_hours,0.5222137,0.41726744,0.27024394,0.1322952,0.064563535,0.124206915,0.12006892
712,2.0,right,left,0.0,2.709,0.0,52.0,52.0,52.0,1.0,2898636443-69154.jpg,2512876023-52283.jpg,A1QSX79P1W1058,pilot_24_hours,0.4003126,0.3679571,0.26199216,0.1908277,0.10450467,0.20407732,0.1556658
713,1.0,left,left,1.0,2.71,0.0,53.0,53.0,53.0,1.0,2898617468-68274.jpg,2512875899-126682.jpg,A1QSX79P1W1058,pilot_24_hours,0.5249055,0.3206202,0.21088545,0.1333882,0.12607074,0.20905584,0.21350141
714,2.0,left,right,0.0,4.922,0.0,54.0,54.0,54.0,1.0,2579432576-279079.jpg,2446760226-272006.jpg,A1QSX79P1W1058,pilot_24_hours,0.31084266,0.3441389,0.2727468,0.22629432,0.1681439,0.28038946,0.23063093
715,1.0,right,right,1.0,7.38,0.0,55.0,55.0,55.0,1.0,2868470400-212889.jpg,2238471391-240918.jpg,A1QSX79P1W1058,pilot_24_hours,0.47667378,0.3364348,0.20209776,0.0870446,0.057772476,0.14205296,0.09701835
716,2.0,right,right,1.0,2.982,0.0,56.0,56.0,56.0,1.0,2862686459-136888.jpg,2238516618-25604.jpg,A1QSX79P1W1058,pilot_24_hours,0.3623062,0.34919378,0.29119805,0.24408679,0.16484572,0.1900102,0.18655969
717,3.0,left,left,1.0,3.57,0.0,57.0,57.0,57.0,1.0,2964209380-218956.jpg,2898617396-291219.jpg,A1QSX79P1W1058,pilot_24_hours,0.31388637,0.33204678,0.25619873,0.18618377,0.21419857,0.3956408,0.47680306
718,3.0,right,right,1.0,2.255,0.0,58.0,58.0,58.0,1.0,2238539138-29878.jpg,2446760524-123999.jpg,A1QSX79P1W1058,pilot_24_hours,0.31188673,0.33697963,0.2568794,0.18181463,0.13801888,0.3870004,0.47968417
719,3.0,right,left,0.0,2.358,0.0,59.0,59.0,59.0,1.0,2460547508-51571.jpg,2238375302-311538.jpg,A1QSX79P1W1058,pilot_24_hours,0.24705386,0.23613794,0.21341173,0.1490605,0.18382554,0.343115,0.4488432
780,3.0,right,right,1.0,1.7259,0.0,0.0,0.0,0.0,1.0,2898618440-216545.jpg,2898626385-216899.jpg,A1UEMMSI1XUBSW,pilot_24_hours,0.35918316,0.342735,0.25117853,0.14836462,0.15878534,0.3272129,0.40771788
781,3.0,right,right,1.0,0.8843,0.0,1.0,1.0,1.0,1.0,2238554179-106663.jpg,2460547467-349421.jpg,A1UEMMSI1XUBSW,pilot_24_hours,0.26533198,0.31470224,0.24480726,0.16084567,0.18932115,0.3873429,0.4559279
782,2.0,right,right,1.0,1.3339,0.0,2.0,2.0,2.0,1.0,2512875796-274856.jpg,2964216465-219242.jpg,A1UEMMSI1XUBSW,pilot_24_hours,0.3356087,0.29077962,0.22294627,0.15261614,0.08791806,0.15000099,0.15925962
783,3.0,right,left,0.0,1.5372,0.0,3.0,3.0,3.0,1.0,2598726160-205998.jpg,2625337302-355866.jpg,A1UEMMSI1XUBSW,pilot_24_hours,0.31374305,0.30709344,0.23661417,0.14769979,0.1457408,0.35450298,0.39746064
784,1.0,right,right,1.0,3.3782,0.0,4.0,4.0,4.0,1.0,2238429999-90216.jpg,2883255450-215309.jpg,A1UEMMSI1XUBSW,pilot_24_hours,0.532993,0.33541533,0.23490979,0.1442822,0.14110518,0.32234943,0.32952595
785,3.0,left,left,1.0,1.3497,0.0,5.0,5.0,5.0,1.0,2994405328-74628.jpg,2883273443-68192.jpg,A1UEMMSI1XUBSW,pilot_24_hours,0.34804448,0.3013018,0.20080294,0.14024596,0.1128016,0.30968478,0.36260268
786,3.0,right,right,1.0,1.1458,0.0,6.0,6.0,6.0,1.0,2460547992-349586.jpg,2898632385-217138.jpg,A1UEMMSI1XUBSW,pilot_24_hours,0.2548184,0.28521895,0.21039405,0.14219706,0.16120829,0.38927937,0.45929104
787,1.0,left,left,1.0,1.0386,0.0,7.0,7.0,7.0,1.0,2964213381-294060.jpg,2898631359-142720.jpg,A1UEMMSI1XUBSW,pilot_24_hours,0.38301757,0.23589788,0.1527817,0.07503883,0.08113245,0.15108076,0.14740919
788,1.0,left,left,1.0,1.4134,0.0,8.0,8.0,8.0,1.0,2446760940-198145.jpg,2449443300-198739.jpg,A1UEMMSI1XUBSW,pilot_24_hours,0.5343318,0.36858132,0.2612735,0.20441175,0.10212794,0.25091743,0.18629892
789,1.0,left,left,1.0,1.4152,0.0,9.0,9.0,9.0,1.0,2446758985-197609.jpg,2898633421-291973.jpg,A1UEMMSI1XUBSW,pilot_24_hours,0.5579947,0.3543023,0.21951197,0.11676287,0.09287247,0.17682074,0.14729133
790,3.0,left,left,1.0,2.1176,0.0,10.0,10.0,10.0,1.0,2579432576-279079.jpg,2458348144-125787.jpg,A1UEMMSI1XUBSW,pilot_24_hours,0.30523363,0.30783203,0.23841257,0.17293367,0.12678708,0.40917727,0.41916132
791,3.0,right,right,1.0,2.3028,0.0,11.0,11.0,11.0,1.0,2237858043-1434.jpg,2898633480-217190.jpg,A1UEMMSI1XUBSW,pilot_24_hours,0.31712067,0.3232628,0.25342265,0.17336623,0.22365187,0.41992524,0.47910497
792,1.0,right,right,1.0,1.143,0.0,12.0,12.0,12.0,1.0,2864908323-64106.jpg,2512876023-52283.jpg,A1UEMMSI1XUBSW,pilot_24_hours,0.5590991,0.41319773,0.2669807,0.14314245,0.0872989,0.24113582,0.2205433
793,3.0,left,right,0.0,1.4978,0.0,13.0,13.0,13.0,1.0,2238480434-93829.jpg,2238479903-19596.jpg,A1UEMMSI1XUBSW,pilot_24_hours,0.3733531,0.33456278,0.21266297,0.15295373,0.20590934,0.38776866,0.41758478
794,1.0,right,left,0.0,1.7872,0.0,14.0,14.0,14.0,1.0,2864901420-212147.jpg,2238584869-113153.jpg,A1UEMMSI1XUBSW,pilot_24_hours,0.5442235,0.38257775,0.27661014,0.194215,0.15521435,0.29529202,0.25769275
795,2.0,left,left,1.0,1.2607,0.0,15.0,15.0,15.0,1.0,2238496457-319749.jpg,2592380234-131135.jpg,A1UEMMSI1XUBSW,pilot_24_hours,0.32511356,0.30925903,0.23221867,0.15815726,0.11003423,0.22559501,0.15404871
