button.numClicks,button.timesOn,button.timesOff,workID,Age,Gender,Hours slept (last night),date,expName,psychopyVersion,OS,frameRate,space_key_responce.keys,test_test_response.keys,test_test_response.corr,test_test_response.rt,trials_2.thisRepN,trials_2.thisTrialN,trials_2.thisN,trials_2.thisIndex,trials_2.ran,image1,image2,layer,correct,key_resp_end_2.keys,key_resp_end_2.rt
1,[245.67090000009557],[245.67109999990453],A3RDT5DH21PVAR,45,male,6,2022-11-03_11h29.44.949,memory_pilot_most_recent,2022.2.4,Win32,16.13449717,,,,,,,,,,,,,,,
,,,A3RDT5DH21PVAR,45,male,6,2022-11-03_11h29.44.949,memory_pilot_most_recent,2022.2.4,Win32,16.13449717,,,,,,,,,,,,,,,
,,,A3RDT5DH21PVAR,45,male,6,2022-11-03_11h29.44.949,memory_pilot_most_recent,2022.2.4,Win32,16.13449717,,,,,,,,,,,,,,,
,,,A3RDT5DH21PVAR,45,male,6,2022-11-03_11h29.44.949,memory_pilot_most_recent,2022.2.4,Win32,16.13449717,,,,,,,,,,,,,,,
,,,A3RDT5DH21PVAR,45,male,6,2022-11-03_11h29.44.949,memory_pilot_most_recent,2022.2.4,Win32,16.13449717,,,,,,,,,,,,,,,
,,,A3RDT5DH21PVAR,45,male,6,2022-11-03_11h29.44.949,memory_pilot_most_recent,2022.2.4,Win32,16.13449717,,,,,,,,,,,,,,,
,,,A3RDT5DH21PVAR,45,male,6,2022-11-03_11h29.44.949,memory_pilot_most_recent,2022.2.4,Win32,16.13449717,,left,1,8.8989,0,0,0,0,1,2512875899-126682.jpg,2986447332-371497.jpg,3,left,,
,,,A3RDT5DH21PVAR,45,male,6,2022-11-03_11h29.44.949,memory_pilot_most_recent,2022.2.4,Win32,16.13449717,,left,0,5.0616,0,1,1,1,1,2981243412-370222.jpg,2901941401-292798.jpg,2,right,,
,,,A3RDT5DH21PVAR,45,male,6,2022-11-03_11h29.44.949,memory_pilot_most_recent,2022.2.4,Win32,16.13449717,,right,0,3.4813,0,2,2,2,1,2868474407-362883.jpg,2901948383-70363.jpg,3,left,,
,,,A3RDT5DH21PVAR,45,male,6,2022-11-03_11h29.44.949,memory_pilot_most_recent,2022.2.4,Win32,16.13449717,,right,0,0.0994,0,3,3,3,1,2898633421-291973.jpg,2575118671-277663.jpg,2,left,,
,,,A3RDT5DH21PVAR,45,male,6,2022-11-03_11h29.44.949,memory_pilot_most_recent,2022.2.4,Win32,16.13449717,,right,1,2.1658,0,4,4,4,1,2274829821-263682.jpg,2981231403-71642.jpg,1,right,,
,,,A3RDT5DH21PVAR,45,male,6,2022-11-03_11h29.44.949,memory_pilot_most_recent,2022.2.4,Win32,16.13449717,,left,0,1.7924,0,5,5,5,1,2901946439-144040.jpg,2898635427-367120.jpg,1,right,,
,,,A3RDT5DH21PVAR,45,male,6,2022-11-03_11h29.44.949,memory_pilot_most_recent,2022.2.4,Win32,16.13449717,,left,0,2.5094,0,6,6,6,1,2984615358-72439.jpg,2449441881-272368.jpg,2,right,,
,,,A3RDT5DH21PVAR,45,male,6,2022-11-03_11h29.44.949,memory_pilot_most_recent,2022.2.4,Win32,16.13449717,,right,0,1.5888,0,7,7,7,1,2883268471-290842.jpg,2901947448-70314.jpg,3,left,,
,,,A3RDT5DH21PVAR,45,male,6,2022-11-03_11h29.44.949,memory_pilot_most_recent,2022.2.4,Win32,16.13449717,,right,0,2.2424,0,8,8,8,1,2592379964-131054.jpg,2592380272-354673.jpg,3,left,,
,,,A3RDT5DH21PVAR,45,male,6,2022-11-03_11h29.44.949,memory_pilot_most_recent,2022.2.4,Win32,16.13449717,,right,0,1.1156,0,9,9,9,1,2874302418-65978.jpg,2898633321-291943.jpg,3,left,,
,,,A3RDT5DH21PVAR,45,male,6,2022-11-03_11h29.44.949,memory_pilot_most_recent,2022.2.4,Win32,16.13449717,,right,0,1.3124,0,10,10,10,1,2446759803-49249.jpg,2446760601-272099.jpg,1,left,,
,,,A3RDT5DH21PVAR,45,male,6,2022-11-03_11h29.44.949,memory_pilot_most_recent,2022.2.4,Win32,16.13449717,,right,1,5.7024,0,11,11,11,1,2238481630-168218.jpg,2238480677-317399.jpg,1,right,,
,,,A3RDT5DH21PVAR,45,male,6,2022-11-03_11h29.44.949,memory_pilot_most_recent,2022.2.4,Win32,16.13449717,,left,0,0.7483,0,12,12,12,1,2981241419-145844.jpg,2238481928-19949.jpg,3,right,,
,,,A3RDT5DH21PVAR,45,male,6,2022-11-03_11h29.44.949,memory_pilot_most_recent,2022.2.4,Win32,16.13449717,,right,0,0.7753,0,13,13,13,1,2575120738-55529.jpg,2575120738-55528.jpg,2,left,,
,,,A3RDT5DH21PVAR,45,male,6,2022-11-03_11h29.44.949,memory_pilot_most_recent,2022.2.4,Win32,16.13449717,,left,1,0.8429,0,14,14,14,1,2446759347-347016.jpg,2964224310-219528.jpg,1,left,,
,,,A3RDT5DH21PVAR,45,male,6,2022-11-03_11h29.44.949,memory_pilot_most_recent,2022.2.4,Win32,16.13449717,,right,0,0.9673,0,15,15,15,1,2458347385-199723.jpg,2238480434-93829.jpg,1,left,,
,,,A3RDT5DH21PVAR,45,male,6,2022-11-03_11h29.44.949,memory_pilot_most_recent,2022.2.4,Win32,16.13449717,,right,1,0.726,0,16,16,16,1,2981244394-145974.jpg,2964213381-294060.jpg,1,right,,
,,,A3RDT5DH21PVAR,45,male,6,2022-11-03_11h29.44.949,memory_pilot_most_recent,2022.2.4,Win32,16.13449717,,right,1,1.4299,0,17,17,17,1,2452380171-273112.jpg,2449442529-124445.jpg,1,right,,
,,,A3RDT5DH21PVAR,45,male,6,2022-11-03_11h29.44.949,memory_pilot_most_recent,2022.2.4,Win32,16.13449717,,left,0,1.3028,0,18,18,18,1,2901947423-70310.jpg,2864907432-362042.jpg,2,right,,
,,,A3RDT5DH21PVAR,45,male,6,2022-11-03_11h29.44.949,memory_pilot_most_recent,2022.2.4,Win32,16.13449717,,right,1,1.6785,0,19,19,19,1,2238577590-185467.jpg,2901947423-70311.jpg,3,right,,
,,,A3RDT5DH21PVAR,45,male,6,2022-11-03_11h29.44.949,memory_pilot_most_recent,2022.2.4,Win32,16.13449717,,left,1,1.5283,0,20,20,20,1,2460547467-349422.jpg,2864909447-362146.jpg,3,left,,
,,,A3RDT5DH21PVAR,45,male,6,2022-11-03_11h29.44.949,memory_pilot_most_recent,2022.2.4,Win32,16.13449717,,left,0,2.2423,0,21,21,21,1,2986408339-146952.jpg,2592380177-354626.jpg,1,right,,
,,,A3RDT5DH21PVAR,45,male,6,2022-11-03_11h29.44.949,memory_pilot_most_recent,2022.2.4,Win32,16.13449717,,right,1,1.7886,0,22,22,22,1,2864906345-212360.jpg,2898617468-68274.jpg,1,right,,
,,,A3RDT5DH21PVAR,45,male,6,2022-11-03_11h29.44.949,memory_pilot_most_recent,2022.2.4,Win32,16.13449717,,left,1,2.0587,0,23,23,23,1,2874299429-139695.jpg,2901942443-69923.jpg,2,left,,
,,,A3RDT5DH21PVAR,45,male,6,2022-11-03_11h29.44.949,memory_pilot_most_recent,2022.2.4,Win32,16.13449717,,right,1,1.5114,0,24,24,24,1,2864904453-63933.jpg,2883256307-365057.jpg,3,right,,
,,,A3RDT5DH21PVAR,45,male,6,2022-11-03_11h29.44.949,memory_pilot_most_recent,2022.2.4,Win32,16.13449717,,left,1,2.2822,0,25,25,25,1,2238580740-186218.jpg,2238521193-26285.jpg,2,left,,
,,,A3RDT5DH21PVAR,45,male,6,2022-11-03_11h29.44.949,memory_pilot_most_recent,2022.2.4,Win32,16.13449717,,right,1,0.85,0,26,26,26,1,2238480648-19714.jpg,2874302418-65979.jpg,2,right,,
,,,A3RDT5DH21PVAR,45,male,6,2022-11-03_11h29.44.949,memory_pilot_most_recent,2022.2.4,Win32,16.13449717,,right,0,0.8426,0,27,27,27,1,2901939379-143479.jpg,2460547467-349423.jpg,1,left,,
,,,A3RDT5DH21PVAR,45,male,6,2022-11-03_11h29.44.949,memory_pilot_most_recent,2022.2.4,Win32,16.13449717,,right,1,1.525,0,28,28,28,1,2883264368-67631.jpg,2874301407-363895.jpg,1,right,,
,,,A3RDT5DH21PVAR,45,male,6,2022-11-03_11h29.44.949,memory_pilot_most_recent,2022.2.4,Win32,16.13449717,,left,0,1.2177,0,29,29,29,1,2964217461-294238.jpg,2898634397-367080.jpg,3,right,,
,,,A3RDT5DH21PVAR,45,male,6,2022-11-03_11h29.44.949,memory_pilot_most_recent,2022.2.4,Win32,16.13449717,,left,0,1.0433,0,30,30,30,1,2449442181-272436.jpg,2452380832-348593.jpg,3,right,,
,,,A3RDT5DH21PVAR,45,male,6,2022-11-03_11h29.44.949,memory_pilot_most_recent,2022.2.4,Win32,16.13449717,,right,0,0.9396,0,31,31,31,1,2964216465-219242.jpg,2864900319-137787.jpg,2,left,,
,,,A3RDT5DH21PVAR,45,male,6,2022-11-03_11h29.44.949,memory_pilot_most_recent,2022.2.4,Win32,16.13449717,,right,1,1.1326,0,32,32,32,1,2901938432-367629.jpg,2901939379-143480.jpg,3,right,,
,,,A3RDT5DH21PVAR,45,male,6,2022-11-03_11h29.44.949,memory_pilot_most_recent,2022.2.4,Win32,16.13449717,,right,1,1.5048,0,33,33,33,1,2874299429-139694.jpg,2864910426-287204.jpg,2,right,,
,,,A3RDT5DH21PVAR,45,male,6,2022-11-03_11h29.44.949,memory_pilot_most_recent,2022.2.4,Win32,16.13449717,,left,1,0.9355,0,34,34,34,1,2898635428-69104.jpg,2898625336-291572.jpg,3,left,,
,,,A3RDT5DH21PVAR,45,male,6,2022-11-03_11h29.44.949,memory_pilot_most_recent,2022.2.4,Win32,16.13449717,,right,0,0.8401,0,35,35,35,1,2964223381-294447.jpg,2898628438-68785.jpg,3,left,,
,,,A3RDT5DH21PVAR,45,male,6,2022-11-03_11h29.44.949,memory_pilot_most_recent,2022.2.4,Win32,16.13449717,,left,1,1.1179,0,36,36,36,1,2868475410-213219.jpg,2868474407-362885.jpg,3,left,,
,,,A3RDT5DH21PVAR,45,male,6,2022-11-03_11h29.44.949,memory_pilot_most_recent,2022.2.4,Win32,16.13449717,,right,1,1.0142,0,37,37,37,1,2549106624-127823.jpg,2238560245-182099.jpg,1,right,,
,,,A3RDT5DH21PVAR,45,male,6,2022-11-03_11h29.44.949,memory_pilot_most_recent,2022.2.4,Win32,16.13449717,,left,1,0.858,0,38,38,38,1,2452381505-199546.jpg,2901938432-367627.jpg,1,left,,
,,,A3RDT5DH21PVAR,45,male,6,2022-11-03_11h29.44.949,memory_pilot_most_recent,2022.2.4,Win32,16.13449717,,right,0,0.9467,0,39,39,39,1,2238428357-313623.jpg,2238499057-320266.jpg,1,left,,
,,,A3RDT5DH21PVAR,45,male,6,2022-11-03_11h29.44.949,memory_pilot_most_recent,2022.2.4,Win32,16.13449717,,left,0,1.4079,0,40,40,40,1,2238436252-314037.jpg,2883268412-365898.jpg,3,right,,
,,,A3RDT5DH21PVAR,45,male,6,2022-11-03_11h29.44.949,memory_pilot_most_recent,2022.2.4,Win32,16.13449717,,right,0,0.6814,0,41,41,41,1,2901952513-70703.jpg,2238481198-19821.jpg,3,left,,
,,,A3RDT5DH21PVAR,45,male,6,2022-11-03_11h29.44.949,memory_pilot_most_recent,2022.2.4,Win32,16.13449717,,left,0,0.755,0,42,42,42,1,2238436322-314047.jpg,2238425482-313537.jpg,2,right,,
,,,A3RDT5DH21PVAR,45,male,6,2022-11-03_11h29.44.949,memory_pilot_most_recent,2022.2.4,Win32,16.13449717,,right,0,0.4719,0,43,43,43,1,2874303365-214262.jpg,2238563377-332054.jpg,2,left,,
,,,A3RDT5DH21PVAR,45,male,6,2022-11-03_11h29.44.949,memory_pilot_most_recent,2022.2.4,Win32,16.13449717,,left,1,0.4788,0,44,44,44,1,2446758985-197609.jpg,2864909447-362144.jpg,2,left,,
,,,A3RDT5DH21PVAR,45,male,6,2022-11-03_11h29.44.949,memory_pilot_most_recent,2022.2.4,Win32,16.13449717,,right,1,0.2836,0,45,45,45,1,2986419333-73361.jpg,2238572663-35822.jpg,1,right,,
,,,A3RDT5DH21PVAR,45,male,6,2022-11-03_11h29.44.949,memory_pilot_most_recent,2022.2.4,Win32,16.13449717,,right,0,0.8479,0,46,46,46,1,2460547467-349421.jpg,2452380166-273110.jpg,2,left,,
,,,A3RDT5DH21PVAR,45,male,6,2022-11-03_11h29.44.949,memory_pilot_most_recent,2022.2.4,Win32,16.13449717,,left,0,0.3833,0,47,47,47,1,2901939327-367669.jpg,2986451363-73599.jpg,1,right,,
,,,A3RDT5DH21PVAR,45,male,6,2022-11-03_11h29.44.949,memory_pilot_most_recent,2022.2.4,Win32,16.13449717,,right,0,0.382,0,48,48,48,1,2874307433-66280.jpg,2986447306-296584.jpg,1,left,,
,,,A3RDT5DH21PVAR,45,male,6,2022-11-03_11h29.44.949,memory_pilot_most_recent,2022.2.4,Win32,16.13449717,,left,0,0.2901,0,49,49,49,1,2446759803-49251.jpg,2449442529-124446.jpg,1,right,,
,,,A3RDT5DH21PVAR,45,male,6,2022-11-03_11h29.44.949,memory_pilot_most_recent,2022.2.4,Win32,16.13449717,,right,0,0.3008,0,50,50,50,1,2964218374-144967.jpg,2981231446-294732.jpg,3,left,,
,,,A3RDT5DH21PVAR,45,male,6,2022-11-03_11h29.44.949,memory_pilot_most_recent,2022.2.4,Win32,16.13449717,,right,0,0.6597,0,51,51,51,1,2901948350-218459.jpg,2417208001-267065.jpg,2,left,,
,,,A3RDT5DH21PVAR,45,male,6,2022-11-03_11h29.44.949,memory_pilot_most_recent,2022.2.4,Win32,16.13449717,,left,0,0.7594,0,52,52,52,1,2862691449-137104.jpg,2238481198-19822.jpg,1,right,,
,,,A3RDT5DH21PVAR,45,male,6,2022-11-03_11h29.44.949,memory_pilot_most_recent,2022.2.4,Win32,16.13449717,,left,0,0.7563,0,53,53,53,1,2427873848-47312.jpg,2981241414-145842.jpg,3,right,,
,,,A3RDT5DH21PVAR,45,male,6,2022-11-03_11h29.44.949,memory_pilot_most_recent,2022.2.4,Win32,16.13449717,,right,1,0.7668,0,54,54,54,1,2898632385-217136.jpg,2883254439-140941.jpg,2,right,,
,,,A3RDT5DH21PVAR,45,male,6,2022-11-03_11h29.44.949,memory_pilot_most_recent,2022.2.4,Win32,16.13449717,,right,1,0.774,0,55,55,55,1,2512875587-350044.jpg,2592380177-354629.jpg,3,right,,
,,,A3RDT5DH21PVAR,45,male,6,2022-11-03_11h29.44.949,memory_pilot_most_recent,2022.2.4,Win32,16.13449717,,left,1,0.7582,0,56,56,56,1,2898618390-216538.jpg,2901939327-367670.jpg,2,left,,
,,,A3RDT5DH21PVAR,45,male,6,2022-11-03_11h29.44.949,memory_pilot_most_recent,2022.2.4,Win32,16.13449717,,right,0,0.678,0,57,57,57,1,2898618444-142233.jpg,2238555262-330312.jpg,2,left,,
,,,A3RDT5DH21PVAR,45,male,6,2022-11-03_11h29.44.949,memory_pilot_most_recent,2022.2.4,Win32,16.13449717,,right,0,1.3193,0,58,58,58,1,2460547508-51571.jpg,2981232437-369759.jpg,2,left,,
,,,A3RDT5DH21PVAR,45,male,6,2022-11-03_11h29.44.949,memory_pilot_most_recent,2022.2.4,Win32,16.13449717,,left,0,0.5622,0,59,59,59,1,2981236443-71859.jpg,2898624426-291546.jpg,2,right,,
,,,A3RDT5DH21PVAR,45,male,6,2022-11-03_11h29.44.949,memory_pilot_most_recent,2022.2.4,Win32,16.13449717,,,,,,,,,,,,,,space,4.9531
