button.numClicks,button.timesOn,button.timesOff,workID,Age,Gender,Hours slept (last night),date,expName,psychopyVersion,OS,frameRate,space_key_responce.keys,test_test_response.keys,test_test_response.corr,test_test_response.rt,bar_2.response,bar_2.rt,trials_2.thisRepN,trials_2.thisTrialN,trials_2.thisN,trials_2.thisIndex,trials_2.ran,image1,image2,layer,category,correct,key_resp_end_2.keys,key_resp_end_2.rt
1,[13.138199999988075],[13.13829999998211],A39XW0561NNM5C,27,Female,8,2023-05-04_15h09.24.001,memory_pilot_most_recent,2022.2.4,Win32,5.950574528,,,,,,,,,,,,,,,,,,
,,,A39XW0561NNM5C,27,Female,8,2023-05-04_15h09.24.001,memory_pilot_most_recent,2022.2.4,Win32,5.950574528,,,,,,,,,,,,,,,,,,
,,,A39XW0561NNM5C,27,Female,8,2023-05-04_15h09.24.001,memory_pilot_most_recent,2022.2.4,Win32,5.950574528,,,,,,,,,,,,,,,,,,
,,,A39XW0561NNM5C,27,Female,8,2023-05-04_15h09.24.001,memory_pilot_most_recent,2022.2.4,Win32,5.950574528,,,,,,,,,,,,,,,,,,
,,,A39XW0561NNM5C,27,Female,8,2023-05-04_15h09.24.001,memory_pilot_most_recent,2022.2.4,Win32,5.950574528,,,,,,,,,,,,,,,,,,
,,,A39XW0561NNM5C,27,Female,8,2023-05-04_15h09.24.001,memory_pilot_most_recent,2022.2.4,Win32,5.950574528,,,,,,,,,,,,,,,,,,
,,,A39XW0561NNM5C,27,Female,8,2023-05-04_15h09.24.001,memory_pilot_most_recent,2022.2.4,Win32,5.950574528,,left,1,5.1675,7,3.6152,0,0,0,0,1,playground_144.jpg,playground_65.jpg,1,playground,left,,
,,,A39XW0561NNM5C,27,Female,8,2023-05-04_15h09.24.001,memory_pilot_most_recent,2022.2.4,Win32,5.950574528,,right,1,1.0125,7,1.7812,0,1,1,1,1,bridge_82.jpg,bridge_91.jpg,1,bridge,right,,
,,,A39XW0561NNM5C,27,Female,8,2023-05-04_15h09.24.001,memory_pilot_most_recent,2022.2.4,Win32,5.950574528,,right,1,1.0617,7,1.2076,0,2,2,2,1,badlands_1.jpg,badlands_21.jpg,0,badlands,right,,
,,,A39XW0561NNM5C,27,Female,8,2023-05-04_15h09.24.001,memory_pilot_most_recent,2022.2.4,Win32,5.950574528,,right,0,1.2279,7,1.734,0,3,3,3,1,highway_245.jpg,highway_134.jpg,0,highway,left,,
,,,A39XW0561NNM5C,27,Female,8,2023-05-04_15h09.24.001,memory_pilot_most_recent,2022.2.4,Win32,5.950574528,,left,0,0.8049,7,1.365,0,4,4,4,1,highway_174.jpg,highway_415.jpg,1,highway,right,,
,,,A39XW0561NNM5C,27,Female,8,2023-05-04_15h09.24.001,memory_pilot_most_recent,2022.2.4,Win32,5.950574528,,left,0,0.0197,7,2.2278,0,5,5,5,1,highway_384.jpg,highway_273.jpg,0,highway,right,,
,,,A39XW0561NNM5C,27,Female,8,2023-05-04_15h09.24.001,memory_pilot_most_recent,2022.2.4,Win32,5.950574528,,left,1,0.9899,7,0.8747,0,6,6,6,1,bridge_108.jpg,bridge_116.jpg,0,bridge,left,,
,,,A39XW0561NNM5C,27,Female,8,2023-05-04_15h09.24.001,memory_pilot_most_recent,2022.2.4,Win32,5.950574528,,left,1,1.1012,7,1.2372,0,7,7,7,1,mountain_293.jpg,mountain_47.jpg,1,mountain,left,,
,,,A39XW0561NNM5C,27,Female,8,2023-05-04_15h09.24.001,memory_pilot_most_recent,2022.2.4,Win32,5.950574528,,left,1,0.8832,7,0.8407,0,8,8,8,1,badlands_221.jpg,badlands_115.jpg,0,badlands,left,,
,,,A39XW0561NNM5C,27,Female,8,2023-05-04_15h09.24.001,memory_pilot_most_recent,2022.2.4,Win32,5.950574528,,left,1,0.7122,7,0.8756,0,9,9,9,1,golf_course_214.jpg,golf_course_317.jpg,1,golf,left,,
,,,A39XW0561NNM5C,27,Female,8,2023-05-04_15h09.24.001,memory_pilot_most_recent,2022.2.4,Win32,5.950574528,,left,0,0.145,7,0.8585,0,10,10,10,1,playground_229.jpg,playground_145.jpg,0,playground,right,,
,,,A39XW0561NNM5C,27,Female,8,2023-05-04_15h09.24.001,memory_pilot_most_recent,2022.2.4,Win32,5.950574528,,left,0,0.8541,7,0.9924,0,11,11,11,1,mountain_131.jpg,mountain_154.jpg,0,mountain,right,,
,,,A39XW0561NNM5C,27,Female,8,2023-05-04_15h09.24.001,memory_pilot_most_recent,2022.2.4,Win32,5.950574528,,left,0,0.6884,7,0.9246,0,12,12,12,1,golf_course_157.jpg,golf_course_188.jpg,0,golf,right,,
,,,A39XW0561NNM5C,27,Female,8,2023-05-04_15h09.24.001,memory_pilot_most_recent,2022.2.4,Win32,5.950574528,,left,1,0.9381,7,0.7203,0,13,13,13,1,bridge_65.jpg,bridge_60.jpg,1,bridge,left,,
,,,A39XW0561NNM5C,27,Female,8,2023-05-04_15h09.24.001,memory_pilot_most_recent,2022.2.4,Win32,5.950574528,,left,0,0.7006,7,0.7755,0,14,14,14,1,mountain_93.jpg,mountain_222.jpg,1,mountain,right,,
,,,A39XW0561NNM5C,27,Female,8,2023-05-04_15h09.24.001,memory_pilot_most_recent,2022.2.4,Win32,5.950574528,,left,1,1.1453,7,0.5244,0,15,15,15,1,playground_240.jpg,playground_2.jpg,0,playground,left,,
,,,A39XW0561NNM5C,27,Female,8,2023-05-04_15h09.24.001,memory_pilot_most_recent,2022.2.4,Win32,5.950574528,,left,1,1.0257,7,1.217,0,16,16,16,1,playground_60.jpg,playground_244.jpg,1,playground,left,,
,,,A39XW0561NNM5C,27,Female,8,2023-05-04_15h09.24.001,memory_pilot_most_recent,2022.2.4,Win32,5.950574528,,left,1,6.1923,8,1.54,0,17,17,17,1,bridge_202.jpg,bridge_31.jpg,0,bridge,left,,
,,,A39XW0561NNM5C,27,Female,8,2023-05-04_15h09.24.001,memory_pilot_most_recent,2022.2.4,Win32,5.950574528,,left,1,4.0508,8,1.3346,0,18,18,18,1,badlands_23.jpg,badlands_114.jpg,0,badlands,left,,
,,,A39XW0561NNM5C,27,Female,8,2023-05-04_15h09.24.001,memory_pilot_most_recent,2022.2.4,Win32,5.950574528,,left,0,1.2427,8,1.685,0,19,19,19,1,golf_course_16.jpg,golf_course_309.jpg,0,golf,right,,
,,,A39XW0561NNM5C,27,Female,8,2023-05-04_15h09.24.001,memory_pilot_most_recent,2022.2.4,Win32,5.950574528,,left,1,0.0268,8,1.2837,0,20,20,20,1,highway_93.jpg,highway_369.jpg,1,highway,left,,
,,,A39XW0561NNM5C,27,Female,8,2023-05-04_15h09.24.001,memory_pilot_most_recent,2022.2.4,Win32,5.950574528,,left,1,0.3978,8,1.2478,0,21,21,21,1,playground_76.jpg,playground_22.jpg,0,playground,left,,
,,,A39XW0561NNM5C,27,Female,8,2023-05-04_15h09.24.001,memory_pilot_most_recent,2022.2.4,Win32,5.950574528,,left,1,0.3222,8,1.9601,0,22,22,22,1,playground_257.jpg,playground_214.jpg,0,playground,left,,
,,,A39XW0561NNM5C,27,Female,8,2023-05-04_15h09.24.001,memory_pilot_most_recent,2022.2.4,Win32,5.950574528,,left,0,1.0227,8,1.3113,0,23,23,23,1,mountain_97.jpg,mountain_230.jpg,1,mountain,right,,
,,,A39XW0561NNM5C,27,Female,8,2023-05-04_15h09.24.001,memory_pilot_most_recent,2022.2.4,Win32,5.950574528,,left,0,0.9873,8,1.2091,0,24,24,24,1,highway_293.jpg,highway_156.jpg,1,highway,right,,
,,,A39XW0561NNM5C,27,Female,8,2023-05-04_15h09.24.001,memory_pilot_most_recent,2022.2.4,Win32,5.950574528,,left,0,0.8744,8,1.2514,0,25,25,25,1,mountain_3.jpg,mountain_232.jpg,0,mountain,right,,
,,,A39XW0561NNM5C,27,Female,8,2023-05-04_15h09.24.001,memory_pilot_most_recent,2022.2.4,Win32,5.950574528,,left,0,0.4567,8,0.671,0,26,26,26,1,golf_course_97.jpg,golf_course_15.jpg,1,golf,right,,
,,,A39XW0561NNM5C,27,Female,8,2023-05-04_15h09.24.001,memory_pilot_most_recent,2022.2.4,Win32,5.950574528,,left,1,1.9101,8,1.4476,0,27,27,27,1,badlands_113.jpg,badlands_203.jpg,1,badlands,left,,
,,,A39XW0561NNM5C,27,Female,8,2023-05-04_15h09.24.001,memory_pilot_most_recent,2022.2.4,Win32,5.950574528,,left,1,1.0628,8,1.174,0,28,28,28,1,golf_course_217.jpg,golf_course_35.jpg,0,golf,left,,
,,,A39XW0561NNM5C,27,Female,8,2023-05-04_15h09.24.001,memory_pilot_most_recent,2022.2.4,Win32,5.950574528,,left,1,1.2354,8,1.1997,0,29,29,29,1,highway_394.jpg,highway_406.jpg,1,highway,left,,
,,,A39XW0561NNM5C,27,Female,8,2023-05-04_15h09.24.001,memory_pilot_most_recent,2022.2.4,Win32,5.950574528,,left,0,1.2357,8,1.2659,0,30,30,30,1,playground_43.jpg,playground_131.jpg,0,playground,right,,
,,,A39XW0561NNM5C,27,Female,8,2023-05-04_15h09.24.001,memory_pilot_most_recent,2022.2.4,Win32,5.950574528,,left,1,1.0376,8,1.8463,0,31,31,31,1,highway_359.jpg,highway_389.jpg,0,highway,left,,
,,,A39XW0561NNM5C,27,Female,8,2023-05-04_15h09.24.001,memory_pilot_most_recent,2022.2.4,Win32,5.950574528,,left,0,2.7722,8,1.0625,0,32,32,32,1,mountain_94.jpg,mountain_123.jpg,0,mountain,right,,
,,,A39XW0561NNM5C,27,Female,8,2023-05-04_15h09.24.001,memory_pilot_most_recent,2022.2.4,Win32,5.950574528,,left,1,1.2791,8,1.3,0,33,33,33,1,golf_course_331.jpg,golf_course_114.jpg,0,golf,left,,
,,,A39XW0561NNM5C,27,Female,8,2023-05-04_15h09.24.001,memory_pilot_most_recent,2022.2.4,Win32,5.950574528,,left,0,1.5412,8,1.3929,0,34,34,34,1,golf_course_2.jpg,golf_course_195.jpg,1,golf,right,,
,,,A39XW0561NNM5C,27,Female,8,2023-05-04_15h09.24.001,memory_pilot_most_recent,2022.2.4,Win32,5.950574528,,left,1,4.0953,8,0.4629,0,35,35,35,1,mountain_57.jpg,mountain_193.jpg,0,mountain,left,,
,,,A39XW0561NNM5C,27,Female,8,2023-05-04_15h09.24.001,memory_pilot_most_recent,2022.2.4,Win32,5.950574528,,left,0,1.2524,8,1.2847,0,36,36,36,1,badlands_119.jpg,badlands_70.jpg,1,badlands,right,,
,,,A39XW0561NNM5C,27,Female,8,2023-05-04_15h09.24.001,memory_pilot_most_recent,2022.2.4,Win32,5.950574528,,left,0,0.9145,8,1.4181,0,37,37,37,1,golf_course_123.jpg,golf_course_193.jpg,1,golf,right,,
,,,A39XW0561NNM5C,27,Female,8,2023-05-04_15h09.24.001,memory_pilot_most_recent,2022.2.4,Win32,5.950574528,,left,1,1.0839,8,1.32,0,38,38,38,1,bridge_250.jpg,bridge_134.jpg,0,bridge,left,,
,,,A39XW0561NNM5C,27,Female,8,2023-05-04_15h09.24.001,memory_pilot_most_recent,2022.2.4,Win32,5.950574528,,left,1,0.8166,8,1.2683,0,39,39,39,1,highway_177.jpg,highway_87.jpg,0,highway,left,,
,,,A39XW0561NNM5C,27,Female,8,2023-05-04_15h09.24.001,memory_pilot_most_recent,2022.2.4,Win32,5.950574528,,left,1,0.7993,8,1.3055,0,40,40,40,1,bridge_191.jpg,bridge_184.jpg,0,bridge,left,,
,,,A39XW0561NNM5C,27,Female,8,2023-05-04_15h09.24.001,memory_pilot_most_recent,2022.2.4,Win32,5.950574528,,left,1,0.8218,8,1.5606,0,41,41,41,1,bridge_256.jpg,bridge_211.jpg,1,bridge,left,,
,,,A39XW0561NNM5C,27,Female,8,2023-05-04_15h09.24.001,memory_pilot_most_recent,2022.2.4,Win32,5.950574528,,left,1,0.8199,8,1.3414,0,42,42,42,1,bridge_146.jpg,bridge_121.jpg,1,bridge,left,,
,,,A39XW0561NNM5C,27,Female,8,2023-05-04_15h09.24.001,memory_pilot_most_recent,2022.2.4,Win32,5.950574528,,left,0,1.1502,8,1.5699,0,43,43,43,1,golf_course_134.jpg,golf_course_78.jpg,0,golf,right,,
,,,A39XW0561NNM5C,27,Female,8,2023-05-04_15h09.24.001,memory_pilot_most_recent,2022.2.4,Win32,5.950574528,,left,0,0.8246,8,1.435,0,44,44,44,1,mountain_295.jpg,mountain_156.jpg,1,mountain,right,,
,,,A39XW0561NNM5C,27,Female,8,2023-05-04_15h09.24.001,memory_pilot_most_recent,2022.2.4,Win32,5.950574528,,left,1,0.9005,8,1.1199,0,45,45,45,1,badlands_52.jpg,badlands_94.jpg,0,badlands,left,,
,,,A39XW0561NNM5C,27,Female,8,2023-05-04_15h09.24.001,memory_pilot_most_recent,2022.2.4,Win32,5.950574528,,right,1,0.9957,8,1.1228,0,46,46,46,1,mountain_221.jpg,mountain_101.jpg,1,mountain,right,,
,,,A39XW0561NNM5C,27,Female,8,2023-05-04_15h09.24.001,memory_pilot_most_recent,2022.2.4,Win32,5.950574528,,left,1,0.9455,8,0.8537,0,47,47,47,1,highway_294.jpg,highway_368.jpg,1,highway,left,,
,,,A39XW0561NNM5C,27,Female,8,2023-05-04_15h09.24.001,memory_pilot_most_recent,2022.2.4,Win32,5.950574528,,left,1,1.0138,8,0.7329,0,48,48,48,1,golf_course_87.jpg,golf_course_161.jpg,1,golf,left,,
,,,A39XW0561NNM5C,27,Female,8,2023-05-04_15h09.24.001,memory_pilot_most_recent,2022.2.4,Win32,5.950574528,,right,0,0.8557,8,1.384,0,49,49,49,1,playground_219.jpg,playground_205.jpg,1,playground,left,,
,,,A39XW0561NNM5C,27,Female,8,2023-05-04_15h09.24.001,memory_pilot_most_recent,2022.2.4,Win32,5.950574528,,left,0,1.426,8,1.01,0,50,50,50,1,playground_12.jpg,playground_10.jpg,1,playground,right,,
,,,A39XW0561NNM5C,27,Female,8,2023-05-04_15h09.24.001,memory_pilot_most_recent,2022.2.4,Win32,5.950574528,,left,0,0.8934,8,0.9175,0,51,51,51,1,bridge_17.jpg,bridge_172.jpg,0,bridge,right,,
,,,A39XW0561NNM5C,27,Female,8,2023-05-04_15h09.24.001,memory_pilot_most_recent,2022.2.4,Win32,5.950574528,,right,1,0.4717,8,0.7576,0,52,52,52,1,bridge_244.jpg,bridge_128.jpg,1,bridge,right,,
,,,A39XW0561NNM5C,27,Female,8,2023-05-04_15h09.24.001,memory_pilot_most_recent,2022.2.4,Win32,5.950574528,,left,0,0.6427,8,0.7538,0,53,53,53,1,mountain_157.jpg,mountain_110.jpg,0,mountain,right,,
,,,A39XW0561NNM5C,27,Female,8,2023-05-04_15h09.24.001,memory_pilot_most_recent,2022.2.4,Win32,5.950574528,,left,1,0.3116,8,0.5566,0,54,54,54,1,playground_117.jpg,playground_127.jpg,1,playground,left,,
,,,A39XW0561NNM5C,27,Female,8,2023-05-04_15h09.24.001,memory_pilot_most_recent,2022.2.4,Win32,5.950574528,,left,1,0.6006,8,1.7124,0,55,55,55,1,badlands_137.jpg,badlands_194.jpg,0,badlands,left,,
,,,A39XW0561NNM5C,27,Female,8,2023-05-04_15h09.24.001,memory_pilot_most_recent,2022.2.4,Win32,5.950574528,,left,0,1.1767,8,0.8878,0,56,56,56,1,badlands_62.jpg,badlands_222.jpg,1,badlands,right,,
,,,A39XW0561NNM5C,27,Female,8,2023-05-04_15h09.24.001,memory_pilot_most_recent,2022.2.4,Win32,5.950574528,,left,0,0.1324,8,0.5782,0,57,57,57,1,highway_314.jpg,highway_209.jpg,0,highway,right,,
,,,A39XW0561NNM5C,27,Female,8,2023-05-04_15h09.24.001,memory_pilot_most_recent,2022.2.4,Win32,5.950574528,,left,0,0.1299,8,1.8701,0,58,58,58,1,badlands_103.jpg,badlands_184.jpg,1,badlands,right,,
,,,A39XW0561NNM5C,27,Female,8,2023-05-04_15h09.24.001,memory_pilot_most_recent,2022.2.4,Win32,5.950574528,,left,1,0.1658,8,0.5816,0,59,59,59,1,badlands_24.jpg,badlands_53.jpg,1,badlands,left,,
,,,A39XW0561NNM5C,27,Female,8,2023-05-04_15h09.24.001,memory_pilot_most_recent,2022.2.4,Win32,5.950574528,,,,,,,,,,,,,,,,,space,32.0145
