button.numClicks,button.timesOn,button.timesOff,workID,Age,Gender,Hours slept (last night),date,expName,psychopyVersion,OS,frameRate,space_key_responce.keys,test_test_response.keys,test_test_response.corr,test_test_response.rt,trials_2.thisRepN,trials_2.thisTrialN,trials_2.thisN,trials_2.thisIndex,trials_2.ran,image1,image2,layer,correct,key_resp_end_2.keys,key_resp_end_2.rt
1,[216.77459999990464],[216.77479999995234],A2RSBH1E3TEESG,42,Male,7,2023-01-17_10h00.23.892,memory_pilot_most_recent,2022.2.4,Win32,16.12669129,,,,,,,,,,,,,,,
,,,A2RSBH1E3TEESG,42,Male,7,2023-01-17_10h00.23.892,memory_pilot_most_recent,2022.2.4,Win32,16.12669129,,,,,,,,,,,,,,,
,,,A2RSBH1E3TEESG,42,Male,7,2023-01-17_10h00.23.892,memory_pilot_most_recent,2022.2.4,Win32,16.12669129,,,,,,,,,,,,,,,
,,,A2RSBH1E3TEESG,42,Male,7,2023-01-17_10h00.23.892,memory_pilot_most_recent,2022.2.4,Win32,16.12669129,,,,,,,,,,,,,,,
,,,A2RSBH1E3TEESG,42,Male,7,2023-01-17_10h00.23.892,memory_pilot_most_recent,2022.2.4,Win32,16.12669129,,,,,,,,,,,,,,,
,,,A2RSBH1E3TEESG,42,Male,7,2023-01-17_10h00.23.892,memory_pilot_most_recent,2022.2.4,Win32,16.12669129,,,,,,,,,,,,,,,
,,,A2RSBH1E3TEESG,42,Male,7,2023-01-17_10h00.23.892,memory_pilot_most_recent,2022.2.4,Win32,16.12669129,,left,1,3.0214,0,0,0,0,1,LITTLE_AUK_5.jpg,BEARDED_BELLBIRD_1.jpg,3,left,,
,,,A2RSBH1E3TEESG,42,Male,7,2023-01-17_10h00.23.892,memory_pilot_most_recent,2022.2.4,Win32,16.12669129,,right,1,1.7068,0,1,1,1,1,OYSTER_CATCHER_4.jpg,BROWN_THRASHER_3.jpg,2,right,,
,,,A2RSBH1E3TEESG,42,Male,7,2023-01-17_10h00.23.892,memory_pilot_most_recent,2022.2.4,Win32,16.12669129,,right,1,1.4888,0,2,2,2,1,BANANAQUIT_2.jpg,RUBY_THROATED_HUMMINGBIRD_1.jpg,1,right,,
,,,A2RSBH1E3TEESG,42,Male,7,2023-01-17_10h00.23.892,memory_pilot_most_recent,2022.2.4,Win32,16.12669129,,right,1,1.9016,0,3,3,3,1,DOUBLE_BRESTED_CORMARANT_1.jpg,SPLENDID_WREN_1.jpg,2,right,,
,,,A2RSBH1E3TEESG,42,Male,7,2023-01-17_10h00.23.892,memory_pilot_most_recent,2022.2.4,Win32,16.12669129,,right,1,1.5808,0,4,4,4,1,GREAT_POTOO_3.jpg,WHITE_CHEEKED_TURACO_5.jpg,2,right,,
,,,A2RSBH1E3TEESG,42,Male,7,2023-01-17_10h00.23.892,memory_pilot_most_recent,2022.2.4,Win32,16.12669129,,right,1,1.4151,0,5,5,5,1,MAGPIE_GOOSE_3.jpg,RUFOUS_KINGFISHER_1.jpg,2,right,,
,,,A2RSBH1E3TEESG,42,Male,7,2023-01-17_10h00.23.892,memory_pilot_most_recent,2022.2.4,Win32,16.12669129,,right,1,1.4958,0,6,6,6,1,INDIAN_BUSTARD_2.jpg,FLAME_BOWERBIRD_3.jpg,1,right,,
,,,A2RSBH1E3TEESG,42,Male,7,2023-01-17_10h00.23.892,memory_pilot_most_recent,2022.2.4,Win32,16.12669129,,right,1,1.3192,0,7,7,7,1,FAIRY_TERN_4.jpg,IVORY_GULL_1.jpg,3,right,,
,,,A2RSBH1E3TEESG,42,Male,7,2023-01-17_10h00.23.892,memory_pilot_most_recent,2022.2.4,Win32,16.12669129,,right,1,4.5948,0,8,8,8,1,CRAB_PLOVER_3.jpg,NORTHERN_JACANA_3.jpg,2,right,,
,,,A2RSBH1E3TEESG,42,Male,7,2023-01-17_10h00.23.892,memory_pilot_most_recent,2022.2.4,Win32,16.12669129,,left,0,1.6604,0,9,9,9,1,CALIFORNIA_GULL_2.jpg,PARUS_MAJOR_1.jpg,2,right,,
,,,A2RSBH1E3TEESG,42,Male,7,2023-01-17_10h00.23.892,memory_pilot_most_recent,2022.2.4,Win32,16.12669129,,left,1,1.7461,0,10,10,10,1,LESSER_ADJUTANT_4.jpg,RAINBOW_LORIKEET_5.jpg,2,left,,
,,,A2RSBH1E3TEESG,42,Male,7,2023-01-17_10h00.23.892,memory_pilot_most_recent,2022.2.4,Win32,16.12669129,,left,1,0.1956,0,11,11,11,1,GOLDEN_CHLOROPHONIA_5.jpg,COMMON_HOUSE_MARTIN_4.jpg,2,left,,
,,,A2RSBH1E3TEESG,42,Male,7,2023-01-17_10h00.23.892,memory_pilot_most_recent,2022.2.4,Win32,16.12669129,,right,1,2.2601,0,12,12,12,1,GRANDALA_2.jpg,PYGMY_KINGFISHER_5.jpg,1,right,,
,,,A2RSBH1E3TEESG,42,Male,7,2023-01-17_10h00.23.892,memory_pilot_most_recent,2022.2.4,Win32,16.12669129,,right,1,3.1587,0,13,13,13,1,CRESTED_KINGFISHER_1.jpg,INLAND_DOTTEREL_4.jpg,3,right,,
,,,A2RSBH1E3TEESG,42,Male,7,2023-01-17_10h00.23.892,memory_pilot_most_recent,2022.2.4,Win32,16.12669129,,right,0,1.313,0,14,14,14,1,GOLDEN_CHEEKED_WARBLER_2.jpg,SPOONBILL_1.jpg,1,left,,
,,,A2RSBH1E3TEESG,42,Male,7,2023-01-17_10h00.23.892,memory_pilot_most_recent,2022.2.4,Win32,16.12669129,,left,1,1.6229,0,15,15,15,1,BREWERS_BLACKBIRD_3.jpg,CAPE_LONGCLAW_2.jpg,3,left,,
,,,A2RSBH1E3TEESG,42,Male,7,2023-01-17_10h00.23.892,memory_pilot_most_recent,2022.2.4,Win32,16.12669129,,right,0,2.316,0,16,16,16,1,CHUKAR_PARTRIDGE_5.jpg,OSTRICH_5.jpg,1,left,,
,,,A2RSBH1E3TEESG,42,Male,7,2023-01-17_10h00.23.892,memory_pilot_most_recent,2022.2.4,Win32,16.12669129,,left,1,2.2523,0,17,17,17,1,EUROPEAN_TURTLE_DOVE_3.jpg,TEAL_DUCK_2.jpg,1,left,,
,,,A2RSBH1E3TEESG,42,Male,7,2023-01-17_10h00.23.892,memory_pilot_most_recent,2022.2.4,Win32,16.12669129,,right,1,2.1064,0,18,18,18,1,NORTHERN_GANNET_1.jpg,INDIGO_BUNTING_1.jpg,2,right,,
,,,A2RSBH1E3TEESG,42,Male,7,2023-01-17_10h00.23.892,memory_pilot_most_recent,2022.2.4,Win32,16.12669129,,right,1,2.3678,0,19,19,19,1,BORNEAN_LEAFBIRD_1.jpg,SCARLET_TANAGER_2.jpg,3,right,,
,,,A2RSBH1E3TEESG,42,Male,7,2023-01-17_10h00.23.892,memory_pilot_most_recent,2022.2.4,Win32,16.12669129,,right,1,2.3186,0,20,20,20,1,BLACK_VULTURE_1.jpg,ARARIPE_MANAKIN_4.jpg,2,right,,
,,,A2RSBH1E3TEESG,42,Male,7,2023-01-17_10h00.23.892,memory_pilot_most_recent,2022.2.4,Win32,16.12669129,,left,1,1.229,0,21,21,21,1,PEACOCK_3.jpg,ANIANIAU_2.jpg,1,left,,
,,,A2RSBH1E3TEESG,42,Male,7,2023-01-17_10h00.23.892,memory_pilot_most_recent,2022.2.4,Win32,16.12669129,,left,1,1.8023,0,22,22,22,1,AMERICAN_PIPIT_5.jpg,GREEN_MAGPIE_1.jpg,2,left,,
,,,A2RSBH1E3TEESG,42,Male,7,2023-01-17_10h00.23.892,memory_pilot_most_recent,2022.2.4,Win32,16.12669129,,right,1,1.6871,0,23,23,23,1,DOUBLE_EYED_FIG_PARROT_5.jpg,MAGPIE_GOOSE_5.jpg,1,right,,
,,,A2RSBH1E3TEESG,42,Male,7,2023-01-17_10h00.23.892,memory_pilot_most_recent,2022.2.4,Win32,16.12669129,,right,0,6.3875,0,24,24,24,1,CERULEAN_WARBLER_1.jpg,AMERICAN_FLAMINGO_2.jpg,1,left,,
,,,A2RSBH1E3TEESG,42,Male,7,2023-01-17_10h00.23.892,memory_pilot_most_recent,2022.2.4,Win32,16.12669129,,left,1,1.7061,0,25,25,25,1,MYNA_1.jpg,GREY_PLOVER_4.jpg,2,left,,
,,,A2RSBH1E3TEESG,42,Male,7,2023-01-17_10h00.23.892,memory_pilot_most_recent,2022.2.4,Win32,16.12669129,,left,1,1.395,0,26,26,26,1,DOUBLE_BRESTED_CORMARANT_5.jpg,CHINESE_POND_HERON_2.jpg,3,left,,
,,,A2RSBH1E3TEESG,42,Male,7,2023-01-17_10h00.23.892,memory_pilot_most_recent,2022.2.4,Win32,16.12669129,,left,1,1.6332,0,27,27,27,1,RED_HEADED_WOODPECKER_5.jpg,ASHY_STORM_PETREL_2.jpg,1,left,,
,,,A2RSBH1E3TEESG,42,Male,7,2023-01-17_10h00.23.892,memory_pilot_most_recent,2022.2.4,Win32,16.12669129,,left,1,1.448,0,28,28,28,1,IVORY_GULL_3.jpg,SNOWY_EGRET_4.jpg,3,left,,
,,,A2RSBH1E3TEESG,42,Male,7,2023-01-17_10h00.23.892,memory_pilot_most_recent,2022.2.4,Win32,16.12669129,,left,1,1.6456,0,29,29,29,1,GRAY_KINGBIRD_5.jpg,AFRICAN_FIREFINCH_3.jpg,3,left,,
,,,A2RSBH1E3TEESG,42,Male,7,2023-01-17_10h00.23.892,memory_pilot_most_recent,2022.2.4,Win32,16.12669129,,right,1,1.8356,0,30,30,30,1,CANARY_1.jpg,CRESTED_NUTHATCH_2.jpg,3,right,,
,,,A2RSBH1E3TEESG,42,Male,7,2023-01-17_10h00.23.892,memory_pilot_most_recent,2022.2.4,Win32,16.12669129,,right,1,1.4668,0,31,31,31,1,GO_AWAY_BIRD_5.jpg,STRIPPED_SWALLOW_1.jpg,3,right,,
,,,A2RSBH1E3TEESG,42,Male,7,2023-01-17_10h00.23.892,memory_pilot_most_recent,2022.2.4,Win32,16.12669129,,right,1,1.802,0,32,32,32,1,CRIMSON_SUNBIRD_5.jpg,ECUADORIAN_HILLSTAR_5.jpg,3,right,,
,,,A2RSBH1E3TEESG,42,Male,7,2023-01-17_10h00.23.892,memory_pilot_most_recent,2022.2.4,Win32,16.12669129,,left,1,1.619,0,33,33,33,1,KILLDEAR_2.jpg,PEACOCK_5.jpg,1,left,,
,,,A2RSBH1E3TEESG,42,Male,7,2023-01-17_10h00.23.892,memory_pilot_most_recent,2022.2.4,Win32,16.12669129,,right,1,2.0898,0,34,34,34,1,SMITHS_LONGSPUR_5.jpg,INCA_TERN_4.jpg,2,right,,
,,,A2RSBH1E3TEESG,42,Male,7,2023-01-17_10h00.23.892,memory_pilot_most_recent,2022.2.4,Win32,16.12669129,,left,1,3.0198,0,35,35,35,1,TASMANIAN_HEN_5.jpg,AFRICAN_EMERALD_CUCKOO_5.jpg,2,left,,
,,,A2RSBH1E3TEESG,42,Male,7,2023-01-17_10h00.23.892,memory_pilot_most_recent,2022.2.4,Win32,16.12669129,,right,0,2.8866,0,36,36,36,1,OCELLATED_TURKEY_1.jpg,AMERICAN_PIPIT_1.jpg,2,left,,
,,,A2RSBH1E3TEESG,42,Male,7,2023-01-17_10h00.23.892,memory_pilot_most_recent,2022.2.4,Win32,16.12669129,,right,1,2.6809,0,37,37,37,1,SPANGLED_COTINGA_4.jpg,BROWN_NOODY_3.jpg,2,right,,
,,,A2RSBH1E3TEESG,42,Male,7,2023-01-17_10h00.23.892,memory_pilot_most_recent,2022.2.4,Win32,16.12669129,,left,1,3.9373,0,38,38,38,1,EASTERN_TOWEE_2.jpg,GOLDEN_CHLOROPHONIA_1.jpg,2,left,,
,,,A2RSBH1E3TEESG,42,Male,7,2023-01-17_10h00.23.892,memory_pilot_most_recent,2022.2.4,Win32,16.12669129,,left,1,4.6697,0,39,39,39,1,CASSOWARY_1.jpg,SCARLET_MACAW_1.jpg,2,left,,
,,,A2RSBH1E3TEESG,42,Male,7,2023-01-17_10h00.23.892,memory_pilot_most_recent,2022.2.4,Win32,16.12669129,,right,1,1.6174,0,40,40,40,1,BALD_EAGLE_5.jpg,SHOEBILL_3.jpg,3,right,,
,,,A2RSBH1E3TEESG,42,Male,7,2023-01-17_10h00.23.892,memory_pilot_most_recent,2022.2.4,Win32,16.12669129,,left,1,1.6172,0,41,41,41,1,PINK_ROBIN_4.jpg,SPOONBILL_3.jpg,1,left,,
,,,A2RSBH1E3TEESG,42,Male,7,2023-01-17_10h00.23.892,memory_pilot_most_recent,2022.2.4,Win32,16.12669129,,left,1,4.1236,0,42,42,42,1,GREY_PLOVER_1.jpg,HYACINTH_MACAW_3.jpg,1,left,,
,,,A2RSBH1E3TEESG,42,Male,7,2023-01-17_10h00.23.892,memory_pilot_most_recent,2022.2.4,Win32,16.12669129,,left,1,1.9932,0,43,43,43,1,CRESTED_CARACARA_4.jpg,TOUCHAN_4.jpg,3,left,,
,,,A2RSBH1E3TEESG,42,Male,7,2023-01-17_10h00.23.892,memory_pilot_most_recent,2022.2.4,Win32,16.12669129,,left,1,1.4794,0,44,44,44,1,CASPIAN_TERN_1.jpg,COMMON_LOON_2.jpg,3,left,,
,,,A2RSBH1E3TEESG,42,Male,7,2023-01-17_10h00.23.892,memory_pilot_most_recent,2022.2.4,Win32,16.12669129,,right,1,1.2896,0,45,45,45,1,APAPANE_4.jpg,RUBY_THROATED_HUMMINGBIRD_2.jpg,2,right,,
,,,A2RSBH1E3TEESG,42,Male,7,2023-01-17_10h00.23.892,memory_pilot_most_recent,2022.2.4,Win32,16.12669129,,right,1,1.3006,0,46,46,46,1,CUBAN_TODY_3.jpg,HAWAIIAN_GOOSE_4.jpg,1,right,,
,,,A2RSBH1E3TEESG,42,Male,7,2023-01-17_10h00.23.892,memory_pilot_most_recent,2022.2.4,Win32,16.12669129,,right,1,1.8903,0,47,47,47,1,FAIRY_TERN_1.jpg,GYRFALCON_1.jpg,3,right,,
,,,A2RSBH1E3TEESG,42,Male,7,2023-01-17_10h00.23.892,memory_pilot_most_recent,2022.2.4,Win32,16.12669129,,right,1,1.729,0,48,48,48,1,BOBOLINK_3.jpg,ALPINE_CHOUGH_4.jpg,3,right,,
,,,A2RSBH1E3TEESG,42,Male,7,2023-01-17_10h00.23.892,memory_pilot_most_recent,2022.2.4,Win32,16.12669129,,right,1,2.5267,0,49,49,49,1,PEACOCK_1.jpg,LARK_BUNTING_2.jpg,1,right,,
,,,A2RSBH1E3TEESG,42,Male,7,2023-01-17_10h00.23.892,memory_pilot_most_recent,2022.2.4,Win32,16.12669129,,right,1,1.3507,0,50,50,50,1,CANARY_2.jpg,ASIAN_CRESTED_IBIS_4.jpg,1,right,,
,,,A2RSBH1E3TEESG,42,Male,7,2023-01-17_10h00.23.892,memory_pilot_most_recent,2022.2.4,Win32,16.12669129,,left,1,1.3378,0,51,51,51,1,VERMILION_FLYCATHER_3.jpg,INDIAN_BUSTARD_1.jpg,1,left,,
,,,A2RSBH1E3TEESG,42,Male,7,2023-01-17_10h00.23.892,memory_pilot_most_recent,2022.2.4,Win32,16.12669129,,left,1,3.2042,0,52,52,52,1,MALACHITE_KINGFISHER_2.jpg,AMERICAN_FLAMINGO_1.jpg,1,left,,
,,,A2RSBH1E3TEESG,42,Male,7,2023-01-17_10h00.23.892,memory_pilot_most_recent,2022.2.4,Win32,16.12669129,,right,1,1.602,0,53,53,53,1,ASHY_STORM_PETREL_1.jpg,KAGU_5.jpg,2,right,,
,,,A2RSBH1E3TEESG,42,Male,7,2023-01-17_10h00.23.892,memory_pilot_most_recent,2022.2.4,Win32,16.12669129,,left,1,1.8899,0,54,54,54,1,BALI_STARLING_1.jpg,IBERIAN_MAGPIE_1.jpg,3,left,,
,,,A2RSBH1E3TEESG,42,Male,7,2023-01-17_10h00.23.892,memory_pilot_most_recent,2022.2.4,Win32,16.12669129,,right,1,1.4321,0,55,55,55,1,KIWI_4.jpg,AFRICAN_PIED_HORNBILL_5.jpg,1,right,,
,,,A2RSBH1E3TEESG,42,Male,7,2023-01-17_10h00.23.892,memory_pilot_most_recent,2022.2.4,Win32,16.12669129,,left,1,2.2836,0,56,56,56,1,LESSER_ADJUTANT_5.jpg,RED_HEADED_WOODPECKER_1.jpg,3,left,,
,,,A2RSBH1E3TEESG,42,Male,7,2023-01-17_10h00.23.892,memory_pilot_most_recent,2022.2.4,Win32,16.12669129,,right,1,1.3933,0,57,57,57,1,NORTHERN_SHOVELER_1.jpg,RUBY_THROATED_HUMMINGBIRD_3.jpg,3,right,,
,,,A2RSBH1E3TEESG,42,Male,7,2023-01-17_10h00.23.892,memory_pilot_most_recent,2022.2.4,Win32,16.12669129,,right,1,1.3459,0,58,58,58,1,MYNA_4.jpg,OVENBIRD_5.jpg,1,right,,
,,,A2RSBH1E3TEESG,42,Male,7,2023-01-17_10h00.23.892,memory_pilot_most_recent,2022.2.4,Win32,16.12669129,,right,1,2.363,0,59,59,59,1,VIOLET_GREEN_SWALLOW_4.jpg,ASIAN_DOLLARD_BIRD_2.jpg,3,right,,
,,,A2RSBH1E3TEESG,42,Male,7,2023-01-17_10h00.23.892,memory_pilot_most_recent,2022.2.4,Win32,16.12669129,,,,,,,,,,,,,,space,77.9832
