button.numClicks,button.timesOn,button.timesOff,workID,Age,Gender,Hours slept (last night),date,expName,psychopyVersion,OS,frameRate,space_key_responce.keys,test_test_response.keys,test_test_response.corr,test_test_response.rt,trials_2.thisRepN,trials_2.thisTrialN,trials_2.thisN,trials_2.thisIndex,trials_2.ran,image1,image2,layer,correct,key_resp_end_2.keys,key_resp_end_2.rt
1,[25.555399999976146],[25.555399999976146],A30RAYNDOWQ61S,60,Male,8,2023-01-17_08h50.15.721,memory_pilot_most_recent,2022.2.4,Win32,59.93766483,,,,,,,,,,,,,,,
,,,A30RAYNDOWQ61S,60,Male,8,2023-01-17_08h50.15.721,memory_pilot_most_recent,2022.2.4,Win32,59.93766483,,,,,,,,,,,,,,,
,,,A30RAYNDOWQ61S,60,Male,8,2023-01-17_08h50.15.721,memory_pilot_most_recent,2022.2.4,Win32,59.93766483,,,,,,,,,,,,,,,
,,,A30RAYNDOWQ61S,60,Male,8,2023-01-17_08h50.15.721,memory_pilot_most_recent,2022.2.4,Win32,59.93766483,,,,,,,,,,,,,,,
,,,A30RAYNDOWQ61S,60,Male,8,2023-01-17_08h50.15.721,memory_pilot_most_recent,2022.2.4,Win32,59.93766483,,,,,,,,,,,,,,,
,,,A30RAYNDOWQ61S,60,Male,8,2023-01-17_08h50.15.721,memory_pilot_most_recent,2022.2.4,Win32,59.93766483,,,,,,,,,,,,,,,
,,,A30RAYNDOWQ61S,60,Male,8,2023-01-17_08h50.15.721,memory_pilot_most_recent,2022.2.4,Win32,59.93766483,,left,1,2.6254,0,0,0,0,1,PARUS_MAJOR_1.jpg,SANDHILL_CRANE_4.jpg,1,left,,
,,,A30RAYNDOWQ61S,60,Male,8,2023-01-17_08h50.15.721,memory_pilot_most_recent,2022.2.4,Win32,59.93766483,,left,1,3.1028,0,1,1,1,1,CERULEAN_WARBLER_1.jpg,BANANAQUIT_1.jpg,3,left,,
,,,A30RAYNDOWQ61S,60,Male,8,2023-01-17_08h50.15.721,memory_pilot_most_recent,2022.2.4,Win32,59.93766483,,left,1,3.1934,0,2,2,2,1,LESSER_ADJUTANT_5.jpg,RED_HEADED_WOODPECKER_1.jpg,3,left,,
,,,A30RAYNDOWQ61S,60,Male,8,2023-01-17_08h50.15.721,memory_pilot_most_recent,2022.2.4,Win32,59.93766483,,right,1,1.3334,0,3,3,3,1,NORTHERN_GANNET_2.jpg,SCARLET_TANAGER_2.jpg,2,right,,
,,,A30RAYNDOWQ61S,60,Male,8,2023-01-17_08h50.15.721,memory_pilot_most_recent,2022.2.4,Win32,59.93766483,,left,1,2.2356,0,4,4,4,1,INDIGO_BUNTING_1.jpg,FRIGATE_4.jpg,1,left,,
,,,A30RAYNDOWQ61S,60,Male,8,2023-01-17_08h50.15.721,memory_pilot_most_recent,2022.2.4,Win32,59.93766483,,right,1,2.4411,0,5,5,5,1,GOLDEN_CHLOROPHONIA_2.jpg,RUBY_THROATED_HUMMINGBIRD_2.jpg,1,right,,
,,,A30RAYNDOWQ61S,60,Male,8,2023-01-17_08h50.15.721,memory_pilot_most_recent,2022.2.4,Win32,59.93766483,,left,1,1.1837,0,6,6,6,1,RUBY_THROATED_HUMMINGBIRD_1.jpg,FRIGATE_1.jpg,3,left,,
,,,A30RAYNDOWQ61S,60,Male,8,2023-01-17_08h50.15.721,memory_pilot_most_recent,2022.2.4,Win32,59.93766483,,left,1,4.7348,0,7,7,7,1,ASIAN_CRESTED_IBIS_4.jpg,OYSTER_CATCHER_2.jpg,2,left,,
,,,A30RAYNDOWQ61S,60,Male,8,2023-01-17_08h50.15.721,memory_pilot_most_recent,2022.2.4,Win32,59.93766483,,left,0,6.6312,0,8,8,8,1,WATTLED_LAPWING_3.jpg,HAWAIIAN_GOOSE_4.jpg,3,right,,
,,,A30RAYNDOWQ61S,60,Male,8,2023-01-17_08h50.15.721,memory_pilot_most_recent,2022.2.4,Win32,59.93766483,,left,1,1.6452,0,9,9,9,1,KAGU_5.jpg,ASHY_STORM_PETREL_1.jpg,2,left,,
,,,A30RAYNDOWQ61S,60,Male,8,2023-01-17_08h50.15.721,memory_pilot_most_recent,2022.2.4,Win32,59.93766483,,right,1,1.6976,0,10,10,10,1,CRAB_PLOVER_3.jpg,NORTHERN_JACANA_3.jpg,2,right,,
,,,A30RAYNDOWQ61S,60,Male,8,2023-01-17_08h50.15.721,memory_pilot_most_recent,2022.2.4,Win32,59.93766483,,right,0,5.0943,0,11,11,11,1,EASTERN_TOWEE_2.jpg,SANDHILL_CRANE_2.jpg,1,left,,
,,,A30RAYNDOWQ61S,60,Male,8,2023-01-17_08h50.15.721,memory_pilot_most_recent,2022.2.4,Win32,59.93766483,,right,1,1.4013,0,12,12,12,1,AFRICAN_EMERALD_CUCKOO_5.jpg,TASMANIAN_HEN_5.jpg,2,right,,
,,,A30RAYNDOWQ61S,60,Male,8,2023-01-17_08h50.15.721,memory_pilot_most_recent,2022.2.4,Win32,59.93766483,,right,1,1.4499,0,13,13,13,1,ANIANIAU_2.jpg,PEACOCK_3.jpg,1,right,,
,,,A30RAYNDOWQ61S,60,Male,8,2023-01-17_08h50.15.721,memory_pilot_most_recent,2022.2.4,Win32,59.93766483,,right,0,2.0536,0,14,14,14,1,WHITE_CHEEKED_TURACO_5.jpg,NORTHERN_MOCKINGBIRD_4.jpg,1,left,,
,,,A30RAYNDOWQ61S,60,Male,8,2023-01-17_08h50.15.721,memory_pilot_most_recent,2022.2.4,Win32,59.93766483,,left,1,1.3311,0,15,15,15,1,IVORY_GULL_1.jpg,FAIRY_TERN_4.jpg,3,left,,
,,,A30RAYNDOWQ61S,60,Male,8,2023-01-17_08h50.15.721,memory_pilot_most_recent,2022.2.4,Win32,59.93766483,,right,1,2.3241,0,16,16,16,1,INDIAN_PITTA_2.jpg,CRESTED_CARACARA_4.jpg,2,right,,
,,,A30RAYNDOWQ61S,60,Male,8,2023-01-17_08h50.15.721,memory_pilot_most_recent,2022.2.4,Win32,59.93766483,,left,1,1.8003,0,17,17,17,1,AMERICAN_PIPIT_5.jpg,EMU_2.jpg,1,left,,
,,,A30RAYNDOWQ61S,60,Male,8,2023-01-17_08h50.15.721,memory_pilot_most_recent,2022.2.4,Win32,59.93766483,,right,1,1.6455,0,18,18,18,1,ECUADORIAN_HILLSTAR_3.jpg,GREY_PLOVER_1.jpg,3,right,,
,,,A30RAYNDOWQ61S,60,Male,8,2023-01-17_08h50.15.721,memory_pilot_most_recent,2022.2.4,Win32,59.93766483,,right,1,1.2662,0,19,19,19,1,MYNA_5.jpg,RUBY_THROATED_HUMMINGBIRD_3.jpg,2,right,,
,,,A30RAYNDOWQ61S,60,Male,8,2023-01-17_08h50.15.721,memory_pilot_most_recent,2022.2.4,Win32,59.93766483,,right,0,4.3833,0,20,20,20,1,ARARIPE_MANAKIN_4.jpg,BLACK_VULTURE_1.jpg,2,left,,
,,,A30RAYNDOWQ61S,60,Male,8,2023-01-17_08h50.15.721,memory_pilot_most_recent,2022.2.4,Win32,59.93766483,,right,1,1.5167,0,21,21,21,1,NICOBAR_PIGEON_4.jpg,INLAND_DOTTEREL_4.jpg,2,right,,
,,,A30RAYNDOWQ61S,60,Male,8,2023-01-17_08h50.15.721,memory_pilot_most_recent,2022.2.4,Win32,59.93766483,,right,1,2.5545,0,22,22,22,1,AFRICAN_FIREFINCH_1.jpg,CRESTED_NUTHATCH_2.jpg,2,right,,
,,,A30RAYNDOWQ61S,60,Male,8,2023-01-17_08h50.15.721,memory_pilot_most_recent,2022.2.4,Win32,59.93766483,,left,1,1.3461,0,23,23,23,1,LESSER_ADJUTANT_4.jpg,FAIRY_TERN_3.jpg,3,left,,
,,,A30RAYNDOWQ61S,60,Male,8,2023-01-17_08h50.15.721,memory_pilot_most_recent,2022.2.4,Win32,59.93766483,,left,1,1.0919,0,24,24,24,1,LITTLE_AUK_5.jpg,SANDHILL_CRANE_3.jpg,1,left,,
,,,A30RAYNDOWQ61S,60,Male,8,2023-01-17_08h50.15.721,memory_pilot_most_recent,2022.2.4,Win32,59.93766483,,left,1,3.2996,0,25,25,25,1,DOUBLE_BRESTED_CORMARANT_5.jpg,EURASIAN_MAGPIE_4.jpg,2,left,,
,,,A30RAYNDOWQ61S,60,Male,8,2023-01-17_08h50.15.721,memory_pilot_most_recent,2022.2.4,Win32,59.93766483,,right,1,1.3713,0,26,26,26,1,INDIAN_BUSTARD_1.jpg,VERMILION_FLYCATHER_3.jpg,1,right,,
,,,A30RAYNDOWQ61S,60,Male,8,2023-01-17_08h50.15.721,memory_pilot_most_recent,2022.2.4,Win32,59.93766483,,right,1,2.0352,0,27,27,27,1,COLLARED_ARACARI_1.jpg,RED_HEADED_WOODPECKER_5.jpg,3,right,,
,,,A30RAYNDOWQ61S,60,Male,8,2023-01-17_08h50.15.721,memory_pilot_most_recent,2022.2.4,Win32,59.93766483,,left,0,4.552,0,28,28,28,1,SMITHS_LONGSPUR_5.jpg,INCA_TERN_4.jpg,2,right,,
,,,A30RAYNDOWQ61S,60,Male,8,2023-01-17_08h50.15.721,memory_pilot_most_recent,2022.2.4,Win32,59.93766483,,right,1,1.7049,0,29,29,29,1,ALEXANDRINE_PARAKEET_1.jpg,AFRICAN_PIED_HORNBILL_5.jpg,2,right,,
,,,A30RAYNDOWQ61S,60,Male,8,2023-01-17_08h50.15.721,memory_pilot_most_recent,2022.2.4,Win32,59.93766483,,left,1,3.7641,0,30,30,30,1,GOLDEN_CHLOROPHONIA_5.jpg,ROADRUNNER_2.jpg,1,left,,
,,,A30RAYNDOWQ61S,60,Male,8,2023-01-17_08h50.15.721,memory_pilot_most_recent,2022.2.4,Win32,59.93766483,,right,1,1.4762,0,31,31,31,1,DOUBLE_BRESTED_CORMARANT_4.jpg,STRIPPED_SWALLOW_1.jpg,1,right,,
,,,A30RAYNDOWQ61S,60,Male,8,2023-01-17_08h50.15.721,memory_pilot_most_recent,2022.2.4,Win32,59.93766483,,left,1,3.5665,0,32,32,32,1,BROWN_THRASHER_3.jpg,BLACK_BAZA_4.jpg,3,left,,
,,,A30RAYNDOWQ61S,60,Male,8,2023-01-17_08h50.15.721,memory_pilot_most_recent,2022.2.4,Win32,59.93766483,,left,1,2.0411,0,33,33,33,1,KILLDEAR_2.jpg,AZURE_TIT_5.jpg,3,left,,
,,,A30RAYNDOWQ61S,60,Male,8,2023-01-17_08h50.15.721,memory_pilot_most_recent,2022.2.4,Win32,59.93766483,,left,1,1.5902,0,34,34,34,1,MALACHITE_KINGFISHER_2.jpg,AMERICAN_FLAMINGO_1.jpg,1,left,,
,,,A30RAYNDOWQ61S,60,Male,8,2023-01-17_08h50.15.721,memory_pilot_most_recent,2022.2.4,Win32,59.93766483,,left,0,4.662,0,35,35,35,1,MALABAR_HORNBILL_2.jpg,EUROPEAN_TURTLE_DOVE_3.jpg,3,right,,
,,,A30RAYNDOWQ61S,60,Male,8,2023-01-17_08h50.15.721,memory_pilot_most_recent,2022.2.4,Win32,59.93766483,,right,1,2.8425,0,36,36,36,1,POMARINE_JAEGER_5.jpg,SPLENDID_WREN_1.jpg,1,right,,
,,,A30RAYNDOWQ61S,60,Male,8,2023-01-17_08h50.15.721,memory_pilot_most_recent,2022.2.4,Win32,59.93766483,,left,1,2.3333,0,37,37,37,1,IVORY_GULL_3.jpg,FLAME_TANAGER_3.jpg,2,left,,
,,,A30RAYNDOWQ61S,60,Male,8,2023-01-17_08h50.15.721,memory_pilot_most_recent,2022.2.4,Win32,59.93766483,,right,0,4.0164,0,38,38,38,1,OCELLATED_TURKEY_1.jpg,CHIPPING_SPARROW_1.jpg,1,left,,
,,,A30RAYNDOWQ61S,60,Male,8,2023-01-17_08h50.15.721,memory_pilot_most_recent,2022.2.4,Win32,59.93766483,,right,1,1.3771,0,39,39,39,1,BALD_EAGLE_5.jpg,SHOEBILL_3.jpg,3,right,,
,,,A30RAYNDOWQ61S,60,Male,8,2023-01-17_08h50.15.721,memory_pilot_most_recent,2022.2.4,Win32,59.93766483,,right,1,3.2802,0,40,40,40,1,DOUBLE_EYED_FIG_PARROT_4.jpg,PYGMY_KINGFISHER_5.jpg,3,right,,
,,,A30RAYNDOWQ61S,60,Male,8,2023-01-17_08h50.15.721,memory_pilot_most_recent,2022.2.4,Win32,59.93766483,,right,1,3.6124,0,41,41,41,1,PURPLE_FINCH_2.jpg,BALI_STARLING_1.jpg,2,right,,
,,,A30RAYNDOWQ61S,60,Male,8,2023-01-17_08h50.15.721,memory_pilot_most_recent,2022.2.4,Win32,59.93766483,,right,1,2.0984,0,42,42,42,1,BALD_EAGLE_2.jpg,GRAY_KINGBIRD_5.jpg,1,right,,
,,,A30RAYNDOWQ61S,60,Male,8,2023-01-17_08h50.15.721,memory_pilot_most_recent,2022.2.4,Win32,59.93766483,,left,1,3.9664,0,43,43,43,1,MYNA_1.jpg,PARADISE_TANAGER_3.jpg,3,left,,
,,,A30RAYNDOWQ61S,60,Male,8,2023-01-17_08h50.15.721,memory_pilot_most_recent,2022.2.4,Win32,59.93766483,,left,1,2.5985,0,44,44,44,1,FLAME_BOWERBIRD_3.jpg,BROWN_THRASHER_4.jpg,2,left,,
,,,A30RAYNDOWQ61S,60,Male,8,2023-01-17_08h50.15.721,memory_pilot_most_recent,2022.2.4,Win32,59.93766483,,left,1,1.8665,0,45,45,45,1,CASSOWARY_1.jpg,SCARLET_MACAW_1.jpg,2,left,,
,,,A30RAYNDOWQ61S,60,Male,8,2023-01-17_08h50.15.721,memory_pilot_most_recent,2022.2.4,Win32,59.93766483,,right,1,2.147,0,46,46,46,1,PEACOCK_1.jpg,LARK_BUNTING_2.jpg,1,right,,
,,,A30RAYNDOWQ61S,60,Male,8,2023-01-17_08h50.15.721,memory_pilot_most_recent,2022.2.4,Win32,59.93766483,,left,1,5.7561,0,47,47,47,1,ASIAN_DOLLARD_BIRD_2.jpg,LOGGERHEAD_SHRIKE_4.jpg,2,left,,
,,,A30RAYNDOWQ61S,60,Male,8,2023-01-17_08h50.15.721,memory_pilot_most_recent,2022.2.4,Win32,59.93766483,,right,1,3.1727,0,48,48,48,1,SPOONBILL_1.jpg,GOLDEN_CHEEKED_WARBLER_2.jpg,1,right,,
,,,A30RAYNDOWQ61S,60,Male,8,2023-01-17_08h50.15.721,memory_pilot_most_recent,2022.2.4,Win32,59.93766483,,left,1,2.2373,0,49,49,49,1,PINK_ROBIN_4.jpg,COMMON_IORA_4.jpg,3,left,,
,,,A30RAYNDOWQ61S,60,Male,8,2023-01-17_08h50.15.721,memory_pilot_most_recent,2022.2.4,Win32,59.93766483,,right,1,1.8581,0,50,50,50,1,BOBOLINK_3.jpg,ALPINE_CHOUGH_4.jpg,3,right,,
,,,A30RAYNDOWQ61S,60,Male,8,2023-01-17_08h50.15.721,memory_pilot_most_recent,2022.2.4,Win32,59.93766483,,right,1,1.5166,0,51,51,51,1,HORNED_SUNGEM_4.jpg,RUFOUS_KINGFISHER_1.jpg,3,right,,
,,,A30RAYNDOWQ61S,60,Male,8,2023-01-17_08h50.15.721,memory_pilot_most_recent,2022.2.4,Win32,59.93766483,,left,1,2.1547,0,52,52,52,1,BROWN_NOODY_3.jpg,GUINEA_TURACO_5.jpg,3,left,,
,,,A30RAYNDOWQ61S,60,Male,8,2023-01-17_08h50.15.721,memory_pilot_most_recent,2022.2.4,Win32,59.93766483,,left,0,3.938,0,53,53,53,1,OYSTER_CATCHER_3.jpg,MAGPIE_GOOSE_5.jpg,3,right,,
,,,A30RAYNDOWQ61S,60,Male,8,2023-01-17_08h50.15.721,memory_pilot_most_recent,2022.2.4,Win32,59.93766483,,right,1,3.3164,0,54,54,54,1,GUINEA_TURACO_3.jpg,BREWERS_BLACKBIRD_3.jpg,1,right,,
,,,A30RAYNDOWQ61S,60,Male,8,2023-01-17_08h50.15.721,memory_pilot_most_recent,2022.2.4,Win32,59.93766483,,left,1,1.0063,0,55,55,55,1,ECUADORIAN_HILLSTAR_5.jpg,CRIMSON_SUNBIRD_5.jpg,3,left,,
,,,A30RAYNDOWQ61S,60,Male,8,2023-01-17_08h50.15.721,memory_pilot_most_recent,2022.2.4,Win32,59.93766483,,left,1,1.8452,0,56,56,56,1,OVENBIRD_5.jpg,FAIRY_PENGUIN_1.jpg,2,left,,
,,,A30RAYNDOWQ61S,60,Male,8,2023-01-17_08h50.15.721,memory_pilot_most_recent,2022.2.4,Win32,59.93766483,,left,1,2.8903,0,57,57,57,1,GYRFALCON_1.jpg,OSTRICH_1.jpg,1,left,,
,,,A30RAYNDOWQ61S,60,Male,8,2023-01-17_08h50.15.721,memory_pilot_most_recent,2022.2.4,Win32,59.93766483,,right,0,2.6431,0,58,58,58,1,CASPIAN_TERN_1.jpg,EUROPEAN_GOLDFINCH_4.jpg,2,left,,
,,,A30RAYNDOWQ61S,60,Male,8,2023-01-17_08h50.15.721,memory_pilot_most_recent,2022.2.4,Win32,59.93766483,,right,1,2.8508,0,59,59,59,1,OSTRICH_5.jpg,CHUKAR_PARTRIDGE_5.jpg,1,right,,
,,,A30RAYNDOWQ61S,60,Male,8,2023-01-17_08h50.15.721,memory_pilot_most_recent,2022.2.4,Win32,59.93766483,,,,,,,,,,,,,,space,33.4318
