target,image1,image2,correct,background_0,background_1,background_2,background_3,background_4,background_5,target_index,selected_dist,distractor_level,category,demo_loops.thisRepN,demo_loops.thisTrialN,demo_loops.thisN,demo_loops.thisIndex,exp_loops.thisRepN,exp_loops.thisTrialN,exp_loops.thisN,exp_loops.thisIndex,exp_loops_part2.thisRepN,exp_loops_part2.thisTrialN,exp_loops_part2.thisN,exp_loops_part2.thisIndex,key_resp.keys,key_resp.started,key_resp.stopped,text_consent_form.started,text_consent_form.stopped,button.started,button.stopped,button.numClicks,button.timesOn,button.timesOff,key_resp_2.keys,key_resp_2.rt,key_resp_2.started,key_resp_2.stopped,text_instructions_first_slide.started,text_instructions_first_slide.stopped,image_0_demo.started,image_0_demo.stopped,image_1_demo.started,image_1_demo.stopped,image_2_demo.started,image_2_demo.stopped,image_3_demo.started,image_3_demo.stopped,image_4_demo.started,image_4_demo.stopped,image_5_demo.started,image_5_demo.stopped,blank_screen_demo.started,blank_screen_demo.stopped,fixation_demo.started,fixation_demo.stopped,image_left_demo.started,image_left_demo.stopped,image_right_demo.started,image_right_demo.stopped,demo_test_key_resp.keys,demo_test_key_resp.rt,demo_test_key_resp.started,demo_test_key_resp.stopped,text_4.started,text_4.stopped,key_resp_after_demo.keys,key_resp_after_demo.rt,key_resp_after_demo.started,key_resp_after_demo.stopped,text_after_demo_instr.started,text_after_demo_instr.stopped,image_0.started,image_0.stopped,image_1.started,image_1.stopped,image_2.started,image_2.stopped,image_3.started,image_3.stopped,image_4.started,image_4.stopped,image_5.started,image_5.stopped,blank_screen.started,blank_screen.stopped,fixation_encoding.started,fixation_encoding.stopped,image_left.started,image_left.stopped,image_right.started,image_right.stopped,test_key_resp.keys,test_key_resp.rt,test_key_resp.started,test_key_resp.stopped,text_6.started,text_6.stopped,text_2.started,text_2.stopped,key_resp_4.keys,key_resp_4.rt,key_resp_4.started,key_resp_4.stopped,image_left_part2.started,image_left_part2.stopped,image_right_part2.started,image_right_part2.stopped,slider_part2.response,slider_part2.rt,slider_part2.started,slider_part2.stopped,text_5.started,text_5.stopped,key_resp_last_slide.keys,key_resp_last_slide.rt,key_resp_last_slide.started,key_resp_last_slide.stopped,text_last_slide.started,text_last_slide.stopped,ID,date,expName,psychopyVersion,frameRate,
,,,,,,,,,,,,,,,,,,,,,,,,,,None,9.017293625001912,None,,,,,,,,,,,,,,,,,,,,,,,,,,,,,,,,,,,,,,,,,,,,,,,,,,,,,,,,,,,,,,,,,,,,,,,,,,,,,,,,,,,,,,,,,,,,,,0,2023_Jun_18_1347,working_memory,2021.2.3,None,
,,,,,,,,,,,,,,,,,,,,,,,,,,,,,9.017293625001912,None,9.017293625001912,None,1,[2.965130417011096],[2.9651332089997595],space,5.921589206991484,11.969483458000468,None,,,,,,,,,,,,,,,,,,,,,,,,,,,,,,,,,,,,,,,,,,,,,,,,,,,,,,,,,,,,,,,,,,,,,,,,,,,,,,,,,,,0,2023_Jun_18_1347,working_memory,2021.2.3,None,
flower1.jpg,flower1.jpg,flower1_pair.jpg,left,leaf3.jpg,trail1.jpg,flower1.jpg,bird1.jpg,tree3.jpg,fence4.jpg,2,,,,0,0,0,0,,,,,,,,,,,,,,,,,,,,,,,11.969483458000468,None,18.466745083002024,18.667050874995766,18.669638374994975,18.866295625004568,18.866295625004568,19.05551099999866,19.07705008299672,19.26618704100838,19.26618704100838,19.452463374997023,19.470729833003134,19.662854291003896,19.676775375002762,None,17.98460079099459,18.482831790999626,20.6148470830085,None,20.6148470830085,None,left,3.659076582000125,20.6148470830085,None,20.6148470830085,None,,,,,,,,,,,,,,,,,,,,,,,,,,,,,,,,,,,,,,,,,,,,,,,,,,,,,,,0,2023_Jun_18_1347,working_memory,2021.2.3,None,
leaf2.jpg,leaf1.jpg,leaf2.jpg,right,trail2.jpg,leaf2.jpg,bird2.jpg,tree2.jpg,fence3.jpg,flower2.jpg,1,,,,0,1,1,1,,,,,,,,,,,,,,,,,,,,,,,,,24.79328149999492,24.989985457999865,24.992235665995395,25.182404040999245,25.194674915997894,25.390458291003597,25.396151124994503,25.58373387499887,25.58373387499887,25.777974291006103,25.796468915999867,25.99313762500242,25.99313762500242,None,24.465836582996417,24.954834916003165,26.998053999996046,None,26.998053999996046,None,left,0.735782083007507,26.998053999996046,None,26.998053999996046,None,,,,,,,,,,,,,,,,,,,,,,,,,,,,,,,,,,,,,,,,,,,,,,,,,,,,,,,0,2023_Jun_18_1347,working_memory,2021.2.3,None,
fence1.jpg,fence1.jpg,fence2.jpg,left,tree1.jpg,bird3.jpg,trail3.jpg,fence1.jpg,leaf4.jpg,flower3.jpg,3,,,,0,2,2,2,,,,,,,,,,,,,,,,,,,,,,,,,28.25828083300439,28.445243124995613,28.467531832997338,28.663435124995885,28.65862366600777,28.853199165998376,28.853199165998376,29.049568375005038,29.05413070799841,29.25255874999857,29.257500000006985,29.44689995799854,29.457114874996478,None,27.777659083003527,28.276566458007437,30.452958041001693,None,30.452958041001693,None,left,0.5657508739968762,30.452958041001693,None,30.452958041001693,None,,,,,,,,,,,,,,,,,,,,,,,,,,,,,,,,,,,,,,,,,,,,,,,,,,,,,,,0,2023_Jun_18_1347,working_memory,2021.2.3,None,
,,,,,,,,,,,,,,,,,,,,,,,,,,,,,,,,,,,,,,,,,,,,,,,,,,,,,,,,,,,,,,,,,,,,space,0.9546896660031052,31.028027749998728,None,,,,,,,,,,,,,,,,,,,,,,,,,,,,,,,,,,,,,,,,,,,,,,,,,,,0,2023_Jun_18_1347,working_memory,2021.2.3,None,
,,,,,,,,,,,,,,,,,,,,,,,,,,,,,,,,,,,,,,,,,,,,,,,,,,,,,,,,,,,,,,,,,,,,,,,,31.028027749998728,None,237.3689325410087,237.5687259999977,237.5687259999977,237.77065191599831,237.77065191599831,237.9577872910013,237.97466345800785,238.15923891600687,238.17548791599984,238.36625554099737,238.36625554099737,238.56455587499659,238.5711460409948,None,236.89213733300858,237.38505341600103,239.57161454099696,None,239.57161454099696,None,left,0.6983167069993215,239.57161454099696,None,239.57161454099696,None,240.2879590000084,None,space,3.5998909570043907,240.2879590000084,None,,,,,,,,,,,,,,,,,0,2023_Jun_18_1347,working_memory,2021.2.3,None,
badlands_113.jpg,badlands_113.jpg,badlands_225.jpg,left,mountain_151.jpg,highway_76.jpg,badlands_113.jpg,golf_course_221.jpg,bridge_136.jpg,playground_153.jpg,2,badlands_225.jpg,0,badlands,,,,,,,,,0,0,0,0,,,,,,,,,,,,,,,,,,,,,,,,,,,,,,,,,,,,,,,,,,,,,,,,,,,,,,,,,,,,,,,,,,,,,,,,,,,,,,,,,243.93515804100025,None,243.93515804100025,None,5.953156822810591,2.0521755829977337,243.93515804100025,None,243.93515804100025,None,,,,,,,0,2023_Jun_18_1347,working_memory,2021.2.3,None,
badlands_222.jpg,badlands_222.jpg,badlands_34.jpg,left,highway_247.jpg,badlands_222.jpg,mountain_43.jpg,golf_course_333.jpg,bridge_142.jpg,playground_126.jpg,1,badlands_34.jpg,0,badlands,,,,,,,,,0,1,1,1,,,,,,,,,,,,,,,,,,,,,,,,,,,,,,,,,,,,,,,,,,,,,,,,,,,,,,,,,,,,,,,,,,,,,,,,,,,,,,,,,246.00263099999574,None,246.00263099999574,None,5.953156822810591,0.4431731250078883,246.00263099999574,None,246.00263099999574,None,,,,,,,0,2023_Jun_18_1347,working_memory,2021.2.3,None,
highway_359.jpg,highway_359.jpg,highway_379.jpg,left,mountain_268.jpg,badlands_180.jpg,bridge_96.jpg,highway_359.jpg,playground_191.jpg,golf_course_67.jpg,3,highway_379.jpg,1,highway,,,,,,,,,0,2,2,2,,,,,,,,,,,,,,,,,,,,,,,,,,,,,,,,,,,,,,,,,,,,,,,,,,,,,,,,,,,,,,,,,,,,,,,,,,,,,,,,,246.4674420000083,None,246.4674420000083,None,5.953156822810591,0.13676962499448564,246.4674420000083,None,246.4674420000083,None,,,,,,,0,2023_Jun_18_1347,working_memory,2021.2.3,None,
mountain_222.jpg,mountain_244.jpg,mountain_222.jpg,right,mountain_222.jpg,playground_181.jpg,bridge_266.jpg,golf_course_176.jpg,badlands_156.jpg,highway_268.jpg,0,mountain_244.jpg,0,mountain,,,,,,,,,0,3,3,3,,,,,,,,,,,,,,,,,,,,,,,,,,,,,,,,,,,,,,,,,,,,,,,,,,,,,,,,,,,,,,,,,,,,,,,,,,,,,,,,,246.625165999998,None,246.625165999998,None,5.953156822810591,0.1290947499946924,246.625165999998,None,246.625165999998,None,,,,,,,0,2023_Jun_18_1347,working_memory,2021.2.3,None,
bridge_172.jpg,bridge_172.jpg,bridge_17.jpg,left,golf_course_171.jpg,highway_404.jpg,bridge_172.jpg,playground_83.jpg,mountain_309.jpg,badlands_157.jpg,2,bridge_17.jpg,0,bridge,,,,,,,,,0,4,4,4,,,,,,,,,,,,,,,,,,,,,,,,,,,,,,,,,,,,,,,,,,,,,,,,,,,,,,,,,,,,,,,,,,,,,,,,,,,,,,,,,246.77687345800223,None,246.77687345800223,None,5.953156822810591,0.11109912500251085,246.77687345800223,None,246.77687345800223,None,,,,,,,0,2023_Jun_18_1347,working_memory,2021.2.3,None,
playground_145.jpg,playground_242.jpg,playground_145.jpg,right,playground_145.jpg,highway_9.jpg,bridge_39.jpg,mountain_212.jpg,badlands_79.jpg,golf_course_241.jpg,0,playground_242.jpg,1,playground,,,,,,,,,0,5,5,5,,,,,,,,,,,,,,,,,,,,,,,,,,,,,,,,,,,,,,,,,,,,,,,,,,,,,,,,,,,,,,,,,,,,,,,,,,,,,,,,,246.91018012500717,None,246.91018012500717,None,5.953156822810591,0.10217795899370685,246.91018012500717,None,246.91018012500717,None,,,,,,,0,2023_Jun_18_1347,working_memory,2021.2.3,None,
highway_245.jpg,highway_245.jpg,highway_134.jpg,left,bridge_1.jpg,golf_course_338.jpg,playground_256.jpg,highway_245.jpg,badlands_46.jpg,mountain_166.jpg,3,highway_134.jpg,0,highway,,,,,,,,,0,6,6,6,,,,,,,,,,,,,,,,,,,,,,,,,,,,,,,,,,,,,,,,,,,,,,,,,,,,,,,,,,,,,,,,,,,,,,,,,,,,,,,,,247.033703041001,None,247.033703041001,None,5.953156822810591,0.10598966600082349,247.033703041001,None,247.033703041001,None,,,,,,,0,2023_Jun_18_1347,working_memory,2021.2.3,None,
mountain_293.jpg,mountain_293.jpg,mountain_47.jpg,left,badlands_183.jpg,golf_course_181.jpg,mountain_293.jpg,playground_222.jpg,bridge_173.jpg,highway_83.jpg,2,mountain_47.jpg,1,mountain,,,,,,,,,0,7,7,7,,,,,,,,,,,,,,,,,,,,,,,,,,,,,,,,,,,,,,,,,,,,,,,,,,,,,,,,,,,,,,,,,,,,,,,,,,,,,,,,,247.1615749580087,None,247.1615749580087,None,5.953156822810591,0.11866858298890293,247.1615749580087,None,247.1615749580087,None,,,,,,,0,2023_Jun_18_1347,working_memory,2021.2.3,None,
bridge_146.jpg,bridge_27.jpg,bridge_146.jpg,right,highway_269.jpg,bridge_146.jpg,golf_course_291.jpg,mountain_35.jpg,badlands_55.jpg,playground_195.jpg,1,bridge_27.jpg,0,bridge,,,,,,,,,0,8,8,8,,,,,,,,,,,,,,,,,,,,,,,,,,,,,,,,,,,,,,,,,,,,,,,,,,,,,,,,,,,,,,,,,,,,,,,,,,,,,,,,,247.30171270799474,None,247.30171270799474,None,5.953156822810591,0.1088159170030849,247.30171270799474,None,247.30171270799474,None,,,,,,,0,2023_Jun_18_1347,working_memory,2021.2.3,None,
playground_257.jpg,playground_257.jpg,playground_215.jpg,left,mountain_198.jpg,highway_15.jpg,badlands_80.jpg,golf_course_282.jpg,playground_257.jpg,bridge_62.jpg,4,playground_215.jpg,1,playground,,,,,,,,,0,9,9,9,,,,,,,,,,,,,,,,,,,,,,,,,,,,,,,,,,,,,,,,,,,,,,,,,,,,,,,,,,,,,,,,,,,,,,,,,,,,,,,,,247.43300070799887,None,247.43300070799887,None,5.953156822810591,0.10444533299596515,247.43300070799887,None,247.43300070799887,None,,,,,,,0,2023_Jun_18_1347,working_memory,2021.2.3,None,
mountain_230.jpg,mountain_230.jpg,mountain_97.jpg,left,golf_course_253.jpg,mountain_230.jpg,highway_81.jpg,playground_47.jpg,badlands_9.jpg,bridge_4.jpg,1,mountain_97.jpg,1,mountain,,,,,,,,,0,10,10,10,,,,,,,,,,,,,,,,,,,,,,,,,,,,,,,,,,,,,,,,,,,,,,,,,,,,,,,,,,,,,,,,,,,,,,,,,,,,,,,,,247.55872645799536,None,247.55872645799536,None,5.953156822810591,0.10352504201000556,247.55872645799536,None,247.55872645799536,None,,,,,,,0,2023_Jun_18_1347,working_memory,2021.2.3,None,
playground_10.jpg,playground_10.jpg,playground_122.jpg,left,highway_226.jpg,golf_course_33.jpg,mountain_38.jpg,playground_10.jpg,bridge_102.jpg,badlands_10.jpg,3,playground_122.jpg,0,playground,,,,,,,,,0,11,11,11,,,,,,,,,,,,,,,,,,,,,,,,,,,,,,,,,,,,,,,,,,,,,,,,,,,,,,,,,,,,,,,,,,,,,,,,,,,,,,,,,247.68588266600273,None,247.68588266600273,None,4.918533604887983,0.6597841250040801,247.68588266600273,None,247.68588266600273,None,,,,,,,0,2023_Jun_18_1347,working_memory,2021.2.3,None,
highway_177.jpg,highway_177.jpg,highway_278.jpg,left,golf_course_202.jpg,playground_14.jpg,highway_177.jpg,bridge_152.jpg,badlands_227.jpg,mountain_192.jpg,2,highway_278.jpg,1,highway,,,,,,,,,0,12,12,12,,,,,,,,,,,,,,,,,,,,,,,,,,,,,,,,,,,,,,,,,,,,,,,,,,,,,,,,,,,,,,,,,,,,,,,,,,,,,,,,,248.36706054100068,None,248.36706054100068,None,4.918533604887983,0.11323724999965634,248.36706054100068,None,248.36706054100068,None,,,,,,,0,2023_Jun_18_1347,working_memory,2021.2.3,None,
badlands_21.jpg,badlands_1.jpg,badlands_21.jpg,right,bridge_72.jpg,badlands_21.jpg,playground_74.jpg,golf_course_56.jpg,mountain_228.jpg,highway_251.jpg,1,badlands_1.jpg,0,badlands,,,,,,,,,0,13,13,13,,,,,,,,,,,,,,,,,,,,,,,,,,,,,,,,,,,,,,,,,,,,,,,,,,,,,,,,,,,,,,,,,,,,,,,,,,,,,,,,,248.5042850000027,None,248.5042850000027,None,4.918533604887983,0.09145966700452846,248.5042850000027,None,248.5042850000027,None,,,,,,,0,2023_Jun_18_1347,working_memory,2021.2.3,None,
playground_131.jpg,playground_164.jpg,playground_131.jpg,right,highway_101.jpg,golf_course_166.jpg,bridge_117.jpg,mountain_180.jpg,playground_131.jpg,badlands_27.jpg,4,playground_164.jpg,1,playground,,,,,,,,,0,14,14,14,,,,,,,,,,,,,,,,,,,,,,,,,,,,,,,,,,,,,,,,,,,,,,,,,,,,,,,,,,,,,,,,,,,,,,,,,,,,,,,,,248.61867104099656,None,248.61867104099656,None,4.918533604887983,0.13611470800242387,248.61867104099656,None,248.61867104099656,None,,,,,,,0,2023_Jun_18_1347,working_memory,2021.2.3,None,
bridge_256.jpg,bridge_256.jpg,bridge_211.jpg,left,highway_53.jpg,mountain_250.jpg,bridge_256.jpg,playground_165.jpg,golf_course_300.jpg,badlands_128.jpg,2,bridge_211.jpg,1,bridge,,,,,,,,,0,15,15,15,,,,,,,,,,,,,,,,,,,,,,,,,,,,,,,,,,,,,,,,,,,,,,,,,,,,,,,,,,,,,,,,,,,,,,,,,,,,,,,,,248.7755982910021,None,248.7755982910021,None,4.918533604887983,0.09537199999613222,248.7755982910021,None,248.7755982910021,None,,,,,,,0,2023_Jun_18_1347,working_memory,2021.2.3,None,
badlands_52.jpg,badlands_94.jpg,badlands_52.jpg,right,highway_399.jpg,golf_course_174.jpg,mountain_91.jpg,badlands_52.jpg,bridge_140.jpg,playground_154.jpg,3,badlands_94.jpg,0,badlands,,,,,,,,,0,16,16,16,,,,,,,,,,,,,,,,,,,,,,,,,,,,,,,,,,,,,,,,,,,,,,,,,,,,,,,,,,,,,,,,,,,,,,,,,,,,,,,,,248.8937910829991,None,248.8937910829991,None,4.918533604887983,0.09318199999688659,248.8937910829991,None,248.8937910829991,None,,,,,,,0,2023_Jun_18_1347,working_memory,2021.2.3,None,
badlands_23.jpg,badlands_114.jpg,badlands_23.jpg,right,highway_257.jpg,badlands_23.jpg,golf_course_194.jpg,mountain_251.jpg,playground_140.jpg,bridge_144.jpg,1,badlands_114.jpg,0,badlands,,,,,,,,,0,17,17,17,,,,,,,,,,,,,,,,,,,,,,,,,,,,,,,,,,,,,,,,,,,,,,,,,,,,,,,,,,,,,,,,,,,,,,,,,,,,,,,,,249.0093275830004,None,249.0093275830004,None,4.918533604887983,0.10402225000143517,249.0093275830004,None,249.0093275830004,None,,,,,,,0,2023_Jun_18_1347,working_memory,2021.2.3,None,
mountain_101.jpg,mountain_221.jpg,mountain_101.jpg,right,bridge_155.jpg,playground_33.jpg,highway_287.jpg,mountain_101.jpg,badlands_44.jpg,golf_course_127.jpg,3,mountain_221.jpg,1,mountain,,,,,,,,,0,18,18,18,,,,,,,,,,,,,,,,,,,,,,,,,,,,,,,,,,,,,,,,,,,,,,,,,,,,,,,,,,,,,,,,,,,,,,,,,,,,,,,,,249.13546775000577,None,249.13546775000577,None,4.918533604887983,0.11067933299636934,249.13546775000577,None,249.13546775000577,None,,,,,,,0,2023_Jun_18_1347,working_memory,2021.2.3,None,
badlands_221.jpg,badlands_207.jpg,badlands_221.jpg,right,golf_course_328.jpg,playground_36.jpg,highway_78.jpg,badlands_221.jpg,mountain_152.jpg,bridge_87.jpg,3,badlands_207.jpg,1,badlands,,,,,,,,,0,19,19,19,,,,,,,,,,,,,,,,,,,,,,,,,,,,,,,,,,,,,,,,,,,,,,,,,,,,,,,,,,,,,,,,,,,,,,,,,,,,,,,,,249.26662837500044,None,249.26662837500044,None,4.918533604887983,0.10678750000079162,249.26662837500044,None,249.26662837500044,None,,,,,,,0,2023_Jun_18_1347,working_memory,2021.2.3,None,
mountain_154.jpg,mountain_154.jpg,mountain_95.jpg,left,golf_course_305.jpg,playground_204.jpg,bridge_74.jpg,mountain_154.jpg,badlands_166.jpg,highway_288.jpg,3,mountain_95.jpg,1,mountain,,,,,,,,,0,20,20,20,,,,,,,,,,,,,,,,,,,,,,,,,,,,,,,,,,,,,,,,,,,,,,,,,,,,,,,,,,,,,,,,,,,,,,,,,,,,,,,,,249.39587829100492,None,249.39587829100492,None,4.918533604887983,0.1005830829963088,249.39587829100492,None,249.39587829100492,None,,,,,,,0,2023_Jun_18_1347,working_memory,2021.2.3,None,
bridge_91.jpg,bridge_253.jpg,bridge_91.jpg,right,golf_course_55.jpg,playground_98.jpg,bridge_91.jpg,highway_295.jpg,mountain_41.jpg,badlands_33.jpg,2,bridge_253.jpg,0,bridge,,,,,,,,,0,21,21,21,,,,,,,,,,,,,,,,,,,,,,,,,,,,,,,,,,,,,,,,,,,,,,,,,,,,,,,,,,,,,,,,,,,,,,,,,,,,,,,,,249.51945224999508,None,249.51945224999508,None,4.918533604887983,0.10118504099955317,249.51945224999508,None,249.51945224999508,None,,,,,,,0,2023_Jun_18_1347,working_memory,2021.2.3,None,
highway_273.jpg,highway_273.jpg,highway_384.jpg,left,bridge_22.jpg,mountain_146.jpg,badlands_217.jpg,highway_273.jpg,golf_course_116.jpg,playground_55.jpg,3,highway_384.jpg,0,highway,,,,,,,,,0,22,22,22,,,,,,,,,,,,,,,,,,,,,,,,,,,,,,,,,,,,,,,,,,,,,,,,,,,,,,,,,,,,,,,,,,,,,,,,,,,,,,,,,249.64172029100882,None,249.64172029100882,None,4.918533604887983,0.10474370801239274,249.64172029100882,None,249.64172029100882,None,,,,,,,0,2023_Jun_18_1347,working_memory,2021.2.3,None,
playground_60.jpg,playground_60.jpg,playground_244.jpg,left,playground_60.jpg,highway_178.jpg,badlands_121.jpg,mountain_126.jpg,golf_course_179.jpg,bridge_118.jpg,0,playground_244.jpg,1,playground,,,,,,,,,0,23,23,23,,,,,,,,,,,,,,,,,,,,,,,,,,,,,,,,,,,,,,,,,,,,,,,,,,,,,,,,,,,,,,,,,,,,,,,,,,,,,,,,,249.7688119999948,None,249.7688119999948,None,4.022403258655805,0.643786500004353,249.7688119999948,None,249.7688119999948,None,,,,,,,0,2023_Jun_18_1347,working_memory,2021.2.3,None,
golf_course_217.jpg,golf_course_35.jpg,golf_course_217.jpg,right,playground_37.jpg,mountain_199.jpg,bridge_193.jpg,golf_course_217.jpg,highway_17.jpg,badlands_174.jpg,3,golf_course_35.jpg,0,golf,,,,,,,,,0,24,24,24,,,,,,,,,,,,,,,,,,,,,,,,,,,,,,,,,,,,,,,,,,,,,,,,,,,,,,,,,,,,,,,,,,,,,,,,,,,,,,,,,250.43563633300073,None,250.43563633300073,None,4.022403258655805,0.11830445899977349,250.43563633300073,None,250.43563633300073,None,,,,,,,0,2023_Jun_18_1347,working_memory,2021.2.3,None,
playground_240.jpg,playground_40.jpg,playground_240.jpg,right,mountain_226.jpg,highway_265.jpg,playground_240.jpg,golf_course_313.jpg,badlands_104.jpg,bridge_79.jpg,2,playground_40.jpg,1,playground,,,,,,,,,0,25,25,25,,,,,,,,,,,,,,,,,,,,,,,,,,,,,,,,,,,,,,,,,,,,,,,,,,,,,,,,,,,,,,,,,,,,,,,,,,,,,,,,,250.57602200000838,None,250.57602200000838,None,4.022403258655805,0.10283750000235159,250.57602200000838,None,250.57602200000838,None,,,,,,,0,2023_Jun_18_1347,working_memory,2021.2.3,None,
bridge_202.jpg,bridge_202.jpg,bridge_38.jpg,left,highway_138.jpg,bridge_202.jpg,mountain_29.jpg,badlands_16.jpg,golf_course_105.jpg,playground_246.jpg,1,bridge_38.jpg,1,bridge,,,,,,,,,0,26,26,26,,,,,,,,,,,,,,,,,,,,,,,,,,,,,,,,,,,,,,,,,,,,,,,,,,,,,,,,,,,,,,,,,,,,,,,,,,,,,,,,,250.70136729099613,None,250.70136729099613,None,4.022403258655805,0.11915975000010803,250.70136729099613,None,250.70136729099613,None,,,,,,,0,2023_Jun_18_1347,working_memory,2021.2.3,None,
golf_course_331.jpg,golf_course_331.jpg,golf_course_26.jpg,left,mountain_169.jpg,golf_course_331.jpg,playground_258.jpg,bridge_234.jpg,highway_148.jpg,badlands_122.jpg,1,golf_course_26.jpg,1,golf,,,,,,,,,0,27,27,27,,,,,,,,,,,,,,,,,,,,,,,,,,,,,,,,,,,,,,,,,,,,,,,,,,,,,,,,,,,,,,,,,,,,,,,,,,,,,,,,,250.84308829100337,None,250.84308829100337,None,4.022403258655805,0.10344237500976305,250.84308829100337,None,250.84308829100337,None,,,,,,,0,2023_Jun_18_1347,working_memory,2021.2.3,None,
badlands_70.jpg,badlands_70.jpg,badlands_119.jpg,left,bridge_112.jpg,mountain_307.jpg,golf_course_238.jpg,badlands_70.jpg,highway_383.jpg,playground_233.jpg,3,badlands_119.jpg,1,badlands,,,,,,,,,0,28,28,28,,,,,,,,,,,,,,,,,,,,,,,,,,,,,,,,,,,,,,,,,,,,,,,,,,,,,,,,,,,,,,,,,,,,,,,,,,,,,,,,,250.96756962500513,None,250.96756962500513,None,4.022403258655805,0.1035501669975929,250.96756962500513,None,250.96756962500513,None,,,,,,,0,2023_Jun_18_1347,working_memory,2021.2.3,None,
highway_156.jpg,highway_156.jpg,highway_293.jpg,left,playground_6.jpg,highway_156.jpg,badlands_6.jpg,bridge_45.jpg,golf_course_120.jpg,mountain_102.jpg,1,highway_293.jpg,1,highway,,,,,,,,,0,29,29,29,,,,,,,,,,,,,,,,,,,,,,,,,,,,,,,,,,,,,,,,,,,,,,,,,,,,,,,,,,,,,,,,,,,,,,,,,,,,,,,,,251.09288212499814,None,251.09288212499814,None,4.022403258655805,0.1278664999990724,251.09288212499814,None,251.09288212499814,None,,,,,,,0,2023_Jun_18_1347,working_memory,2021.2.3,None,
golf_course_309.jpg,golf_course_209.jpg,golf_course_309.jpg,right,highway_354.jpg,playground_15.jpg,mountain_187.jpg,badlands_216.jpg,golf_course_309.jpg,bridge_133.jpg,4,golf_course_209.jpg,1,golf,,,,,,,,,0,30,30,30,,,,,,,,,,,,,,,,,,,,,,,,,,,,,,,,,,,,,,,,,,,,,,,,,,,,,,,,,,,,,,,,,,,,,,,,,,,,,,,,,251.24249699999928,None,251.24249699999928,None,4.022403258655805,0.10312658299517352,251.24249699999928,None,251.24249699999928,None,,,,,,,0,2023_Jun_18_1347,working_memory,2021.2.3,None,
bridge_250.jpg,bridge_250.jpg,bridge_134.jpg,left,golf_course_196.jpg,highway_30.jpg,bridge_250.jpg,mountain_40.jpg,playground_249.jpg,badlands_97.jpg,2,bridge_134.jpg,0,bridge,,,,,,,,,0,31,31,31,,,,,,,,,,,,,,,,,,,,,,,,,,,,,,,,,,,,,,,,,,,,,,,,,,,,,,,,,,,,,,,,,,,,,,,,,,,,,,,,,251.3674019159953,None,251.3674019159953,None,4.022403258655805,0.11174087499966845,251.3674019159953,None,251.3674019159953,None,,,,,,,0,2023_Jun_18_1347,working_memory,2021.2.3,None,
golf_course_214.jpg,golf_course_312.jpg,golf_course_214.jpg,right,highway_102.jpg,golf_course_214.jpg,playground_176.jpg,bridge_164.jpg,badlands_171.jpg,mountain_253.jpg,1,golf_course_312.jpg,0,golf,,,,,,,,,0,32,32,32,,,,,,,,,,,,,,,,,,,,,,,,,,,,,,,,,,,,,,,,,,,,,,,,,,,,,,,,,,,,,,,,,,,,,,,,,,,,,,,,,251.50065337499836,None,251.50065337499836,None,3.0122199592668024,0.6951945839973632,251.50065337499836,None,251.50065337499836,None,,,,,,,0,2023_Jun_18_1347,working_memory,2021.2.3,None,
playground_219.jpg,playground_21.jpg,playground_219.jpg,right,golf_course_252.jpg,badlands_120.jpg,bridge_158.jpg,playground_219.jpg,highway_33.jpg,mountain_202.jpg,3,playground_21.jpg,0,playground,,,,,,,,,0,33,33,33,,,,,,,,,,,,,,,,,,,,,,,,,,,,,,,,,,,,,,,,,,,,,,,,,,,,,,,,,,,,,,,,,,,,,,,,,,,,,,,,,252.21849149999616,None,252.21849149999616,None,3.0122199592668024,0.13023195799905807,252.21849149999616,None,252.21849149999616,None,,,,,,,0,2023_Jun_18_1347,working_memory,2021.2.3,None,
bridge_128.jpg,bridge_61.jpg,bridge_128.jpg,right,bridge_128.jpg,highway_154.jpg,badlands_35.jpg,golf_course_137.jpg,mountain_39.jpg,playground_162.jpg,0,bridge_61.jpg,0,bridge,,,,,,,,,0,34,34,34,,,,,,,,,,,,,,,,,,,,,,,,,,,,,,,,,,,,,,,,,,,,,,,,,,,,,,,,,,,,,,,,,,,,,,,,,,,,,,,,,252.37139149999712,None,252.37139149999712,None,3.0122199592668024,0.11057879100553691,252.37139149999712,None,252.37139149999712,None,,,,,,,0,2023_Jun_18_1347,working_memory,2021.2.3,None,
highway_209.jpg,highway_209.jpg,highway_122.jpg,left,bridge_52.jpg,playground_78.jpg,golf_course_41.jpg,badlands_47.jpg,highway_209.jpg,mountain_33.jpg,4,highway_122.jpg,1,highway,,,,,,,,,0,35,35,35,,,,,,,,,,,,,,,,,,,,,,,,,,,,,,,,,,,,,,,,,,,,,,,,,,,,,,,,,,,,,,,,,,,,,,,,,,,,,,,,,252.5032424999954,None,252.5032424999954,None,3.0122199592668024,0.11315916699822992,252.5032424999954,None,252.5032424999954,None,,,,,,,0,2023_Jun_18_1347,working_memory,2021.2.3,None,
playground_144.jpg,playground_144.jpg,playground_65.jpg,left,badlands_215.jpg,mountain_88.jpg,golf_course_102.jpg,playground_144.jpg,bridge_238.jpg,highway_274.jpg,3,playground_65.jpg,1,playground,,,,,,,,,0,36,36,36,,,,,,,,,,,,,,,,,,,,,,,,,,,,,,,,,,,,,,,,,,,,,,,,,,,,,,,,,,,,,,,,,,,,,,,,,,,,,,,,,252.63977675000206,None,252.63977675000206,None,3.0122199592668024,0.12284024999826215,252.63977675000206,None,252.63977675000206,None,,,,,,,0,2023_Jun_18_1347,working_memory,2021.2.3,None,
mountain_110.jpg,mountain_157.jpg,mountain_110.jpg,right,golf_course_42.jpg,playground_103.jpg,mountain_110.jpg,bridge_86.jpg,badlands_60.jpg,highway_342.jpg,2,mountain_157.jpg,0,mountain,,,,,,,,,0,37,37,37,,,,,,,,,,,,,,,,,,,,,,,,,,,,,,,,,,,,,,,,,,,,,,,,,,,,,,,,,,,,,,,,,,,,,,,,,,,,,,,,,252.7840938330046,None,252.7840938330046,None,3.0122199592668024,0.10834408301161602,252.7840938330046,None,252.7840938330046,None,,,,,,,0,2023_Jun_18_1347,working_memory,2021.2.3,None,
highway_394.jpg,highway_204.jpg,highway_394.jpg,right,highway_394.jpg,golf_course_144.jpg,playground_68.jpg,badlands_26.jpg,bridge_218.jpg,mountain_32.jpg,0,highway_204.jpg,0,highway,,,,,,,,,0,38,38,38,,,,,,,,,,,,,,,,,,,,,,,,,,,,,,,,,,,,,,,,,,,,,,,,,,,,,,,,,,,,,,,,,,,,,,,,,,,,,,,,,252.91263487499964,None,252.91263487499964,None,3.0122199592668024,0.12033879201044329,252.91263487499964,None,252.91263487499964,None,,,,,,,0,2023_Jun_18_1347,working_memory,2021.2.3,None,
golf_course_87.jpg,golf_course_87.jpg,golf_course_161.jpg,left,golf_course_87.jpg,mountain_190.jpg,bridge_124.jpg,highway_58.jpg,badlands_152.jpg,playground_237.jpg,0,golf_course_161.jpg,1,golf,,,,,,,,,0,39,39,39,,,,,,,,,,,,,,,,,,,,,,,,,,,,,,,,,,,,,,,,,,,,,,,,,,,,,,,,,,,,,,,,,,,,,,,,,,,,,,,,,253.0549504160008,None,253.0549504160008,None,3.0122199592668024,0.08794062498782296,253.0549504160008,None,253.0549504160008,None,,,,,,,0,2023_Jun_18_1347,working_memory,2021.2.3,None,
mountain_156.jpg,mountain_128.jpg,mountain_156.jpg,right,playground_64.jpg,bridge_180.jpg,badlands_72.jpg,mountain_156.jpg,highway_319.jpg,golf_course_23.jpg,3,mountain_128.jpg,0,mountain,,,,,,,,,0,40,40,40,,,,,,,,,,,,,,,,,,,,,,,,,,,,,,,,,,,,,,,,,,,,,,,,,,,,,,,,,,,,,,,,,,,,,,,,,,,,,,,,,253.16380462500092,None,253.16380462500092,None,1.9287169042769858,0.6402459160017315,253.16380462500092,None,253.16380462500092,None,,,,,,,0,2023_Jun_18_1347,working_memory,2021.2.3,None,
badlands_137.jpg,badlands_194.jpg,badlands_137.jpg,right,highway_107.jpg,bridge_212.jpg,mountain_206.jpg,badlands_137.jpg,playground_63.jpg,golf_course_265.jpg,3,badlands_194.jpg,0,badlands,,,,,,,,,0,41,41,41,,,,,,,,,,,,,,,,,,,,,,,,,,,,,,,,,,,,,,,,,,,,,,,,,,,,,,,,,,,,,,,,,,,,,,,,,,,,,,,,,253.82562695800152,None,253.82562695800152,None,1.9287169042769858,0.11355987499700859,253.82562695800152,None,253.82562695800152,None,,,,,,,0,2023_Jun_18_1347,working_memory,2021.2.3,None,
golf_course_188.jpg,golf_course_157.jpg,golf_course_188.jpg,right,highway_199.jpg,playground_227.jpg,badlands_54.jpg,bridge_228.jpg,golf_course_188.jpg,mountain_62.jpg,4,golf_course_157.jpg,0,golf,,,,,,,,,0,42,42,42,,,,,,,,,,,,,,,,,,,,,,,,,,,,,,,,,,,,,,,,,,,,,,,,,,,,,,,,,,,,,,,,,,,,,,,,,,,,,,,,,253.95942912499595,None,253.95942912499595,None,1.9287169042769858,0.12026258400874212,253.95942912499595,None,253.95942912499595,None,,,,,,,0,2023_Jun_18_1347,working_memory,2021.2.3,None,
badlands_184.jpg,badlands_184.jpg,badlands_103.jpg,left,playground_235.jpg,golf_course_342.jpg,bridge_197.jpg,mountain_294.jpg,badlands_184.jpg,highway_308.jpg,4,badlands_103.jpg,1,badlands,,,,,,,,,0,43,43,43,,,,,,,,,,,,,,,,,,,,,,,,,,,,,,,,,,,,,,,,,,,,,,,,,,,,,,,,,,,,,,,,,,,,,,,,,,,,,,,,,254.10057087500172,None,254.10057087500172,None,1.9287169042769858,0.12057645800814498,254.10057087500172,None,254.10057087500172,None,,,,,,,0,2023_Jun_18_1347,working_memory,2021.2.3,None,
mountain_232.jpg,mountain_232.jpg,mountain_3.jpg,left,golf_course_128.jpg,playground_124.jpg,badlands_170.jpg,mountain_232.jpg,bridge_147.jpg,highway_305.jpg,3,mountain_3.jpg,0,mountain,,,,,,,,,0,44,44,44,,,,,,,,,,,,,,,,,,,,,,,,,,,,,,,,,,,,,,,,,,,,,,,,,,,,,,,,,,,,,,,,,,,,,,,,,,,,,,,,,254.24207812499662,None,254.24207812499662,None,1.9287169042769858,0.1127900419960497,254.24207812499662,None,254.24207812499662,None,,,,,,,0,2023_Jun_18_1347,working_memory,2021.2.3,None,
highway_93.jpg,highway_85.jpg,highway_93.jpg,right,golf_course_307.jpg,highway_93.jpg,badlands_164.jpg,playground_184.jpg,mountain_76.jpg,bridge_190.jpg,1,highway_85.jpg,0,highway,,,,,,,,,0,45,45,45,,,,,,,,,,,,,,,,,,,,,,,,,,,,,,,,,,,,,,,,,,,,,,,,,,,,,,,,,,,,,,,,,,,,,,,,,,,,,,,,,254.37543050000386,None,254.37543050000386,None,1.9287169042769858,0.09854570800962392,254.37543050000386,None,254.37543050000386,None,,,,,,,0,2023_Jun_18_1347,working_memory,2021.2.3,None,
highway_294.jpg,highway_203.jpg,highway_294.jpg,right,highway_294.jpg,mountain_176.jpg,playground_196.jpg,badlands_106.jpg,bridge_120.jpg,golf_course_269.jpg,0,highway_203.jpg,0,highway,,,,,,,,,0,46,46,46,,,,,,,,,,,,,,,,,,,,,,,,,,,,,,,,,,,,,,,,,,,,,,,,,,,,,,,,,,,,,,,,,,,,,,,,,,,,,,,,,254.49504737500683,None,254.49504737500683,None,1.9287169042769858,0.10744687500118744,254.49504737500683,None,254.49504737500683,None,,,,,,,0,2023_Jun_18_1347,working_memory,2021.2.3,None,
golf_course_195.jpg,golf_course_2.jpg,golf_course_195.jpg,right,golf_course_195.jpg,playground_54.jpg,badlands_211.jpg,mountain_92.jpg,highway_28.jpg,bridge_63.jpg,0,golf_course_2.jpg,1,golf,,,,,,,,,0,47,47,47,,,,,,,,,,,,,,,,,,,,,,,,,,,,,,,,,,,,,,,,,,,,,,,,,,,,,,,,,,,,,,,,,,,,,,,,,,,,,,,,,254.6245225409948,None,254.6245225409948,None,1.105906313645621,0.7714507500058971,254.6245225409948,None,254.6245225409948,None,,,,,,,0,2023_Jun_18_1347,working_memory,2021.2.3,None,
mountain_57.jpg,mountain_57.jpg,mountain_138.jpg,left,playground_241.jpg,golf_course_71.jpg,badlands_125.jpg,mountain_57.jpg,highway_37.jpg,bridge_68.jpg,3,mountain_138.jpg,1,mountain,,,,,,,,,0,48,48,48,,,,,,,,,,,,,,,,,,,,,,,,,,,,,,,,,,,,,,,,,,,,,,,,,,,,,,,,,,,,,,,,,,,,,,,,,,,,,,,,,255.41728579100163,None,255.41728579100163,None,1.105906313645621,0.1207629580021603,255.41728579100163,None,255.41728579100163,None,,,,,,,0,2023_Jun_18_1347,working_memory,2021.2.3,None,
bridge_108.jpg,bridge_108.jpg,bridge_116.jpg,left,golf_course_297.jpg,highway_90.jpg,badlands_81.jpg,mountain_135.jpg,bridge_108.jpg,playground_118.jpg,4,bridge_116.jpg,0,bridge,,,,,,,,,0,49,49,49,,,,,,,,,,,,,,,,,,,,,,,,,,,,,,,,,,,,,,,,,,,,,,,,,,,,,,,,,,,,,,,,,,,,,,,,,,,,,,,,,255.5601457080047,None,255.5601457080047,None,1.105906313645621,0.11064266599714756,255.5601457080047,None,255.5601457080047,None,,,,,,,0,2023_Jun_18_1347,working_memory,2021.2.3,None,
golf_course_193.jpg,golf_course_193.jpg,golf_course_235.jpg,left,mountain_306.jpg,badlands_138.jpg,golf_course_193.jpg,bridge_204.jpg,playground_132.jpg,highway_3.jpg,2,golf_course_235.jpg,0,golf,,,,,,,,,0,50,50,50,,,,,,,,,,,,,,,,,,,,,,,,,,,,,,,,,,,,,,,,,,,,,,,,,,,,,,,,,,,,,,,,,,,,,,,,,,,,,,,,,255.69296445800865,None,255.69296445800865,None,1.105906313645621,0.11452899999858346,255.69296445800865,None,255.69296445800865,None,,,,,,,0,2023_Jun_18_1347,working_memory,2021.2.3,None,
bridge_65.jpg,bridge_65.jpg,bridge_60.jpg,left,highway_31.jpg,golf_course_226.jpg,badlands_201.jpg,mountain_120.jpg,bridge_65.jpg,playground_141.jpg,4,bridge_60.jpg,1,bridge,,,,,,,,,0,51,51,51,,,,,,,,,,,,,,,,,,,,,,,,,,,,,,,,,,,,,,,,,,,,,,,,,,,,,,,,,,,,,,,,,,,,,,,,,,,,,,,,,255.8288948749978,None,255.8288948749978,None,1.105906313645621,0.1152314579958329,255.8288948749978,None,255.8288948749978,None,,,,,,,0,2023_Jun_18_1347,working_memory,2021.2.3,None,
playground_76.jpg,playground_22.jpg,playground_76.jpg,right,highway_50.jpg,playground_76.jpg,bridge_126.jpg,mountain_277.jpg,badlands_213.jpg,golf_course_288.jpg,1,playground_22.jpg,0,playground,,,,,,,,,0,52,52,52,,,,,,,,,,,,,,,,,,,,,,,,,,,,,,,,,,,,,,,,,,,,,,,,,,,,,,,,,,,,,,,,,,,,,,,,,,,,,,,,,255.96606916599558,None,255.96606916599558,None,1.105906313645621,0.10517216700827703,255.96606916599558,None,255.96606916599558,None,,,,,,,0,2023_Jun_18_1347,working_memory,2021.2.3,None,
golf_course_15.jpg,golf_course_113.jpg,golf_course_15.jpg,right,highway_18.jpg,badlands_173.jpg,bridge_24.jpg,playground_251.jpg,golf_course_15.jpg,mountain_137.jpg,4,golf_course_113.jpg,0,golf,,,,,,,,,0,53,53,53,,,,,,,,,,,,,,,,,,,,,,,,,,,,,,,,,,,,,,,,,,,,,,,,,,,,,,,,,,,,,,,,,,,,,,,,,,,,,,,,,256.0936157499964,None,256.0936157499964,None,1.105906313645621,0.09223087500140537,256.0936157499964,None,256.0936157499964,None,,,,,,,0,2023_Jun_18_1347,working_memory,2021.2.3,None,
badlands_24.jpg,badlands_53.jpg,badlands_24.jpg,right,playground_50.jpg,golf_course_72.jpg,badlands_24.jpg,highway_29.jpg,mountain_51.jpg,bridge_66.jpg,2,badlands_53.jpg,1,badlands,,,,,,,,,0,54,54,54,,,,,,,,,,,,,,,,,,,,,,,,,,,,,,,,,,,,,,,,,,,,,,,,,,,,,,,,,,,,,,,,,,,,,,,,,,,,,,,,,256.2081410410028,None,256.2081410410028,None,1.105906313645621,0.11296366700844374,256.2081410410028,None,256.2081410410028,None,,,,,,,0,2023_Jun_18_1347,working_memory,2021.2.3,None,
mountain_123.jpg,mountain_123.jpg,mountain_94.jpg,left,badlands_105.jpg,bridge_110.jpg,playground_85.jpg,highway_172.jpg,mountain_123.jpg,golf_course_162.jpg,4,mountain_94.jpg,0,mountain,,,,,,,,,0,55,55,55,,,,,,,,,,,,,,,,,,,,,,,,,,,,,,,,,,,,,,,,,,,,,,,,,,,,,,,,,,,,,,,,,,,,,,,,,,,,,,,,,256.34393137499865,None,256.34393137499865,None,1.105906313645621,0.10577974999614526,256.34393137499865,None,256.34393137499865,None,,,,,,,0,2023_Jun_18_1347,working_memory,2021.2.3,None,
bridge_191.jpg,bridge_191.jpg,bridge_184.jpg,left,playground_49.jpg,bridge_191.jpg,golf_course_3.jpg,mountain_233.jpg,highway_191.jpg,badlands_200.jpg,1,bridge_184.jpg,0,bridge,,,,,,,,,0,56,56,56,,,,,,,,,,,,,,,,,,,,,,,,,,,,,,,,,,,,,,,,,,,,,,,,,,,,,,,,,,,,,,,,,,,,,,,,,,,,,,,,,256.47177916600776,None,256.47177916600776,None,1.105906313645621,0.101031582991709,256.47177916600776,None,256.47177916600776,None,,,,,,,0,2023_Jun_18_1347,working_memory,2021.2.3,None,
golf_course_78.jpg,golf_course_134.jpg,golf_course_78.jpg,right,playground_16.jpg,golf_course_78.jpg,bridge_254.jpg,highway_193.jpg,mountain_290.jpg,badlands_214.jpg,1,golf_course_134.jpg,0,golf,,,,,,,,,0,57,57,57,,,,,,,,,,,,,,,,,,,,,,,,,,,,,,,,,,,,,,,,,,,,,,,,,,,,,,,,,,,,,,,,,,,,,,,,,,,,,,,,,256.5942337909946,None,256.5942337909946,None,1.105906313645621,0.09978058301203419,256.5942337909946,None,256.5942337909946,None,,,,,,,0,2023_Jun_18_1347,working_memory,2021.2.3,None,
playground_117.jpg,playground_127.jpg,playground_117.jpg,right,highway_36.jpg,badlands_30.jpg,playground_117.jpg,golf_course_219.jpg,bridge_106.jpg,mountain_302.jpg,2,playground_127.jpg,1,playground,,,,,,,,,0,58,58,58,,,,,,,,,,,,,,,,,,,,,,,,,,,,,,,,,,,,,,,,,,,,,,,,,,,,,,,,,,,,,,,,,,,,,,,,,,,,,,,,,256.71679470800154,None,256.71679470800154,None,1.105906313645621,0.10805325000546873,256.71679470800154,None,256.71679470800154,None,,,,,,,0,2023_Jun_18_1347,working_memory,2021.2.3,None,
highway_415.jpg,highway_415.jpg,highway_174.jpg,left,playground_173.jpg,bridge_20.jpg,golf_course_59.jpg,highway_415.jpg,mountain_87.jpg,badlands_150.jpg,3,highway_174.jpg,1,highway,,,,,,,,,0,59,59,59,,,,,,,,,,,,,,,,,,,,,,,,,,,,,,,,,,,,,,,,,,,,,,,,,,,,,,,,,,,,,,,,,,,,,,,,,,,,,,,,,256.8449122909951,None,256.8449122909951,None,1.105906313645621,0.10857658300665207,256.8449122909951,None,256.8449122909951,None,,,,,,,0,2023_Jun_18_1347,working_memory,2021.2.3,None,
,,,,,,,,,,,,,,,,,,,,,,,,,,,,,,,,,,,,,,,,,,,,,,,,,,,,,,,,,,,,,,,,,,,,,,,,,,,,,,,,,,,,,,,,,,,,,,,,,,,,,,,,,,,,,,,,,,,,space,1.580852082988713,256.9555355409975,None,,,0,2023_Jun_18_1347,working_memory,2021.2.3,None,
,,,,,,,,,,,,,,,,,,,,,,,,,,,,,,,,,,,,,,,,,,,,,,,,,,,,,,,,,,,,,,,,,,,,,,,,,,,,,,,,,,,,,,,,,,,,,,,,,,,,,,,,,,,,,,,,,,,,,,,,256.9555355409975,None,,,,,,
