target,image1,image2,correct,background_0,background_1,background_2,background_3,background_4,background_5,target_index,selected_dist,distractor_level,category,demo_loops.thisRepN,demo_loops.thisTrialN,demo_loops.thisN,demo_loops.thisIndex,exp_loops.thisRepN,exp_loops.thisTrialN,exp_loops.thisN,exp_loops.thisIndex,exp_loops_part2.thisRepN,exp_loops_part2.thisTrialN,exp_loops_part2.thisN,exp_loops_part2.thisIndex,key_resp.keys,key_resp.started,key_resp.stopped,text_consent_form.started,text_consent_form.stopped,button.started,button.stopped,button.numClicks,button.timesOn,button.timesOff,key_resp_2.keys,key_resp_2.rt,key_resp_2.started,key_resp_2.stopped,text_instructions_first_slide.started,text_instructions_first_slide.stopped,image_0_demo.started,image_0_demo.stopped,image_1_demo.started,image_1_demo.stopped,image_2_demo.started,image_2_demo.stopped,image_3_demo.started,image_3_demo.stopped,image_4_demo.started,image_4_demo.stopped,image_5_demo.started,image_5_demo.stopped,blank_screen_demo.started,blank_screen_demo.stopped,fixation_demo.started,fixation_demo.stopped,image_left_demo.started,image_left_demo.stopped,image_right_demo.started,image_right_demo.stopped,demo_test_key_resp.keys,demo_test_key_resp.rt,demo_test_key_resp.started,demo_test_key_resp.stopped,text_4.started,text_4.stopped,key_resp_after_demo.keys,key_resp_after_demo.rt,key_resp_after_demo.started,key_resp_after_demo.stopped,text_after_demo_instr.started,text_after_demo_instr.stopped,image_0.started,image_0.stopped,image_1.started,image_1.stopped,image_2.started,image_2.stopped,image_3.started,image_3.stopped,image_4.started,image_4.stopped,image_5.started,image_5.stopped,blank_screen.started,blank_screen.stopped,fixation_encoding.started,fixation_encoding.stopped,image_left.started,image_left.stopped,image_right.started,image_right.stopped,test_key_resp.keys,test_key_resp.rt,test_key_resp.started,test_key_resp.stopped,text_6.started,text_6.stopped,text_2.started,text_2.stopped,key_resp_4.keys,key_resp_4.rt,key_resp_4.started,key_resp_4.stopped,image_left_part2.started,image_left_part2.stopped,image_right_part2.started,image_right_part2.stopped,slider_part2.response,slider_part2.rt,slider_part2.started,slider_part2.stopped,text_5.started,text_5.stopped,key_resp_last_slide.keys,key_resp_last_slide.rt,key_resp_last_slide.started,key_resp_last_slide.stopped,text_last_slide.started,text_last_slide.stopped,ID,date,expName,psychopyVersion,frameRate,
,,,,,,,,,,,,,,,,,,,,,,,,,,None,39.91856416700466,None,,,,,,,,,,,,,,,,,,,,,,,,,,,,,,,,,,,,,,,,,,,,,,,,,,,,,,,,,,,,,,,,,,,,,,,,,,,,,,,,,,,,,,,,,,,,,,1,2023_Jun_18_1358,working_memory,2021.2.3,None,
,,,,,,,,,,,,,,,,,,,,,,,,,,,,,39.91856416700466,None,39.91856416700466,None,1,[6.528425041004084],[6.528426750010112],space,2.2251749989954988,46.43951312500576,None,,,,,,,,,,,,,,,,,,,,,,,,,,,,,,,,,,,,,,,,,,,,,,,,,,,,,,,,,,,,,,,,,,,,,,,,,,,,,,,,,,,1,2023_Jun_18_1358,working_memory,2021.2.3,None,
flower1.jpg,flower1.jpg,flower1_pair.jpg,left,leaf3.jpg,trail1.jpg,flower1.jpg,bird1.jpg,tree3.jpg,fence4.jpg,2,,,,0,0,0,0,,,,,,,,,,,,,,,,,,,,,,,46.43951312500576,None,49.21095441700891,49.40683970799728,49.41027779200522,49.61056562500016,49.6157884580025,49.80295895799645,49.82404600000882,50.01840220800659,50.01840220800659,50.21772650000639,50.22272029200394,50.41283054200176,50.41283054200176,None,48.743679125007475,49.24200920799922,51.388081791999866,None,51.388081791999866,None,right,0.9754914999939501,51.388081791999866,None,51.388081791999866,None,,,,,,,,,,,,,,,,,,,,,,,,,,,,,,,,,,,,,,,,,,,,,,,,,,,,,,,1,2023_Jun_18_1358,working_memory,2021.2.3,None,
leaf2.jpg,leaf1.jpg,leaf2.jpg,right,trail2.jpg,leaf2.jpg,bird2.jpg,tree2.jpg,fence3.jpg,flower2.jpg,1,,,,0,1,1,1,,,,,,,,,,,,,,,,,,,,,,,,,52.89127695800562,53.09333187500306,53.09333187500306,53.29008212500776,53.29008212500776,53.47710662499594,53.47710662499594,53.67533691700373,53.68067108299874,53.872612582999864,53.878083000003244,54.07589058300073,54.078337833008845,None,52.41190666699549,52.9087310830073,55.086583958007395,None,55.086583958007395,None,right,0.34693291599978693,55.086583958007395,None,55.086583958007395,None,,,,,,,,,,,,,,,,,,,,,,,,,,,,,,,,,,,,,,,,,,,,,,,,,,,,,,,1,2023_Jun_18_1358,working_memory,2021.2.3,None,
fence1.jpg,fence1.jpg,fence2.jpg,left,tree1.jpg,bird3.jpg,trail3.jpg,fence1.jpg,leaf4.jpg,flower3.jpg,3,,,,0,2,2,2,,,,,,,,,,,,,,,,,,,,,,,,,55.956189332995564,56.153687416997855,56.153687416997855,56.343179792005685,56.35692466700857,56.54416887499974,56.549661791999824,56.74416666700563,56.75803516700398,56.94275241700234,56.94275241700234,57.13386058299511,57.15521745799924,None,55.4740052499983,55.964799791996484,58.155883667001035,None,58.155883667001035,None,right,0.40754762399592437,58.155883667001035,None,58.155883667001035,None,,,,,,,,,,,,,,,,,,,,,,,,,,,,,,,,,,,,,,,,,,,,,,,,,,,,,,,1,2023_Jun_18_1358,working_memory,2021.2.3,None,
,,,,,,,,,,,,,,,,,,,,,,,,,,,,,,,,,,,,,,,,,,,,,,,,,,,,,,,,,,,,,,,,,,,,space,3.665039624000201,58.57428283299669,None,,,,,,,,,,,,,,,,,,,,,,,,,,,,,,,,,,,,,,,,,,,,,,,,,,,1,2023_Jun_18_1358,working_memory,2021.2.3,None,
,,,,,,,,,,,,,,,,,,,,,,,,,,,,,,,,,,,,,,,,,,,,,,,,,,,,,,,,,,,,,,,,,,,,,,,,58.57428283299669,None,251.80069674999686,251.9904547920014,251.9904547920014,252.18392958299955,252.1901563749998,252.3832699580089,252.3955161250051,252.59372250000888,252.59814270799689,252.79251516700606,252.79251516700606,252.99201595800696,252.99201595800696,None,251.31980362499598,251.81710691700573,253.99289158299507,None,253.99289158299507,None,left,0.5249674579972634,253.99289158299507,None,253.99289158299507,None,254.53703329199925,None,space,0.958794873993611,254.53703329199925,None,,,,,,,,,,,,,,,,,1,2023_Jun_18_1358,working_memory,2021.2.3,None,
badlands_113.jpg,badlands_113.jpg,badlands_225.jpg,left,mountain_151.jpg,highway_76.jpg,badlands_113.jpg,golf_course_221.jpg,bridge_136.jpg,playground_153.jpg,2,badlands_225.jpg,0,badlands,,,,,,,,,0,0,0,0,,,,,,,,,,,,,,,,,,,,,,,,,,,,,,,,,,,,,,,,,,,,,,,,,,,,,,,,,,,,,,,,,,,,,,,,,,,,,,,,,255.54995179199614,None,255.54995179199614,None,7.044806517311609,1.1288123749982333,255.54995179199614,None,255.54995179199614,None,,,,,,,1,2023_Jun_18_1358,working_memory,2021.2.3,None,
badlands_222.jpg,badlands_222.jpg,badlands_34.jpg,left,highway_247.jpg,badlands_222.jpg,mountain_43.jpg,golf_course_333.jpg,bridge_142.jpg,playground_126.jpg,1,badlands_34.jpg,0,badlands,,,,,,,,,0,1,1,1,,,,,,,,,,,,,,,,,,,,,,,,,,,,,,,,,,,,,,,,,,,,,,,,,,,,,,,,,,,,,,,,,,,,,,,,,,,,,,,,,256.69427566700324,None,256.69427566700324,None,7.044806517311609,0.25539049999497365,256.69427566700324,None,256.69427566700324,None,,,,,,,1,2023_Jun_18_1358,working_memory,2021.2.3,None,
highway_359.jpg,highway_359.jpg,highway_379.jpg,left,mountain_268.jpg,badlands_180.jpg,bridge_96.jpg,highway_359.jpg,playground_191.jpg,golf_course_67.jpg,3,highway_379.jpg,1,highway,,,,,,,,,0,2,2,2,,,,,,,,,,,,,,,,,,,,,,,,,,,,,,,,,,,,,,,,,,,,,,,,,,,,,,,,,,,,,,,,,,,,,,,,,,,,,,,,,256.97120545800135,None,256.97120545800135,None,7.044806517311609,0.09967437500017695,256.97120545800135,None,256.97120545800135,None,,,,,,,1,2023_Jun_18_1358,working_memory,2021.2.3,None,
mountain_222.jpg,mountain_244.jpg,mountain_222.jpg,right,mountain_222.jpg,playground_181.jpg,bridge_266.jpg,golf_course_176.jpg,badlands_156.jpg,highway_268.jpg,0,mountain_244.jpg,0,mountain,,,,,,,,,0,3,3,3,,,,,,,,,,,,,,,,,,,,,,,,,,,,,,,,,,,,,,,,,,,,,,,,,,,,,,,,,,,,,,,,,,,,,,,,,,,,,,,,,257.0919476249983,None,257.0919476249983,None,7.044806517311609,0.10701862499990966,257.0919476249983,None,257.0919476249983,None,,,,,,,1,2023_Jun_18_1358,working_memory,2021.2.3,None,
bridge_172.jpg,bridge_172.jpg,bridge_17.jpg,left,golf_course_171.jpg,highway_404.jpg,bridge_172.jpg,playground_83.jpg,mountain_309.jpg,badlands_157.jpg,2,bridge_17.jpg,0,bridge,,,,,,,,,0,4,4,4,,,,,,,,,,,,,,,,,,,,,,,,,,,,,,,,,,,,,,,,,,,,,,,,,,,,,,,,,,,,,,,,,,,,,,,,,,,,,,,,,257.22121237500687,None,257.22121237500687,None,7.044806517311609,0.09406995799508877,257.22121237500687,None,257.22121237500687,None,,,,,,,1,2023_Jun_18_1358,working_memory,2021.2.3,None,
playground_145.jpg,playground_242.jpg,playground_145.jpg,right,playground_145.jpg,highway_9.jpg,bridge_39.jpg,mountain_212.jpg,badlands_79.jpg,golf_course_241.jpg,0,playground_242.jpg,1,playground,,,,,,,,,0,5,5,5,,,,,,,,,,,,,,,,,,,,,,,,,,,,,,,,,,,,,,,,,,,,,,,,,,,,,,,,,,,,,,,,,,,,,,,,,,,,,,,,,257.33768416699604,None,257.33768416699604,None,7.044806517311609,0.10795712500112131,257.33768416699604,None,257.33768416699604,None,,,,,,,1,2023_Jun_18_1358,working_memory,2021.2.3,None,
highway_245.jpg,highway_245.jpg,highway_134.jpg,left,bridge_1.jpg,golf_course_338.jpg,playground_256.jpg,highway_245.jpg,badlands_46.jpg,mountain_166.jpg,3,highway_134.jpg,0,highway,,,,,,,,,0,6,6,6,,,,,,,,,,,,,,,,,,,,,,,,,,,,,,,,,,,,,,,,,,,,,,,,,,,,,,,,,,,,,,,,,,,,,,,,,,,,,,,,,257.46682179199706,None,257.46682179199706,None,7.044806517311609,0.0933505000139121,257.46682179199706,None,257.46682179199706,None,,,,,,,1,2023_Jun_18_1358,working_memory,2021.2.3,None,
mountain_293.jpg,mountain_293.jpg,mountain_47.jpg,left,badlands_183.jpg,golf_course_181.jpg,mountain_293.jpg,playground_222.jpg,bridge_173.jpg,highway_83.jpg,2,mountain_47.jpg,1,mountain,,,,,,,,,0,7,7,7,,,,,,,,,,,,,,,,,,,,,,,,,,,,,,,,,,,,,,,,,,,,,,,,,,,,,,,,,,,,,,,,,,,,,,,,,,,,,,,,,257.58225979200506,None,257.58225979200506,None,7.044806517311609,0.086596749999444,257.58225979200506,None,257.58225979200506,None,,,,,,,1,2023_Jun_18_1358,working_memory,2021.2.3,None,
bridge_146.jpg,bridge_27.jpg,bridge_146.jpg,right,highway_269.jpg,bridge_146.jpg,golf_course_291.jpg,mountain_35.jpg,badlands_55.jpg,playground_195.jpg,1,bridge_27.jpg,0,bridge,,,,,,,,,0,8,8,8,,,,,,,,,,,,,,,,,,,,,,,,,,,,,,,,,,,,,,,,,,,,,,,,,,,,,,,,,,,,,,,,,,,,,,,,,,,,,,,,,257.6907322920015,None,257.6907322920015,None,7.044806517311609,0.10699416699935682,257.6907322920015,None,257.6907322920015,None,,,,,,,1,2023_Jun_18_1358,working_memory,2021.2.3,None,
playground_257.jpg,playground_257.jpg,playground_215.jpg,left,mountain_198.jpg,highway_15.jpg,badlands_80.jpg,golf_course_282.jpg,playground_257.jpg,bridge_62.jpg,4,playground_215.jpg,1,playground,,,,,,,,,0,9,9,9,,,,,,,,,,,,,,,,,,,,,,,,,,,,,,,,,,,,,,,,,,,,,,,,,,,,,,,,,,,,,,,,,,,,,,,,,,,,,,,,,257.820634417003,None,257.820634417003,None,7.044806517311609,0.1112618330080295,257.820634417003,None,257.820634417003,None,,,,,,,1,2023_Jun_18_1358,working_memory,2021.2.3,None,
mountain_230.jpg,mountain_230.jpg,mountain_97.jpg,left,golf_course_253.jpg,mountain_230.jpg,highway_81.jpg,playground_47.jpg,badlands_9.jpg,bridge_4.jpg,1,mountain_97.jpg,1,mountain,,,,,,,,,0,10,10,10,,,,,,,,,,,,,,,,,,,,,,,,,,,,,,,,,,,,,,,,,,,,,,,,,,,,,,,,,,,,,,,,,,,,,,,,,,,,,,,,,257.95249620800314,None,257.95249620800314,None,7.044806517311609,0.10888450000493322,257.95249620800314,None,257.95249620800314,None,,,,,,,1,2023_Jun_18_1358,working_memory,2021.2.3,None,
playground_10.jpg,playground_10.jpg,playground_122.jpg,left,highway_226.jpg,golf_course_33.jpg,mountain_38.jpg,playground_10.jpg,bridge_102.jpg,badlands_10.jpg,3,playground_122.jpg,0,playground,,,,,,,,,0,11,11,11,,,,,,,,,,,,,,,,,,,,,,,,,,,,,,,,,,,,,,,,,,,,,,,,,,,,,,,,,,,,,,,,,,,,,,,,,,,,,,,,,258.0849344169983,None,258.0849344169983,None,7.044806517311609,0.08905358301126398,258.0849344169983,None,258.0849344169983,None,,,,,,,1,2023_Jun_18_1358,working_memory,2021.2.3,None,
highway_177.jpg,highway_177.jpg,highway_278.jpg,left,golf_course_202.jpg,playground_14.jpg,highway_177.jpg,bridge_152.jpg,badlands_227.jpg,mountain_192.jpg,2,highway_278.jpg,1,highway,,,,,,,,,0,12,12,12,,,,,,,,,,,,,,,,,,,,,,,,,,,,,,,,,,,,,,,,,,,,,,,,,,,,,,,,,,,,,,,,,,,,,,,,,,,,,,,,,258.19553962499776,None,258.19553962499776,None,7.044806517311609,0.10016362500027753,258.19553962499776,None,258.19553962499776,None,,,,,,,1,2023_Jun_18_1358,working_memory,2021.2.3,None,
badlands_21.jpg,badlands_1.jpg,badlands_21.jpg,right,bridge_72.jpg,badlands_21.jpg,playground_74.jpg,golf_course_56.jpg,mountain_228.jpg,highway_251.jpg,1,badlands_1.jpg,0,badlands,,,,,,,,,0,13,13,13,,,,,,,,,,,,,,,,,,,,,,,,,,,,,,,,,,,,,,,,,,,,,,,,,,,,,,,,,,,,,,,,,,,,,,,,,,,,,,,,,258.3200237080018,None,258.3200237080018,None,7.044806517311609,0.09277920800377615,258.3200237080018,None,258.3200237080018,None,,,,,,,1,2023_Jun_18_1358,working_memory,2021.2.3,None,
playground_131.jpg,playground_164.jpg,playground_131.jpg,right,highway_101.jpg,golf_course_166.jpg,bridge_117.jpg,mountain_180.jpg,playground_131.jpg,badlands_27.jpg,4,playground_164.jpg,1,playground,,,,,,,,,0,14,14,14,,,,,,,,,,,,,,,,,,,,,,,,,,,,,,,,,,,,,,,,,,,,,,,,,,,,,,,,,,,,,,,,,,,,,,,,,,,,,,,,,258.4363766669994,None,258.4363766669994,None,7.044806517311609,0.09497145800560247,258.4363766669994,None,258.4363766669994,None,,,,,,,1,2023_Jun_18_1358,working_memory,2021.2.3,None,
bridge_256.jpg,bridge_256.jpg,bridge_211.jpg,left,highway_53.jpg,mountain_250.jpg,bridge_256.jpg,playground_165.jpg,golf_course_300.jpg,badlands_128.jpg,2,bridge_211.jpg,1,bridge,,,,,,,,,0,15,15,15,,,,,,,,,,,,,,,,,,,,,,,,,,,,,,,,,,,,,,,,,,,,,,,,,,,,,,,,,,,,,,,,,,,,,,,,,,,,,,,,,258.5531210830086,None,258.5531210830086,None,7.044806517311609,0.09569574998749886,258.5531210830086,None,258.5531210830086,None,,,,,,,1,2023_Jun_18_1358,working_memory,2021.2.3,None,
badlands_52.jpg,badlands_94.jpg,badlands_52.jpg,right,highway_399.jpg,golf_course_174.jpg,mountain_91.jpg,badlands_52.jpg,bridge_140.jpg,playground_154.jpg,3,badlands_94.jpg,0,badlands,,,,,,,,,0,16,16,16,,,,,,,,,,,,,,,,,,,,,,,,,,,,,,,,,,,,,,,,,,,,,,,,,,,,,,,,,,,,,,,,,,,,,,,,,,,,,,,,,258.67165175000264,None,258.67165175000264,None,7.044806517311609,0.13048020799760707,258.67165175000264,None,258.67165175000264,None,,,,,,,1,2023_Jun_18_1358,working_memory,2021.2.3,None,
badlands_23.jpg,badlands_114.jpg,badlands_23.jpg,right,highway_257.jpg,badlands_23.jpg,golf_course_194.jpg,mountain_251.jpg,playground_140.jpg,bridge_144.jpg,1,badlands_114.jpg,0,badlands,,,,,,,,,0,17,17,17,,,,,,,,,,,,,,,,,,,,,,,,,,,,,,,,,,,,,,,,,,,,,,,,,,,,,,,,,,,,,,,,,,,,,,,,,,,,,,,,,258.82413649999944,None,258.82413649999944,None,7.044806517311609,0.20472229200822767,258.82413649999944,None,258.82413649999944,None,,,,,,,1,2023_Jun_18_1358,working_memory,2021.2.3,None,
mountain_101.jpg,mountain_221.jpg,mountain_101.jpg,right,bridge_155.jpg,playground_33.jpg,highway_287.jpg,mountain_101.jpg,badlands_44.jpg,golf_course_127.jpg,3,mountain_221.jpg,1,mountain,,,,,,,,,0,18,18,18,,,,,,,,,,,,,,,,,,,,,,,,,,,,,,,,,,,,,,,,,,,,,,,,,,,,,,,,,,,,,,,,,,,,,,,,,,,,,,,,,259.0513744580094,None,259.0513744580094,None,7.044806517311609,0.0961972910008626,259.0513744580094,None,259.0513744580094,None,,,,,,,1,2023_Jun_18_1358,working_memory,2021.2.3,None,
badlands_221.jpg,badlands_207.jpg,badlands_221.jpg,right,golf_course_328.jpg,playground_36.jpg,highway_78.jpg,badlands_221.jpg,mountain_152.jpg,bridge_87.jpg,3,badlands_207.jpg,1,badlands,,,,,,,,,0,19,19,19,,,,,,,,,,,,,,,,,,,,,,,,,,,,,,,,,,,,,,,,,,,,,,,,,,,,,,,,,,,,,,,,,,,,,,,,,,,,,,,,,259.1689334170078,None,259.1689334170078,None,7.044806517311609,0.0873734580090968,259.1689334170078,None,259.1689334170078,None,,,,,,,1,2023_Jun_18_1358,working_memory,2021.2.3,None,
mountain_154.jpg,mountain_154.jpg,mountain_95.jpg,left,golf_course_305.jpg,playground_204.jpg,bridge_74.jpg,mountain_154.jpg,badlands_166.jpg,highway_288.jpg,3,mountain_95.jpg,1,mountain,,,,,,,,,0,20,20,20,,,,,,,,,,,,,,,,,,,,,,,,,,,,,,,,,,,,,,,,,,,,,,,,,,,,,,,,,,,,,,,,,,,,,,,,,,,,,,,,,259.2784741670039,None,259.2784741670039,None,7.044806517311609,0.10617816599551588,259.2784741670039,None,259.2784741670039,None,,,,,,,1,2023_Jun_18_1358,working_memory,2021.2.3,None,
bridge_91.jpg,bridge_253.jpg,bridge_91.jpg,right,golf_course_55.jpg,playground_98.jpg,bridge_91.jpg,highway_295.jpg,mountain_41.jpg,badlands_33.jpg,2,bridge_253.jpg,0,bridge,,,,,,,,,0,21,21,21,,,,,,,,,,,,,,,,,,,,,,,,,,,,,,,,,,,,,,,,,,,,,,,,,,,,,,,,,,,,,,,,,,,,,,,,,,,,,,,,,259.4078610419965,None,259.4078610419965,None,7.044806517311609,0.09912191699550021,259.4078610419965,None,259.4078610419965,None,,,,,,,1,2023_Jun_18_1358,working_memory,2021.2.3,None,
highway_273.jpg,highway_273.jpg,highway_384.jpg,left,bridge_22.jpg,mountain_146.jpg,badlands_217.jpg,highway_273.jpg,golf_course_116.jpg,playground_55.jpg,3,highway_384.jpg,0,highway,,,,,,,,,0,22,22,22,,,,,,,,,,,,,,,,,,,,,,,,,,,,,,,,,,,,,,,,,,,,,,,,,,,,,,,,,,,,,,,,,,,,,,,,,,,,,,,,,259.5278807919967,None,259.5278807919967,None,7.044806517311609,0.09229783299088012,259.5278807919967,None,259.5278807919967,None,,,,,,,1,2023_Jun_18_1358,working_memory,2021.2.3,None,
playground_60.jpg,playground_60.jpg,playground_244.jpg,left,playground_60.jpg,highway_178.jpg,badlands_121.jpg,mountain_126.jpg,golf_course_179.jpg,bridge_118.jpg,0,playground_244.jpg,1,playground,,,,,,,,,0,23,23,23,,,,,,,,,,,,,,,,,,,,,,,,,,,,,,,,,,,,,,,,,,,,,,,,,,,,,,,,,,,,,,,,,,,,,,,,,,,,,,,,,259.6428135830065,None,259.6428135830065,None,7.044806517311609,0.394213084000512,259.6428135830065,None,259.6428135830065,None,,,,,,,1,2023_Jun_18_1358,working_memory,2021.2.3,None,
golf_course_217.jpg,golf_course_35.jpg,golf_course_217.jpg,right,playground_37.jpg,mountain_199.jpg,bridge_193.jpg,golf_course_217.jpg,highway_17.jpg,badlands_174.jpg,3,golf_course_35.jpg,0,golf,,,,,,,,,0,24,24,24,,,,,,,,,,,,,,,,,,,,,,,,,,,,,,,,,,,,,,,,,,,,,,,,,,,,,,,,,,,,,,,,,,,,,,,,,,,,,,,,,260.05991362500936,None,260.05991362500936,None,7.044806517311609,0.1356690419925144,260.05991362500936,None,260.05991362500936,None,,,,,,,1,2023_Jun_18_1358,working_memory,2021.2.3,None,
playground_240.jpg,playground_40.jpg,playground_240.jpg,right,mountain_226.jpg,highway_265.jpg,playground_240.jpg,golf_course_313.jpg,badlands_104.jpg,bridge_79.jpg,2,playground_40.jpg,1,playground,,,,,,,,,0,25,25,25,,,,,,,,,,,,,,,,,,,,,,,,,,,,,,,,,,,,,,,,,,,,,,,,,,,,,,,,,,,,,,,,,,,,,,,,,,,,,,,,,260.2183904580015,None,260.2183904580015,None,7.044806517311609,0.1232495000003837,260.2183904580015,None,260.2183904580015,None,,,,,,,1,2023_Jun_18_1358,working_memory,2021.2.3,None,
bridge_202.jpg,bridge_202.jpg,bridge_38.jpg,left,highway_138.jpg,bridge_202.jpg,mountain_29.jpg,badlands_16.jpg,golf_course_105.jpg,playground_246.jpg,1,bridge_38.jpg,1,bridge,,,,,,,,,0,26,26,26,,,,,,,,,,,,,,,,,,,,,,,,,,,,,,,,,,,,,,,,,,,,,,,,,,,,,,,,,,,,,,,,,,,,,,,,,,,,,,,,,260.3642732080043,None,260.3642732080043,None,7.044806517311609,0.12248716699832585,260.3642732080043,None,260.3642732080043,None,,,,,,,1,2023_Jun_18_1358,working_memory,2021.2.3,None,
golf_course_331.jpg,golf_course_331.jpg,golf_course_26.jpg,left,mountain_169.jpg,golf_course_331.jpg,playground_258.jpg,bridge_234.jpg,highway_148.jpg,badlands_122.jpg,1,golf_course_26.jpg,1,golf,,,,,,,,,0,27,27,27,,,,,,,,,,,,,,,,,,,,,,,,,,,,,,,,,,,,,,,,,,,,,,,,,,,,,,,,,,,,,,,,,,,,,,,,,,,,,,,,,260.5091055420053,None,260.5091055420053,None,7.044806517311609,0.1171265410084743,260.5091055420053,None,260.5091055420053,None,,,,,,,1,2023_Jun_18_1358,working_memory,2021.2.3,None,
badlands_70.jpg,badlands_70.jpg,badlands_119.jpg,left,bridge_112.jpg,mountain_307.jpg,golf_course_238.jpg,badlands_70.jpg,highway_383.jpg,playground_233.jpg,3,badlands_119.jpg,1,badlands,,,,,,,,,0,28,28,28,,,,,,,,,,,,,,,,,,,,,,,,,,,,,,,,,,,,,,,,,,,,,,,,,,,,,,,,,,,,,,,,,,,,,,,,,,,,,,,,,260.64871237499756,None,260.64871237499756,None,7.044806517311609,0.36305670799629297,260.64871237499756,None,260.64871237499756,None,,,,,,,1,2023_Jun_18_1358,working_memory,2021.2.3,None,
highway_156.jpg,highway_156.jpg,highway_293.jpg,left,playground_6.jpg,highway_156.jpg,badlands_6.jpg,bridge_45.jpg,golf_course_120.jpg,mountain_102.jpg,1,highway_293.jpg,1,highway,,,,,,,,,0,29,29,29,,,,,,,,,,,,,,,,,,,,,,,,,,,,,,,,,,,,,,,,,,,,,,,,,,,,,,,,,,,,,,,,,,,,,,,,,,,,,,,,,261.03363674999855,None,261.03363674999855,None,7.044806517311609,0.09024841700738762,261.03363674999855,None,261.03363674999855,None,,,,,,,1,2023_Jun_18_1358,working_memory,2021.2.3,None,
golf_course_309.jpg,golf_course_209.jpg,golf_course_309.jpg,right,highway_354.jpg,playground_15.jpg,mountain_187.jpg,badlands_216.jpg,golf_course_309.jpg,bridge_133.jpg,4,golf_course_209.jpg,1,golf,,,,,,,,,0,30,30,30,,,,,,,,,,,,,,,,,,,,,,,,,,,,,,,,,,,,,,,,,,,,,,,,,,,,,,,,,,,,,,,,,,,,,,,,,,,,,,,,,261.14881341700675,None,261.14881341700675,None,7.044806517311609,0.1110062090010615,261.14881341700675,None,261.14881341700675,None,,,,,,,1,2023_Jun_18_1358,working_memory,2021.2.3,None,
bridge_250.jpg,bridge_250.jpg,bridge_134.jpg,left,golf_course_196.jpg,highway_30.jpg,bridge_250.jpg,mountain_40.jpg,playground_249.jpg,badlands_97.jpg,2,bridge_134.jpg,0,bridge,,,,,,,,,0,31,31,31,,,,,,,,,,,,,,,,,,,,,,,,,,,,,,,,,,,,,,,,,,,,,,,,,,,,,,,,,,,,,,,,,,,,,,,,,,,,,,,,,261.281838875002,None,261.281838875002,None,7.044806517311609,0.11172924999846146,261.281838875002,None,261.281838875002,None,,,,,,,1,2023_Jun_18_1358,working_memory,2021.2.3,None,
golf_course_214.jpg,golf_course_312.jpg,golf_course_214.jpg,right,highway_102.jpg,golf_course_214.jpg,playground_176.jpg,bridge_164.jpg,badlands_171.jpg,mountain_253.jpg,1,golf_course_312.jpg,0,golf,,,,,,,,,0,32,32,32,,,,,,,,,,,,,,,,,,,,,,,,,,,,,,,,,,,,,,,,,,,,,,,,,,,,,,,,,,,,,,,,,,,,,,,,,,,,,,,,,261.4139096250001,None,261.4139096250001,None,7.044806517311609,0.09512645800714381,261.4139096250001,None,261.4139096250001,None,,,,,,,1,2023_Jun_18_1358,working_memory,2021.2.3,None,
playground_219.jpg,playground_21.jpg,playground_219.jpg,right,golf_course_252.jpg,badlands_120.jpg,bridge_158.jpg,playground_219.jpg,highway_33.jpg,mountain_202.jpg,3,playground_21.jpg,0,playground,,,,,,,,,0,33,33,33,,,,,,,,,,,,,,,,,,,,,,,,,,,,,,,,,,,,,,,,,,,,,,,,,,,,,,,,,,,,,,,,,,,,,,,,,,,,,,,,,261.5326938329963,None,261.5326938329963,None,7.044806517311609,0.1340567080042092,261.5326938329963,None,261.5326938329963,None,,,,,,,1,2023_Jun_18_1358,working_memory,2021.2.3,None,
bridge_128.jpg,bridge_61.jpg,bridge_128.jpg,right,bridge_128.jpg,highway_154.jpg,badlands_35.jpg,golf_course_137.jpg,mountain_39.jpg,playground_162.jpg,0,bridge_61.jpg,0,bridge,,,,,,,,,0,34,34,34,,,,,,,,,,,,,,,,,,,,,,,,,,,,,,,,,,,,,,,,,,,,,,,,,,,,,,,,,,,,,,,,,,,,,,,,,,,,,,,,,261.69005554199975,None,261.69005554199975,None,7.044806517311609,0.12421070800337475,261.69005554199975,None,261.69005554199975,None,,,,,,,1,2023_Jun_18_1358,working_memory,2021.2.3,None,
highway_209.jpg,highway_209.jpg,highway_122.jpg,left,bridge_52.jpg,playground_78.jpg,golf_course_41.jpg,badlands_47.jpg,highway_209.jpg,mountain_33.jpg,4,highway_122.jpg,1,highway,,,,,,,,,0,35,35,35,,,,,,,,,,,,,,,,,,,,,,,,,,,,,,,,,,,,,,,,,,,,,,,,,,,,,,,,,,,,,,,,,,,,,,,,,,,,,,,,,261.8355571669963,None,261.8355571669963,None,7.044806517311609,0.13890266700764187,261.8355571669963,None,261.8355571669963,None,,,,,,,1,2023_Jun_18_1358,working_memory,2021.2.3,None,
playground_144.jpg,playground_144.jpg,playground_65.jpg,left,badlands_215.jpg,mountain_88.jpg,golf_course_102.jpg,playground_144.jpg,bridge_238.jpg,highway_274.jpg,3,playground_65.jpg,1,playground,,,,,,,,,0,36,36,36,,,,,,,,,,,,,,,,,,,,,,,,,,,,,,,,,,,,,,,,,,,,,,,,,,,,,,,,,,,,,,,,,,,,,,,,,,,,,,,,,261.9979882080079,None,261.9979882080079,None,7.044806517311609,0.1379294590005884,261.9979882080079,None,261.9979882080079,None,,,,,,,1,2023_Jun_18_1358,working_memory,2021.2.3,None,
mountain_110.jpg,mountain_157.jpg,mountain_110.jpg,right,golf_course_42.jpg,playground_103.jpg,mountain_110.jpg,bridge_86.jpg,badlands_60.jpg,highway_342.jpg,2,mountain_157.jpg,0,mountain,,,,,,,,,0,37,37,37,,,,,,,,,,,,,,,,,,,,,,,,,,,,,,,,,,,,,,,,,,,,,,,,,,,,,,,,,,,,,,,,,,,,,,,,,,,,,,,,,262.15749904200493,None,262.15749904200493,None,7.044806517311609,0.13637020799797028,262.15749904200493,None,262.15749904200493,None,,,,,,,1,2023_Jun_18_1358,working_memory,2021.2.3,None,
highway_394.jpg,highway_204.jpg,highway_394.jpg,right,highway_394.jpg,golf_course_144.jpg,playground_68.jpg,badlands_26.jpg,bridge_218.jpg,mountain_32.jpg,0,highway_204.jpg,0,highway,,,,,,,,,0,38,38,38,,,,,,,,,,,,,,,,,,,,,,,,,,,,,,,,,,,,,,,,,,,,,,,,,,,,,,,,,,,,,,,,,,,,,,,,,,,,,,,,,262.3142134170048,None,262.3142134170048,None,7.044806517311609,0.14716270900680684,262.3142134170048,None,262.3142134170048,None,,,,,,,1,2023_Jun_18_1358,working_memory,2021.2.3,None,
golf_course_87.jpg,golf_course_87.jpg,golf_course_161.jpg,left,golf_course_87.jpg,mountain_190.jpg,bridge_124.jpg,highway_58.jpg,badlands_152.jpg,playground_237.jpg,0,golf_course_161.jpg,1,golf,,,,,,,,,0,39,39,39,,,,,,,,,,,,,,,,,,,,,,,,,,,,,,,,,,,,,,,,,,,,,,,,,,,,,,,,,,,,,,,,,,,,,,,,,,,,,,,,,262.4836616249959,None,262.4836616249959,None,7.044806517311609,0.12411375000374392,262.4836616249959,None,262.4836616249959,None,,,,,,,1,2023_Jun_18_1358,working_memory,2021.2.3,None,
mountain_156.jpg,mountain_128.jpg,mountain_156.jpg,right,playground_64.jpg,bridge_180.jpg,badlands_72.jpg,mountain_156.jpg,highway_319.jpg,golf_course_23.jpg,3,mountain_128.jpg,0,mountain,,,,,,,,,0,40,40,40,,,,,,,,,,,,,,,,,,,,,,,,,,,,,,,,,,,,,,,,,,,,,,,,,,,,,,,,,,,,,,,,,,,,,,,,,,,,,,,,,262.6286508330086,None,262.6286508330086,None,7.044806517311609,0.13195433300279547,262.6286508330086,None,262.6286508330086,None,,,,,,,1,2023_Jun_18_1358,working_memory,2021.2.3,None,
badlands_137.jpg,badlands_194.jpg,badlands_137.jpg,right,highway_107.jpg,bridge_212.jpg,mountain_206.jpg,badlands_137.jpg,playground_63.jpg,golf_course_265.jpg,3,badlands_194.jpg,0,badlands,,,,,,,,,0,41,41,41,,,,,,,,,,,,,,,,,,,,,,,,,,,,,,,,,,,,,,,,,,,,,,,,,,,,,,,,,,,,,,,,,,,,,,,,,,,,,,,,,262.781868917009,None,262.781868917009,None,7.044806517311609,0.13472475000889972,262.781868917009,None,262.781868917009,None,,,,,,,1,2023_Jun_18_1358,working_memory,2021.2.3,None,
golf_course_188.jpg,golf_course_157.jpg,golf_course_188.jpg,right,highway_199.jpg,playground_227.jpg,badlands_54.jpg,bridge_228.jpg,golf_course_188.jpg,mountain_62.jpg,4,golf_course_157.jpg,0,golf,,,,,,,,,0,42,42,42,,,,,,,,,,,,,,,,,,,,,,,,,,,,,,,,,,,,,,,,,,,,,,,,,,,,,,,,,,,,,,,,,,,,,,,,,,,,,,,,,262.93644633299846,None,262.93644633299846,None,7.044806517311609,0.14559179199568462,262.93644633299846,None,262.93644633299846,None,,,,,,,1,2023_Jun_18_1358,working_memory,2021.2.3,None,
badlands_184.jpg,badlands_184.jpg,badlands_103.jpg,left,playground_235.jpg,golf_course_342.jpg,bridge_197.jpg,mountain_294.jpg,badlands_184.jpg,highway_308.jpg,4,badlands_103.jpg,1,badlands,,,,,,,,,0,43,43,43,,,,,,,,,,,,,,,,,,,,,,,,,,,,,,,,,,,,,,,,,,,,,,,,,,,,,,,,,,,,,,,,,,,,,,,,,,,,,,,,,263.10428862500703,None,263.10428862500703,None,7.044806517311609,0.10221795800316613,263.10428862500703,None,263.10428862500703,None,,,,,,,1,2023_Jun_18_1358,working_memory,2021.2.3,None,
mountain_232.jpg,mountain_232.jpg,mountain_3.jpg,left,golf_course_128.jpg,playground_124.jpg,badlands_170.jpg,mountain_232.jpg,bridge_147.jpg,highway_305.jpg,3,mountain_3.jpg,0,mountain,,,,,,,,,0,44,44,44,,,,,,,,,,,,,,,,,,,,,,,,,,,,,,,,,,,,,,,,,,,,,,,,,,,,,,,,,,,,,,,,,,,,,,,,,,,,,,,,,263.227069917004,None,263.227069917004,None,7.044806517311609,0.11593141600314993,263.227069917004,None,263.227069917004,None,,,,,,,1,2023_Jun_18_1358,working_memory,2021.2.3,None,
highway_93.jpg,highway_85.jpg,highway_93.jpg,right,golf_course_307.jpg,highway_93.jpg,badlands_164.jpg,playground_184.jpg,mountain_76.jpg,bridge_190.jpg,1,highway_85.jpg,0,highway,,,,,,,,,0,45,45,45,,,,,,,,,,,,,,,,,,,,,,,,,,,,,,,,,,,,,,,,,,,,,,,,,,,,,,,,,,,,,,,,,,,,,,,,,,,,,,,,,263.36400216699985,None,263.36400216699985,None,7.044806517311609,0.12101795899798162,263.36400216699985,None,263.36400216699985,None,,,,,,,1,2023_Jun_18_1358,working_memory,2021.2.3,None,
highway_294.jpg,highway_203.jpg,highway_294.jpg,right,highway_294.jpg,mountain_176.jpg,playground_196.jpg,badlands_106.jpg,bridge_120.jpg,golf_course_269.jpg,0,highway_203.jpg,0,highway,,,,,,,,,0,46,46,46,,,,,,,,,,,,,,,,,,,,,,,,,,,,,,,,,,,,,,,,,,,,,,,,,,,,,,,,,,,,,,,,,,,,,,,,,,,,,,,,,263.5061542080075,None,263.5061542080075,None,7.044806517311609,0.13002208300167695,263.5061542080075,None,263.5061542080075,None,,,,,,,1,2023_Jun_18_1358,working_memory,2021.2.3,None,
golf_course_195.jpg,golf_course_2.jpg,golf_course_195.jpg,right,golf_course_195.jpg,playground_54.jpg,badlands_211.jpg,mountain_92.jpg,highway_28.jpg,bridge_63.jpg,0,golf_course_2.jpg,1,golf,,,,,,,,,0,47,47,47,,,,,,,,,,,,,,,,,,,,,,,,,,,,,,,,,,,,,,,,,,,,,,,,,,,,,,,,,,,,,,,,,,,,,,,,,,,,,,,,,263.6584676670027,None,263.6584676670027,None,7.044806517311609,0.112293458005297,263.6584676670027,None,263.6584676670027,None,,,,,,,1,2023_Jun_18_1358,working_memory,2021.2.3,None,
mountain_57.jpg,mountain_57.jpg,mountain_138.jpg,left,playground_241.jpg,golf_course_71.jpg,badlands_125.jpg,mountain_57.jpg,highway_37.jpg,bridge_68.jpg,3,mountain_138.jpg,1,mountain,,,,,,,,,0,48,48,48,,,,,,,,,,,,,,,,,,,,,,,,,,,,,,,,,,,,,,,,,,,,,,,,,,,,,,,,,,,,,,,,,,,,,,,,,,,,,,,,,263.7924288750073,None,263.7924288750073,None,7.044806517311609,0.13652025000192225,263.7924288750073,None,263.7924288750073,None,,,,,,,1,2023_Jun_18_1358,working_memory,2021.2.3,None,
bridge_108.jpg,bridge_108.jpg,bridge_116.jpg,left,golf_course_297.jpg,highway_90.jpg,badlands_81.jpg,mountain_135.jpg,bridge_108.jpg,playground_118.jpg,4,bridge_116.jpg,0,bridge,,,,,,,,,0,49,49,49,,,,,,,,,,,,,,,,,,,,,,,,,,,,,,,,,,,,,,,,,,,,,,,,,,,,,,,,,,,,,,,,,,,,,,,,,,,,,,,,,263.9501790829963,None,263.9501790829963,None,7.044806517311609,0.1701219590031542,263.9501790829963,None,263.9501790829963,None,,,,,,,1,2023_Jun_18_1358,working_memory,2021.2.3,None,
golf_course_193.jpg,golf_course_193.jpg,golf_course_235.jpg,left,mountain_306.jpg,badlands_138.jpg,golf_course_193.jpg,bridge_204.jpg,playground_132.jpg,highway_3.jpg,2,golf_course_235.jpg,0,golf,,,,,,,,,0,50,50,50,,,,,,,,,,,,,,,,,,,,,,,,,,,,,,,,,,,,,,,,,,,,,,,,,,,,,,,,,,,,,,,,,,,,,,,,,,,,,,,,,264.14222358299594,None,264.14222358299594,None,7.044806517311609,0.16126537500531413,264.14222358299594,None,264.14222358299594,None,,,,,,,1,2023_Jun_18_1358,working_memory,2021.2.3,None,
bridge_65.jpg,bridge_65.jpg,bridge_60.jpg,left,highway_31.jpg,golf_course_226.jpg,badlands_201.jpg,mountain_120.jpg,bridge_65.jpg,playground_141.jpg,4,bridge_60.jpg,1,bridge,,,,,,,,,0,51,51,51,,,,,,,,,,,,,,,,,,,,,,,,,,,,,,,,,,,,,,,,,,,,,,,,,,,,,,,,,,,,,,,,,,,,,,,,,,,,,,,,,264.32529016700573,None,264.32529016700573,None,7.044806517311609,0.14544570799625944,264.32529016700573,None,264.32529016700573,None,,,,,,,1,2023_Jun_18_1358,working_memory,2021.2.3,None,
playground_76.jpg,playground_22.jpg,playground_76.jpg,right,highway_50.jpg,playground_76.jpg,bridge_126.jpg,mountain_277.jpg,badlands_213.jpg,golf_course_288.jpg,1,playground_22.jpg,0,playground,,,,,,,,,0,52,52,52,,,,,,,,,,,,,,,,,,,,,,,,,,,,,,,,,,,,,,,,,,,,,,,,,,,,,,,,,,,,,,,,,,,,,,,,,,,,,,,,,264.49323962500785,None,264.49323962500785,None,7.044806517311609,0.14483116600604262,264.49323962500785,None,264.49323962500785,None,,,,,,,1,2023_Jun_18_1358,working_memory,2021.2.3,None,
golf_course_15.jpg,golf_course_113.jpg,golf_course_15.jpg,right,highway_18.jpg,badlands_173.jpg,bridge_24.jpg,playground_251.jpg,golf_course_15.jpg,mountain_137.jpg,4,golf_course_113.jpg,0,golf,,,,,,,,,0,53,53,53,,,,,,,,,,,,,,,,,,,,,,,,,,,,,,,,,,,,,,,,,,,,,,,,,,,,,,,,,,,,,,,,,,,,,,,,,,,,,,,,,264.66128770800424,None,264.66128770800424,None,7.044806517311609,0.12861170900578145,264.66128770800424,None,264.66128770800424,None,,,,,,,1,2023_Jun_18_1358,working_memory,2021.2.3,None,
badlands_24.jpg,badlands_53.jpg,badlands_24.jpg,right,playground_50.jpg,golf_course_72.jpg,badlands_24.jpg,highway_29.jpg,mountain_51.jpg,bridge_66.jpg,2,badlands_53.jpg,1,badlands,,,,,,,,,0,54,54,54,,,,,,,,,,,,,,,,,,,,,,,,,,,,,,,,,,,,,,,,,,,,,,,,,,,,,,,,,,,,,,,,,,,,,,,,,,,,,,,,,264.8124240830075,None,264.8124240830075,None,7.044806517311609,0.12224195800081361,264.8124240830075,None,264.8124240830075,None,,,,,,,1,2023_Jun_18_1358,working_memory,2021.2.3,None,
mountain_123.jpg,mountain_123.jpg,mountain_94.jpg,left,badlands_105.jpg,bridge_110.jpg,playground_85.jpg,highway_172.jpg,mountain_123.jpg,golf_course_162.jpg,4,mountain_94.jpg,0,mountain,,,,,,,,,0,55,55,55,,,,,,,,,,,,,,,,,,,,,,,,,,,,,,,,,,,,,,,,,,,,,,,,,,,,,,,,,,,,,,,,,,,,,,,,,,,,,,,,,264.9581928330008,None,264.9581928330008,None,7.044806517311609,0.12688116599747445,264.9581928330008,None,264.9581928330008,None,,,,,,,1,2023_Jun_18_1358,working_memory,2021.2.3,None,
bridge_191.jpg,bridge_191.jpg,bridge_184.jpg,left,playground_49.jpg,bridge_191.jpg,golf_course_3.jpg,mountain_233.jpg,highway_191.jpg,badlands_200.jpg,1,bridge_184.jpg,0,bridge,,,,,,,,,0,56,56,56,,,,,,,,,,,,,,,,,,,,,,,,,,,,,,,,,,,,,,,,,,,,,,,,,,,,,,,,,,,,,,,,,,,,,,,,,,,,,,,,,265.1072258330096,None,265.1072258330096,None,7.044806517311609,0.11656487500295043,265.1072258330096,None,265.1072258330096,None,,,,,,,1,2023_Jun_18_1358,working_memory,2021.2.3,None,
golf_course_78.jpg,golf_course_134.jpg,golf_course_78.jpg,right,playground_16.jpg,golf_course_78.jpg,bridge_254.jpg,highway_193.jpg,mountain_290.jpg,badlands_214.jpg,1,golf_course_134.jpg,0,golf,,,,,,,,,0,57,57,57,,,,,,,,,,,,,,,,,,,,,,,,,,,,,,,,,,,,,,,,,,,,,,,,,,,,,,,,,,,,,,,,,,,,,,,,,,,,,,,,,265.2450627920043,None,265.2450627920043,None,7.044806517311609,0.11023454100359231,265.2450627920043,None,265.2450627920043,None,,,,,,,1,2023_Jun_18_1358,working_memory,2021.2.3,None,
playground_117.jpg,playground_127.jpg,playground_117.jpg,right,highway_36.jpg,badlands_30.jpg,playground_117.jpg,golf_course_219.jpg,bridge_106.jpg,mountain_302.jpg,2,playground_127.jpg,1,playground,,,,,,,,,0,58,58,58,,,,,,,,,,,,,,,,,,,,,,,,,,,,,,,,,,,,,,,,,,,,,,,,,,,,,,,,,,,,,,,,,,,,,,,,,,,,,,,,,265.3780890830094,None,265.3780890830094,None,7.044806517311609,0.11019891699834261,265.3780890830094,None,265.3780890830094,None,,,,,,,1,2023_Jun_18_1358,working_memory,2021.2.3,None,
highway_415.jpg,highway_415.jpg,highway_174.jpg,left,playground_173.jpg,bridge_20.jpg,golf_course_59.jpg,highway_415.jpg,mountain_87.jpg,badlands_150.jpg,3,highway_174.jpg,1,highway,,,,,,,,,0,59,59,59,,,,,,,,,,,,,,,,,,,,,,,,,,,,,,,,,,,,,,,,,,,,,,,,,,,,,,,,,,,,,,,,,,,,,,,,,,,,,,,,,265.50866916700033,None,265.50866916700033,None,7.044806517311609,0.11433729100099299,265.50866916700033,None,265.50866916700033,None,,,,,,,1,2023_Jun_18_1358,working_memory,2021.2.3,None,
,,,,,,,,,,,,,,,,,,,,,,,,,,,,,,,,,,,,,,,,,,,,,,,,,,,,,,,,,,,,,,,,,,,,,,,,,,,,,,,,,,,,,,,,,,,,,,,,,,,,,,,,,,,,,,,,,,,,space,0.6636858739948366,265.62681645799603,None,,,1,2023_Jun_18_1358,working_memory,2021.2.3,None,
,,,,,,,,,,,,,,,,,,,,,,,,,,,,,,,,,,,,,,,,,,,,,,,,,,,,,,,,,,,,,,,,,,,,,,,,,,,,,,,,,,,,,,,,,,,,,,,,,,,,,,,,,,,,,,,,,,,,,,,,265.62681645799603,None,,,,,,
