target,image1,image2,correct,background_0,background_1,background_2,background_3,background_4,background_5,target_index,selected_dist,distractor_level,category,demo_loops.thisRepN,demo_loops.thisTrialN,demo_loops.thisN,demo_loops.thisIndex,exp_loops.thisRepN,exp_loops.thisTrialN,exp_loops.thisN,exp_loops.thisIndex,exp_loops_part2.thisRepN,exp_loops_part2.thisTrialN,exp_loops_part2.thisN,exp_loops_part2.thisIndex,key_resp.keys,key_resp.started,key_resp.stopped,text_consent_form.started,text_consent_form.stopped,button.started,button.stopped,button.numClicks,button.timesOn,button.timesOff,key_resp_2.keys,key_resp_2.rt,key_resp_2.started,key_resp_2.stopped,text_instructions_first_slide.started,text_instructions_first_slide.stopped,image_0_demo.started,image_0_demo.stopped,image_1_demo.started,image_1_demo.stopped,image_2_demo.started,image_2_demo.stopped,image_3_demo.started,image_3_demo.stopped,image_4_demo.started,image_4_demo.stopped,image_5_demo.started,image_5_demo.stopped,blank_screen_demo.started,blank_screen_demo.stopped,fixation_demo.started,fixation_demo.stopped,image_left_demo.started,image_left_demo.stopped,image_right_demo.started,image_right_demo.stopped,demo_test_key_resp.keys,demo_test_key_resp.rt,demo_test_key_resp.started,demo_test_key_resp.stopped,text_4.started,text_4.stopped,key_resp_after_demo.keys,key_resp_after_demo.rt,key_resp_after_demo.started,key_resp_after_demo.stopped,text_after_demo_instr.started,text_after_demo_instr.stopped,image_0.started,image_0.stopped,image_1.started,image_1.stopped,image_2.started,image_2.stopped,image_3.started,image_3.stopped,image_4.started,image_4.stopped,image_5.started,image_5.stopped,blank_screen.started,blank_screen.stopped,fixation_encoding.started,fixation_encoding.stopped,image_left.started,image_left.stopped,image_right.started,image_right.stopped,test_key_resp.keys,test_key_resp.rt,test_key_resp.started,test_key_resp.stopped,text_6.started,text_6.stopped,text_2.started,text_2.stopped,key_resp_4.keys,key_resp_4.rt,key_resp_4.started,key_resp_4.stopped,image_left_part2.started,image_left_part2.stopped,image_right_part2.started,image_right_part2.stopped,slider_part2.response,slider_part2.rt,slider_part2.started,slider_part2.stopped,text_5.started,text_5.stopped,key_resp_last_slide.keys,key_resp_last_slide.rt,key_resp_last_slide.started,key_resp_last_slide.stopped,text_last_slide.started,text_last_slide.stopped,ID,date,expName,psychopyVersion,frameRate,
,,,,,,,,,,,,,,,,,,,,,,,,,,None,11.978951875003986,None,,,,,,,,,,,,,,,,,,,,,,,,,,,,,,,,,,,,,,,,,,,,,,,,,,,,,,,,,,,,,,,,,,,,,,,,,,,,,,,,,,,,,,,,,,,,,,2,2023_Jun_18_1415,working_memory,2021.2.3,None,
,,,,,,,,,,,,,,,,,,,,,,,,,,,,,11.978951875003986,None,11.978951875003986,None,1,[0.86755091699888],[0.867553041985957],space,0.6934441659977892,12.836985082991305,None,,,,,,,,,,,,,,,,,,,,,,,,,,,,,,,,,,,,,,,,,,,,,,,,,,,,,,,,,,,,,,,,,,,,,,,,,,,,,,,,,,,2,2023_Jun_18_1415,working_memory,2021.2.3,None,
flower1.jpg,flower1.jpg,flower1_pair.jpg,left,leaf3.jpg,trail1.jpg,flower1.jpg,bird1.jpg,tree3.jpg,fence4.jpg,2,,,,0,0,0,0,,,,,,,,,,,,,,,,,,,,,,,12.836985082991305,None,14.101944790993002,14.298092999990331,14.298092999990331,14.496984083001735,14.501887582999188,14.694408915995155,14.694408915995155,14.890807874995517,14.895734290999826,15.092289665990393,15.092289665990393,15.286229290999472,15.304854582995176,None,13.619654790993081,14.119795749997138,16.267976749993977,None,16.267976749993977,None,right,0.40633854099723976,16.267976749993977,None,16.267976749993977,None,,,,,,,,,,,,,,,,,,,,,,,,,,,,,,,,,,,,,,,,,,,,,,,,,,,,,,,2,2023_Jun_18_1415,working_memory,2021.2.3,None,
leaf2.jpg,leaf1.jpg,leaf2.jpg,right,trail2.jpg,leaf2.jpg,bird2.jpg,tree2.jpg,fence3.jpg,flower2.jpg,1,,,,0,1,1,1,,,,,,,,,,,,,,,,,,,,,,,,,17.19189037499018,17.3839299579995,17.406033666004078,17.593120249992353,17.593120249992353,17.79188962499029,17.797196832994814,17.998659499993664,17.998659499993664,18.183490208000876,18.20538545800082,18.39626424999733,18.39626424999733,None,16.726204291000613,17.223142707996885,19.412235249998048,None,19.412235249998048,None,right,0.49198745799367316,19.412235249998048,None,19.412235249998048,None,,,,,,,,,,,,,,,,,,,,,,,,,,,,,,,,,,,,,,,,,,,,,,,,,,,,,,,2,2023_Jun_18_1415,working_memory,2021.2.3,None,
fence1.jpg,fence1.jpg,fence2.jpg,left,tree1.jpg,bird3.jpg,trail3.jpg,fence1.jpg,leaf4.jpg,flower3.jpg,3,,,,0,2,2,2,,,,,,,,,,,,,,,,,,,,,,,,,20.435647874997812,20.631326582995825,20.631326582995825,20.821066624994273,20.837200124995434,21.02324249999947,21.02324249999947,21.217880832991796,21.23544866600423,21.434203957993304,21.434203957993304,21.62149308300286,21.63446533300157,None,19.95076904099551,20.43972749999375,22.630133332990226,None,22.630133332990226,None,right,0.43305408299784176,22.630133332990226,None,22.630133332990226,None,,,,,,,,,,,,,,,,,,,,,,,,,,,,,,,,,,,,,,,,,,,,,,,,,,,,,,,2,2023_Jun_18_1415,working_memory,2021.2.3,None,
,,,,,,,,,,,,,,,,,,,,,,,,,,,,,,,,,,,,,,,,,,,,,,,,,,,,,,,,,,,,,,,,,,,,space,0.9271550419944106,23.07696529099485,None,,,,,,,,,,,,,,,,,,,,,,,,,,,,,,,,,,,,,,,,,,,,,,,,,,,2,2023_Jun_18_1415,working_memory,2021.2.3,None,
badlands_113.jpg,badlands_113.jpg,badlands_225.jpg,left,mountain_151.jpg,highway_76.jpg,badlands_113.jpg,golf_course_221.jpg,bridge_136.jpg,playground_153.jpg,2,badlands_225.jpg,0,badlands,,,,,0,0,0,0,,,,,,,,,,,,,,,,,,,,,,,,,,,,,,,,,,,,,,,,,,,,,,,,,,,23.07696529099485,None,24.55274966599245,24.752115166003932,24.752115166003932,24.95224041599431,24.95224041599431,25.14836304099299,25.153024332990753,25.352049291002913,25.352049291002913,25.55168999999296,25.55168999999296,25.74539845799154,25.75042112499068,None,24.072181083000032,24.56875287499861,26.730289165992872,None,26.730289165992872,None,right,0.708774833008647,26.730289165992872,None,26.730289165992872,None,,,,,,,,,,,,,,,,,,,,,,,2,2023_Jun_18_1415,working_memory,2021.2.3,None,
badlands_222.jpg,badlands_222.jpg,badlands_34.jpg,left,highway_247.jpg,badlands_222.jpg,mountain_43.jpg,golf_course_333.jpg,bridge_142.jpg,playground_126.jpg,1,badlands_34.jpg,0,badlands,,,,,0,1,1,1,,,,,,,,,,,,,,,,,,,,,,,,,,,,,,,,,,,,,,,,,,,,,,,,,,,,,27.967655957996612,28.161932290997356,28.161932290997356,28.36155187500117,28.36155187500117,28.55051041599654,28.569866874997388,28.76739995800017,28.76739995800017,28.962628332999884,28.962628332999884,29.16318904099171,29.16318904099171,None,27.48459212499438,27.97864354099147,30.160285582998767,None,30.160285582998767,None,right,0.5336605839984259,30.160285582998767,None,30.160285582998767,None,,,,,,,,,,,,,,,,,,,,,,,2,2023_Jun_18_1415,working_memory,2021.2.3,None,
highway_359.jpg,highway_359.jpg,highway_379.jpg,left,mountain_268.jpg,badlands_180.jpg,bridge_96.jpg,highway_359.jpg,playground_191.jpg,golf_course_67.jpg,3,highway_379.jpg,1,highway,,,,,0,2,2,2,,,,,,,,,,,,,,,,,,,,,,,,,,,,,,,,,,,,,,,,,,,,,,,,,,,,,31.227970457999618,31.413253207996604,31.413253207996604,31.60989729099674,31.614165291000973,31.808482790991548,31.81476074999955,32.008561333001126,32.02321812500304,32.22187754100014,32.22187754100014,32.42209070800163,32.427759707992664,None,30.738521749997744,31.23032891600451,33.42119766600081,None,33.42119766600081,None,right,0.9927467910019914,33.42119766600081,None,33.42119766600081,None,,,,,,,,,,,,,,,,,,,,,,,2,2023_Jun_18_1415,working_memory,2021.2.3,None,
mountain_222.jpg,mountain_244.jpg,mountain_222.jpg,right,mountain_222.jpg,playground_181.jpg,bridge_266.jpg,golf_course_176.jpg,badlands_156.jpg,highway_268.jpg,0,mountain_244.jpg,0,mountain,,,,,0,3,3,3,,,,,,,,,,,,,,,,,,,,,,,,,,,,,,,,,,,,,,,,,,,,,,,,,,,,,34.94305666600121,35.142122290999396,35.14763174999098,35.337226249990636,35.337226249990636,35.52574299999105,35.5443013329932,35.7376993749931,35.7376993749931,35.93633262500225,35.93633262500225,36.133257124995,36.133257124995,None,34.460931875000824,34.963986624992685,37.141827500003274,None,37.141827500003274,None,right,0.6058905829995638,37.141827500003274,None,37.141827500003274,None,,,,,,,,,,,,,,,,,,,,,,,2,2023_Jun_18_1415,working_memory,2021.2.3,None,
bridge_172.jpg,bridge_172.jpg,bridge_17.jpg,left,golf_course_171.jpg,highway_404.jpg,bridge_172.jpg,playground_83.jpg,mountain_309.jpg,badlands_157.jpg,2,bridge_17.jpg,0,bridge,,,,,0,4,4,4,,,,,,,,,,,,,,,,,,,,,,,,,,,,,,,,,,,,,,,,,,,,,,,,,,,,,38.27380129099765,38.47388754099666,38.47388754099666,38.662480040991795,38.66841887499322,38.864336332990206,38.864336332990206,39.05996404099278,39.076255541003775,39.27208583299944,39.27208583299944,39.4611307909945,39.46774979100155,None,37.79185491599492,38.28307879099157,40.47958554099023,None,40.47958554099023,None,right,1.138071833003778,40.47958554099023,None,40.47958554099023,None,,,,,,,,,,,,,,,,,,,,,,,2,2023_Jun_18_1415,working_memory,2021.2.3,None,
playground_145.jpg,playground_242.jpg,playground_145.jpg,right,playground_145.jpg,highway_9.jpg,bridge_39.jpg,mountain_212.jpg,badlands_79.jpg,golf_course_241.jpg,0,playground_242.jpg,1,playground,,,,,0,5,5,5,,,,,,,,,,,,,,,,,,,,,,,,,,,,,,,,,,,,,,,,,,,,,,,,,,,,,42.132988165991264,42.33305562500027,42.33305562500027,42.523564916002215,42.53986933299166,42.73570804100018,42.73570804100018,42.92181212500145,42.94137387500086,43.13897674999316,43.13897674999316,43.33413387500332,43.33413387500332,None,41.65873320799437,42.150895874990965,44.33645499999693,None,44.33645499999693,None,right,2.360204209006042,44.33645499999693,None,44.33645499999693,None,,,,,,,,,,,,,,,,,,,,,,,2,2023_Jun_18_1415,working_memory,2021.2.3,None,
highway_245.jpg,highway_245.jpg,highway_134.jpg,left,bridge_1.jpg,golf_course_338.jpg,playground_256.jpg,highway_245.jpg,badlands_46.jpg,mountain_166.jpg,3,highway_134.jpg,0,highway,,,,,0,6,6,6,,,,,,,,,,,,,,,,,,,,,,,,,,,,,,,,,,,,,,,,,,,,,,,,,,,,,47.23254774999805,47.41835999999603,47.41835999999603,47.60929924999073,47.629938375001075,47.81724324999959,47.829792791002546,48.02832341600151,48.02832341600151,48.227322749997256,48.227322749997256,48.42444454100041,48.42990049999207,None,46.74928962500417,47.237591041004634,49.4297169999918,None,49.4297169999918,None,right,0.547036666990607,49.4297169999918,None,49.4297169999918,None,,,,,,,,,,,,,,,,,,,,,,,2,2023_Jun_18_1415,working_memory,2021.2.3,None,
mountain_293.jpg,mountain_293.jpg,mountain_47.jpg,left,badlands_183.jpg,golf_course_181.jpg,mountain_293.jpg,playground_222.jpg,bridge_173.jpg,highway_83.jpg,2,mountain_47.jpg,1,mountain,,,,,0,7,7,7,,,,,,,,,,,,,,,,,,,,,,,,,,,,,,,,,,,,,,,,,,,,,,,,,,,,,50.50272545799089,50.703968082991196,50.703968082991196,50.9003187079943,50.905399041002966,51.09483558300417,51.108742083000834,51.30595379100123,51.30595379100123,51.495937749990844,51.50161824999668,51.69827783299843,51.704374374996405,None,50.02433941599156,50.51949199999217,52.7028823330038,None,52.7028823330038,None,right,1.0924170420039445,52.7028823330038,None,52.7028823330038,None,,,,,,,,,,,,,,,,,,,,,,,2,2023_Jun_18_1415,working_memory,2021.2.3,None,
bridge_146.jpg,bridge_27.jpg,bridge_146.jpg,right,highway_269.jpg,bridge_146.jpg,golf_course_291.jpg,mountain_35.jpg,badlands_55.jpg,playground_195.jpg,1,bridge_27.jpg,0,bridge,,,,,0,8,8,8,,,,,,,,,,,,,,,,,,,,,,,,,,,,,,,,,,,,,,,,,,,,,,,,,,,,,54.33017950000067,54.52051187500183,54.52051187500183,54.71620337499189,54.72032933299488,54.90862533300242,54.92634341599478,55.1206192499958,55.12745512499532,55.32222541599185,55.32222541599185,55.508682375002536,55.530508374999044,None,53.84930141599034,54.3478863749915,56.54330820799805,None,56.54330820799805,None,right,0.5609356670029229,56.54330820799805,None,56.54330820799805,None,,,,,,,,,,,,,,,,,,,,,,,2,2023_Jun_18_1415,working_memory,2021.2.3,None,
playground_257.jpg,playground_257.jpg,playground_215.jpg,left,mountain_198.jpg,highway_15.jpg,badlands_80.jpg,golf_course_282.jpg,playground_257.jpg,bridge_62.jpg,4,playground_215.jpg,1,playground,,,,,0,9,9,9,,,,,,,,,,,,,,,,,,,,,,,,,,,,,,,,,,,,,,,,,,,,,,,,,,,,,57.63097916600236,57.832882457994856,57.832882457994856,58.02893374999985,58.033784582992666,58.233980332996,58.233980332996,58.420687707999605,58.43730224999308,58.63050170800125,58.63050170800125,58.82782995799789,58.83400208299281,None,57.15441295799974,57.65138087500236,59.84678416600218,None,59.84678416600218,None,right,0.8433324169891421,59.84678416600218,None,59.84678416600218,None,,,,,,,,,,,,,,,,,,,,,,,2,2023_Jun_18_1415,working_memory,2021.2.3,None,
mountain_230.jpg,mountain_230.jpg,mountain_97.jpg,left,golf_course_253.jpg,mountain_230.jpg,highway_81.jpg,playground_47.jpg,badlands_9.jpg,bridge_4.jpg,1,mountain_97.jpg,1,mountain,,,,,0,10,10,10,,,,,,,,,,,,,,,,,,,,,,,,,,,,,,,,,,,,,,,,,,,,,,,,,,,,,61.226645540999016,61.42460887499328,61.42460887499328,61.62216241599526,61.62216241599526,61.81979145799414,61.82523420799407,62.01764920799178,62.0221816659905,62.21902824999415,62.2214702499914,62.4216288329917,62.42770762500004,None,60.74502712499816,61.24427679099608,63.424412624997785,None,63.424412624997785,None,right,1.198603249998996,63.424412624997785,None,63.424412624997785,None,,,,,,,,,,,,,,,,,,,,,,,2,2023_Jun_18_1415,working_memory,2021.2.3,None,
playground_10.jpg,playground_10.jpg,playground_122.jpg,left,highway_226.jpg,golf_course_33.jpg,mountain_38.jpg,playground_10.jpg,bridge_102.jpg,badlands_10.jpg,3,playground_122.jpg,0,playground,,,,,0,11,11,11,,,,,,,,,,,,,,,,,,,,,,,,,,,,,,,,,,,,,,,,,,,,,,,,,,,,,65.15922345800209,65.359700874993,65.359700874993,65.56095437500335,65.56095437500335,65.74686958300299,65.74686958300299,65.94396249999409,65.94877941599407,66.1498199159978,66.1498199159978,66.34525933300029,66.35143566600163,None,64.67100641599973,65.16224208299536,67.35124354099389,None,67.35124354099389,None,right,0.34268162499938626,67.35124354099389,None,67.35124354099389,None,,,,,,,,,,,,,,,,,,,,,,,2,2023_Jun_18_1415,working_memory,2021.2.3,None,
highway_177.jpg,highway_177.jpg,highway_278.jpg,left,golf_course_202.jpg,playground_14.jpg,highway_177.jpg,bridge_152.jpg,badlands_227.jpg,mountain_192.jpg,2,highway_278.jpg,1,highway,,,,,0,12,12,12,,,,,,,,,,,,,,,,,,,,,,,,,,,,,,,,,,,,,,,,,,,,,,,,,,,,,68.22785387499607,68.42555816599634,68.43046462499478,68.62356758299575,68.62356758299575,68.82490645800135,68.82490645800135,69.01345762499841,69.0328956250014,69.23625541599176,69.23116599999776,69.4232783329935,69.4232783329935,None,67.74683062499389,68.24649999999383,70.42783133299963,None,70.42783133299963,None,right,0.3920482079993235,70.42783133299963,None,70.42783133299963,None,,,,,,,,,,,,,,,,,,,,,,,2,2023_Jun_18_1415,working_memory,2021.2.3,None,
badlands_21.jpg,badlands_1.jpg,badlands_21.jpg,right,bridge_72.jpg,badlands_21.jpg,playground_74.jpg,golf_course_56.jpg,mountain_228.jpg,highway_251.jpg,1,badlands_1.jpg,0,badlands,,,,,0,13,13,13,,,,,,,,,,,,,,,,,,,,,,,,,,,,,,,,,,,,,,,,,,,,,,,,,,,,,71.34320674999617,71.53706558299018,71.53706558299018,71.73383279099653,71.7400196660019,71.93783229099063,71.94313908299955,72.12999108299846,72.14443879100145,72.33198995799467,72.33198995799467,72.53510512500361,72.53510512500361,None,70.86216158299067,71.36129091600014,73.53892079099023,None,73.53892079099023,None,right,0.14283808298932854,73.53892079099023,None,73.53892079099023,None,,,,,,,,,,,,,,,,,,,,,,,2,2023_Jun_18_1415,working_memory,2021.2.3,None,
playground_131.jpg,playground_164.jpg,playground_131.jpg,right,highway_101.jpg,golf_course_166.jpg,bridge_117.jpg,mountain_180.jpg,playground_131.jpg,badlands_27.jpg,4,playground_164.jpg,1,playground,,,,,0,14,14,14,,,,,,,,,,,,,,,,,,,,,,,,,,,,,,,,,,,,,,,,,,,,,,,,,,,,,74.20401591599511,74.40070595800353,74.40482191600313,74.5924275409925,74.61139029100013,74.80098312499467,74.80098312499467,74.99631895800121,75.00167620799039,75.1993667499919,75.20468974999676,75.3943198749912,75.4084020829905,None,73.72583100000338,74.22116000000096,76.40607720799744,None,76.40607720799744,None,right,0.28362312499666587,76.40607720799744,None,76.40607720799744,None,,,,,,,,,,,,,,,,,,,,,,,2,2023_Jun_18_1415,working_memory,2021.2.3,None,
bridge_256.jpg,bridge_256.jpg,bridge_211.jpg,left,highway_53.jpg,mountain_250.jpg,bridge_256.jpg,playground_165.jpg,golf_course_300.jpg,badlands_128.jpg,2,bridge_211.jpg,1,bridge,,,,,0,15,15,15,,,,,,,,,,,,,,,,,,,,,,,,,,,,,,,,,,,,,,,,,,,,,,,,,,,,,77.20787724999536,77.40860275000159,77.40860275000159,77.60745149999275,77.60745149999275,77.80511554099212,77.80511554099212,78.00284979099524,78.00797529099509,78.20449812499282,78.21001637500012,78.40030379100062,78.40030379100062,None,76.73062466600095,77.22894683299819,79.40174083299644,None,79.40174083299644,None,right,0.8438303750008345,79.40174083299644,None,79.40174083299644,None,,,,,,,,,,,,,,,,,,,,,,,2,2023_Jun_18_1415,working_memory,2021.2.3,None,
badlands_52.jpg,badlands_94.jpg,badlands_52.jpg,right,highway_399.jpg,golf_course_174.jpg,mountain_91.jpg,badlands_52.jpg,bridge_140.jpg,playground_154.jpg,3,badlands_94.jpg,0,badlands,,,,,0,16,16,16,,,,,,,,,,,,,,,,,,,,,,,,,,,,,,,,,,,,,,,,,,,,,,,,,,,,,80.76713741599815,80.96380904100079,80.96804441600398,81.17187662499782,81.17187662499782,81.36279291599931,81.36279291599931,81.56237658299506,81.56237658299506,81.75838891600142,81.76392733299872,81.96166604099562,81.96166604099562,None,80.28816275000281,80.78350366599625,82.96875229099533,None,82.96875229099533,None,right,0.6717187080066651,82.96875229099533,None,82.96875229099533,None,,,,,,,,,,,,,,,,,,,,,,,2,2023_Jun_18_1415,working_memory,2021.2.3,None,
badlands_23.jpg,badlands_114.jpg,badlands_23.jpg,right,highway_257.jpg,badlands_23.jpg,golf_course_194.jpg,mountain_251.jpg,playground_140.jpg,bridge_144.jpg,1,badlands_114.jpg,0,badlands,,,,,0,17,17,17,,,,,,,,,,,,,,,,,,,,,,,,,,,,,,,,,,,,,,,,,,,,,,,,,,,,,84.15562962499098,84.35398391599301,84.35947675000352,84.56039958300244,84.56039958300244,84.75979608300258,84.75979608300258,84.96040537499357,84.96040537499357,85.14607237499149,85.16703120799502,85.36489124999207,85.3597407079942,None,83.68311595800333,84.17146820799098,86.3635179999983,None,86.3635179999983,None,right,0.8839036249992205,86.3635179999983,None,86.3635179999983,None,,,,,,,,,,,,,,,,,,,,,,,2,2023_Jun_18_1415,working_memory,2021.2.3,None,
mountain_101.jpg,mountain_221.jpg,mountain_101.jpg,right,bridge_155.jpg,playground_33.jpg,highway_287.jpg,mountain_101.jpg,badlands_44.jpg,golf_course_127.jpg,3,mountain_221.jpg,1,mountain,,,,,0,18,18,18,,,,,,,,,,,,,,,,,,,,,,,,,,,,,,,,,,,,,,,,,,,,,,,,,,,,,87.7679677499982,87.95949241600465,87.97438520799915,88.17020787499496,88.17020787499496,88.36944095799117,88.36944095799117,88.5656415830017,88.56800537499657,88.75875466599246,88.77343529099016,88.97391633299412,88.97610337499646,None,87.292051832992,87.78575662500225,89.97601241599477,None,89.97601241599477,None,right,0.6462928339897189,89.97601241599477,None,89.97601241599477,None,,,,,,,,,,,,,,,,,,,,,,,2,2023_Jun_18_1415,working_memory,2021.2.3,None,
badlands_221.jpg,badlands_207.jpg,badlands_221.jpg,right,golf_course_328.jpg,playground_36.jpg,highway_78.jpg,badlands_221.jpg,mountain_152.jpg,bridge_87.jpg,3,badlands_207.jpg,1,badlands,,,,,0,19,19,19,,,,,,,,,,,,,,,,,,,,,,,,,,,,,,,,,,,,,,,,,,,,,,,,,,,,,91.1602162909985,91.35045287499088,91.35045287499088,91.53817695799808,91.55116316599015,91.73822983299033,91.75312729099824,91.9506625829963,91.9506625829963,92.14191758299421,92.1471128330013,92.34327483299421,92.34574512499967,None,90.67241137499514,91.16273908299627,93.35449487499136,None,93.35449487499136,None,right,0.5997212090005632,93.35449487499136,None,93.35449487499136,None,,,,,,,,,,,,,,,,,,,,,,,2,2023_Jun_18_1415,working_memory,2021.2.3,None,
mountain_154.jpg,mountain_154.jpg,mountain_95.jpg,left,golf_course_305.jpg,playground_204.jpg,bridge_74.jpg,mountain_154.jpg,badlands_166.jpg,highway_288.jpg,3,mountain_95.jpg,1,mountain,,,,,0,20,20,20,,,,,,,,,,,,,,,,,,,,,,,,,,,,,,,,,,,,,,,,,,,,,,,,,,,,,94.48387304099742,94.67233804099669,94.68859320800402,94.88247108299402,94.88247108299402,95.08275858299749,95.08275858299749,95.27186483300466,95.29374316599569,95.48369791600271,95.48369791600271,95.6828658329905,95.69068412500201,None,94.00400741599151,94.5014569999912,96.6819205829961,None,96.6819205829961,None,right,0.30218083299405407,96.6819205829961,None,96.6819205829961,None,,,,,,,,,,,,,,,,,,,,,,,2,2023_Jun_18_1415,working_memory,2021.2.3,None,
bridge_91.jpg,bridge_253.jpg,bridge_91.jpg,right,golf_course_55.jpg,playground_98.jpg,bridge_91.jpg,highway_295.jpg,mountain_41.jpg,badlands_33.jpg,2,bridge_253.jpg,0,bridge,,,,,0,21,21,21,,,,,,,,,,,,,,,,,,,,,,,,,,,,,,,,,,,,,,,,,,,,,,,,,,,,,97.50141416599217,97.69683683299809,97.70133916600025,97.89921754099487,97.89921754099487,98.09726204100298,98.09726204100298,98.29420950000349,98.30819629099278,98.50567766599124,98.50567766599124,98.69893849999062,98.69893849999062,None,97.02545895799994,97.52060733300459,99.7028286249988,None,99.7028286249988,None,right,0.34131487501144875,99.7028286249988,None,99.7028286249988,None,,,,,,,,,,,,,,,,,,,,,,,2,2023_Jun_18_1415,working_memory,2021.2.3,None,
highway_273.jpg,highway_273.jpg,highway_384.jpg,left,bridge_22.jpg,mountain_146.jpg,badlands_217.jpg,highway_273.jpg,golf_course_116.jpg,playground_55.jpg,3,highway_384.jpg,0,highway,,,,,0,22,22,22,,,,,,,,,,,,,,,,,,,,,,,,,,,,,,,,,,,,,,,,,,,,,,,,,,,,,100.55499195799348,100.75125429099717,100.75518441600434,100.94978799999808,100.95600091599044,101.14734183299879,101.16877699999895,101.3580743749917,101.3580743749917,101.54644133300462,101.56362033299229,101.7591083330044,101.76348041600431,None,100.0852053330018,100.574835833002,102.77323020799668,None,102.77323020799668,None,right,0.30170475000340957,102.77323020799668,None,102.77323020799668,None,,,,,,,,,,,,,,,,,,,,,,,2,2023_Jun_18_1415,working_memory,2021.2.3,None,
playground_60.jpg,playground_60.jpg,playground_244.jpg,left,playground_60.jpg,highway_178.jpg,badlands_121.jpg,mountain_126.jpg,golf_course_179.jpg,bridge_118.jpg,0,playground_244.jpg,1,playground,,,,,0,23,23,23,,,,,,,,,,,,,,,,,,,,,,,,,,,,,,,,,,,,,,,,,,,,,,,,,,,,,103.59709104099602,103.79755612499139,103.79755612499139,103.98407995799789,104.00344104100077,104.20202845799213,104.20202845799213,104.39785249999841,104.40201716599404,104.60298558299837,104.60298558299837,104.79931162499997,104.80523958300182,None,103.12454941599572,103.61961441599124,105.8112492079963,None,105.8112492079963,None,right,0.35762070800410584,105.8112492079963,None,105.8112492079963,None,,,,,,,,,,,,,,,,,,,,,,,2,2023_Jun_18_1415,working_memory,2021.2.3,None,
golf_course_217.jpg,golf_course_35.jpg,golf_course_217.jpg,right,playground_37.jpg,mountain_199.jpg,bridge_193.jpg,golf_course_217.jpg,highway_17.jpg,badlands_174.jpg,3,golf_course_35.jpg,0,golf,,,,,0,24,24,24,,,,,,,,,,,,,,,,,,,,,,,,,,,,,,,,,,,,,,,,,,,,,,,,,,,,,106.69859854099923,106.89773620800406,106.89773620800406,107.08803195800283,107.08803195800283,107.28514329099562,107.28916033299174,107.4901090409985,107.4901090409985,107.68463362500188,107.68724133299838,107.879540540991,107.89876962499693,None,106.21717641600117,106.71456729099737,108.90609991599922,None,108.90609991599922,None,left,0.31566845798806753,108.90609991599922,None,108.90609991599922,None,,,,,,,,,,,,,,,,,,,,,,,2,2023_Jun_18_1415,working_memory,2021.2.3,None,
playground_240.jpg,playground_40.jpg,playground_240.jpg,right,mountain_226.jpg,highway_265.jpg,playground_240.jpg,golf_course_313.jpg,badlands_104.jpg,bridge_79.jpg,2,playground_40.jpg,1,playground,,,,,0,25,25,25,,,,,,,,,,,,,,,,,,,,,,,,,,,,,,,,,,,,,,,,,,,,,,,,,,,,,109.73672637499112,109.9275958329963,109.9275958329963,110.12702862499282,110.12702862499282,110.32610283300164,110.32610283300164,110.52230691599834,110.52663629100425,110.72207045799587,110.72514216600393,110.92420449999918,110.9262873330008,None,109.25941408300423,109.75099529100407,111.93155020799895,None,111.93155020799895,None,left,0.20315770800516475,111.93155020799895,None,111.93155020799895,None,,,,,,,,,,,,,,,,,,,,,,,2,2023_Jun_18_1415,working_memory,2021.2.3,None,
bridge_202.jpg,bridge_202.jpg,bridge_38.jpg,left,highway_138.jpg,bridge_202.jpg,mountain_29.jpg,badlands_16.jpg,golf_course_105.jpg,playground_246.jpg,1,bridge_38.jpg,1,bridge,,,,,0,26,26,26,,,,,,,,,,,,,,,,,,,,,,,,,,,,,,,,,,,,,,,,,,,,,,,,,,,,,112.64719208299357,112.83343849999073,112.85447024999303,113.04120008299651,113.04696291599248,113.24615179099783,113.25109137500112,113.44823066599201,113.44823066599201,113.64660845800245,113.64660845800245,113.84213562500372,113.84632179100299,None,112.17464433299028,112.6642123329948,114.84954624999955,None,114.84954624999955,None,left,0.42104079099954106,114.84954624999955,None,114.84954624999955,None,,,,,,,,,,,,,,,,,,,,,,,2,2023_Jun_18_1415,working_memory,2021.2.3,None,
golf_course_331.jpg,golf_course_331.jpg,golf_course_26.jpg,left,mountain_169.jpg,golf_course_331.jpg,playground_258.jpg,bridge_234.jpg,highway_148.jpg,badlands_122.jpg,1,golf_course_26.jpg,1,golf,,,,,0,27,27,27,,,,,,,,,,,,,,,,,,,,,,,,,,,,,,,,,,,,,,,,,,,,,,,,,,,,,115.79347129099187,115.99697070800175,115.99697070800175,116.19815945799928,116.1930374999938,116.37924795800063,116.38441199999943,116.57726175000425,116.59119337500306,116.79072179099603,116.79072179099603,116.99085741599265,116.99085741599265,None,115.31186008299119,115.80266658299661,117.99142062499595,None,117.99142062499595,None,left,0.6230816250026692,117.99142062499595,None,117.99142062499595,None,,,,,,,,,,,,,,,,,,,,,,,2,2023_Jun_18_1415,working_memory,2021.2.3,None,
badlands_70.jpg,badlands_70.jpg,badlands_119.jpg,left,bridge_112.jpg,mountain_307.jpg,golf_course_238.jpg,badlands_70.jpg,highway_383.jpg,playground_233.jpg,3,badlands_119.jpg,1,badlands,,,,,0,28,28,28,,,,,,,,,,,,,,,,,,,,,,,,,,,,,,,,,,,,,,,,,,,,,,,,,,,,,119.15124995799852,119.34142162499484,119.34142162499484,119.53008466599567,119.55003562499769,119.74141987499024,119.74141987499024,119.93143191600393,119.94978399999673,120.14946987500298,120.14946987500298,120.34629866600153,120.34875345799082,None,118.66439645799983,119.15402295799868,121.34955187499872,None,121.34955187499872,None,left,0.38185287499800324,121.34955187499872,None,121.34955187499872,None,,,,,,,,,,,,,,,,,,,,,,,2,2023_Jun_18_1415,working_memory,2021.2.3,None,
highway_156.jpg,highway_156.jpg,highway_293.jpg,left,playground_6.jpg,highway_156.jpg,badlands_6.jpg,bridge_45.jpg,golf_course_120.jpg,mountain_102.jpg,1,highway_293.jpg,1,highway,,,,,0,29,29,29,,,,,,,,,,,,,,,,,,,,,,,,,,,,,,,,,,,,,,,,,,,,,,,,,,,,,122.25010395799472,122.4484185409965,122.45073983300244,122.64511854099692,122.65057470799366,122.8436424160027,122.85988720800378,123.055347290996,123.055347290996,123.24971787499089,123.24971787499089,123.44262933300342,123.45750733299064,None,121.77586420800071,122.26811820799776,124.45324074999371,None,124.45324074999371,None,left,0.648062000007485,124.45324074999371,None,124.45324074999371,None,,,,,,,,,,,,,,,,,,,,,,,2,2023_Jun_18_1415,working_memory,2021.2.3,None,
golf_course_309.jpg,golf_course_209.jpg,golf_course_309.jpg,right,highway_354.jpg,playground_15.jpg,mountain_187.jpg,badlands_216.jpg,golf_course_309.jpg,bridge_133.jpg,4,golf_course_209.jpg,1,golf,,,,,0,30,30,30,,,,,,,,,,,,,,,,,,,,,,,,,,,,,,,,,,,,,,,,,,,,,,,,,,,,,125.62041404099728,125.81300520799414,125.82936133300245,126.02342541600228,126.02342541600228,126.21491233300185,126.22909212499508,126.42447374999756,126.42447374999756,126.62636449999991,126.62636449999991,126.81549308299145,126.8220067910006,None,125.1463144159934,125.63880887499545,127.8253641659976,None,127.8253641659976,None,left,2.041314792004414,127.8253641659976,None,127.8253641659976,None,,,,,,,,,,,,,,,,,,,,,,,2,2023_Jun_18_1415,working_memory,2021.2.3,None,
bridge_250.jpg,bridge_250.jpg,bridge_134.jpg,left,golf_course_196.jpg,highway_30.jpg,bridge_250.jpg,mountain_40.jpg,playground_249.jpg,badlands_97.jpg,2,bridge_134.jpg,0,bridge,,,,,0,31,31,31,,,,,,,,,,,,,,,,,,,,,,,,,,,,,,,,,,,,,,,,,,,,,,,,,,,,,130.38663770799758,130.57899783299945,130.5846783750021,130.7860426660045,130.7860426660045,130.9830227909988,130.98855795800046,131.17443866599933,131.19212379099918,131.39007358299568,131.395551374997,131.59236125000461,131.59236125000461,None,129.91131958299957,130.40812770799675,132.6005621249933,None,132.6005621249933,None,left,0.3824063750071218,132.6005621249933,None,132.6005621249933,None,,,,,,,,,,,,,,,,,,,,,,,2,2023_Jun_18_1415,working_memory,2021.2.3,None,
golf_course_214.jpg,golf_course_312.jpg,golf_course_214.jpg,right,highway_102.jpg,golf_course_214.jpg,playground_176.jpg,bridge_164.jpg,badlands_171.jpg,mountain_253.jpg,1,golf_course_312.jpg,0,golf,,,,,0,32,32,32,,,,,,,,,,,,,,,,,,,,,,,,,,,,,,,,,,,,,,,,,,,,,,,,,,,,,133.50695024999732,133.69760720799968,133.69760720799968,133.8901246250025,133.90308716599247,134.1010875409993,134.1010875409993,134.28763920799247,134.30688162500155,134.50332862499636,134.50332862499636,134.69143183299457,134.69771845800278,None,133.0261720409908,133.52503929099475,135.70511374999478,None,135.70511374999478,None,left,2.3788504590047523,135.70511374999478,None,135.70511374999478,None,,,,,,,,,,,,,,,,,,,,,,,2,2023_Jun_18_1415,working_memory,2021.2.3,None,
playground_219.jpg,playground_21.jpg,playground_219.jpg,right,golf_course_252.jpg,badlands_120.jpg,bridge_158.jpg,playground_219.jpg,highway_33.jpg,mountain_202.jpg,3,playground_21.jpg,0,playground,,,,,0,33,33,33,,,,,,,,,,,,,,,,,,,,,,,,,,,,,,,,,,,,,,,,,,,,,,,,,,,,,138.61512845799734,138.80528104100085,138.80978516599862,139.01128783299646,139.01128783299646,139.21240337500058,139.21240337500058,139.4007954999979,139.41970450000372,139.61918662500102,139.61918662500102,139.81504504100303,139.81504504100303,None,138.1362989999907,138.63534504099516,140.8143637500034,None,140.8143637500034,None,left,0.2563922089902917,140.8143637500034,None,140.8143637500034,None,,,,,,,,,,,,,,,,,,,,,,,2,2023_Jun_18_1415,working_memory,2021.2.3,None,
bridge_128.jpg,bridge_61.jpg,bridge_128.jpg,right,bridge_128.jpg,highway_154.jpg,badlands_35.jpg,golf_course_137.jpg,mountain_39.jpg,playground_162.jpg,0,bridge_61.jpg,0,bridge,,,,,0,34,34,34,,,,,,,,,,,,,,,,,,,,,,,,,,,,,,,,,,,,,,,,,,,,,,,,,,,,,141.60052145799273,141.79958337500284,141.79958337500284,141.9985485829966,141.9985485829966,142.20178954099538,142.20178954099538,142.38775420800084,142.38775420800084,142.57927333300177,142.6005064159981,142.79920437499823,142.79920437499823,None,141.11841133299458,141.61681641600444,143.80634949999512,None,143.80634949999512,None,left,0.3482940840040101,143.80634949999512,None,143.80634949999512,None,,,,,,,,,,,,,,,,,,,,,,,2,2023_Jun_18_1415,working_memory,2021.2.3,None,
highway_209.jpg,highway_209.jpg,highway_122.jpg,left,bridge_52.jpg,playground_78.jpg,golf_course_41.jpg,badlands_47.jpg,highway_209.jpg,mountain_33.jpg,4,highway_122.jpg,1,highway,,,,,0,35,35,35,,,,,,,,,,,,,,,,,,,,,,,,,,,,,,,,,,,,,,,,,,,,,,,,,,,,,144.67056879099982,144.86045949999243,144.87196995799604,145.07263741600036,145.07263741600036,145.27268929099955,145.2773723749997,145.48108183300064,145.48108183300064,145.6711599160044,145.6711599160044,145.85831312499067,145.87891674999264,None,144.1957011659979,144.69289762499102,146.87491075000435,None,146.87491075000435,None,left,0.0076474160014186054,146.87491075000435,None,146.87491075000435,None,,,,,,,,,,,,,,,,,,,,,,,2,2023_Jun_18_1415,working_memory,2021.2.3,None,
playground_144.jpg,playground_144.jpg,playground_65.jpg,left,badlands_215.jpg,mountain_88.jpg,golf_course_102.jpg,playground_144.jpg,bridge_238.jpg,highway_274.jpg,3,playground_65.jpg,1,playground,,,,,0,36,36,36,,,,,,,,,,,,,,,,,,,,,,,,,,,,,,,,,,,,,,,,,,,,,,,,,,,,,147.4077388750011,147.59892612499243,147.59892612499243,147.79224245800287,147.7971164999908,147.99479166600213,147.99707554100314,148.18384604099265,148.20296583299933,148.38765887499903,148.4058362079959,148.60487049999938,148.60487049999938,None,146.92534083299688,147.41298129099596,149.60709804100043,None,149.60709804100043,None,left,0.34741383300570305,149.60709804100043,None,149.60709804100043,None,,,,,,,,,,,,,,,,,,,,,,,2,2023_Jun_18_1415,working_memory,2021.2.3,None,
mountain_110.jpg,mountain_157.jpg,mountain_110.jpg,right,golf_course_42.jpg,playground_103.jpg,mountain_110.jpg,bridge_86.jpg,badlands_60.jpg,highway_342.jpg,2,mountain_157.jpg,0,mountain,,,,,0,37,37,37,,,,,,,,,,,,,,,,,,,,,,,,,,,,,,,,,,,,,,,,,,,,,,,,,,,,,150.48078245799115,150.6758745410043,150.6758745410043,150.8754485410027,150.8807554160012,151.076181832992,151.076181832992,151.26721729099518,151.28725458300323,151.48914591599896,151.48351079100394,151.67694108300202,151.67694108300202,None,150.00037349999184,150.49839341599727,152.67621012499148,None,152.67621012499148,None,left,0.3511775420047343,152.67621012499148,None,152.67621012499148,None,,,,,,,,,,,,,,,,,,,,,,,2,2023_Jun_18_1415,working_memory,2021.2.3,None,
highway_394.jpg,highway_204.jpg,highway_394.jpg,right,highway_394.jpg,golf_course_144.jpg,playground_68.jpg,badlands_26.jpg,bridge_218.jpg,mountain_32.jpg,0,highway_204.jpg,0,highway,,,,,0,38,38,38,,,,,,,,,,,,,,,,,,,,,,,,,,,,,,,,,,,,,,,,,,,,,,,,,,,,,153.55029529100284,153.75105887500104,153.75105887500104,153.93785604099685,153.9543705410033,154.15178066599765,154.15178066599765,154.34925983299036,154.34925983299036,154.53770083299605,154.55120283299766,154.74969804099237,154.74969804099237,None,153.07352562500455,153.5715801250044,155.76055904099485,None,155.76055904099485,None,left,0.3607457920006709,155.76055904099485,None,155.76055904099485,None,,,,,,,,,,,,,,,,,,,,,,,2,2023_Jun_18_1415,working_memory,2021.2.3,None,
golf_course_87.jpg,golf_course_87.jpg,golf_course_161.jpg,left,golf_course_87.jpg,mountain_190.jpg,bridge_124.jpg,highway_58.jpg,badlands_152.jpg,playground_237.jpg,0,golf_course_161.jpg,1,golf,,,,,0,39,39,39,,,,,,,,,,,,,,,,,,,,,,,,,,,,,,,,,,,,,,,,,,,,,,,,,,,,,156.64498916600132,156.84544904099312,156.84544904099312,157.04205187500338,157.0474852079933,157.23349116600002,157.24971433299652,157.4349499999953,157.4349499999953,157.6334655410028,157.64969295800256,157.84128858300392,157.84128858300392,None,156.16722483299964,156.66258641600143,158.8483670830028,None,158.8483670830028,None,left,0.2268657499953406,158.8483670830028,None,158.8483670830028,None,,,,,,,,,,,,,,,,,,,,,,,2,2023_Jun_18_1415,working_memory,2021.2.3,None,
mountain_156.jpg,mountain_128.jpg,mountain_156.jpg,right,playground_64.jpg,bridge_180.jpg,badlands_72.jpg,mountain_156.jpg,highway_319.jpg,golf_course_23.jpg,3,mountain_128.jpg,0,mountain,,,,,0,40,40,40,,,,,,,,,,,,,,,,,,,,,,,,,,,,,,,,,,,,,,,,,,,,,,,,,,,,,159.59126899999683,159.78344420799112,159.78344420799112,159.9732548329921,159.990241624997,160.1892240409943,160.1892240409943,160.379457499992,160.39377583299938,160.58288091600116,160.58288091600116,160.77375141599623,160.796121708001,None,159.11379766599566,159.6087301249936,161.80221129099664,None,161.80221129099664,None,left,0.3679284999961965,161.80221129099664,None,161.80221129099664,None,,,,,,,,,,,,,,,,,,,,,,,2,2023_Jun_18_1415,working_memory,2021.2.3,None,
badlands_137.jpg,badlands_194.jpg,badlands_137.jpg,right,highway_107.jpg,bridge_212.jpg,mountain_206.jpg,badlands_137.jpg,playground_63.jpg,golf_course_265.jpg,3,badlands_194.jpg,0,badlands,,,,,0,41,41,41,,,,,,,,,,,,,,,,,,,,,,,,,,,,,,,,,,,,,,,,,,,,,,,,,,,,,162.69788241600327,162.8869891249924,162.8869891249924,163.0870749159949,163.0870749159949,163.2836894159991,163.2836894159991,163.48079883299943,163.48333329099114,163.6813058330008,163.68648162500176,163.87457345800067,163.89122533299087,None,162.2113867500011,162.70292512499145,164.89040124999883,None,164.89040124999883,None,left,0.41063600000052247,164.89040124999883,None,164.89040124999883,None,,,,,,,,,,,,,,,,,,,,,,,2,2023_Jun_18_1415,working_memory,2021.2.3,None,
golf_course_188.jpg,golf_course_157.jpg,golf_course_188.jpg,right,highway_199.jpg,playground_227.jpg,badlands_54.jpg,bridge_228.jpg,golf_course_188.jpg,mountain_62.jpg,4,golf_course_157.jpg,0,golf,,,,,0,42,42,42,,,,,,,,,,,,,,,,,,,,,,,,,,,,,,,,,,,,,,,,,,,,,,,,,,,,,165.81443916600256,166.0151600829995,166.0151600829995,166.20717762499407,166.22644187499827,166.4257862910017,166.4257862910017,166.62463745799323,166.62463745799323,166.8233218749956,166.8233218749956,167.02408699999796,167.02408699999796,None,165.3437620409968,165.83813929099415,168.03125845799514,None,168.03125845799514,None,left,0.49868058299762197,168.03125845799514,None,168.03125845799514,None,,,,,,,,,,,,,,,,,,,,,,,2,2023_Jun_18_1415,working_memory,2021.2.3,None,
badlands_184.jpg,badlands_184.jpg,badlands_103.jpg,left,playground_235.jpg,golf_course_342.jpg,bridge_197.jpg,mountain_294.jpg,badlands_184.jpg,highway_308.jpg,4,badlands_103.jpg,1,badlands,,,,,0,43,43,43,,,,,,,,,,,,,,,,,,,,,,,,,,,,,,,,,,,,,,,,,,,,,,,,,,,,,169.05431904099532,169.25615858299716,169.25615858299716,169.4444010409934,169.4582959160034,169.6464077080018,169.64969379099784,169.85034566599643,169.85606566599745,170.05237958299404,170.05237958299404,170.24511379099567,170.2514964580041,None,168.57747641600145,169.07771850000427,171.25272262499493,None,171.25272262499493,None,left,0.48614487500162795,171.25272262499493,None,171.25272262499493,None,,,,,,,,,,,,,,,,,,,,,,,2,2023_Jun_18_1415,working_memory,2021.2.3,None,
mountain_232.jpg,mountain_232.jpg,mountain_3.jpg,left,golf_course_128.jpg,playground_124.jpg,badlands_170.jpg,mountain_232.jpg,bridge_147.jpg,highway_305.jpg,3,mountain_3.jpg,0,mountain,,,,,0,44,44,44,,,,,,,,,,,,,,,,,,,,,,,,,,,,,,,,,,,,,,,,,,,,,,,,,,,,,172.26222295800108,172.46210533299018,172.46210533299018,172.6496745829936,172.65441129099054,172.85017108300235,172.85555412499525,173.04886387499573,173.05474791600136,173.25349687499693,173.25884891599708,173.45633950000047,173.45633950000047,None,171.7811664579931,172.2709823329933,174.4660244580009,None,174.4660244580009,None,left,0.49877033299708273,174.4660244580009,None,174.4660244580009,None,,,,,,,,,,,,,,,,,,,,,,,2,2023_Jun_18_1415,working_memory,2021.2.3,None,
highway_93.jpg,highway_85.jpg,highway_93.jpg,right,golf_course_307.jpg,highway_93.jpg,badlands_164.jpg,playground_184.jpg,mountain_76.jpg,bridge_190.jpg,1,highway_85.jpg,0,highway,,,,,0,45,45,45,,,,,,,,,,,,,,,,,,,,,,,,,,,,,,,,,,,,,,,,,,,,,,,,,,,,,175.4906489999994,175.69083799999498,175.69083799999498,175.8868924159906,175.8868924159906,176.07542458300304,176.0904674159974,176.27783604100114,176.29083916600212,176.47784987499472,176.49235587500152,176.68983766599558,176.68983766599558,None,175.00971316600044,175.50100966599712,177.70371099999466,None,177.70371099999466,None,left,0.5039603749901289,177.70371099999466,None,177.70371099999466,None,,,,,,,,,,,,,,,,,,,,,,,2,2023_Jun_18_1415,working_memory,2021.2.3,None,
highway_294.jpg,highway_203.jpg,highway_294.jpg,right,highway_294.jpg,mountain_176.jpg,playground_196.jpg,badlands_106.jpg,bridge_120.jpg,golf_course_269.jpg,0,highway_203.jpg,0,highway,,,,,0,46,46,46,,,,,,,,,,,,,,,,,,,,,,,,,,,,,,,,,,,,,,,,,,,,,,,,,,,,,178.74000566599716,178.93724237500282,178.93724237500282,179.1332434999931,179.1332434999931,179.32062537499587,179.33769779099384,179.5351126250025,179.5351126250025,179.731963290993,179.73646737499803,179.92810162500245,179.93458758300403,None,178.25764954100305,178.74476795799274,180.93529695799225,None,180.93529695799225,None,left,0.2973009999986971,180.93529695799225,None,180.93529695799225,None,,,,,,,,,,,,,,,,,,,,,,,2,2023_Jun_18_1415,working_memory,2021.2.3,None,
golf_course_195.jpg,golf_course_2.jpg,golf_course_195.jpg,right,golf_course_195.jpg,playground_54.jpg,badlands_211.jpg,mountain_92.jpg,highway_28.jpg,bridge_63.jpg,0,golf_course_2.jpg,1,golf,,,,,0,47,47,47,,,,,,,,,,,,,,,,,,,,,,,,,,,,,,,,,,,,,,,,,,,,,,,,,,,,,181.75005033299385,181.9375397499971,181.95376212499104,182.1482912079955,182.1482912079955,182.33987524999247,182.35927454099874,182.54691133300366,182.54691133300366,182.74475183300092,182.74718295800267,182.93822300000465,182.95908991599572,None,181.27672366600018,181.77148666599533,183.96890791600163,None,183.96890791600163,None,left,0.2675826669874368,183.96890791600163,None,183.96890791600163,None,,,,,,,,,,,,,,,,,,,,,,,2,2023_Jun_18_1415,working_memory,2021.2.3,None,
mountain_57.jpg,mountain_57.jpg,mountain_138.jpg,left,playground_241.jpg,golf_course_71.jpg,badlands_125.jpg,mountain_57.jpg,highway_37.jpg,bridge_68.jpg,3,mountain_138.jpg,1,mountain,,,,,0,48,48,48,,,,,,,,,,,,,,,,,,,,,,,,,,,,,,,,,,,,,,,,,,,,,,,,,,,,,184.76822166600323,184.96369108300132,184.96906829100044,185.16907395799353,185.16907395799353,185.36134687499725,185.36134687499725,185.56138883299718,185.56138883299718,185.75724166599684,185.76280083299207,185.95885679099592,185.9651130830025,None,184.285303208002,184.7798590829916,186.96785524999723,None,186.96785524999723,None,left,0.43051241600187495,186.96785524999723,None,186.96785524999723,None,,,,,,,,,,,,,,,,,,,,,,,2,2023_Jun_18_1415,working_memory,2021.2.3,None,
bridge_108.jpg,bridge_108.jpg,bridge_116.jpg,left,golf_course_297.jpg,highway_90.jpg,badlands_81.jpg,mountain_135.jpg,bridge_108.jpg,playground_118.jpg,4,bridge_116.jpg,0,bridge,,,,,0,49,49,49,,,,,,,,,,,,,,,,,,,,,,,,,,,,,,,,,,,,,,,,,,,,,,,,,,,,,187.91581987499376,188.10924304099171,188.10924304099171,188.29639091600257,188.31493145799323,188.50510212499648,188.51831025000138,188.7175869999919,188.7175869999919,188.90374587499537,188.92291524999018,189.11442749999696,189.11442749999696,None,187.43967270800204,187.93722362499102,190.11406212499423,None,190.11406212499423,None,left,0.3612503329932224,190.11406212499423,None,190.11406212499423,None,,,,,,,,,,,,,,,,,,,,,,,2,2023_Jun_18_1415,working_memory,2021.2.3,None,
golf_course_193.jpg,golf_course_193.jpg,golf_course_235.jpg,left,mountain_306.jpg,badlands_138.jpg,golf_course_193.jpg,bridge_204.jpg,playground_132.jpg,highway_3.jpg,2,golf_course_235.jpg,0,golf,,,,,0,50,50,50,,,,,,,,,,,,,,,,,,,,,,,,,,,,,,,,,,,,,,,,,,,,,,,,,,,,,190.9960368329921,191.19584820799355,191.20135445799679,191.38722899999993,191.40634141600458,191.5998177500005,191.5998177500005,191.7884119579976,191.80869704099314,191.99588454100012,191.99588454100012,192.19332737500372,192.19899429100042,None,190.52097208300256,191.01291279100406,193.20104533300037,None,193.20104533300037,None,left,0.7191706250014249,193.20104533300037,None,193.20104533300037,None,,,,,,,,,,,,,,,,,,,,,,,2,2023_Jun_18_1415,working_memory,2021.2.3,None,
bridge_65.jpg,bridge_65.jpg,bridge_60.jpg,left,highway_31.jpg,golf_course_226.jpg,badlands_201.jpg,mountain_120.jpg,bridge_65.jpg,playground_141.jpg,4,bridge_60.jpg,1,bridge,,,,,0,51,51,51,,,,,,,,,,,,,,,,,,,,,,,,,,,,,,,,,,,,,,,,,,,,,,,,,,,,,194.4373707499908,194.62452133299666,194.64385016600136,194.83931137499167,194.83931137499167,195.02569229099026,195.0460083749931,195.24404762499034,195.24404762499034,195.44688608299475,195.44688608299475,195.64144358299382,195.64144358299382,None,193.96196062499075,194.45809662499232,196.64152391599782,None,196.64152391599782,None,left,1.2515906670014374,196.64152391599782,None,196.64152391599782,None,,,,,,,,,,,,,,,,,,,,,,,2,2023_Jun_18_1415,working_memory,2021.2.3,None,
playground_76.jpg,playground_22.jpg,playground_76.jpg,right,highway_50.jpg,playground_76.jpg,bridge_126.jpg,mountain_277.jpg,badlands_213.jpg,golf_course_288.jpg,1,playground_22.jpg,0,playground,,,,,0,52,52,52,,,,,,,,,,,,,,,,,,,,,,,,,,,,,,,,,,,,,,,,,,,,,,,,,,,,,198.41682616599428,198.61705499999516,198.62213458299811,198.82273899999564,198.82273899999564,199.00861087499652,199.03017195800203,199.21800429100404,199.21800429100404,199.41726433299482,199.4195860829932,199.61051987500105,199.62844758300344,None,197.94228724999994,198.43778391600063,200.62767233299382,None,200.62767233299382,None,left,0.5163720830023522,200.62767233299382,None,200.62767233299382,None,,,,,,,,,,,,,,,,,,,,,,,2,2023_Jun_18_1415,working_memory,2021.2.3,None,
golf_course_15.jpg,golf_course_113.jpg,golf_course_15.jpg,right,highway_18.jpg,badlands_173.jpg,bridge_24.jpg,playground_251.jpg,golf_course_15.jpg,mountain_137.jpg,4,golf_course_113.jpg,0,golf,,,,,0,53,53,53,,,,,,,,,,,,,,,,,,,,,,,,,,,,,,,,,,,,,,,,,,,,,,,,,,,,,201.68758920799883,201.88825079100206,201.88296354099293,202.08217529099784,202.08217529099784,202.2796853329928,202.2796853329928,202.47862137499033,202.47862137499033,202.66700754099293,202.68839100000332,202.87515500000154,202.87515500000154,None,201.19919179099088,201.6994514580001,203.8836324159929,None,203.8836324159929,None,left,1.3900239999929909,203.8836324159929,None,203.8836324159929,None,,,,,,,,,,,,,,,,,,,,,,,2,2023_Jun_18_1415,working_memory,2021.2.3,None,
badlands_24.jpg,badlands_53.jpg,badlands_24.jpg,right,playground_50.jpg,golf_course_72.jpg,badlands_24.jpg,highway_29.jpg,mountain_51.jpg,bridge_66.jpg,2,badlands_53.jpg,1,badlands,,,,,0,54,54,54,,,,,,,,,,,,,,,,,,,,,,,,,,,,,,,,,,,,,,,,,,,,,,,,,,,,,205.79698400000052,205.99067545800062,206.00466799999413,206.20331295799406,206.20331295799406,206.38779541599797,206.40422916600073,206.60439024999505,206.60439024999505,206.79583579099562,206.79583579099562,206.9915026249946,206.9915026249946,None,205.3207544159959,205.81359745799273,207.99423962499714,None,207.99423962499714,None,left,0.957777083007386,207.99423962499714,None,207.99423962499714,None,,,,,,,,,,,,,,,,,,,,,,,2,2023_Jun_18_1415,working_memory,2021.2.3,None,
mountain_123.jpg,mountain_123.jpg,mountain_94.jpg,left,badlands_105.jpg,bridge_110.jpg,playground_85.jpg,highway_172.jpg,mountain_123.jpg,golf_course_162.jpg,4,mountain_94.jpg,0,mountain,,,,,0,55,55,55,,,,,,,,,,,,,,,,,,,,,,,,,,,,,,,,,,,,,,,,,,,,,,,,,,,,,209.48416045799968,209.67892920799204,209.67892920799204,209.87773679099337,209.87773679099337,210.08010141599516,210.08010141599516,210.27986120799324,210.27986120799324,210.48052650000318,210.48052650000318,210.6690857079957,210.68976549999206,None,209.00303516599524,209.50039933300286,211.68136074999347,None,211.68136074999347,None,left,1.6941979999974137,211.68136074999347,None,211.68136074999347,None,,,,,,,,,,,,,,,,,,,,,,,2,2023_Jun_18_1415,working_memory,2021.2.3,None,
bridge_191.jpg,bridge_191.jpg,bridge_184.jpg,left,playground_49.jpg,bridge_191.jpg,golf_course_3.jpg,mountain_233.jpg,highway_191.jpg,badlands_200.jpg,1,bridge_184.jpg,0,bridge,,,,,0,56,56,56,,,,,,,,,,,,,,,,,,,,,,,,,,,,,,,,,,,,,,,,,,,,,,,,,,,,,213.8926306659996,214.0889060000045,214.0889060000045,214.28742649999913,214.29145491599047,214.48175737500424,214.49564399999508,214.69456395799352,214.69456395799352,214.8919867079967,214.8919867079967,215.08763337499113,215.09001212500152,None,213.41501970800164,213.91338724999514,216.10157979099313,None,216.10157979099313,None,left,2.164456957994844,216.10157979099313,None,216.10157979099313,None,,,,,,,,,,,,,,,,,,,,,,,2,2023_Jun_18_1415,working_memory,2021.2.3,None,
golf_course_78.jpg,golf_course_134.jpg,golf_course_78.jpg,right,playground_16.jpg,golf_course_78.jpg,bridge_254.jpg,highway_193.jpg,mountain_290.jpg,badlands_214.jpg,1,golf_course_134.jpg,0,golf,,,,,0,57,57,57,,,,,,,,,,,,,,,,,,,,,,,,,,,,,,,,,,,,,,,,,,,,,,,,,,,,,218.79190783300146,218.99099504099286,218.99325833299372,219.19299879099708,219.19846191599208,219.38592437499028,219.38592437499028,219.58613199999672,219.58613199999672,219.78341812499275,219.78892683300364,219.97574241599068,219.9962752499996,None,218.31049779099703,218.81246666600055,220.99834766599815,None,220.99834766599815,None,left,0.9561918749968754,220.99834766599815,None,220.99834766599815,None,,,,,,,,,,,,,,,,,,,,,,,2,2023_Jun_18_1415,working_memory,2021.2.3,None,
playground_117.jpg,playground_127.jpg,playground_117.jpg,right,highway_36.jpg,badlands_30.jpg,playground_117.jpg,golf_course_219.jpg,bridge_106.jpg,mountain_302.jpg,2,playground_127.jpg,1,playground,,,,,0,58,58,58,,,,,,,,,,,,,,,,,,,,,,,,,,,,,,,,,,,,,,,,,,,,,,,,,,,,,222.48071179099497,222.67674524999165,222.68161841599795,222.88230170799943,222.88230170799943,223.07447574999242,223.07447574999242,223.27208541599975,223.27208541599975,223.47124016599264,223.47124016599264,223.6697208330006,223.67213233299844,None,221.99841174999892,222.49603441599174,224.68580875000043,None,224.68580875000043,None,left,0.6646290420030709,224.68580875000043,None,224.68580875000043,None,,,,,,,,,,,,,,,,,,,,,,,2,2023_Jun_18_1415,working_memory,2021.2.3,None,
highway_415.jpg,highway_415.jpg,highway_174.jpg,left,playground_173.jpg,bridge_20.jpg,golf_course_59.jpg,highway_415.jpg,mountain_87.jpg,badlands_150.jpg,3,highway_174.jpg,1,highway,,,,,0,59,59,59,,,,,,,,,,,,,,,,,,,,,,,,,,,,,,,,,,,,,,,,,,,,,,,,,,,,,225.88758741600031,226.08427312500135,226.08427312500135,226.28458316599426,226.28866799999378,226.49199720799515,226.49199720799515,226.68902333299047,226.68902333299047,226.88674775000254,226.89183074999892,227.0935453330021,227.0935453330021,None,225.40702749999764,225.90412695799023,228.0914477500046,None,228.0914477500046,None,left,1.8878588750085328,228.0914477500046,None,228.0914477500046,None,,,,,,,,,,,,,,,,,,,,,,,2,2023_Jun_18_1415,working_memory,2021.2.3,None,
,,,,,,,,,,,,,,,,,,,,,,,,,,,,,,,,,,,,,,,,,,,,,,,,,,,,,,,,,,,,,,,,,,,,,,,,,,,,,,,,,,,,,,,,,,,,,,,,,,,,229.9926469159982,None,space,37.69905812499928,229.9926469159982,None,,,,,,,,,,,,,,,,,2,2023_Jun_18_1415,working_memory,2021.2.3,None,
badlands_113.jpg,badlands_113.jpg,badlands_225.jpg,left,mountain_151.jpg,highway_76.jpg,badlands_113.jpg,golf_course_221.jpg,bridge_136.jpg,playground_153.jpg,2,badlands_225.jpg,0,badlands,,,,,,,,,0,0,0,0,,,,,,,,,,,,,,,,,,,,,,,,,,,,,,,,,,,,,,,,,,,,,,,,,,,,,,,,,,,,,,,,,,,,,,,,,,,,,,,,,267.74831666599493,None,267.74831666599493,None,4.975560081466395,1.5326919159997487,267.74831666599493,None,267.74831666599493,None,,,,,,,2,2023_Jun_18_1415,working_memory,2021.2.3,None,
badlands_222.jpg,badlands_222.jpg,badlands_34.jpg,left,highway_247.jpg,badlands_222.jpg,mountain_43.jpg,golf_course_333.jpg,bridge_142.jpg,playground_126.jpg,1,badlands_34.jpg,0,badlands,,,,,,,,,0,1,1,1,,,,,,,,,,,,,,,,,,,,,,,,,,,,,,,,,,,,,,,,,,,,,,,,,,,,,,,,,,,,,,,,,,,,,,,,,,,,,,,,,269.29518975000246,None,269.29518975000246,None,4.975560081466395,0.14300949999596924,269.29518975000246,None,269.29518975000246,None,,,,,,,2,2023_Jun_18_1415,working_memory,2021.2.3,None,
highway_359.jpg,highway_359.jpg,highway_379.jpg,left,mountain_268.jpg,badlands_180.jpg,bridge_96.jpg,highway_359.jpg,playground_191.jpg,golf_course_67.jpg,3,highway_379.jpg,1,highway,,,,,,,,,0,2,2,2,,,,,,,,,,,,,,,,,,,,,,,,,,,,,,,,,,,,,,,,,,,,,,,,,,,,,,,,,,,,,,,,,,,,,,,,,,,,,,,,,269.4606726249913,None,269.4606726249913,None,4.975560081466395,0.1260713340016082,269.4606726249913,None,269.4606726249913,None,,,,,,,2,2023_Jun_18_1415,working_memory,2021.2.3,None,
mountain_222.jpg,mountain_244.jpg,mountain_222.jpg,right,mountain_222.jpg,playground_181.jpg,bridge_266.jpg,golf_course_176.jpg,badlands_156.jpg,highway_268.jpg,0,mountain_244.jpg,0,mountain,,,,,,,,,0,3,3,3,,,,,,,,,,,,,,,,,,,,,,,,,,,,,,,,,,,,,,,,,,,,,,,,,,,,,,,,,,,,,,,,,,,,,,,,,,,,,,,,,269.608257749991,None,269.608257749991,None,4.975560081466395,0.12426812498597428,269.608257749991,None,269.608257749991,None,,,,,,,2,2023_Jun_18_1415,working_memory,2021.2.3,None,
bridge_172.jpg,bridge_172.jpg,bridge_17.jpg,left,golf_course_171.jpg,highway_404.jpg,bridge_172.jpg,playground_83.jpg,mountain_309.jpg,badlands_157.jpg,2,bridge_17.jpg,0,bridge,,,,,,,,,0,4,4,4,,,,,,,,,,,,,,,,,,,,,,,,,,,,,,,,,,,,,,,,,,,,,,,,,,,,,,,,,,,,,,,,,,,,,,,,,,,,,,,,,269.75500987499254,None,269.75500987499254,None,4.975560081466395,0.10387641699344385,269.75500987499254,None,269.75500987499254,None,,,,,,,2,2023_Jun_18_1415,working_memory,2021.2.3,None,
playground_145.jpg,playground_242.jpg,playground_145.jpg,right,playground_145.jpg,highway_9.jpg,bridge_39.jpg,mountain_212.jpg,badlands_79.jpg,golf_course_241.jpg,0,playground_242.jpg,1,playground,,,,,,,,,0,5,5,5,,,,,,,,,,,,,,,,,,,,,,,,,,,,,,,,,,,,,,,,,,,,,,,,,,,,,,,,,,,,,,,,,,,,,,,,,,,,,,,,,269.8816670829983,None,269.8816670829983,None,4.975560081466395,0.08774625000660308,269.8816670829983,None,269.8816670829983,None,,,,,,,2,2023_Jun_18_1415,working_memory,2021.2.3,None,
highway_245.jpg,highway_245.jpg,highway_134.jpg,left,bridge_1.jpg,golf_course_338.jpg,playground_256.jpg,highway_245.jpg,badlands_46.jpg,mountain_166.jpg,3,highway_134.jpg,0,highway,,,,,,,,,0,6,6,6,,,,,,,,,,,,,,,,,,,,,,,,,,,,,,,,,,,,,,,,,,,,,,,,,,,,,,,,,,,,,,,,,,,,,,,,,,,,,,,,,269.99151204100053,None,269.99151204100053,None,4.975560081466395,0.10253400000510737,269.99151204100053,None,269.99151204100053,None,,,,,,,2,2023_Jun_18_1415,working_memory,2021.2.3,None,
mountain_293.jpg,mountain_293.jpg,mountain_47.jpg,left,badlands_183.jpg,golf_course_181.jpg,mountain_293.jpg,playground_222.jpg,bridge_173.jpg,highway_83.jpg,2,mountain_47.jpg,1,mountain,,,,,,,,,0,7,7,7,,,,,,,,,,,,,,,,,,,,,,,,,,,,,,,,,,,,,,,,,,,,,,,,,,,,,,,,,,,,,,,,,,,,,,,,,,,,,,,,,270.1161473749962,None,270.1161473749962,None,4.975560081466395,0.11482862499542534,270.1161473749962,None,270.1161473749962,None,,,,,,,2,2023_Jun_18_1415,working_memory,2021.2.3,None,
bridge_146.jpg,bridge_27.jpg,bridge_146.jpg,right,highway_269.jpg,bridge_146.jpg,golf_course_291.jpg,mountain_35.jpg,badlands_55.jpg,playground_195.jpg,1,bridge_27.jpg,0,bridge,,,,,,,,,0,8,8,8,,,,,,,,,,,,,,,,,,,,,,,,,,,,,,,,,,,,,,,,,,,,,,,,,,,,,,,,,,,,,,,,,,,,,,,,,,,,,,,,,270.2530125829944,None,270.2530125829944,None,4.975560081466395,0.1498442080046516,270.2530125829944,None,270.2530125829944,None,,,,,,,2,2023_Jun_18_1415,working_memory,2021.2.3,None,
playground_257.jpg,playground_257.jpg,playground_215.jpg,left,mountain_198.jpg,highway_15.jpg,badlands_80.jpg,golf_course_282.jpg,playground_257.jpg,bridge_62.jpg,4,playground_215.jpg,1,playground,,,,,,,,,0,9,9,9,,,,,,,,,,,,,,,,,,,,,,,,,,,,,,,,,,,,,,,,,,,,,,,,,,,,,,,,,,,,,,,,,,,,,,,,,,,,,,,,,270.4251089159952,None,270.4251089159952,None,4.975560081466395,0.17400191599153914,270.4251089159952,None,270.4251089159952,None,,,,,,,2,2023_Jun_18_1415,working_memory,2021.2.3,None,
mountain_230.jpg,mountain_230.jpg,mountain_97.jpg,left,golf_course_253.jpg,mountain_230.jpg,highway_81.jpg,playground_47.jpg,badlands_9.jpg,bridge_4.jpg,1,mountain_97.jpg,1,mountain,,,,,,,,,0,10,10,10,,,,,,,,,,,,,,,,,,,,,,,,,,,,,,,,,,,,,,,,,,,,,,,,,,,,,,,,,,,,,,,,,,,,,,,,,,,,,,,,,270.62136879099126,None,270.62136879099126,None,4.975560081466395,0.14243558299494907,270.62136879099126,None,270.62136879099126,None,,,,,,,2,2023_Jun_18_1415,working_memory,2021.2.3,None,
playground_10.jpg,playground_10.jpg,playground_122.jpg,left,highway_226.jpg,golf_course_33.jpg,mountain_38.jpg,playground_10.jpg,bridge_102.jpg,badlands_10.jpg,3,playground_122.jpg,0,playground,,,,,,,,,0,11,11,11,,,,,,,,,,,,,,,,,,,,,,,,,,,,,,,,,,,,,,,,,,,,,,,,,,,,,,,,,,,,,,,,,,,,,,,,,,,,,,,,,270.7859117499902,None,270.7859117499902,None,4.975560081466395,0.13421354100864846,270.7859117499902,None,270.7859117499902,None,,,,,,,2,2023_Jun_18_1415,working_memory,2021.2.3,None,
highway_177.jpg,highway_177.jpg,highway_278.jpg,left,golf_course_202.jpg,playground_14.jpg,highway_177.jpg,bridge_152.jpg,badlands_227.jpg,mountain_192.jpg,2,highway_278.jpg,1,highway,,,,,,,,,0,12,12,12,,,,,,,,,,,,,,,,,,,,,,,,,,,,,,,,,,,,,,,,,,,,,,,,,,,,,,,,,,,,,,,,,,,,,,,,,,,,,,,,,270.94287162499677,None,270.94287162499677,None,4.975560081466395,0.1388493330014171,270.94287162499677,None,270.94287162499677,None,,,,,,,2,2023_Jun_18_1415,working_memory,2021.2.3,None,
badlands_21.jpg,badlands_1.jpg,badlands_21.jpg,right,bridge_72.jpg,badlands_21.jpg,playground_74.jpg,golf_course_56.jpg,mountain_228.jpg,highway_251.jpg,1,badlands_1.jpg,0,badlands,,,,,,,,,0,13,13,13,,,,,,,,,,,,,,,,,,,,,,,,,,,,,,,,,,,,,,,,,,,,,,,,,,,,,,,,,,,,,,,,,,,,,,,,,,,,,,,,,271.1057209159917,None,271.1057209159917,None,4.975560081466395,0.1376602910022484,271.1057209159917,None,271.1057209159917,None,,,,,,,2,2023_Jun_18_1415,working_memory,2021.2.3,None,
playground_131.jpg,playground_164.jpg,playground_131.jpg,right,highway_101.jpg,golf_course_166.jpg,bridge_117.jpg,mountain_180.jpg,playground_131.jpg,badlands_27.jpg,4,playground_164.jpg,1,playground,,,,,,,,,0,14,14,14,,,,,,,,,,,,,,,,,,,,,,,,,,,,,,,,,,,,,,,,,,,,,,,,,,,,,,,,,,,,,,,,,,,,,,,,,,,,,,,,,271.26657691599394,None,271.26657691599394,None,4.975560081466395,0.13561300000583287,271.26657691599394,None,271.26657691599394,None,,,,,,,2,2023_Jun_18_1415,working_memory,2021.2.3,None,
bridge_256.jpg,bridge_256.jpg,bridge_211.jpg,left,highway_53.jpg,mountain_250.jpg,bridge_256.jpg,playground_165.jpg,golf_course_300.jpg,badlands_128.jpg,2,bridge_211.jpg,1,bridge,,,,,,,,,0,15,15,15,,,,,,,,,,,,,,,,,,,,,,,,,,,,,,,,,,,,,,,,,,,,,,,,,,,,,,,,,,,,,,,,,,,,,,,,,,,,,,,,,271.42278016600176,None,271.42278016600176,None,4.975560081466395,0.1369599159952486,271.42278016600176,None,271.42278016600176,None,,,,,,,2,2023_Jun_18_1415,working_memory,2021.2.3,None,
badlands_52.jpg,badlands_94.jpg,badlands_52.jpg,right,highway_399.jpg,golf_course_174.jpg,mountain_91.jpg,badlands_52.jpg,bridge_140.jpg,playground_154.jpg,3,badlands_94.jpg,0,badlands,,,,,,,,,0,16,16,16,,,,,,,,,,,,,,,,,,,,,,,,,,,,,,,,,,,,,,,,,,,,,,,,,,,,,,,,,,,,,,,,,,,,,,,,,,,,,,,,,271.5818072910042,None,271.5818072910042,None,4.975560081466395,0.12230474999523722,271.5818072910042,None,271.5818072910042,None,,,,,,,2,2023_Jun_18_1415,working_memory,2021.2.3,None,
badlands_23.jpg,badlands_114.jpg,badlands_23.jpg,right,highway_257.jpg,badlands_23.jpg,golf_course_194.jpg,mountain_251.jpg,playground_140.jpg,bridge_144.jpg,1,badlands_114.jpg,0,badlands,,,,,,,,,0,17,17,17,,,,,,,,,,,,,,,,,,,,,,,,,,,,,,,,,,,,,,,,,,,,,,,,,,,,,,,,,,,,,,,,,,,,,,,,,,,,,,,,,271.7261771249905,None,271.7261771249905,None,4.975560081466395,0.130537416000152,271.7261771249905,None,271.7261771249905,None,,,,,,,2,2023_Jun_18_1415,working_memory,2021.2.3,None,
mountain_101.jpg,mountain_221.jpg,mountain_101.jpg,right,bridge_155.jpg,playground_33.jpg,highway_287.jpg,mountain_101.jpg,badlands_44.jpg,golf_course_127.jpg,3,mountain_221.jpg,1,mountain,,,,,,,,,0,18,18,18,,,,,,,,,,,,,,,,,,,,,,,,,,,,,,,,,,,,,,,,,,,,,,,,,,,,,,,,,,,,,,,,,,,,,,,,,,,,,,,,,271.8783192909905,None,271.8783192909905,None,4.975560081466395,0.11235295800724998,271.8783192909905,None,271.8783192909905,None,,,,,,,2,2023_Jun_18_1415,working_memory,2021.2.3,None,
badlands_221.jpg,badlands_207.jpg,badlands_221.jpg,right,golf_course_328.jpg,playground_36.jpg,highway_78.jpg,badlands_221.jpg,mountain_152.jpg,bridge_87.jpg,3,badlands_207.jpg,1,badlands,,,,,,,,,0,19,19,19,,,,,,,,,,,,,,,,,,,,,,,,,,,,,,,,,,,,,,,,,,,,,,,,,,,,,,,,,,,,,,,,,,,,,,,,,,,,,,,,,272.01215504099673,None,272.01215504099673,None,4.975560081466395,0.12995162500010338,272.01215504099673,None,272.01215504099673,None,,,,,,,2,2023_Jun_18_1415,working_memory,2021.2.3,None,
mountain_154.jpg,mountain_154.jpg,mountain_95.jpg,left,golf_course_305.jpg,playground_204.jpg,bridge_74.jpg,mountain_154.jpg,badlands_166.jpg,highway_288.jpg,3,mountain_95.jpg,1,mountain,,,,,,,,,0,20,20,20,,,,,,,,,,,,,,,,,,,,,,,,,,,,,,,,,,,,,,,,,,,,,,,,,,,,,,,,,,,,,,,,,,,,,,,,,,,,,,,,,272.1645092910039,None,272.1645092910039,None,4.975560081466395,3.132963041003677,272.1645092910039,None,272.1645092910039,None,,,,,,,2,2023_Jun_18_1415,working_memory,2021.2.3,None,
bridge_91.jpg,bridge_253.jpg,bridge_91.jpg,right,golf_course_55.jpg,playground_98.jpg,bridge_91.jpg,highway_295.jpg,mountain_41.jpg,badlands_33.jpg,2,bridge_253.jpg,0,bridge,,,,,,,,,0,21,21,21,,,,,,,,,,,,,,,,,,,,,,,,,,,,,,,,,,,,,,,,,,,,,,,,,,,,,,,,,,,,,,,,,,,,,,,,,,,,,,,,,275.3219135410036,None,275.3219135410036,None,4.975560081466395,0.19204820798768196,275.3219135410036,None,275.3219135410036,None,,,,,,,2,2023_Jun_18_1415,working_memory,2021.2.3,None,
highway_273.jpg,highway_273.jpg,highway_384.jpg,left,bridge_22.jpg,mountain_146.jpg,badlands_217.jpg,highway_273.jpg,golf_course_116.jpg,playground_55.jpg,3,highway_384.jpg,0,highway,,,,,,,,,0,22,22,22,,,,,,,,,,,,,,,,,,,,,,,,,,,,,,,,,,,,,,,,,,,,,,,,,,,,,,,,,,,,,,,,,,,,,,,,,,,,,,,,,275.53544816600333,None,275.53544816600333,None,4.975560081466395,0.18669862499518786,275.53544816600333,None,275.53544816600333,None,,,,,,,2,2023_Jun_18_1415,working_memory,2021.2.3,None,
playground_60.jpg,playground_60.jpg,playground_244.jpg,left,playground_60.jpg,highway_178.jpg,badlands_121.jpg,mountain_126.jpg,golf_course_179.jpg,bridge_118.jpg,0,playground_244.jpg,1,playground,,,,,,,,,0,23,23,23,,,,,,,,,,,,,,,,,,,,,,,,,,,,,,,,,,,,,,,,,,,,,,,,,,,,,,,,,,,,,,,,,,,,,,,,,,,,,,,,,275.7454300410027,None,275.7454300410027,None,4.975560081466395,0.2942143750115065,275.7454300410027,None,275.7454300410027,None,,,,,,,2,2023_Jun_18_1415,working_memory,2021.2.3,None,
golf_course_217.jpg,golf_course_35.jpg,golf_course_217.jpg,right,playground_37.jpg,mountain_199.jpg,bridge_193.jpg,golf_course_217.jpg,highway_17.jpg,badlands_174.jpg,3,golf_course_35.jpg,0,golf,,,,,,,,,0,24,24,24,,,,,,,,,,,,,,,,,,,,,,,,,,,,,,,,,,,,,,,,,,,,,,,,,,,,,,,,,,,,,,,,,,,,,,,,,,,,,,,,,276.06311824999284,None,276.06311824999284,None,4.975560081466395,0.1150188750034431,276.06311824999284,None,276.06311824999284,None,,,,,,,2,2023_Jun_18_1415,working_memory,2021.2.3,None,
playground_240.jpg,playground_40.jpg,playground_240.jpg,right,mountain_226.jpg,highway_265.jpg,playground_240.jpg,golf_course_313.jpg,badlands_104.jpg,bridge_79.jpg,2,playground_40.jpg,1,playground,,,,,,,,,0,25,25,25,,,,,,,,,,,,,,,,,,,,,,,,,,,,,,,,,,,,,,,,,,,,,,,,,,,,,,,,,,,,,,,,,,,,,,,,,,,,,,,,,276.20028783299495,None,276.20028783299495,None,4.975560081466395,0.10661420799442567,276.20028783299495,None,276.20028783299495,None,,,,,,,2,2023_Jun_18_1415,working_memory,2021.2.3,None,
bridge_202.jpg,bridge_202.jpg,bridge_38.jpg,left,highway_138.jpg,bridge_202.jpg,mountain_29.jpg,badlands_16.jpg,golf_course_105.jpg,playground_246.jpg,1,bridge_38.jpg,1,bridge,,,,,,,,,0,26,26,26,,,,,,,,,,,,,,,,,,,,,,,,,,,,,,,,,,,,,,,,,,,,,,,,,,,,,,,,,,,,,,,,,,,,,,,,,,,,,,,,,276.33011320799415,None,276.33011320799415,None,4.975560081466395,0.11343016699538566,276.33011320799415,None,276.33011320799415,None,,,,,,,2,2023_Jun_18_1415,working_memory,2021.2.3,None,
golf_course_331.jpg,golf_course_331.jpg,golf_course_26.jpg,left,mountain_169.jpg,golf_course_331.jpg,playground_258.jpg,bridge_234.jpg,highway_148.jpg,badlands_122.jpg,1,golf_course_26.jpg,1,golf,,,,,,,,,0,27,27,27,,,,,,,,,,,,,,,,,,,,,,,,,,,,,,,,,,,,,,,,,,,,,,,,,,,,,,,,,,,,,,,,,,,,,,,,,,,,,,,,,276.46644729099353,None,276.46644729099353,None,4.975560081466395,0.11043887499545235,276.46644729099353,None,276.46644729099353,None,,,,,,,2,2023_Jun_18_1415,working_memory,2021.2.3,None,
badlands_70.jpg,badlands_70.jpg,badlands_119.jpg,left,bridge_112.jpg,mountain_307.jpg,golf_course_238.jpg,badlands_70.jpg,highway_383.jpg,playground_233.jpg,3,badlands_119.jpg,1,badlands,,,,,,,,,0,28,28,28,,,,,,,,,,,,,,,,,,,,,,,,,,,,,,,,,,,,,,,,,,,,,,,,,,,,,,,,,,,,,,,,,,,,,,,,,,,,,,,,,276.59939725000004,None,276.59939725000004,None,4.975560081466395,0.10472512499836739,276.59939725000004,None,276.59939725000004,None,,,,,,,2,2023_Jun_18_1415,working_memory,2021.2.3,None,
highway_156.jpg,highway_156.jpg,highway_293.jpg,left,playground_6.jpg,highway_156.jpg,badlands_6.jpg,bridge_45.jpg,golf_course_120.jpg,mountain_102.jpg,1,highway_293.jpg,1,highway,,,,,,,,,0,29,29,29,,,,,,,,,,,,,,,,,,,,,,,,,,,,,,,,,,,,,,,,,,,,,,,,,,,,,,,,,,,,,,,,,,,,,,,,,,,,,,,,,276.72706325000036,None,276.72706325000036,None,4.975560081466395,0.10397208300128113,276.72706325000036,None,276.72706325000036,None,,,,,,,2,2023_Jun_18_1415,working_memory,2021.2.3,None,
golf_course_309.jpg,golf_course_209.jpg,golf_course_309.jpg,right,highway_354.jpg,playground_15.jpg,mountain_187.jpg,badlands_216.jpg,golf_course_309.jpg,bridge_133.jpg,4,golf_course_209.jpg,1,golf,,,,,,,,,0,30,30,30,,,,,,,,,,,,,,,,,,,,,,,,,,,,,,,,,,,,,,,,,,,,,,,,,,,,,,,,,,,,,,,,,,,,,,,,,,,,,,,,,276.85361266600376,None,276.85361266600376,None,4.975560081466395,0.10997779099852778,276.85361266600376,None,276.85361266600376,None,,,,,,,2,2023_Jun_18_1415,working_memory,2021.2.3,None,
bridge_250.jpg,bridge_250.jpg,bridge_134.jpg,left,golf_course_196.jpg,highway_30.jpg,bridge_250.jpg,mountain_40.jpg,playground_249.jpg,badlands_97.jpg,2,bridge_134.jpg,0,bridge,,,,,,,,,0,31,31,31,,,,,,,,,,,,,,,,,,,,,,,,,,,,,,,,,,,,,,,,,,,,,,,,,,,,,,,,,,,,,,,,,,,,,,,,,,,,,,,,,276.98586824999074,None,276.98586824999074,None,4.975560081466395,0.0985802089999197,276.98586824999074,None,276.98586824999074,None,,,,,,,2,2023_Jun_18_1415,working_memory,2021.2.3,None,
golf_course_214.jpg,golf_course_312.jpg,golf_course_214.jpg,right,highway_102.jpg,golf_course_214.jpg,playground_176.jpg,bridge_164.jpg,badlands_171.jpg,mountain_253.jpg,1,golf_course_312.jpg,0,golf,,,,,,,,,0,32,32,32,,,,,,,,,,,,,,,,,,,,,,,,,,,,,,,,,,,,,,,,,,,,,,,,,,,,,,,,,,,,,,,,,,,,,,,,,,,,,,,,,277.10654170799535,None,277.10654170799535,None,4.975560081466395,0.11194916599197313,277.10654170799535,None,277.10654170799535,None,,,,,,,2,2023_Jun_18_1415,working_memory,2021.2.3,None,
playground_219.jpg,playground_21.jpg,playground_219.jpg,right,golf_course_252.jpg,badlands_120.jpg,bridge_158.jpg,playground_219.jpg,highway_33.jpg,mountain_202.jpg,3,playground_21.jpg,0,playground,,,,,,,,,0,33,33,33,,,,,,,,,,,,,,,,,,,,,,,,,,,,,,,,,,,,,,,,,,,,,,,,,,,,,,,,,,,,,,,,,,,,,,,,,,,,,,,,,277.2417966659996,None,277.2417966659996,None,4.975560081466395,0.10619779200351331,277.2417966659996,None,277.2417966659996,None,,,,,,,2,2023_Jun_18_1415,working_memory,2021.2.3,None,
bridge_128.jpg,bridge_61.jpg,bridge_128.jpg,right,bridge_128.jpg,highway_154.jpg,badlands_35.jpg,golf_course_137.jpg,mountain_39.jpg,playground_162.jpg,0,bridge_61.jpg,0,bridge,,,,,,,,,0,34,34,34,,,,,,,,,,,,,,,,,,,,,,,,,,,,,,,,,,,,,,,,,,,,,,,,,,,,,,,,,,,,,,,,,,,,,,,,,,,,,,,,,277.37096845799533,None,277.37096845799533,None,4.975560081466395,0.10619445799966343,277.37096845799533,None,277.37096845799533,None,,,,,,,2,2023_Jun_18_1415,working_memory,2021.2.3,None,
highway_209.jpg,highway_209.jpg,highway_122.jpg,left,bridge_52.jpg,playground_78.jpg,golf_course_41.jpg,badlands_47.jpg,highway_209.jpg,mountain_33.jpg,4,highway_122.jpg,1,highway,,,,,,,,,0,35,35,35,,,,,,,,,,,,,,,,,,,,,,,,,,,,,,,,,,,,,,,,,,,,,,,,,,,,,,,,,,,,,,,,,,,,,,,,,,,,,,,,,277.4983186659956,None,277.4983186659956,None,4.975560081466395,0.09657966700615361,277.4983186659956,None,277.4983186659956,None,,,,,,,2,2023_Jun_18_1415,working_memory,2021.2.3,None,
playground_144.jpg,playground_144.jpg,playground_65.jpg,left,badlands_215.jpg,mountain_88.jpg,golf_course_102.jpg,playground_144.jpg,bridge_238.jpg,highway_274.jpg,3,playground_65.jpg,1,playground,,,,,,,,,0,36,36,36,,,,,,,,,,,,,,,,,,,,,,,,,,,,,,,,,,,,,,,,,,,,,,,,,,,,,,,,,,,,,,,,,,,,,,,,,,,,,,,,,277.619313874995,None,277.619313874995,None,4.975560081466395,0.10645674999977928,277.619313874995,None,277.619313874995,None,,,,,,,2,2023_Jun_18_1415,working_memory,2021.2.3,None,
mountain_110.jpg,mountain_157.jpg,mountain_110.jpg,right,golf_course_42.jpg,playground_103.jpg,mountain_110.jpg,bridge_86.jpg,badlands_60.jpg,highway_342.jpg,2,mountain_157.jpg,0,mountain,,,,,,,,,0,37,37,37,,,,,,,,,,,,,,,,,,,,,,,,,,,,,,,,,,,,,,,,,,,,,,,,,,,,,,,,,,,,,,,,,,,,,,,,,,,,,,,,,277.74852758299676,None,277.74852758299676,None,4.975560081466395,0.10593020799569786,277.74852758299676,None,277.74852758299676,None,,,,,,,2,2023_Jun_18_1415,working_memory,2021.2.3,None,
highway_394.jpg,highway_204.jpg,highway_394.jpg,right,highway_394.jpg,golf_course_144.jpg,playground_68.jpg,badlands_26.jpg,bridge_218.jpg,mountain_32.jpg,0,highway_204.jpg,0,highway,,,,,,,,,0,38,38,38,,,,,,,,,,,,,,,,,,,,,,,,,,,,,,,,,,,,,,,,,,,,,,,,,,,,,,,,,,,,,,,,,,,,,,,,,,,,,,,,,277.87519612499455,None,277.87519612499455,None,4.975560081466395,0.10516758300946094,277.87519612499455,None,277.87519612499455,None,,,,,,,2,2023_Jun_18_1415,working_memory,2021.2.3,None,
golf_course_87.jpg,golf_course_87.jpg,golf_course_161.jpg,left,golf_course_87.jpg,mountain_190.jpg,bridge_124.jpg,highway_58.jpg,badlands_152.jpg,playground_237.jpg,0,golf_course_161.jpg,1,golf,,,,,,,,,0,39,39,39,,,,,,,,,,,,,,,,,,,,,,,,,,,,,,,,,,,,,,,,,,,,,,,,,,,,,,,,,,,,,,,,,,,,,,,,,,,,,,,,,278.0040249579906,None,278.0040249579906,None,4.975560081466395,0.10661741600779351,278.0040249579906,None,278.0040249579906,None,,,,,,,2,2023_Jun_18_1415,working_memory,2021.2.3,None,
mountain_156.jpg,mountain_128.jpg,mountain_156.jpg,right,playground_64.jpg,bridge_180.jpg,badlands_72.jpg,mountain_156.jpg,highway_319.jpg,golf_course_23.jpg,3,mountain_128.jpg,0,mountain,,,,,,,,,0,40,40,40,,,,,,,,,,,,,,,,,,,,,,,,,,,,,,,,,,,,,,,,,,,,,,,,,,,,,,,,,,,,,,,,,,,,,,,,,,,,,,,,,278.13173870799073,None,278.13173870799073,None,4.975560081466395,0.11420637500123121,278.13173870799073,None,278.13173870799073,None,,,,,,,2,2023_Jun_18_1415,working_memory,2021.2.3,None,
badlands_137.jpg,badlands_194.jpg,badlands_137.jpg,right,highway_107.jpg,bridge_212.jpg,mountain_206.jpg,badlands_137.jpg,playground_63.jpg,golf_course_265.jpg,3,badlands_194.jpg,0,badlands,,,,,,,,,0,41,41,41,,,,,,,,,,,,,,,,,,,,,,,,,,,,,,,,,,,,,,,,,,,,,,,,,,,,,,,,,,,,,,,,,,,,,,,,,,,,,,,,,278.268002124998,None,278.268002124998,None,4.975560081466395,0.09861533298681024,278.268002124998,None,278.268002124998,None,,,,,,,2,2023_Jun_18_1415,working_memory,2021.2.3,None,
golf_course_188.jpg,golf_course_157.jpg,golf_course_188.jpg,right,highway_199.jpg,playground_227.jpg,badlands_54.jpg,bridge_228.jpg,golf_course_188.jpg,mountain_62.jpg,4,golf_course_157.jpg,0,golf,,,,,,,,,0,42,42,42,,,,,,,,,,,,,,,,,,,,,,,,,,,,,,,,,,,,,,,,,,,,,,,,,,,,,,,,,,,,,,,,,,,,,,,,,,,,,,,,,278.3889275410038,None,278.3889275410038,None,4.975560081466395,0.10461404199304525,278.3889275410038,None,278.3889275410038,None,,,,,,,2,2023_Jun_18_1415,working_memory,2021.2.3,None,
badlands_184.jpg,badlands_184.jpg,badlands_103.jpg,left,playground_235.jpg,golf_course_342.jpg,bridge_197.jpg,mountain_294.jpg,badlands_184.jpg,highway_308.jpg,4,badlands_103.jpg,1,badlands,,,,,,,,,0,43,43,43,,,,,,,,,,,,,,,,,,,,,,,,,,,,,,,,,,,,,,,,,,,,,,,,,,,,,,,,,,,,,,,,,,,,,,,,,,,,,,,,,278.51479216599546,None,278.51479216599546,None,4.975560081466395,0.1044196250004461,278.51479216599546,None,278.51479216599546,None,,,,,,,2,2023_Jun_18_1415,working_memory,2021.2.3,None,
mountain_232.jpg,mountain_232.jpg,mountain_3.jpg,left,golf_course_128.jpg,playground_124.jpg,badlands_170.jpg,mountain_232.jpg,bridge_147.jpg,highway_305.jpg,3,mountain_3.jpg,0,mountain,,,,,,,,,0,44,44,44,,,,,,,,,,,,,,,,,,,,,,,,,,,,,,,,,,,,,,,,,,,,,,,,,,,,,,,,,,,,,,,,,,,,,,,,,,,,,,,,,278.641611250001,None,278.641611250001,None,4.975560081466395,0.11996870899747591,278.641611250001,None,278.641611250001,None,,,,,,,2,2023_Jun_18_1415,working_memory,2021.2.3,None,
highway_93.jpg,highway_85.jpg,highway_93.jpg,right,golf_course_307.jpg,highway_93.jpg,badlands_164.jpg,playground_184.jpg,mountain_76.jpg,bridge_190.jpg,1,highway_85.jpg,0,highway,,,,,,,,,0,45,45,45,,,,,,,,,,,,,,,,,,,,,,,,,,,,,,,,,,,,,,,,,,,,,,,,,,,,,,,,,,,,,,,,,,,,,,,,,,,,,,,,,278.7831166249962,None,278.7831166249962,None,4.975560081466395,0.1304090420017019,278.7831166249962,None,278.7831166249962,None,,,,,,,2,2023_Jun_18_1415,working_memory,2021.2.3,None,
highway_294.jpg,highway_203.jpg,highway_294.jpg,right,highway_294.jpg,mountain_176.jpg,playground_196.jpg,badlands_106.jpg,bridge_120.jpg,golf_course_269.jpg,0,highway_203.jpg,0,highway,,,,,,,,,0,46,46,46,,,,,,,,,,,,,,,,,,,,,,,,,,,,,,,,,,,,,,,,,,,,,,,,,,,,,,,,,,,,,,,,,,,,,,,,,,,,,,,,,278.93590216599114,None,278.93590216599114,None,4.975560081466395,0.23195449999184348,278.93590216599114,None,278.93590216599114,None,,,,,,,2,2023_Jun_18_1415,working_memory,2021.2.3,None,
golf_course_195.jpg,golf_course_2.jpg,golf_course_195.jpg,right,golf_course_195.jpg,playground_54.jpg,badlands_211.jpg,mountain_92.jpg,highway_28.jpg,bridge_63.jpg,0,golf_course_2.jpg,1,golf,,,,,,,,,0,47,47,47,,,,,,,,,,,,,,,,,,,,,,,,,,,,,,,,,,,,,,,,,,,,,,,,,,,,,,,,,,,,,,,,,,,,,,,,,,,,,,,,,279.1898562909919,None,279.1898562909919,None,4.975560081466395,0.10483675000432413,279.1898562909919,None,279.1898562909919,None,,,,,,,2,2023_Jun_18_1415,working_memory,2021.2.3,None,
mountain_57.jpg,mountain_57.jpg,mountain_138.jpg,left,playground_241.jpg,golf_course_71.jpg,badlands_125.jpg,mountain_57.jpg,highway_37.jpg,bridge_68.jpg,3,mountain_138.jpg,1,mountain,,,,,,,,,0,48,48,48,,,,,,,,,,,,,,,,,,,,,,,,,,,,,,,,,,,,,,,,,,,,,,,,,,,,,,,,,,,,,,,,,,,,,,,,,,,,,,,,,279.31686700000137,None,279.31686700000137,None,4.975560081466395,0.10241470800247043,279.31686700000137,None,279.31686700000137,None,,,,,,,2,2023_Jun_18_1415,working_memory,2021.2.3,None,
bridge_108.jpg,bridge_108.jpg,bridge_116.jpg,left,golf_course_297.jpg,highway_90.jpg,badlands_81.jpg,mountain_135.jpg,bridge_108.jpg,playground_118.jpg,4,bridge_116.jpg,0,bridge,,,,,,,,,0,49,49,49,,,,,,,,,,,,,,,,,,,,,,,,,,,,,,,,,,,,,,,,,,,,,,,,,,,,,,,,,,,,,,,,,,,,,,,,,,,,,,,,,279.4412040409952,None,279.4412040409952,None,4.975560081466395,0.1032018749974668,279.4412040409952,None,279.4412040409952,None,,,,,,,2,2023_Jun_18_1415,working_memory,2021.2.3,None,
golf_course_193.jpg,golf_course_193.jpg,golf_course_235.jpg,left,mountain_306.jpg,badlands_138.jpg,golf_course_193.jpg,bridge_204.jpg,playground_132.jpg,highway_3.jpg,2,golf_course_235.jpg,0,golf,,,,,,,,,0,50,50,50,,,,,,,,,,,,,,,,,,,,,,,,,,,,,,,,,,,,,,,,,,,,,,,,,,,,,,,,,,,,,,,,,,,,,,,,,,,,,,,,,279.5668741249974,None,279.5668741249974,None,4.975560081466395,0.10943391700857319,279.5668741249974,None,279.5668741249974,None,,,,,,,2,2023_Jun_18_1415,working_memory,2021.2.3,None,
bridge_65.jpg,bridge_65.jpg,bridge_60.jpg,left,highway_31.jpg,golf_course_226.jpg,badlands_201.jpg,mountain_120.jpg,bridge_65.jpg,playground_141.jpg,4,bridge_60.jpg,1,bridge,,,,,,,,,0,51,51,51,,,,,,,,,,,,,,,,,,,,,,,,,,,,,,,,,,,,,,,,,,,,,,,,,,,,,,,,,,,,,,,,,,,,,,,,,,,,,,,,,279.69725245799054,None,279.69725245799054,None,4.975560081466395,0.11534229198878165,279.69725245799054,None,279.69725245799054,None,,,,,,,2,2023_Jun_18_1415,working_memory,2021.2.3,None,
playground_76.jpg,playground_22.jpg,playground_76.jpg,right,highway_50.jpg,playground_76.jpg,bridge_126.jpg,mountain_277.jpg,badlands_213.jpg,golf_course_288.jpg,1,playground_22.jpg,0,playground,,,,,,,,,0,52,52,52,,,,,,,,,,,,,,,,,,,,,,,,,,,,,,,,,,,,,,,,,,,,,,,,,,,,,,,,,,,,,,,,,,,,,,,,,,,,,,,,,279.8355591659929,None,279.8355591659929,None,4.975560081466395,0.12359629200363997,279.8355591659929,None,279.8355591659929,None,,,,,,,2,2023_Jun_18_1415,working_memory,2021.2.3,None,
golf_course_15.jpg,golf_course_113.jpg,golf_course_15.jpg,right,highway_18.jpg,badlands_173.jpg,bridge_24.jpg,playground_251.jpg,golf_course_15.jpg,mountain_137.jpg,4,golf_course_113.jpg,0,golf,,,,,,,,,0,53,53,53,,,,,,,,,,,,,,,,,,,,,,,,,,,,,,,,,,,,,,,,,,,,,,,,,,,,,,,,,,,,,,,,,,,,,,,,,,,,,,,,,279.9831149579986,None,279.9831149579986,None,4.975560081466395,0.11918891599634662,279.9831149579986,None,279.9831149579986,None,,,,,,,2,2023_Jun_18_1415,working_memory,2021.2.3,None,
badlands_24.jpg,badlands_53.jpg,badlands_24.jpg,right,playground_50.jpg,golf_course_72.jpg,badlands_24.jpg,highway_29.jpg,mountain_51.jpg,bridge_66.jpg,2,badlands_53.jpg,1,badlands,,,,,,,,,0,54,54,54,,,,,,,,,,,,,,,,,,,,,,,,,,,,,,,,,,,,,,,,,,,,,,,,,,,,,,,,,,,,,,,,,,,,,,,,,,,,,,,,,280.1246459999966,None,280.1246459999966,None,4.975560081466395,0.08957149999332614,280.1246459999966,None,280.1246459999966,None,,,,,,,2,2023_Jun_18_1415,working_memory,2021.2.3,None,
mountain_123.jpg,mountain_123.jpg,mountain_94.jpg,left,badlands_105.jpg,bridge_110.jpg,playground_85.jpg,highway_172.jpg,mountain_123.jpg,golf_course_162.jpg,4,mountain_94.jpg,0,mountain,,,,,,,,,0,55,55,55,,,,,,,,,,,,,,,,,,,,,,,,,,,,,,,,,,,,,,,,,,,,,,,,,,,,,,,,,,,,,,,,,,,,,,,,,,,,,,,,,280.2374914999964,None,280.2374914999964,None,4.975560081466395,0.09425920899957418,280.2374914999964,None,280.2374914999964,None,,,,,,,2,2023_Jun_18_1415,working_memory,2021.2.3,None,
bridge_191.jpg,bridge_191.jpg,bridge_184.jpg,left,playground_49.jpg,bridge_191.jpg,golf_course_3.jpg,mountain_233.jpg,highway_191.jpg,badlands_200.jpg,1,bridge_184.jpg,0,bridge,,,,,,,,,0,56,56,56,,,,,,,,,,,,,,,,,,,,,,,,,,,,,,,,,,,,,,,,,,,,,,,,,,,,,,,,,,,,,,,,,,,,,,,,,,,,,,,,,280.35345904099813,None,280.35345904099813,None,4.975560081466395,0.10344041699136142,280.35345904099813,None,280.35345904099813,None,,,,,,,2,2023_Jun_18_1415,working_memory,2021.2.3,None,
golf_course_78.jpg,golf_course_134.jpg,golf_course_78.jpg,right,playground_16.jpg,golf_course_78.jpg,bridge_254.jpg,highway_193.jpg,mountain_290.jpg,badlands_214.jpg,1,golf_course_134.jpg,0,golf,,,,,,,,,0,57,57,57,,,,,,,,,,,,,,,,,,,,,,,,,,,,,,,,,,,,,,,,,,,,,,,,,,,,,,,,,,,,,,,,,,,,,,,,,,,,,,,,,280.47939916599717,None,280.47939916599717,None,4.975560081466395,0.11782775000028778,280.47939916599717,None,280.47939916599717,None,,,,,,,2,2023_Jun_18_1415,working_memory,2021.2.3,None,
playground_117.jpg,playground_127.jpg,playground_117.jpg,right,highway_36.jpg,badlands_30.jpg,playground_117.jpg,golf_course_219.jpg,bridge_106.jpg,mountain_302.jpg,2,playground_127.jpg,1,playground,,,,,,,,,0,58,58,58,,,,,,,,,,,,,,,,,,,,,,,,,,,,,,,,,,,,,,,,,,,,,,,,,,,,,,,,,,,,,,,,,,,,,,,,,,,,,,,,,280.62074154100264,None,280.62074154100264,None,4.975560081466395,0.11491091700736433,280.62074154100264,None,280.62074154100264,None,,,,,,,2,2023_Jun_18_1415,working_memory,2021.2.3,None,
highway_415.jpg,highway_415.jpg,highway_174.jpg,left,playground_173.jpg,bridge_20.jpg,golf_course_59.jpg,highway_415.jpg,mountain_87.jpg,badlands_150.jpg,3,highway_174.jpg,1,highway,,,,,,,,,0,59,59,59,,,,,,,,,,,,,,,,,,,,,,,,,,,,,,,,,,,,,,,,,,,,,,,,,,,,,,,,,,,,,,,,,,,,,,,,,,,,,,,,,280.7567560000025,None,280.7567560000025,None,4.975560081466395,0.11719670800084714,280.7567560000025,None,280.7567560000025,None,,,,,,,2,2023_Jun_18_1415,working_memory,2021.2.3,None,
,,,,,,,,,,,,,,,,,,,,,,,,,,,,,,,,,,,,,,,,,,,,,,,,,,,,,,,,,,,,,,,,,,,,,,,,,,,,,,,,,,,,,,,,,,,,,,,,,,,,,,,,,,,,,,,,,,,,space,21.69721974999993,280.87719791599375,None,,,2,2023_Jun_18_1415,working_memory,2021.2.3,None,
,,,,,,,,,,,,,,,,,,,,,,,,,,,,,,,,,,,,,,,,,,,,,,,,,,,,,,,,,,,,,,,,,,,,,,,,,,,,,,,,,,,,,,,,,,,,,,,,,,,,,,,,,,,,,,,,,,,,,,,,280.87719791599375,None,,,,,,
