target,image1,image2,correct,background_0,background_1,background_2,background_3,background_4,background_5,target_index,selected_dist,distractor_level,category,demo_loops.thisRepN,demo_loops.thisTrialN,demo_loops.thisN,demo_loops.thisIndex,exp_loops.thisRepN,exp_loops.thisTrialN,exp_loops.thisN,exp_loops.thisIndex,exp_loops_part2.thisRepN,exp_loops_part2.thisTrialN,exp_loops_part2.thisN,exp_loops_part2.thisIndex,key_resp.keys,key_resp.started,key_resp.stopped,text_consent_form.started,text_consent_form.stopped,button.started,button.stopped,button.numClicks,button.timesOn,button.timesOff,key_resp_2.keys,key_resp_2.rt,key_resp_2.started,key_resp_2.stopped,text_instructions_first_slide.started,text_instructions_first_slide.stopped,image_0_demo.started,image_0_demo.stopped,image_1_demo.started,image_1_demo.stopped,image_2_demo.started,image_2_demo.stopped,image_3_demo.started,image_3_demo.stopped,image_4_demo.started,image_4_demo.stopped,image_5_demo.started,image_5_demo.stopped,blank_screen_demo.started,blank_screen_demo.stopped,fixation_demo.started,fixation_demo.stopped,image_left_demo.started,image_left_demo.stopped,image_right_demo.started,image_right_demo.stopped,demo_test_key_resp.keys,demo_test_key_resp.rt,demo_test_key_resp.started,demo_test_key_resp.stopped,text_4.started,text_4.stopped,key_resp_after_demo.keys,key_resp_after_demo.rt,key_resp_after_demo.started,key_resp_after_demo.stopped,text_after_demo_instr.started,text_after_demo_instr.stopped,image_0.started,image_0.stopped,image_1.started,image_1.stopped,image_2.started,image_2.stopped,image_3.started,image_3.stopped,image_4.started,image_4.stopped,image_5.started,image_5.stopped,blank_screen.started,blank_screen.stopped,fixation_encoding.started,fixation_encoding.stopped,image_left.started,image_left.stopped,image_right.started,image_right.stopped,test_key_resp.keys,test_key_resp.rt,test_key_resp.started,test_key_resp.stopped,text_6.started,text_6.stopped,text_2.started,text_2.stopped,key_resp_4.keys,key_resp_4.rt,key_resp_4.started,key_resp_4.stopped,image_left_part2.started,image_left_part2.stopped,image_right_part2.started,image_right_part2.stopped,slider_part2.response,slider_part2.rt,slider_part2.started,slider_part2.stopped,text_5.started,text_5.stopped,key_resp_last_slide.keys,key_resp_last_slide.rt,key_resp_last_slide.started,key_resp_last_slide.stopped,text_last_slide.started,text_last_slide.stopped,ID,date,expName,psychopyVersion,frameRate,
,,,,,,,,,,,,,,,,,,,,,,,,,,None,11.165441208009725,None,,,,,,,,,,,,,,,,,,,,,,,,,,,,,,,,,,,,,,,,,,,,,,,,,,,,,,,,,,,,,,,,,,,,,,,,,,,,,,,,,,,,,,,,,,,,,,8,2023_Jun_18_1507,working_memory,2021.2.3,None,
,,,,,,,,,,,,,,,,,,,,,,,,,,,,,11.165441208009725,None,11.165441208009725,None,1,[4.124360792004154],[4.1243640829925425],space,8.868314499995904,15.28753250000591,None,,,,,,,,,,,,,,,,,,,,,,,,,,,,,,,,,,,,,,,,,,,,,,,,,,,,,,,,,,,,,,,,,,,,,,,,,,,,,,,,,,,8,2023_Jun_18_1507,working_memory,2021.2.3,None,
flower1.jpg,flower1.jpg,flower1_pair.jpg,left,leaf3.jpg,trail1.jpg,flower1.jpg,bird1.jpg,tree3.jpg,fence4.jpg,2,,,,0,0,0,0,,,,,,,,,,,,,,,,,,,,,,,15.28753250000591,None,24.738355708002928,24.937003917002585,24.937003917002585,25.133081082996796,25.13976241700584,25.32630087500729,25.348213417004445,25.537739792009233,25.537739792009233,25.73445933300536,25.740307708008913,25.93877216700639,25.93877216700639,None,24.260781667006086,24.755218000005698,26.89102133300912,None,26.89102133300912,None,left,2.452122083006543,26.89102133300912,None,26.89102133300912,None,,,,,,,,,,,,,,,,,,,,,,,,,,,,,,,,,,,,,,,,,,,,,,,,,,,,,,,8,2023_Jun_18_1507,working_memory,2021.2.3,None,
leaf2.jpg,leaf1.jpg,leaf2.jpg,right,trail2.jpg,leaf2.jpg,bird2.jpg,tree2.jpg,fence3.jpg,flower2.jpg,1,,,,0,1,1,1,,,,,,,,,,,,,,,,,,,,,,,,,29.87574429200322,30.07415079200291,30.079527875001077,30.276690124999732,30.276690124999732,30.468551750003826,30.468551750003826,30.665549333003582,30.670723625007668,30.870531916996697,30.870531916996697,31.05963229200279,31.07627279200824,None,29.40782737500558,29.90126450000389,32.08128949999809,None,32.08128949999809,None,left,3.9305427920044167,32.08128949999809,None,32.08128949999809,None,,,,,,,,,,,,,,,,,,,,,,,,,,,,,,,,,,,,,,,,,,,,,,,,,,,,,,,8,2023_Jun_18_1507,working_memory,2021.2.3,None,
fence1.jpg,fence1.jpg,fence2.jpg,left,tree1.jpg,bird3.jpg,trail3.jpg,fence1.jpg,leaf4.jpg,flower3.jpg,3,,,,0,2,2,2,,,,,,,,,,,,,,,,,,,,,,,,,36.54893287499726,36.74199837500055,36.7549639170029,36.95367233300931,36.95367233300931,37.152015166997444,37.152015166997444,37.338650000005146,37.35524400000577,37.55026283299958,37.55026283299958,37.73887529200874,37.75870166700042,None,36.07357387500815,36.56535316699592,38.74256516700552,None,38.74256516700552,None,left,5.2103921249945415,38.74256516700552,None,38.74256516700552,None,,,,,,,,,,,,,,,,,,,,,,,,,,,,,,,,,,,,,,,,,,,,,,,,,,,,,,,8,2023_Jun_18_1507,working_memory,2021.2.3,None,
,,,,,,,,,,,,,,,,,,,,,,,,,,,,,,,,,,,,,,,,,,,,,,,,,,,,,,,,,,,,,,,,,,,,space,3.488737834006315,43.965719500003615,None,,,,,,,,,,,,,,,,,,,,,,,,,,,,,,,,,,,,,,,,,,,,,,,,,,,8,2023_Jun_18_1507,working_memory,2021.2.3,None,
badlands_113.jpg,badlands_113.jpg,badlands_225.jpg,left,mountain_151.jpg,highway_76.jpg,badlands_113.jpg,golf_course_221.jpg,bridge_136.jpg,playground_153.jpg,2,badlands_225.jpg,0,badlands,,,,,0,0,0,0,,,,,,,,,,,,,,,,,,,,,,,,,,,,,,,,,,,,,,,,,,,,,,,,,,,43.965719500003615,None,48.03627283300739,48.28355587500846,48.28355587500846,48.52279520800221,48.535938166998676,48.781486167004914,48.781486167004914,49.030226625007344,49.035995042009745,49.28460279200226,49.28460279200226,49.530345833001775,49.53493624999828,None,47.54495974999736,48.03896458300005,50.50222591700731,None,50.50222591700731,None,left,2.24011604100815,50.50222591700731,None,50.50222591700731,None,,,,,,,,,,,,,,,,,,,,,,,8,2023_Jun_18_1507,working_memory,2021.2.3,None,
badlands_222.jpg,badlands_222.jpg,badlands_34.jpg,left,highway_247.jpg,badlands_222.jpg,mountain_43.jpg,golf_course_333.jpg,bridge_142.jpg,playground_126.jpg,1,badlands_34.jpg,0,badlands,,,,,0,1,1,1,,,,,,,,,,,,,,,,,,,,,,,,,,,,,,,,,,,,,,,,,,,,,,,,,,,,,53.30132991699793,53.541639375005616,53.541639375005616,53.7838127080031,53.80337258300278,54.049366457998985,54.049366457998985,54.28919591700833,54.28919591700833,54.536819417000515,54.54248804200324,54.784165667006164,54.80419783300022,None,52.812436042004265,53.30132991699793,55.78494379200856,None,55.78494379200856,None,left,1.2719403329974739,55.78494379200856,None,55.78494379200856,None,,,,,,,,,,,,,,,,,,,,,,,8,2023_Jun_18_1507,working_memory,2021.2.3,None,
highway_359.jpg,highway_359.jpg,highway_379.jpg,left,mountain_268.jpg,badlands_180.jpg,bridge_96.jpg,highway_359.jpg,playground_191.jpg,golf_course_67.jpg,3,highway_379.jpg,1,highway,,,,,0,2,2,2,,,,,,,,,,,,,,,,,,,,,,,,,,,,,,,,,,,,,,,,,,,,,,,,,,,,,57.610878667008365,57.85726958300802,57.85726958300802,58.10467850000714,58.1105367919954,58.35080712499621,58.35080712499621,58.60117429200909,58.60117429200909,58.84145675000036,58.86099583300529,59.10796954200487,59.10796954200487,None,57.123670625005616,57.6149616670009,60.0912245829968,None,60.0912245829968,None,right,3.1632496250094846,60.0912245829968,None,60.0912245829968,None,,,,,,,,,,,,,,,,,,,,,,,8,2023_Jun_18_1507,working_memory,2021.2.3,None,
mountain_222.jpg,mountain_244.jpg,mountain_222.jpg,right,mountain_222.jpg,playground_181.jpg,bridge_266.jpg,golf_course_176.jpg,badlands_156.jpg,highway_268.jpg,0,mountain_244.jpg,0,mountain,,,,,0,3,3,3,,,,,,,,,,,,,,,,,,,,,,,,,,,,,,,,,,,,,,,,,,,,,,,,,,,,,63.80170808300318,64.04222341699642,64.06019804200332,64.30307049999828,64.30307049999828,64.5495522919955,64.55558858299628,64.80543745800969,64.80543745800969,65.04342166699644,65.06416262499988,65.30681291699875,65.30681291699875,None,63.32487541700539,63.81813924999733,66.30452883300313,None,66.30452883300313,None,right,3.7673797909956193,66.30452883300313,None,66.30452883300313,None,,,,,,,,,,,,,,,,,,,,,,,8,2023_Jun_18_1507,working_memory,2021.2.3,None,
bridge_172.jpg,bridge_172.jpg,bridge_17.jpg,left,golf_course_171.jpg,highway_404.jpg,bridge_172.jpg,playground_83.jpg,mountain_309.jpg,badlands_157.jpg,2,bridge_17.jpg,0,bridge,,,,,0,4,4,4,,,,,,,,,,,,,,,,,,,,,,,,,,,,,,,,,,,,,,,,,,,,,,,,,,,,,70.61746125000354,70.86732025000674,70.86732025000674,71.10583033300645,71.12421116699988,71.3713883330056,71.3713883330056,71.61621100000048,71.61621100000048,71.85564633300237,71.87584845800302,72.11521474999608,72.11521474999608,None,70.13783308300481,70.63454037500196,73.10807720800221,None,73.10807720800221,None,left,1.7932436660048552,73.10807720800221,None,73.10807720800221,None,,,,,,,,,,,,,,,,,,,,,,,8,2023_Jun_18_1507,working_memory,2021.2.3,None,
playground_145.jpg,playground_242.jpg,playground_145.jpg,right,playground_145.jpg,highway_9.jpg,bridge_39.jpg,mountain_212.jpg,badlands_79.jpg,golf_course_241.jpg,0,playground_242.jpg,1,playground,,,,,0,5,5,5,,,,,,,,,,,,,,,,,,,,,,,,,,,,,,,,,,,,,,,,,,,,,,,,,,,,,75.44231695799681,75.68097300000954,75.69379150000168,75.93391283300298,75.94708212499972,76.1928365000058,76.1928365000058,76.43064104199584,76.44382058300835,76.68071520800004,76.69573745800881,76.9428476250032,76.9428476250032,None,74.96770791700692,75.46623491699575,77.94955775000562,None,77.94955775000562,None,right,4.692160749997129,77.94955775000562,None,77.94955775000562,None,,,,,,,,,,,,,,,,,,,,,,,8,2023_Jun_18_1507,working_memory,2021.2.3,None,
highway_245.jpg,highway_245.jpg,highway_134.jpg,left,bridge_1.jpg,golf_course_338.jpg,playground_256.jpg,highway_245.jpg,badlands_46.jpg,mountain_166.jpg,3,highway_134.jpg,0,highway,,,,,0,6,6,6,,,,,,,,,,,,,,,,,,,,,,,,,,,,,,,,,,,,,,,,,,,,,,,,,,,,,83.19330962499953,83.4325024169957,83.44616666699585,83.6937799169973,83.6937799169973,83.93039270800364,83.94634166700416,84.19365120799921,84.19365120799921,84.4419227920007,84.4419227920007,84.68606541700137,84.68606541700137,None,82.71048358299595,83.19735695800046,85.68615200000932,None,85.68615200000932,None,left,4.456987792000291,85.68615200000932,None,85.68615200000932,None,,,,,,,,,,,,,,,,,,,,,,,8,2023_Jun_18_1507,working_memory,2021.2.3,None,
mountain_293.jpg,mountain_293.jpg,mountain_47.jpg,left,badlands_183.jpg,golf_course_181.jpg,mountain_293.jpg,playground_222.jpg,bridge_173.jpg,highway_83.jpg,2,mountain_47.jpg,1,mountain,,,,,0,7,7,7,,,,,,,,,,,,,,,,,,,,,,,,,,,,,,,,,,,,,,,,,,,,,,,,,,,,,90.69222095800797,90.93237658300495,90.9462207500037,91.18350149999605,91.1971819169994,91.44427404200542,91.44427404200542,91.6822947920009,91.69578249999904,91.9381428330089,91.9381428330089,92.18791862500075,92.19456250000803,None,90.2107665000076,90.7094640419964,93.18503591700573,None,93.18503591700573,None,left,2.469215125005576,93.18503591700573,None,93.18503591700573,None,,,,,,,,,,,,,,,,,,,,,,,8,2023_Jun_18_1507,working_memory,2021.2.3,None,
bridge_146.jpg,bridge_27.jpg,bridge_146.jpg,right,highway_269.jpg,bridge_146.jpg,golf_course_291.jpg,mountain_35.jpg,badlands_55.jpg,playground_195.jpg,1,bridge_27.jpg,0,bridge,,,,,0,8,8,8,,,,,,,,,,,,,,,,,,,,,,,,,,,,,,,,,,,,,,,,,,,,,,,,,,,,,96.2004135830066,96.44977295800345,96.44977295800345,96.69655791700643,96.70258295800886,96.94819875000394,96.94819875000394,97.19765354199626,97.19765354199626,97.44148337500519,97.44148337500519,97.69298624999647,97.69298624999647,None,95.7225800830056,96.21768966699892,98.71445033300552,None,98.71445033300552,None,left,3.7040003329893807,98.71445033300552,None,98.71445033300552,None,,,,,,,,,,,,,,,,,,,,,,,8,2023_Jun_18_1507,working_memory,2021.2.3,None,
playground_257.jpg,playground_257.jpg,playground_215.jpg,left,mountain_198.jpg,highway_15.jpg,badlands_80.jpg,golf_course_282.jpg,playground_257.jpg,bridge_62.jpg,4,playground_215.jpg,1,playground,,,,,0,9,9,9,,,,,,,,,,,,,,,,,,,,,,,,,,,,,,,,,,,,,,,,,,,,,,,,,,,,,102.95924758299952,103.19705162500031,103.20223737500783,103.44875954200688,103.45392320799874,103.69324116699863,103.7107355420012,103.95690933300648,103.96226466700318,104.2007777079998,104.2007777079998,104.44233891699696,104.46205516700866,None,102.47963662500842,102.97658554199734,105.46148500000709,None,105.46148500000709,None,right,4.301957541989395,105.46148500000709,None,105.46148500000709,None,,,,,,,,,,,,,,,,,,,,,,,8,2023_Jun_18_1507,working_memory,2021.2.3,None,
mountain_230.jpg,mountain_230.jpg,mountain_97.jpg,left,golf_course_253.jpg,mountain_230.jpg,highway_81.jpg,playground_47.jpg,badlands_9.jpg,bridge_4.jpg,1,mountain_97.jpg,1,mountain,,,,,0,10,10,10,,,,,,,,,,,,,,,,,,,,,,,,,,,,,,,,,,,,,,,,,,,,,,,,,,,,,110.28208858300059,110.53122370800702,110.53122370800702,110.7795948330022,110.78497041700757,111.03487904199574,111.03487904199574,111.2750854580081,111.29410604199802,111.5424056250049,111.5424056250049,111.78367241700471,111.78367241700471,None,109.80767700000433,110.29782858300314,112.7981332920026,None,112.7981332920026,None,left,2.678211292004562,112.7981332920026,None,112.7981332920026,None,,,,,,,,,,,,,,,,,,,,,,,8,2023_Jun_18_1507,working_memory,2021.2.3,None,
playground_10.jpg,playground_10.jpg,playground_122.jpg,left,highway_226.jpg,golf_course_33.jpg,mountain_38.jpg,playground_10.jpg,bridge_102.jpg,badlands_10.jpg,3,playground_122.jpg,0,playground,,,,,0,11,11,11,,,,,,,,,,,,,,,,,,,,,,,,,,,,,,,,,,,,,,,,,,,,,,,,,,,,,116.04551062500104,116.28714879200561,116.28714879200561,116.52666612500616,116.54608337499667,116.78461662500922,116.78461662500922,117.03361574999872,117.03902158299752,117.27910337499634,117.28501516699907,117.53081300000485,117.53488000000652,None,115.55447566699877,116.04551062500104,118.53176083300787,None,118.53176083300787,None,right,5.185523916996317,118.53176083300787,None,118.53176083300787,None,,,,,,,,,,,,,,,,,,,,,,,8,2023_Jun_18_1507,working_memory,2021.2.3,None,
highway_177.jpg,highway_177.jpg,highway_278.jpg,left,golf_course_202.jpg,playground_14.jpg,highway_177.jpg,bridge_152.jpg,badlands_227.jpg,mountain_192.jpg,2,highway_278.jpg,1,highway,,,,,0,12,12,12,,,,,,,,,,,,,,,,,,,,,,,,,,,,,,,,,,,,,,,,,,,,,,,,,,,,,124.268654917003,124.51402066700393,124.51906016700377,124.76593837499968,124.7715328750055,125.01259050000226,125.02606425000704,125.2738671249972,125.2738671249972,125.52138745800767,125.52138745800767,125.7597562919982,125.78126591700129,None,123.79068112499954,124.28577050000604,126.76017404200684,None,126.76017404200684,None,left,1.7680960840079933,126.76017404200684,None,126.76017404200684,None,,,,,,,,,,,,,,,,,,,,,,,8,2023_Jun_18_1507,working_memory,2021.2.3,None,
badlands_21.jpg,badlands_1.jpg,badlands_21.jpg,right,bridge_72.jpg,badlands_21.jpg,playground_74.jpg,golf_course_56.jpg,mountain_228.jpg,highway_251.jpg,1,badlands_1.jpg,0,badlands,,,,,0,13,13,13,,,,,,,,,,,,,,,,,,,,,,,,,,,,,,,,,,,,,,,,,,,,,,,,,,,,,129.06447054199816,129.31325474999903,129.31915295800718,129.56665562500712,129.56665562500712,129.80443470799946,129.823866250008,130.06608625000808,130.06608625000808,130.31556916699628,130.31556916699628,130.55629204200523,130.57516645800206,None,128.59182087500812,129.08027808299812,131.57115791700198,None,131.57115791700198,None,right,2.452393416999257,131.57115791700198,None,131.57115791700198,None,,,,,,,,,,,,,,,,,,,,,,,8,2023_Jun_18_1507,working_memory,2021.2.3,None,
playground_131.jpg,playground_164.jpg,playground_131.jpg,right,highway_101.jpg,golf_course_166.jpg,bridge_117.jpg,mountain_180.jpg,playground_131.jpg,badlands_27.jpg,4,playground_164.jpg,1,playground,,,,,0,14,14,14,,,,,,,,,,,,,,,,,,,,,,,,,,,,,,,,,,,,,,,,,,,,,,,,,,,,,134.5646378750098,134.81016741700296,134.8145707079966,135.0628432920057,135.0684417500015,135.30880337499548,135.31460308299575,135.5616716670047,135.56724804200348,135.805894582998,135.82668045800528,136.0681990830053,136.0681990830053,None,134.09188787500898,134.5821665830008,137.06547258299543,None,137.06547258299543,None,right,1.5651376660098322,137.06547258299543,None,137.06547258299543,None,,,,,,,,,,,,,,,,,,,,,,,8,2023_Jun_18_1507,working_memory,2021.2.3,None,
bridge_256.jpg,bridge_256.jpg,bridge_211.jpg,left,highway_53.jpg,mountain_250.jpg,bridge_256.jpg,playground_165.jpg,golf_course_300.jpg,badlands_128.jpg,2,bridge_211.jpg,1,bridge,,,,,0,15,15,15,,,,,,,,,,,,,,,,,,,,,,,,,,,,,,,,,,,,,,,,,,,,,,,,,,,,,139.17040808300953,139.41800137500104,139.41800137500104,139.6561137499957,139.67669295800442,139.92175529200176,139.92175529200176,140.16966495799716,140.17503329200554,140.4169448330067,140.4169448330067,140.6556709580036,140.6752647920075,None,138.69278166700678,139.1884319170058,141.66626354200707,None,141.66626354200707,None,left,0.800980999993044,141.66626354200707,None,141.66626354200707,None,,,,,,,,,,,,,,,,,,,,,,,8,2023_Jun_18_1507,working_memory,2021.2.3,None,
badlands_52.jpg,badlands_94.jpg,badlands_52.jpg,right,highway_399.jpg,golf_course_174.jpg,mountain_91.jpg,badlands_52.jpg,bridge_140.jpg,playground_154.jpg,3,badlands_94.jpg,0,badlands,,,,,0,16,16,16,,,,,,,,,,,,,,,,,,,,,,,,,,,,,,,,,,,,,,,,,,,,,,,,,,,,,143.0014652920072,143.2455067080009,143.2612567920005,143.5041521670064,143.5041521670064,143.74541291700734,143.76606879199971,144.0066504169954,144.0066504169954,144.2451291670004,144.26468325000315,144.51298187499924,144.51298187499924,None,142.5296342500078,143.0179019579955,145.50372487500135,None,145.50372487500135,None,right,2.34609929099679,145.50372487500135,None,145.50372487500135,None,,,,,,,,,,,,,,,,,,,,,,,8,2023_Jun_18_1507,working_memory,2021.2.3,None,
badlands_23.jpg,badlands_114.jpg,badlands_23.jpg,right,highway_257.jpg,badlands_23.jpg,golf_course_194.jpg,mountain_251.jpg,playground_140.jpg,bridge_144.jpg,1,badlands_114.jpg,0,badlands,,,,,0,17,17,17,,,,,,,,,,,,,,,,,,,,,,,,,,,,,,,,,,,,,,,,,,,,,,,,,,,,,148.39071458300168,148.6297339580051,148.63559120800346,148.88409120800497,148.89022675000888,149.1364360830048,149.1364360830048,149.37806387500314,149.3917829580023,149.64026454200211,149.64026454200211,149.87942929200653,149.88541975000408,None,147.91175491700415,148.40875570800563,150.88545129200793,None,150.88545129200793,None,left,4.5084563749987865,150.88545129200793,None,150.88545129200793,None,,,,,,,,,,,,,,,,,,,,,,,8,2023_Jun_18_1507,working_memory,2021.2.3,None,
mountain_101.jpg,mountain_221.jpg,mountain_101.jpg,right,bridge_155.jpg,playground_33.jpg,highway_287.jpg,mountain_101.jpg,badlands_44.jpg,golf_course_127.jpg,3,mountain_221.jpg,1,mountain,,,,,0,18,18,18,,,,,,,,,,,,,,,,,,,,,,,,,,,,,,,,,,,,,,,,,,,,,,,,,,,,,155.94758962500782,156.1896894579986,156.1896894579986,156.4362248749967,156.44226333299594,156.68135854200227,156.69792879199667,156.9392882079992,156.9392882079992,157.18088416699902,157.19811866700184,157.440096833001,157.440096833001,None,155.46202758300933,155.9595460420096,158.43295345800288,None,158.43295345800288,None,left,1.8145677909924416,158.43295345800288,None,158.43295345800288,None,,,,,,,,,,,,,,,,,,,,,,,8,2023_Jun_18_1507,working_memory,2021.2.3,None,
badlands_221.jpg,badlands_207.jpg,badlands_221.jpg,right,golf_course_328.jpg,playground_36.jpg,highway_78.jpg,badlands_221.jpg,mountain_152.jpg,bridge_87.jpg,3,badlands_207.jpg,1,badlands,,,,,0,19,19,19,,,,,,,,,,,,,,,,,,,,,,,,,,,,,,,,,,,,,,,,,,,,,,,,,,,,,160.78475108300336,161.0207924169954,161.03533820800658,161.27690516700386,161.27690516700386,161.52565408300143,161.52565408300143,161.76443054199626,161.78322325000772,162.02650558300957,162.02650558300957,162.26516024999728,162.28751799999736,None,160.30689566700312,160.80277895800828,163.29079920799995,None,163.29079920799995,None,right,2.401785291993292,163.29079920799995,None,163.29079920799995,None,,,,,,,,,,,,,,,,,,,,,,,8,2023_Jun_18_1507,working_memory,2021.2.3,None,
mountain_154.jpg,mountain_154.jpg,mountain_95.jpg,left,golf_course_305.jpg,playground_204.jpg,bridge_74.jpg,mountain_154.jpg,badlands_166.jpg,highway_288.jpg,3,mountain_95.jpg,1,mountain,,,,,0,20,20,20,,,,,,,,,,,,,,,,,,,,,,,,,,,,,,,,,,,,,,,,,,,,,,,,,,,,,166.23857983300695,166.4788189999963,166.4788189999963,166.71738670799823,166.73891566699604,166.99061400000937,166.99061400000937,167.23564325000916,167.23564325000916,167.48362475000613,167.48362475000613,167.72845258300367,167.72845258300367,None,165.75605995800288,166.24378304200945,168.73122516700823,None,168.73122516700823,None,right,4.697546750001493,168.73122516700823,None,168.73122516700823,None,,,,,,,,,,,,,,,,,,,,,,,8,2023_Jun_18_1507,working_memory,2021.2.3,None,
bridge_91.jpg,bridge_253.jpg,bridge_91.jpg,right,golf_course_55.jpg,playground_98.jpg,bridge_91.jpg,highway_295.jpg,mountain_41.jpg,badlands_33.jpg,2,bridge_253.jpg,0,bridge,,,,,0,21,21,21,,,,,,,,,,,,,,,,,,,,,,,,,,,,,,,,,,,,,,,,,,,,,,,,,,,,,173.96334883300005,174.20141624999815,174.21490279200953,174.45626533300674,174.45626533300674,174.69708012499905,174.71479170800012,174.96394304200658,174.96394304200658,175.2126809580077,175.2126809580077,175.4530376670009,175.4530376670009,None,173.48763816700375,173.9859849580098,176.47604287500144,None,176.47604287500144,None,left,3.677424041001359,176.47604287500144,None,176.47604287500144,None,,,,,,,,,,,,,,,,,,,,,,,8,2023_Jun_18_1507,working_memory,2021.2.3,None,
highway_273.jpg,highway_273.jpg,highway_384.jpg,left,bridge_22.jpg,mountain_146.jpg,badlands_217.jpg,highway_273.jpg,golf_course_116.jpg,playground_55.jpg,3,highway_384.jpg,0,highway,,,,,0,22,22,22,,,,,,,,,,,,,,,,,,,,,,,,,,,,,,,,,,,,,,,,,,,,,,,,,,,,,180.7040339170053,180.95478120799817,180.95478120799817,181.19712404200982,181.19712404200982,181.43487558299967,181.4558590000088,181.69819716700295,181.69819716700295,181.93834362500638,181.95790745799604,182.20372124999994,182.20372124999994,None,180.22242304199608,180.72047441700124,183.21438625000883,None,183.21438625000883,None,left,2.5235959999990882,183.21438625000883,None,183.21438625000883,None,,,,,,,,,,,,,,,,,,,,,,,8,2023_Jun_18_1507,working_memory,2021.2.3,None,
playground_60.jpg,playground_60.jpg,playground_244.jpg,left,playground_60.jpg,highway_178.jpg,badlands_121.jpg,mountain_126.jpg,golf_course_179.jpg,bridge_118.jpg,0,playground_244.jpg,1,playground,,,,,0,23,23,23,,,,,,,,,,,,,,,,,,,,,,,,,,,,,,,,,,,,,,,,,,,,,,,,,,,,,186.28945799999929,186.53565608299687,186.53565608299687,186.77759983300348,186.79057854200073,187.0312316250056,187.0312316250056,187.26675687500392,187.28537262500322,187.52787429200544,187.52787429200544,187.77172895800322,187.7896782500029,None,185.8079259579972,186.30789900000673,188.78278158300964,None,188.78278158300964,None,right,2.67657645799045,188.78278158300964,None,188.78278158300964,None,,,,,,,,,,,,,,,,,,,,,,,8,2023_Jun_18_1507,working_memory,2021.2.3,None,
golf_course_217.jpg,golf_course_35.jpg,golf_course_217.jpg,right,playground_37.jpg,mountain_199.jpg,bridge_193.jpg,golf_course_217.jpg,highway_17.jpg,badlands_174.jpg,3,golf_course_35.jpg,0,golf,,,,,0,24,24,24,,,,,,,,,,,,,,,,,,,,,,,,,,,,,,,,,,,,,,,,,,,,,,,,,,,,,192.00237737499992,192.2508840829978,192.2508840829978,192.48913791700033,192.5077738330001,192.74792470800458,192.74792470800458,192.98882437500288,193.00932154200564,193.26149070799875,193.26149070799875,193.510896125008,193.510896125008,None,191.5255369170045,192.02571229200112,194.50644337500853,None,194.50644337500853,None,right,3.0332916250044946,194.50644337500853,None,194.50644337500853,None,,,,,,,,,,,,,,,,,,,,,,,8,2023_Jun_18_1507,working_memory,2021.2.3,None,
playground_240.jpg,playground_40.jpg,playground_240.jpg,right,mountain_226.jpg,highway_265.jpg,playground_240.jpg,golf_course_313.jpg,badlands_104.jpg,bridge_79.jpg,2,playground_40.jpg,1,playground,,,,,0,25,25,25,,,,,,,,,,,,,,,,,,,,,,,,,,,,,,,,,,,,,,,,,,,,,,,,,,,,,198.07762945799914,198.32419745800144,198.3298235830007,198.5695240000059,198.58985829200537,198.8306053749984,198.8306053749984,199.07690445800836,199.07690445800836,199.31802495800366,199.33834670799843,199.57982591699692,199.57982591699692,None,197.60425108300115,198.0960843750072,200.57898350000323,None,200.57898350000323,None,right,3.3715007080027135,200.57898350000323,None,200.57898350000323,None,,,,,,,,,,,,,,,,,,,,,,,8,2023_Jun_18_1507,working_memory,2021.2.3,None,
bridge_202.jpg,bridge_202.jpg,bridge_38.jpg,left,highway_138.jpg,bridge_202.jpg,mountain_29.jpg,badlands_16.jpg,golf_course_105.jpg,playground_246.jpg,1,bridge_38.jpg,1,bridge,,,,,0,26,26,26,,,,,,,,,,,,,,,,,,,,,,,,,,,,,,,,,,,,,,,,,,,,,,,,,,,,,204.4954403330048,204.73502883300534,204.73502883300534,204.97679124999559,204.99650920800923,205.23657345800893,205.23657345800893,205.48355195800832,205.48942774999887,205.7340829169989,205.7340829169989,205.97676070799935,205.9959827499988,None,204.01347120800347,204.51124120800523,206.9867238750012,None,206.9867238750012,None,left,2.5925178339966806,206.9867238750012,None,206.9867238750012,None,,,,,,,,,,,,,,,,,,,,,,,8,2023_Jun_18_1507,working_memory,2021.2.3,None,
golf_course_331.jpg,golf_course_331.jpg,golf_course_26.jpg,left,mountain_169.jpg,golf_course_331.jpg,playground_258.jpg,bridge_234.jpg,highway_148.jpg,badlands_122.jpg,1,golf_course_26.jpg,1,golf,,,,,0,27,27,27,,,,,,,,,,,,,,,,,,,,,,,,,,,,,,,,,,,,,,,,,,,,,,,,,,,,,210.11925687499752,210.36019991700596,210.37297629199747,210.62028733300394,210.62028733300394,210.85963754200202,210.87437170800695,211.11457262499607,211.11457262499607,211.36306137499923,211.36306137499923,211.60265866700502,211.62318487500306,None,209.64121216700005,210.13810854199983,212.62214233299892,None,212.62214233299892,None,right,2.703114125004504,212.62214233299892,None,212.62214233299892,None,,,,,,,,,,,,,,,,,,,,,,,8,2023_Jun_18_1507,working_memory,2021.2.3,None,
badlands_70.jpg,badlands_70.jpg,badlands_119.jpg,left,bridge_112.jpg,mountain_307.jpg,golf_course_238.jpg,badlands_70.jpg,highway_383.jpg,playground_233.jpg,3,badlands_119.jpg,1,badlands,,,,,0,28,28,28,,,,,,,,,,,,,,,,,,,,,,,,,,,,,,,,,,,,,,,,,,,,,,,,,,,,,215.85978929200792,216.109225667009,216.1146568749973,216.35431725000672,216.367935125003,216.60551483300515,216.610454499998,216.85107575000438,216.87151029199595,217.11179070800426,217.11179070800426,217.35137641700567,217.37127429200336,None,215.38860362500418,215.87545620799938,218.365633333,None,218.365633333,None,right,3.0966955839976436,218.365633333,None,218.365633333,None,,,,,,,,,,,,,,,,,,,,,,,8,2023_Jun_18_1507,working_memory,2021.2.3,None,
highway_156.jpg,highway_156.jpg,highway_293.jpg,left,playground_6.jpg,highway_156.jpg,badlands_6.jpg,bridge_45.jpg,golf_course_120.jpg,mountain_102.jpg,1,highway_293.jpg,1,highway,,,,,0,29,29,29,,,,,,,,,,,,,,,,,,,,,,,,,,,,,,,,,,,,,,,,,,,,,,,,,,,,,222.01020208300906,222.25664354200126,222.2617988330021,222.5030672080029,222.51677604200086,222.7640362079983,222.7640362079983,223.00394562500878,223.00974766700529,223.25883108300332,223.26418533299875,223.51384916700772,223.51384916700772,None,221.53327962500043,222.02606808299606,224.50808120799775,None,224.50808120799775,None,left,3.052787916007219,224.50808120799775,None,224.50808120799775,None,,,,,,,,,,,,,,,,,,,,,,,8,2023_Jun_18_1507,working_memory,2021.2.3,None,
golf_course_309.jpg,golf_course_209.jpg,golf_course_309.jpg,right,highway_354.jpg,playground_15.jpg,mountain_187.jpg,badlands_216.jpg,golf_course_309.jpg,bridge_133.jpg,4,golf_course_209.jpg,1,golf,,,,,0,30,30,30,,,,,,,,,,,,,,,,,,,,,,,,,,,,,,,,,,,,,,,,,,,,,,,,,,,,,228.10143454199715,228.3441237079969,228.3441237079969,228.59182341700944,228.5974172080023,228.83485308299714,228.8556884169957,229.09667625000293,229.09667625000293,229.33636320799997,229.35002145799808,229.59784387500258,229.59784387500258,None,227.62195133299974,228.11845424999774,230.60381912499724,None,230.60381912499724,None,right,2.7221842910075793,230.60381912499724,None,230.60381912499724,None,,,,,,,,,,,,,,,,,,,,,,,8,2023_Jun_18_1507,working_memory,2021.2.3,None,
bridge_250.jpg,bridge_250.jpg,bridge_134.jpg,left,golf_course_196.jpg,highway_30.jpg,bridge_250.jpg,mountain_40.jpg,playground_249.jpg,badlands_97.jpg,2,bridge_134.jpg,0,bridge,,,,,0,31,31,31,,,,,,,,,,,,,,,,,,,,,,,,,,,,,,,,,,,,,,,,,,,,,,,,,,,,,233.87333191699872,234.11565191700356,234.11565191700356,234.35688237499562,234.3768730830052,234.6150084999972,234.6150084999972,234.8548262920085,234.87478712500888,235.12370087500312,235.12370087500312,235.3697429580061,235.37636070800363,None,233.39214020800136,233.8887937499967,236.36661850000382,None,236.36661850000382,None,right,1.8767263340123463,236.36661850000382,None,236.36661850000382,None,,,,,,,,,,,,,,,,,,,,,,,8,2023_Jun_18_1507,working_memory,2021.2.3,None,
golf_course_214.jpg,golf_course_312.jpg,golf_course_214.jpg,right,highway_102.jpg,golf_course_214.jpg,playground_176.jpg,bridge_164.jpg,badlands_171.jpg,mountain_253.jpg,1,golf_course_312.jpg,0,golf,,,,,0,32,32,32,,,,,,,,,,,,,,,,,,,,,,,,,,,,,,,,,,,,,,,,,,,,,,,,,,,,,238.79056850000052,239.0305986250023,239.0305986250023,239.26843420800287,239.28725920800935,239.52520404200186,239.54018379200716,239.77749533300812,239.77749533300812,240.0178478750022,240.03777866699966,240.2767899580067,240.28946241700032,None,238.30601208300504,238.79333445800876,241.28484500000195,None,241.28484500000195,None,left,2.9909063749946654,241.28484500000195,None,241.28484500000195,None,,,,,,,,,,,,,,,,,,,,,,,8,2023_Jun_18_1507,working_memory,2021.2.3,None,
playground_219.jpg,playground_21.jpg,playground_219.jpg,right,golf_course_252.jpg,badlands_120.jpg,bridge_158.jpg,playground_219.jpg,highway_33.jpg,mountain_202.jpg,3,playground_21.jpg,0,playground,,,,,0,33,33,33,,,,,,,,,,,,,,,,,,,,,,,,,,,,,,,,,,,,,,,,,,,,,,,,,,,,,244.8146297080093,245.05537520800135,245.05537520800135,245.29298724999535,245.31453804200282,245.5553441670054,245.5553441670054,245.79611704200215,245.81449491700914,246.05574691700167,246.05574691700167,246.29470537499583,246.31496158300433,None,244.3361592500005,244.83178012500866,247.312770250006,None,247.312770250006,None,right,2.6431215000047814,247.312770250006,None,247.312770250006,None,,,,,,,,,,,,,,,,,,,,,,,8,2023_Jun_18_1507,working_memory,2021.2.3,None,
bridge_128.jpg,bridge_61.jpg,bridge_128.jpg,right,bridge_128.jpg,highway_154.jpg,badlands_35.jpg,golf_course_137.jpg,mountain_39.jpg,playground_162.jpg,0,bridge_61.jpg,0,bridge,,,,,0,34,34,34,,,,,,,,,,,,,,,,,,,,,,,,,,,,,,,,,,,,,,,,,,,,,,,,,,,,,250.49830633300007,250.74475320799684,250.74475320799684,250.98616699999548,250.99990779200743,251.24535995800397,251.24535995800397,251.4852008750022,251.4984194169956,251.74378137500025,251.74378137500025,251.99222470799577,251.99859191699943,None,250.0204983750009,250.51541316699877,253.00045729200065,None,253.00045729200065,None,right,2.5966590000025462,253.00045729200065,None,253.00045729200065,None,,,,,,,,,,,,,,,,,,,,,,,8,2023_Jun_18_1507,working_memory,2021.2.3,None,
highway_209.jpg,highway_209.jpg,highway_122.jpg,left,bridge_52.jpg,playground_78.jpg,golf_course_41.jpg,badlands_47.jpg,highway_209.jpg,mountain_33.jpg,4,highway_122.jpg,1,highway,,,,,0,35,35,35,,,,,,,,,,,,,,,,,,,,,,,,,,,,,,,,,,,,,,,,,,,,,,,,,,,,,256.14240812500066,256.3807936670055,256.39384175000305,256.6347584580071,256.6347584580071,256.8728677080071,256.8905738330068,257.1379806670011,257.1435957500071,257.3934538330068,257.3934538330068,257.6339984579972,257.6339984579972,None,255.66066770799807,256.15921500000695,258.6300324170006,None,258.6300324170006,None,right,3.591562834000797,258.6300324170006,None,258.6300324170006,None,,,,,,,,,,,,,,,,,,,,,,,8,2023_Jun_18_1507,working_memory,2021.2.3,None,
playground_144.jpg,playground_144.jpg,playground_65.jpg,left,badlands_215.jpg,mountain_88.jpg,golf_course_102.jpg,playground_144.jpg,bridge_238.jpg,highway_274.jpg,3,playground_65.jpg,1,playground,,,,,0,36,36,36,,,,,,,,,,,,,,,,,,,,,,,,,,,,,,,,,,,,,,,,,,,,,,,,,,,,,262.7694748750073,263.0097847500001,263.0234609580075,263.2617149580037,263.27516291700886,263.52270408300683,263.52270408300683,263.7647679579968,263.7647679579968,264.0096471249999,264.0245936669962,264.26134287500463,264.2752515000029,None,262.28889250000066,262.78740837500663,265.2666205419955,None,265.2666205419955,None,left,1.5731816249899566,265.2666205419955,None,265.2666205419955,None,,,,,,,,,,,,,,,,,,,,,,,8,2023_Jun_18_1507,working_memory,2021.2.3,None,
mountain_110.jpg,mountain_157.jpg,mountain_110.jpg,right,golf_course_42.jpg,playground_103.jpg,mountain_110.jpg,bridge_86.jpg,badlands_60.jpg,highway_342.jpg,2,mountain_157.jpg,0,mountain,,,,,0,37,37,37,,,,,,,,,,,,,,,,,,,,,,,,,,,,,,,,,,,,,,,,,,,,,,,,,,,,,267.388341458005,267.63642341700324,267.64206220800406,267.8827792079974,267.8929010419961,268.13336720800726,268.13336720800726,268.37233962499886,268.3923440829967,268.63380458300526,268.63380458300526,268.8743622500042,268.8941741250019,None,266.91237879199616,267.40639570800704,269.88468474999536,None,269.88468474999536,None,left,2.3789059999980964,269.88468474999536,None,269.88468474999536,None,,,,,,,,,,,,,,,,,,,,,,,8,2023_Jun_18_1507,working_memory,2021.2.3,None,
highway_394.jpg,highway_204.jpg,highway_394.jpg,right,highway_394.jpg,golf_course_144.jpg,playground_68.jpg,badlands_26.jpg,bridge_218.jpg,mountain_32.jpg,0,highway_204.jpg,0,highway,,,,,0,38,38,38,,,,,,,,,,,,,,,,,,,,,,,,,,,,,,,,,,,,,,,,,,,,,,,,,,,,,272.8071287500061,273.0545762920083,273.05994379200274,273.3018302080018,273.3018302080018,273.5392162500066,273.5573996250023,273.79929516700213,273.79929516700213,274.0464985419967,274.0525772920082,274.29954933300905,274.29954933300905,None,272.3286541670095,272.82218162500067,275.30758354200225,None,275.30758354200225,None,right,0.7415113749884767,275.30758354200225,None,275.30758354200225,None,,,,,,,,,,,,,,,,,,,,,,,8,2023_Jun_18_1507,working_memory,2021.2.3,None,
golf_course_87.jpg,golf_course_87.jpg,golf_course_161.jpg,left,golf_course_87.jpg,mountain_190.jpg,bridge_124.jpg,highway_58.jpg,badlands_152.jpg,playground_237.jpg,0,golf_course_161.jpg,1,golf,,,,,0,39,39,39,,,,,,,,,,,,,,,,,,,,,,,,,,,,,,,,,,,,,,,,,,,,,,,,,,,,,276.5980031250074,276.8347117079975,276.85403025000414,277.0937077920098,277.0937077920098,277.33525075000944,277.35281450000184,277.59334508300526,277.59334508300526,277.8416266669956,277.8472810420062,278.08499729199684,278.1069786250009,None,276.1213798329991,276.61761066700274,279.0981885000074,None,279.0981885000074,None,left,3.9178316250036005,279.0981885000074,None,279.0981885000074,None,,,,,,,,,,,,,,,,,,,,,,,8,2023_Jun_18_1507,working_memory,2021.2.3,None,
mountain_156.jpg,mountain_128.jpg,mountain_156.jpg,right,playground_64.jpg,bridge_180.jpg,badlands_72.jpg,mountain_156.jpg,highway_319.jpg,golf_course_23.jpg,3,mountain_128.jpg,0,mountain,,,,,0,40,40,40,,,,,,,,,,,,,,,,,,,,,,,,,,,,,,,,,,,,,,,,,,,,,,,,,,,,,283.56348062500183,283.8026654169953,283.81636204200913,284.0636468750017,284.0636468750017,284.30124995800725,284.3155817920051,284.5556259169971,284.5556259169971,284.7919986670022,284.81162629200844,285.05307887500385,285.066954000009,None,283.0818138750037,283.5803515419975,286.0620019580092,None,286.0620019580092,None,right,2.3451763749908423,286.0620019580092,None,286.0620019580092,None,,,,,,,,,,,,,,,,,,,,,,,8,2023_Jun_18_1507,working_memory,2021.2.3,None,
badlands_137.jpg,badlands_194.jpg,badlands_137.jpg,right,highway_107.jpg,bridge_212.jpg,mountain_206.jpg,badlands_137.jpg,playground_63.jpg,golf_course_265.jpg,3,badlands_194.jpg,0,badlands,,,,,0,41,41,41,,,,,,,,,,,,,,,,,,,,,,,,,,,,,,,,,,,,,,,,,,,,,,,,,,,,,288.95243829200626,289.2000974170078,289.2061576670094,289.4480623330019,289.4480623330019,289.68699379199825,289.7070128330088,289.94399570800306,289.94399570800306,290.18479591699725,290.2066935420007,290.45300795799994,290.45300795799994,None,288.4739914170059,288.9674510420009,291.4523732920061,None,291.4523732920061,None,left,3.338504125000327,291.4523732920061,None,291.4523732920061,None,,,,,,,,,,,,,,,,,,,,,,,8,2023_Jun_18_1507,working_memory,2021.2.3,None,
golf_course_188.jpg,golf_course_157.jpg,golf_course_188.jpg,right,highway_199.jpg,playground_227.jpg,badlands_54.jpg,bridge_228.jpg,golf_course_188.jpg,mountain_62.jpg,4,golf_course_157.jpg,0,golf,,,,,0,42,42,42,,,,,,,,,,,,,,,,,,,,,,,,,,,,,,,,,,,,,,,,,,,,,,,,,,,,,295.33041404200776,295.5677590830019,295.58370000000286,295.8312747500022,295.8312747500022,296.07156295800814,296.077143625007,296.32556037500035,296.3318319999962,296.57964241699665,296.57964241699665,296.81801012500364,296.8325615829963,None,294.853429625,295.35120945800736,297.8301188330079,None,297.8301188330079,None,right,2.4056238329940243,297.8301188330079,None,297.8301188330079,None,,,,,,,,,,,,,,,,,,,,,,,8,2023_Jun_18_1507,working_memory,2021.2.3,None,
badlands_184.jpg,badlands_184.jpg,badlands_103.jpg,left,playground_235.jpg,golf_course_342.jpg,bridge_197.jpg,mountain_294.jpg,badlands_184.jpg,highway_308.jpg,4,badlands_103.jpg,1,badlands,,,,,0,43,43,43,,,,,,,,,,,,,,,,,,,,,,,,,,,,,,,,,,,,,,,,,,,,,,,,,,,,,300.7723210420081,301.01220062500215,301.0176448330021,301.2551112920046,301.2757339170057,301.5167376669997,301.5167376669997,301.7551601669984,301.77160824999737,302.02107120800065,302.02709829200467,302.266994250007,302.266994250007,None,300.29773833299987,300.79190641699824,303.279183000006,None,303.279183000006,None,right,3.526733874998172,303.279183000006,None,303.279183000006,None,,,,,,,,,,,,,,,,,,,,,,,8,2023_Jun_18_1507,working_memory,2021.2.3,None,
mountain_232.jpg,mountain_232.jpg,mountain_3.jpg,left,golf_course_128.jpg,playground_124.jpg,badlands_170.jpg,mountain_232.jpg,bridge_147.jpg,highway_305.jpg,3,mountain_3.jpg,0,mountain,,,,,0,44,44,44,,,,,,,,,,,,,,,,,,,,,,,,,,,,,,,,,,,,,,,,,,,,,,,,,,,,,307.3539854170085,307.59220254200045,307.60640258299827,307.8472797919967,307.8472797919967,308.0883211670007,308.1074084169959,308.3547356670024,308.3547356670024,308.59320970800763,308.60695499999565,308.8535950420046,308.8535950420046,None,306.8736442500085,307.37125629199727,309.85412241700396,None,309.85412241700396,None,left,2.256904541995027,309.85412241700396,None,309.85412241700396,None,,,,,,,,,,,,,,,,,,,,,,,8,2023_Jun_18_1507,working_memory,2021.2.3,None,
highway_93.jpg,highway_85.jpg,highway_93.jpg,right,golf_course_307.jpg,highway_93.jpg,badlands_164.jpg,playground_184.jpg,mountain_76.jpg,bridge_190.jpg,1,highway_85.jpg,0,highway,,,,,0,45,45,45,,,,,,,,,,,,,,,,,,,,,,,,,,,,,,,,,,,,,,,,,,,,,,,,,,,,,312.6548855419969,312.90044920799846,312.9044078750012,313.14298649999546,313.1569000830059,313.4041882080055,313.4041882080055,313.6432097920042,313.65796212499845,313.9057145830011,313.9057145830011,314.1472563749994,314.1472563749994,None,312.17441233299905,312.6719692500046,315.15255366700876,None,315.15255366700876,None,right,3.190602167000179,315.15255366700876,None,315.15255366700876,None,,,,,,,,,,,,,,,,,,,,,,,8,2023_Jun_18_1507,working_memory,2021.2.3,None,
highway_294.jpg,highway_203.jpg,highway_294.jpg,right,highway_294.jpg,mountain_176.jpg,playground_196.jpg,badlands_106.jpg,bridge_120.jpg,golf_course_269.jpg,0,highway_203.jpg,0,highway,,,,,0,46,46,46,,,,,,,,,,,,,,,,,,,,,,,,,,,,,,,,,,,,,,,,,,,,,,,,,,,,,318.88806995800405,319.12636479199864,319.14519387499604,319.38866525000776,319.38866525000776,319.62812325000414,319.6444813749986,319.8855705419992,319.8855705419992,320.13356800000474,320.13983216699853,320.38997212500544,320.38997212500544,None,318.4148395000084,318.90998516700347,321.396445958002,None,321.396445958002,None,right,1.830758958007209,321.396445958002,None,321.396445958002,None,,,,,,,,,,,,,,,,,,,,,,,8,2023_Jun_18_1507,working_memory,2021.2.3,None,
golf_course_195.jpg,golf_course_2.jpg,golf_course_195.jpg,right,golf_course_195.jpg,playground_54.jpg,badlands_211.jpg,mountain_92.jpg,highway_28.jpg,bridge_63.jpg,0,golf_course_2.jpg,1,golf,,,,,0,47,47,47,,,,,,,,,,,,,,,,,,,,,,,,,,,,,,,,,,,,,,,,,,,,,,,,,,,,,323.7768834169983,324.0219993329956,324.0262347079988,324.26701866700023,324.28483041700383,324.53333041700535,324.53333041700535,324.7822273750062,324.7822273750062,325.0258998329955,325.0258998329955,325.26398958300706,325.28653383300116,None,323.29998891700234,323.79286216699984,326.27835258300183,None,326.27835258300183,None,left,3.316612709008041,326.27835258300183,None,326.27835258300183,None,,,,,,,,,,,,,,,,,,,,,,,8,2023_Jun_18_1507,working_memory,2021.2.3,None,
mountain_57.jpg,mountain_57.jpg,mountain_138.jpg,left,playground_241.jpg,golf_course_71.jpg,badlands_125.jpg,mountain_57.jpg,highway_37.jpg,bridge_68.jpg,3,mountain_138.jpg,1,mountain,,,,,0,48,48,48,,,,,,,,,,,,,,,,,,,,,,,,,,,,,,,,,,,,,,,,,,,,,,,,,,,,,330.1363600420009,330.37684450000233,330.37684450000233,330.6301665420033,330.6301665420033,330.8672477079963,330.885453875002,331.12711795800715,331.12711795800715,331.3681448749994,331.3881382920081,331.63034287499613,331.63034287499613,None,329.65675579200615,330.1513910420035,332.6287897500006,None,332.6287897500006,None,right,4.912097249994986,332.6287897500006,None,332.6287897500006,None,,,,,,,,,,,,,,,,,,,,,,,8,2023_Jun_18_1507,working_memory,2021.2.3,None,
bridge_108.jpg,bridge_108.jpg,bridge_116.jpg,left,golf_course_297.jpg,highway_90.jpg,badlands_81.jpg,mountain_135.jpg,bridge_108.jpg,playground_118.jpg,4,bridge_116.jpg,0,bridge,,,,,0,49,49,49,,,,,,,,,,,,,,,,,,,,,,,,,,,,,,,,,,,,,,,,,,,,,,,,,,,,,338.0866566670011,338.33499737500097,338.3409123330057,338.58811070800584,338.58811070800584,338.8308214580029,338.8308214580029,339.07882500000414,339.07882500000414,339.3202770000062,339.3398908329982,339.5772525420034,339.5772525420034,None,337.6066406250029,338.1026914999966,340.58001608299674,None,340.58001608299674,None,left,2.2199709999986226,340.58001608299674,None,340.58001608299674,None,,,,,,,,,,,,,,,,,,,,,,,8,2023_Jun_18_1507,working_memory,2021.2.3,None,
golf_course_193.jpg,golf_course_193.jpg,golf_course_235.jpg,left,mountain_306.jpg,badlands_138.jpg,golf_course_193.jpg,bridge_204.jpg,playground_132.jpg,highway_3.jpg,2,golf_course_235.jpg,0,golf,,,,,0,50,50,50,,,,,,,,,,,,,,,,,,,,,,,,,,,,,,,,,,,,,,,,,,,,,,,,,,,,,343.34079845799715,343.5801107080042,343.5976979170082,343.8436673749966,343.8436673749966,344.08427979200496,344.09879904199624,344.34676495799795,344.34676495799795,344.58492920800927,344.598908208005,344.8469743330061,344.8469743330061,None,342.86615800000436,343.361678250003,345.84842808300164,None,345.84842808300164,None,right,3.0905841669882648,345.84842808300164,None,345.84842808300164,None,,,,,,,,,,,,,,,,,,,,,,,8,2023_Jun_18_1507,working_memory,2021.2.3,None,
bridge_65.jpg,bridge_65.jpg,bridge_60.jpg,left,highway_31.jpg,golf_course_226.jpg,badlands_201.jpg,mountain_120.jpg,bridge_65.jpg,playground_141.jpg,4,bridge_60.jpg,1,bridge,,,,,0,51,51,51,,,,,,,,,,,,,,,,,,,,,,,,,,,,,,,,,,,,,,,,,,,,,,,,,,,,,349.4727154580032,349.7203584579984,349.7263567500049,349.9667213750072,349.9860265830066,350.23246816699975,350.23246816699975,350.47287637500267,350.47287637500267,350.72047516700695,350.726494292001,350.97275879200606,350.97275879200606,None,349.00237924999965,349.49152329200297,351.97512583300704,None,351.97512583300704,None,right,3.998121999989962,351.97512583300704,None,351.97512583300704,None,,,,,,,,,,,,,,,,,,,,,,,8,2023_Jun_18_1507,working_memory,2021.2.3,None,
playground_76.jpg,playground_22.jpg,playground_76.jpg,right,highway_50.jpg,playground_76.jpg,bridge_126.jpg,mountain_277.jpg,badlands_213.jpg,golf_course_288.jpg,1,playground_22.jpg,0,playground,,,,,0,52,52,52,,,,,,,,,,,,,,,,,,,,,,,,,,,,,,,,,,,,,,,,,,,,,,,,,,,,,356.520517500001,356.7621350420086,356.7621350420086,357.00161295800353,357.0177110420045,357.2658175420074,357.2711961669993,357.5104345,357.52388920800877,357.77137283299817,357.77137283299817,358.0115752080019,358.0225008749985,None,356.03956274999655,356.5368505420047,359.0120404170011,None,359.0120404170011,None,right,4.68472429200483,359.0120404170011,None,359.0120404170011,None,,,,,,,,,,,,,,,,,,,,,,,8,2023_Jun_18_1507,working_memory,2021.2.3,None,
golf_course_15.jpg,golf_course_113.jpg,golf_course_15.jpg,right,highway_18.jpg,badlands_173.jpg,bridge_24.jpg,playground_251.jpg,golf_course_15.jpg,mountain_137.jpg,4,golf_course_113.jpg,0,golf,,,,,0,53,53,53,,,,,,,,,,,,,,,,,,,,,,,,,,,,,,,,,,,,,,,,,,,,,,,,,,,,,364.2449029999989,364.4850216250052,364.4850216250052,364.7260609579971,364.74616304200026,364.98809104200336,364.98809104200336,365.2263113329973,365.24678808300814,365.49598562500614,365.49598562500614,365.73814333300106,365.73814333300106,None,363.7627757080045,364.26151791700977,366.73936025000876,None,366.73936025000876,None,right,1.6425409170042258,366.73936025000876,None,366.73936025000876,None,,,,,,,,,,,,,,,,,,,,,,,8,2023_Jun_18_1507,working_memory,2021.2.3,None,
badlands_24.jpg,badlands_53.jpg,badlands_24.jpg,right,playground_50.jpg,golf_course_72.jpg,badlands_24.jpg,highway_29.jpg,mountain_51.jpg,bridge_66.jpg,2,badlands_53.jpg,1,badlands,,,,,0,54,54,54,,,,,,,,,,,,,,,,,,,,,,,,,,,,,,,,,,,,,,,,,,,,,,,,,,,,,368.91545583300467,369.1560271670023,369.1733450000029,369.41418187500676,369.41418187500676,369.66122591700696,369.66709566699865,369.91470904200105,369.92004483300843,370.1584281670075,370.17772766700364,370.4262296670058,370.4262296670058,None,368.4451425830048,368.9455917919986,371.4229207919998,None,371.4229207919998,None,left,1.5390352090034867,371.4229207919998,None,371.4229207919998,None,,,,,,,,,,,,,,,,,,,,,,,8,2023_Jun_18_1507,working_memory,2021.2.3,None,
mountain_123.jpg,mountain_123.jpg,mountain_94.jpg,left,badlands_105.jpg,bridge_110.jpg,playground_85.jpg,highway_172.jpg,mountain_123.jpg,golf_course_162.jpg,4,mountain_94.jpg,0,mountain,,,,,0,55,55,55,,,,,,,,,,,,,,,,,,,,,,,,,,,,,,,,,,,,,,,,,,,,,,,,,,,,,373.4971341670025,373.73901891699643,373.75713158299914,373.9984158750012,373.9984158750012,374.24514016699686,374.25100474999635,374.50018666700635,374.50018666700635,374.7425239580043,374.7474959579995,374.99463433300843,375.00124408300326,None,373.025369666997,373.51401045800594,376.00363408299745,None,376.00363408299745,None,left,2.0123890840040985,376.00363408299745,None,376.00363408299745,None,,,,,,,,,,,,,,,,,,,,,,,8,2023_Jun_18_1507,working_memory,2021.2.3,None,
bridge_191.jpg,bridge_191.jpg,bridge_184.jpg,left,playground_49.jpg,bridge_191.jpg,golf_course_3.jpg,mountain_233.jpg,highway_191.jpg,badlands_200.jpg,1,bridge_184.jpg,0,bridge,,,,,0,56,56,56,,,,,,,,,,,,,,,,,,,,,,,,,,,,,,,,,,,,,,,,,,,,,,,,,,,,,378.5576721670077,378.804195292003,378.8102131670021,379.04947937499674,379.06919245800236,379.3055880419997,379.3055880419997,379.5423542080098,379.56090250000125,379.8004012500023,379.8197284580092,380.06667045800714,380.06667045800714,None,378.0843734579976,378.5734604169993,381.05610829200305,None,381.05610829200305,None,left,3.567497915995773,381.05610829200305,None,381.05610829200305,None,,,,,,,,,,,,,,,,,,,,,,,8,2023_Jun_18_1507,working_memory,2021.2.3,None,
golf_course_78.jpg,golf_course_134.jpg,golf_course_78.jpg,right,playground_16.jpg,golf_course_78.jpg,bridge_254.jpg,highway_193.jpg,mountain_290.jpg,badlands_214.jpg,1,golf_course_134.jpg,0,golf,,,,,0,57,57,57,,,,,,,,,,,,,,,,,,,,,,,,,,,,,,,,,,,,,,,,,,,,,,,,,,,,,385.17329916699964,385.41883300000336,385.41883300000336,385.6633989999973,385.6684567080083,385.9166766249982,385.9229374580027,386.1632918749965,386.1688046670024,386.4143302080047,386.4189142079995,386.659085583,386.6789881250006,None,384.69146641700354,385.1914737920015,387.669162582999,None,387.669162582999,None,right,3.317480458004866,387.669162582999,None,387.669162582999,None,,,,,,,,,,,,,,,,,,,,,,,8,2023_Jun_18_1507,working_memory,2021.2.3,None,
playground_117.jpg,playground_127.jpg,playground_117.jpg,right,highway_36.jpg,badlands_30.jpg,playground_117.jpg,golf_course_219.jpg,bridge_106.jpg,mountain_302.jpg,2,playground_127.jpg,1,playground,,,,,0,58,58,58,,,,,,,,,,,,,,,,,,,,,,,,,,,,,,,,,,,,,,,,,,,,,,,,,,,,,391.529232957997,391.7682463329984,391.7823581249977,392.02675758300757,392.02675758300757,392.2697407079977,392.2832116250065,392.5284445830039,392.5284445830039,392.767073791998,392.7815122920001,393.0211541250028,393.0272739170032,None,391.04963866699836,391.5458746670047,394.0293990420032,None,394.0293990420032,None,right,1.7757729170116363,394.0293990420032,None,394.0293990420032,None,,,,,,,,,,,,,,,,,,,,,,,8,2023_Jun_18_1507,working_memory,2021.2.3,None,
highway_415.jpg,highway_415.jpg,highway_174.jpg,left,playground_173.jpg,bridge_20.jpg,golf_course_59.jpg,highway_415.jpg,mountain_87.jpg,badlands_150.jpg,3,highway_174.jpg,1,highway,,,,,0,59,59,59,,,,,,,,,,,,,,,,,,,,,,,,,,,,,,,,,,,,,,,,,,,,,,,,,,,,,396.35533883300377,396.60444133300916,396.60444133300916,396.85085362500104,396.85085362500104,397.09677841700613,397.10232045799785,397.3424590000068,397.34742095800175,397.596407457997,397.60160608300066,397.8391502919985,397.8596484580048,None,395.8708736670087,396.3694138330029,398.8390849169955,None,398.8390849169955,None,right,1.8725721659866394,398.8390849169955,None,398.8390849169955,None,,,,,,,,,,,,,,,,,,,,,,,8,2023_Jun_18_1507,working_memory,2021.2.3,None,
,,,,,,,,,,,,,,,,,,,,,,,,,,,,,,,,,,,,,,,,,,,,,,,,,,,,,,,,,,,,,,,,,,,,,,,,,,,,,,,,,,,,,,,,,,,,,,,,,,,,400.72769062500447,None,space,9.999958375003189,400.72769062500447,None,,,,,,,,,,,,,,,,,8,2023_Jun_18_1507,working_memory,2021.2.3,None,
badlands_113.jpg,badlands_113.jpg,badlands_225.jpg,left,mountain_151.jpg,highway_76.jpg,badlands_113.jpg,golf_course_221.jpg,bridge_136.jpg,playground_153.jpg,2,badlands_225.jpg,0,badlands,,,,,,,,,0,0,0,0,,,,,,,,,,,,,,,,,,,,,,,,,,,,,,,,,,,,,,,,,,,,,,,,,,,,,,,,,,,,,,,,,,,,,,,,,,,,,,,,,410.79931841700454,None,410.79931841700454,None,5.0,2.4406958750041667,410.79931841700454,None,410.79931841700454,None,,,,,,,8,2023_Jun_18_1507,working_memory,2021.2.3,None,
badlands_222.jpg,badlands_222.jpg,badlands_34.jpg,left,highway_247.jpg,badlands_222.jpg,mountain_43.jpg,golf_course_333.jpg,bridge_142.jpg,playground_126.jpg,1,badlands_34.jpg,0,badlands,,,,,,,,,0,1,1,1,,,,,,,,,,,,,,,,,,,,,,,,,,,,,,,,,,,,,,,,,,,,,,,,,,,,,,,,,,,,,,,,,,,,,,,,,,,,,,,,,413.24914262500533,None,413.24914262500533,None,5.0,0.14417633399716578,413.24914262500533,None,413.24914262500533,None,,,,,,,8,2023_Jun_18_1507,working_memory,2021.2.3,None,
highway_359.jpg,highway_359.jpg,highway_379.jpg,left,mountain_268.jpg,badlands_180.jpg,bridge_96.jpg,highway_359.jpg,playground_191.jpg,golf_course_67.jpg,3,highway_379.jpg,1,highway,,,,,,,,,0,2,2,2,,,,,,,,,,,,,,,,,,,,,,,,,,,,,,,,,,,,,,,,,,,,,,,,,,,,,,,,,,,,,,,,,,,,,,,,,,,,,,,,,413.41423075000057,None,413.41423075000057,None,5.0,0.11211949998687487,413.41423075000057,None,413.41423075000057,None,,,,,,,8,2023_Jun_18_1507,working_memory,2021.2.3,None,
mountain_222.jpg,mountain_244.jpg,mountain_222.jpg,right,mountain_222.jpg,playground_181.jpg,bridge_266.jpg,golf_course_176.jpg,badlands_156.jpg,highway_268.jpg,0,mountain_244.jpg,0,mountain,,,,,,,,,0,3,3,3,,,,,,,,,,,,,,,,,,,,,,,,,,,,,,,,,,,,,,,,,,,,,,,,,,,,,,,,,,,,,,,,,,,,,,,,,,,,,,,,,413.5479996250069,None,413.5479996250069,None,5.0,0.12906870800361503,413.5479996250069,None,413.5479996250069,None,,,,,,,8,2023_Jun_18_1507,working_memory,2021.2.3,None,
bridge_172.jpg,bridge_172.jpg,bridge_17.jpg,left,golf_course_171.jpg,highway_404.jpg,bridge_172.jpg,playground_83.jpg,mountain_309.jpg,badlands_157.jpg,2,bridge_17.jpg,0,bridge,,,,,,,,,0,4,4,4,,,,,,,,,,,,,,,,,,,,,,,,,,,,,,,,,,,,,,,,,,,,,,,,,,,,,,,,,,,,,,,,,,,,,,,,,,,,,,,,,413.6976722499967,None,413.6976722499967,None,5.0,0.1035395420040004,413.6976722499967,None,413.6976722499967,None,,,,,,,8,2023_Jun_18_1507,working_memory,2021.2.3,None,
playground_145.jpg,playground_242.jpg,playground_145.jpg,right,playground_145.jpg,highway_9.jpg,bridge_39.jpg,mountain_212.jpg,badlands_79.jpg,golf_course_241.jpg,0,playground_242.jpg,1,playground,,,,,,,,,0,5,5,5,,,,,,,,,,,,,,,,,,,,,,,,,,,,,,,,,,,,,,,,,,,,,,,,,,,,,,,,,,,,,,,,,,,,,,,,,,,,,,,,,413.822273333004,None,413.822273333004,None,5.0,0.24579920900578145,413.822273333004,None,413.822273333004,None,,,,,,,8,2023_Jun_18_1507,working_memory,2021.2.3,None,
highway_245.jpg,highway_245.jpg,highway_134.jpg,left,bridge_1.jpg,golf_course_338.jpg,playground_256.jpg,highway_245.jpg,badlands_46.jpg,mountain_166.jpg,3,highway_134.jpg,0,highway,,,,,,,,,0,6,6,6,,,,,,,,,,,,,,,,,,,,,,,,,,,,,,,,,,,,,,,,,,,,,,,,,,,,,,,,,,,,,,,,,,,,,,,,,,,,,,,,,414.08924529200885,None,414.08924529200885,None,5.0,0.11234999999578577,414.08924529200885,None,414.08924529200885,None,,,,,,,8,2023_Jun_18_1507,working_memory,2021.2.3,None,
mountain_293.jpg,mountain_293.jpg,mountain_47.jpg,left,badlands_183.jpg,golf_course_181.jpg,mountain_293.jpg,playground_222.jpg,bridge_173.jpg,highway_83.jpg,2,mountain_47.jpg,1,mountain,,,,,,,,,0,7,7,7,,,,,,,,,,,,,,,,,,,,,,,,,,,,,,,,,,,,,,,,,,,,,,,,,,,,,,,,,,,,,,,,,,,,,,,,,,,,,,,,,414.22234904200013,None,414.22234904200013,None,5.0,0.11282379200565629,414.22234904200013,None,414.22234904200013,None,,,,,,,8,2023_Jun_18_1507,working_memory,2021.2.3,None,
bridge_146.jpg,bridge_27.jpg,bridge_146.jpg,right,highway_269.jpg,bridge_146.jpg,golf_course_291.jpg,mountain_35.jpg,badlands_55.jpg,playground_195.jpg,1,bridge_27.jpg,0,bridge,,,,,,,,,0,8,8,8,,,,,,,,,,,,,,,,,,,,,,,,,,,,,,,,,,,,,,,,,,,,,,,,,,,,,,,,,,,,,,,,,,,,,,,,,,,,,,,,,414.3559450830071,None,414.3559450830071,None,5.0,0.11186045799695421,414.3559450830071,None,414.3559450830071,None,,,,,,,8,2023_Jun_18_1507,working_memory,2021.2.3,None,
playground_257.jpg,playground_257.jpg,playground_215.jpg,left,mountain_198.jpg,highway_15.jpg,badlands_80.jpg,golf_course_282.jpg,playground_257.jpg,bridge_62.jpg,4,playground_215.jpg,1,playground,,,,,,,,,0,9,9,9,,,,,,,,,,,,,,,,,,,,,,,,,,,,,,,,,,,,,,,,,,,,,,,,,,,,,,,,,,,,,,,,,,,,,,,,,,,,,,,,,414.4892977080017,None,414.4892977080017,None,5.0,0.26222691699513234,414.4892977080017,None,414.4892977080017,None,,,,,,,8,2023_Jun_18_1507,working_memory,2021.2.3,None,
mountain_230.jpg,mountain_230.jpg,mountain_97.jpg,left,golf_course_253.jpg,mountain_230.jpg,highway_81.jpg,playground_47.jpg,badlands_9.jpg,bridge_4.jpg,1,mountain_97.jpg,1,mountain,,,,,,,,,0,10,10,10,,,,,,,,,,,,,,,,,,,,,,,,,,,,,,,,,,,,,,,,,,,,,,,,,,,,,,,,,,,,,,,,,,,,,,,,,,,,,,,,,414.7726126250054,None,414.7726126250054,None,5.0,0.16262358300446067,414.7726126250054,None,414.7726126250054,None,,,,,,,8,2023_Jun_18_1507,working_memory,2021.2.3,None,
playground_10.jpg,playground_10.jpg,playground_122.jpg,left,highway_226.jpg,golf_course_33.jpg,mountain_38.jpg,playground_10.jpg,bridge_102.jpg,badlands_10.jpg,3,playground_122.jpg,0,playground,,,,,,,,,0,11,11,11,,,,,,,,,,,,,,,,,,,,,,,,,,,,,,,,,,,,,,,,,,,,,,,,,,,,,,,,,,,,,,,,,,,,,,,,,,,,,,,,,414.95673020799586,None,414.95673020799586,None,5.0,0.13648570800432935,414.95673020799586,None,414.95673020799586,None,,,,,,,8,2023_Jun_18_1507,working_memory,2021.2.3,None,
highway_177.jpg,highway_177.jpg,highway_278.jpg,left,golf_course_202.jpg,playground_14.jpg,highway_177.jpg,bridge_152.jpg,badlands_227.jpg,mountain_192.jpg,2,highway_278.jpg,1,highway,,,,,,,,,0,12,12,12,,,,,,,,,,,,,,,,,,,,,,,,,,,,,,,,,,,,,,,,,,,,,,,,,,,,,,,,,,,,,,,,,,,,,,,,,,,,,,,,,415.1133401249972,None,415.1133401249972,None,5.0,0.1465529580018483,415.1133401249972,None,415.1133401249972,None,,,,,,,8,2023_Jun_18_1507,working_memory,2021.2.3,None,
badlands_21.jpg,badlands_1.jpg,badlands_21.jpg,right,bridge_72.jpg,badlands_21.jpg,playground_74.jpg,golf_course_56.jpg,mountain_228.jpg,highway_251.jpg,1,badlands_1.jpg,0,badlands,,,,,,,,,0,13,13,13,,,,,,,,,,,,,,,,,,,,,,,,,,,,,,,,,,,,,,,,,,,,,,,,,,,,,,,,,,,,,,,,,,,,,,,,,,,,,,,,,415.2835740830051,None,415.2835740830051,None,5.0,0.13540474999172147,415.2835740830051,None,415.2835740830051,None,,,,,,,8,2023_Jun_18_1507,working_memory,2021.2.3,None,
playground_131.jpg,playground_164.jpg,playground_131.jpg,right,highway_101.jpg,golf_course_166.jpg,bridge_117.jpg,mountain_180.jpg,playground_131.jpg,badlands_27.jpg,4,playground_164.jpg,1,playground,,,,,,,,,0,14,14,14,,,,,,,,,,,,,,,,,,,,,,,,,,,,,,,,,,,,,,,,,,,,,,,,,,,,,,,,,,,,,,,,,,,,,,,,,,,,,,,,,415.44067150000774,None,415.44067150000774,None,5.0,0.1272644999990007,415.44067150000774,None,415.44067150000774,None,,,,,,,8,2023_Jun_18_1507,working_memory,2021.2.3,None,
bridge_256.jpg,bridge_256.jpg,bridge_211.jpg,left,highway_53.jpg,mountain_250.jpg,bridge_256.jpg,playground_165.jpg,golf_course_300.jpg,badlands_128.jpg,2,bridge_211.jpg,1,bridge,,,,,,,,,0,15,15,15,,,,,,,,,,,,,,,,,,,,,,,,,,,,,,,,,,,,,,,,,,,,,,,,,,,,,,,,,,,,,,,,,,,,,,,,,,,,,,,,,415.5889134169993,None,415.5889134169993,None,5.0,0.2881451669964008,415.5889134169993,None,415.5889134169993,None,,,,,,,8,2023_Jun_18_1507,working_memory,2021.2.3,None,
badlands_52.jpg,badlands_94.jpg,badlands_52.jpg,right,highway_399.jpg,golf_course_174.jpg,mountain_91.jpg,badlands_52.jpg,bridge_140.jpg,playground_154.jpg,3,badlands_94.jpg,0,badlands,,,,,,,,,0,16,16,16,,,,,,,,,,,,,,,,,,,,,,,,,,,,,,,,,,,,,,,,,,,,,,,,,,,,,,,,,,,,,,,,,,,,,,,,,,,,,,,,,415.89857908300473,None,415.89857908300473,None,5.0,0.344435875013005,415.89857908300473,None,415.89857908300473,None,,,,,,,8,2023_Jun_18_1507,working_memory,2021.2.3,None,
badlands_23.jpg,badlands_114.jpg,badlands_23.jpg,right,highway_257.jpg,badlands_23.jpg,golf_course_194.jpg,mountain_251.jpg,playground_140.jpg,bridge_144.jpg,1,badlands_114.jpg,0,badlands,,,,,,,,,0,17,17,17,,,,,,,,,,,,,,,,,,,,,,,,,,,,,,,,,,,,,,,,,,,,,,,,,,,,,,,,,,,,,,,,,,,,,,,,,,,,,,,,,416.2640672920097,None,416.2640672920097,None,5.0,0.17881133299670182,416.2640672920097,None,416.2640672920097,None,,,,,,,8,2023_Jun_18_1507,working_memory,2021.2.3,None,
mountain_101.jpg,mountain_221.jpg,mountain_101.jpg,right,bridge_155.jpg,playground_33.jpg,highway_287.jpg,mountain_101.jpg,badlands_44.jpg,golf_course_127.jpg,3,mountain_221.jpg,1,mountain,,,,,,,,,0,18,18,18,,,,,,,,,,,,,,,,,,,,,,,,,,,,,,,,,,,,,,,,,,,,,,,,,,,,,,,,,,,,,,,,,,,,,,,,,,,,,,,,,416.46399691700935,None,416.46399691700935,None,5.0,0.13761162500304636,416.46399691700935,None,416.46399691700935,None,,,,,,,8,2023_Jun_18_1507,working_memory,2021.2.3,None,
badlands_221.jpg,badlands_207.jpg,badlands_221.jpg,right,golf_course_328.jpg,playground_36.jpg,highway_78.jpg,badlands_221.jpg,mountain_152.jpg,bridge_87.jpg,3,badlands_207.jpg,1,badlands,,,,,,,,,0,19,19,19,,,,,,,,,,,,,,,,,,,,,,,,,,,,,,,,,,,,,,,,,,,,,,,,,,,,,,,,,,,,,,,,,,,,,,,,,,,,,,,,,416.62151708299643,None,416.62151708299643,None,5.0,0.1631094999902416,416.62151708299643,None,416.62151708299643,None,,,,,,,8,2023_Jun_18_1507,working_memory,2021.2.3,None,
mountain_154.jpg,mountain_154.jpg,mountain_95.jpg,left,golf_course_305.jpg,playground_204.jpg,bridge_74.jpg,mountain_154.jpg,badlands_166.jpg,highway_288.jpg,3,mountain_95.jpg,1,mountain,,,,,,,,,0,20,20,20,,,,,,,,,,,,,,,,,,,,,,,,,,,,,,,,,,,,,,,,,,,,,,,,,,,,,,,,,,,,,,,,,,,,,,,,,,,,,,,,,416.80567570800486,None,416.80567570800486,None,5.0,0.1630005409970181,416.80567570800486,None,416.80567570800486,None,,,,,,,8,2023_Jun_18_1507,working_memory,2021.2.3,None,
bridge_91.jpg,bridge_253.jpg,bridge_91.jpg,right,golf_course_55.jpg,playground_98.jpg,bridge_91.jpg,highway_295.jpg,mountain_41.jpg,badlands_33.jpg,2,bridge_253.jpg,0,bridge,,,,,,,,,0,21,21,21,,,,,,,,,,,,,,,,,,,,,,,,,,,,,,,,,,,,,,,,,,,,,,,,,,,,,,,,,,,,,,,,,,,,,,,,,,,,,,,,,416.9907155420078,None,416.9907155420078,None,5.0,0.13558462499349844,416.9907155420078,None,416.9907155420078,None,,,,,,,8,2023_Jun_18_1507,working_memory,2021.2.3,None,
highway_273.jpg,highway_273.jpg,highway_384.jpg,left,bridge_22.jpg,mountain_146.jpg,badlands_217.jpg,highway_273.jpg,golf_course_116.jpg,playground_55.jpg,3,highway_384.jpg,0,highway,,,,,,,,,0,22,22,22,,,,,,,,,,,,,,,,,,,,,,,,,,,,,,,,,,,,,,,,,,,,,,,,,,,,,,,,,,,,,,,,,,,,,,,,,,,,,,,,,417.1467734170001,None,417.1467734170001,None,5.0,0.16345987500972115,417.1467734170001,None,417.1467734170001,None,,,,,,,8,2023_Jun_18_1507,working_memory,2021.2.3,None,
playground_60.jpg,playground_60.jpg,playground_244.jpg,left,playground_60.jpg,highway_178.jpg,badlands_121.jpg,mountain_126.jpg,golf_course_179.jpg,bridge_118.jpg,0,playground_244.jpg,1,playground,,,,,,,,,0,23,23,23,,,,,,,,,,,,,,,,,,,,,,,,,,,,,,,,,,,,,,,,,,,,,,,,,,,,,,,,,,,,,,,,,,,,,,,,,,,,,,,,,417.3312049170054,None,417.3312049170054,None,5.0,0.15334979099861812,417.3312049170054,None,417.3312049170054,None,,,,,,,8,2023_Jun_18_1507,working_memory,2021.2.3,None,
golf_course_217.jpg,golf_course_35.jpg,golf_course_217.jpg,right,playground_37.jpg,mountain_199.jpg,bridge_193.jpg,golf_course_217.jpg,highway_17.jpg,badlands_174.jpg,3,golf_course_35.jpg,0,golf,,,,,,,,,0,24,24,24,,,,,,,,,,,,,,,,,,,,,,,,,,,,,,,,,,,,,,,,,,,,,,,,,,,,,,,,,,,,,,,,,,,,,,,,,,,,,,,,,417.50633679200837,None,417.50633679200837,None,5.0,0.17992600001161918,417.50633679200837,None,417.50633679200837,None,,,,,,,8,2023_Jun_18_1507,working_memory,2021.2.3,None,
playground_240.jpg,playground_40.jpg,playground_240.jpg,right,mountain_226.jpg,highway_265.jpg,playground_240.jpg,golf_course_313.jpg,badlands_104.jpg,bridge_79.jpg,2,playground_40.jpg,1,playground,,,,,,,,,0,25,25,25,,,,,,,,,,,,,,,,,,,,,,,,,,,,,,,,,,,,,,,,,,,,,,,,,,,,,,,,,,,,,,,,,,,,,,,,,,,,,,,,,417.7068472079991,None,417.7068472079991,None,5.0,0.17139566599507816,417.7068472079991,None,417.7068472079991,None,,,,,,,8,2023_Jun_18_1507,working_memory,2021.2.3,None,
bridge_202.jpg,bridge_202.jpg,bridge_38.jpg,left,highway_138.jpg,bridge_202.jpg,mountain_29.jpg,badlands_16.jpg,golf_course_105.jpg,playground_246.jpg,1,bridge_38.jpg,1,bridge,,,,,,,,,0,26,26,26,,,,,,,,,,,,,,,,,,,,,,,,,,,,,,,,,,,,,,,,,,,,,,,,,,,,,,,,,,,,,,,,,,,,,,,,,,,,,,,,,417.89848516699567,None,417.89848516699567,None,5.0,0.1362625420006225,417.89848516699567,None,417.89848516699567,None,,,,,,,8,2023_Jun_18_1507,working_memory,2021.2.3,None,
golf_course_331.jpg,golf_course_331.jpg,golf_course_26.jpg,left,mountain_169.jpg,golf_course_331.jpg,playground_258.jpg,bridge_234.jpg,highway_148.jpg,badlands_122.jpg,1,golf_course_26.jpg,1,golf,,,,,,,,,0,27,27,27,,,,,,,,,,,,,,,,,,,,,,,,,,,,,,,,,,,,,,,,,,,,,,,,,,,,,,,,,,,,,,,,,,,,,,,,,,,,,,,,,418.05609800000093,None,418.05609800000093,None,5.0,0.16984929201134946,418.05609800000093,None,418.05609800000093,None,,,,,,,8,2023_Jun_18_1507,working_memory,2021.2.3,None,
badlands_70.jpg,badlands_70.jpg,badlands_119.jpg,left,bridge_112.jpg,mountain_307.jpg,golf_course_238.jpg,badlands_70.jpg,highway_383.jpg,playground_233.jpg,3,badlands_119.jpg,1,badlands,,,,,,,,,0,28,28,28,,,,,,,,,,,,,,,,,,,,,,,,,,,,,,,,,,,,,,,,,,,,,,,,,,,,,,,,,,,,,,,,,,,,,,,,,,,,,,,,,418.2473595830088,None,418.2473595830088,None,5.0,0.15375912499439437,418.2473595830088,None,418.2473595830088,None,,,,,,,8,2023_Jun_18_1507,working_memory,2021.2.3,None,
highway_156.jpg,highway_156.jpg,highway_293.jpg,left,playground_6.jpg,highway_156.jpg,badlands_6.jpg,bridge_45.jpg,golf_course_120.jpg,mountain_102.jpg,1,highway_293.jpg,1,highway,,,,,,,,,0,29,29,29,,,,,,,,,,,,,,,,,,,,,,,,,,,,,,,,,,,,,,,,,,,,,,,,,,,,,,,,,,,,,,,,,,,,,,,,,,,,,,,,,418.422435667002,None,418.422435667002,None,5.0,0.19564841700776014,418.422435667002,None,418.422435667002,None,,,,,,,8,2023_Jun_18_1507,working_memory,2021.2.3,None,
golf_course_309.jpg,golf_course_209.jpg,golf_course_309.jpg,right,highway_354.jpg,playground_15.jpg,mountain_187.jpg,badlands_216.jpg,golf_course_309.jpg,bridge_133.jpg,4,golf_course_209.jpg,1,golf,,,,,,,,,0,30,30,30,,,,,,,,,,,,,,,,,,,,,,,,,,,,,,,,,,,,,,,,,,,,,,,,,,,,,,,,,,,,,,,,,,,,,,,,,,,,,,,,,418.63852054200834,None,418.63852054200834,None,5.0,0.15425862499978393,418.63852054200834,None,418.63852054200834,None,,,,,,,8,2023_Jun_18_1507,working_memory,2021.2.3,None,
bridge_250.jpg,bridge_250.jpg,bridge_134.jpg,left,golf_course_196.jpg,highway_30.jpg,bridge_250.jpg,mountain_40.jpg,playground_249.jpg,badlands_97.jpg,2,bridge_134.jpg,0,bridge,,,,,,,,,0,31,31,31,,,,,,,,,,,,,,,,,,,,,,,,,,,,,,,,,,,,,,,,,,,,,,,,,,,,,,,,,,,,,,,,,,,,,,,,,,,,,,,,,418.81436025000585,None,418.81436025000585,None,5.0,0.14595620799809694,418.81436025000585,None,418.81436025000585,None,,,,,,,8,2023_Jun_18_1507,working_memory,2021.2.3,None,
golf_course_214.jpg,golf_course_312.jpg,golf_course_214.jpg,right,highway_102.jpg,golf_course_214.jpg,playground_176.jpg,bridge_164.jpg,badlands_171.jpg,mountain_253.jpg,1,golf_course_312.jpg,0,golf,,,,,,,,,0,32,32,32,,,,,,,,,,,,,,,,,,,,,,,,,,,,,,,,,,,,,,,,,,,,,,,,,,,,,,,,,,,,,,,,,,,,,,,,,,,,,,,,,418.9809959999984,None,418.9809959999984,None,5.0,0.18826766600250266,418.9809959999984,None,418.9809959999984,None,,,,,,,8,2023_Jun_18_1507,working_memory,2021.2.3,None,
playground_219.jpg,playground_21.jpg,playground_219.jpg,right,golf_course_252.jpg,badlands_120.jpg,bridge_158.jpg,playground_219.jpg,highway_33.jpg,mountain_202.jpg,3,playground_21.jpg,0,playground,,,,,,,,,0,33,33,33,,,,,,,,,,,,,,,,,,,,,,,,,,,,,,,,,,,,,,,,,,,,,,,,,,,,,,,,,,,,,,,,,,,,,,,,,,,,,,,,,419.1899332500034,None,419.1899332500034,None,5.0,0.1529836669942597,419.1899332500034,None,419.1899332500034,None,,,,,,,8,2023_Jun_18_1507,working_memory,2021.2.3,None,
bridge_128.jpg,bridge_61.jpg,bridge_128.jpg,right,bridge_128.jpg,highway_154.jpg,badlands_35.jpg,golf_course_137.jpg,mountain_39.jpg,playground_162.jpg,0,bridge_61.jpg,0,bridge,,,,,,,,,0,34,34,34,,,,,,,,,,,,,,,,,,,,,,,,,,,,,,,,,,,,,,,,,,,,,,,,,,,,,,,,,,,,,,,,,,,,,,,,,,,,,,,,,419.3640188330028,None,419.3640188330028,None,5.0,0.3545352079963777,419.3640188330028,None,419.3640188330028,None,,,,,,,8,2023_Jun_18_1507,working_memory,2021.2.3,None,
highway_209.jpg,highway_209.jpg,highway_122.jpg,left,bridge_52.jpg,playground_78.jpg,golf_course_41.jpg,badlands_47.jpg,highway_209.jpg,mountain_33.jpg,4,highway_122.jpg,1,highway,,,,,,,,,0,35,35,35,,,,,,,,,,,,,,,,,,,,,,,,,,,,,,,,,,,,,,,,,,,,,,,,,,,,,,,,,,,,,,,,,,,,,,,,,,,,,,,,,419.73924695800815,None,419.73924695800815,None,5.0,0.1623311669973191,419.73924695800815,None,419.73924695800815,None,,,,,,,8,2023_Jun_18_1507,working_memory,2021.2.3,None,
playground_144.jpg,playground_144.jpg,playground_65.jpg,left,badlands_215.jpg,mountain_88.jpg,golf_course_102.jpg,playground_144.jpg,bridge_238.jpg,highway_274.jpg,3,playground_65.jpg,1,playground,,,,,,,,,0,36,36,36,,,,,,,,,,,,,,,,,,,,,,,,,,,,,,,,,,,,,,,,,,,,,,,,,,,,,,,,,,,,,,,,,,,,,,,,,,,,,,,,,419.9229325000051,None,419.9229325000051,None,5.0,0.1868616660067346,419.9229325000051,None,419.9229325000051,None,,,,,,,8,2023_Jun_18_1507,working_memory,2021.2.3,None,
mountain_110.jpg,mountain_157.jpg,mountain_110.jpg,right,golf_course_42.jpg,playground_103.jpg,mountain_110.jpg,bridge_86.jpg,badlands_60.jpg,highway_342.jpg,2,mountain_157.jpg,0,mountain,,,,,,,,,0,37,37,37,,,,,,,,,,,,,,,,,,,,,,,,,,,,,,,,,,,,,,,,,,,,,,,,,,,,,,,,,,,,,,,,,,,,,,,,,,,,,,,,,420.1305038330029,None,420.1305038330029,None,5.0,0.17320783299510367,420.1305038330029,None,420.1305038330029,None,,,,,,,8,2023_Jun_18_1507,working_memory,2021.2.3,None,
highway_394.jpg,highway_204.jpg,highway_394.jpg,right,highway_394.jpg,golf_course_144.jpg,playground_68.jpg,badlands_26.jpg,bridge_218.jpg,mountain_32.jpg,0,highway_204.jpg,0,highway,,,,,,,,,0,38,38,38,,,,,,,,,,,,,,,,,,,,,,,,,,,,,,,,,,,,,,,,,,,,,,,,,,,,,,,,,,,,,,,,,,,,,,,,,,,,,,,,,420.3220108749956,None,420.3220108749956,None,5.0,0.19609279198630247,420.3220108749956,None,420.3220108749956,None,,,,,,,8,2023_Jun_18_1507,working_memory,2021.2.3,None,
golf_course_87.jpg,golf_course_87.jpg,golf_course_161.jpg,left,golf_course_87.jpg,mountain_190.jpg,bridge_124.jpg,highway_58.jpg,badlands_152.jpg,playground_237.jpg,0,golf_course_161.jpg,1,golf,,,,,,,,,0,39,39,39,,,,,,,,,,,,,,,,,,,,,,,,,,,,,,,,,,,,,,,,,,,,,,,,,,,,,,,,,,,,,,,,,,,,,,,,,,,,,,,,,420.54024037500494,None,420.54024037500494,None,5.0,0.17029550000734162,420.54024037500494,None,420.54024037500494,None,,,,,,,8,2023_Jun_18_1507,working_memory,2021.2.3,None,
mountain_156.jpg,mountain_128.jpg,mountain_156.jpg,right,playground_64.jpg,bridge_180.jpg,badlands_72.jpg,mountain_156.jpg,highway_319.jpg,golf_course_23.jpg,3,mountain_128.jpg,0,mountain,,,,,,,,,0,40,40,40,,,,,,,,,,,,,,,,,,,,,,,,,,,,,,,,,,,,,,,,,,,,,,,,,,,,,,,,,,,,,,,,,,,,,,,,,,,,,,,,,420.73062195800594,None,420.73062195800594,None,5.0,0.1642024169996148,420.73062195800594,None,420.73062195800594,None,,,,,,,8,2023_Jun_18_1507,working_memory,2021.2.3,None,
badlands_137.jpg,badlands_194.jpg,badlands_137.jpg,right,highway_107.jpg,bridge_212.jpg,mountain_206.jpg,badlands_137.jpg,playground_63.jpg,golf_course_265.jpg,3,badlands_194.jpg,0,badlands,,,,,,,,,0,41,41,41,,,,,,,,,,,,,,,,,,,,,,,,,,,,,,,,,,,,,,,,,,,,,,,,,,,,,,,,,,,,,,,,,,,,,,,,,,,,,,,,,420.9140962079982,None,420.9140962079982,None,5.0,0.16318170800514054,420.9140962079982,None,420.9140962079982,None,,,,,,,8,2023_Jun_18_1507,working_memory,2021.2.3,None,
golf_course_188.jpg,golf_course_157.jpg,golf_course_188.jpg,right,highway_199.jpg,playground_227.jpg,badlands_54.jpg,bridge_228.jpg,golf_course_188.jpg,mountain_62.jpg,4,golf_course_157.jpg,0,golf,,,,,,,,,0,42,42,42,,,,,,,,,,,,,,,,,,,,,,,,,,,,,,,,,,,,,,,,,,,,,,,,,,,,,,,,,,,,,,,,,,,,,,,,,,,,,,,,,421.0962438330025,None,421.0962438330025,None,5.0,0.34709645800467115,421.0962438330025,None,421.0962438330025,None,,,,,,,8,2023_Jun_18_1507,working_memory,2021.2.3,None,
badlands_184.jpg,badlands_184.jpg,badlands_103.jpg,left,playground_235.jpg,golf_course_342.jpg,bridge_197.jpg,mountain_294.jpg,badlands_184.jpg,highway_308.jpg,4,badlands_103.jpg,1,badlands,,,,,,,,,0,43,43,43,,,,,,,,,,,,,,,,,,,,,,,,,,,,,,,,,,,,,,,,,,,,,,,,,,,,,,,,,,,,,,,,,,,,,,,,,,,,,,,,,421.4630102079973,None,421.4630102079973,None,5.0,0.16319325000222307,421.4630102079973,None,421.4630102079973,None,,,,,,,8,2023_Jun_18_1507,working_memory,2021.2.3,None,
mountain_232.jpg,mountain_232.jpg,mountain_3.jpg,left,golf_course_128.jpg,playground_124.jpg,badlands_170.jpg,mountain_232.jpg,bridge_147.jpg,highway_305.jpg,3,mountain_3.jpg,0,mountain,,,,,,,,,0,44,44,44,,,,,,,,,,,,,,,,,,,,,,,,,,,,,,,,,,,,,,,,,,,,,,,,,,,,,,,,,,,,,,,,,,,,,,,,,,,,,,,,,421.64666804199805,None,421.64666804199805,None,5.0,0.3546279160073027,421.64666804199805,None,421.64666804199805,None,,,,,,,8,2023_Jun_18_1507,working_memory,2021.2.3,None,
highway_93.jpg,highway_85.jpg,highway_93.jpg,right,golf_course_307.jpg,highway_93.jpg,badlands_164.jpg,playground_184.jpg,mountain_76.jpg,bridge_190.jpg,1,highway_85.jpg,0,highway,,,,,,,,,0,45,45,45,,,,,,,,,,,,,,,,,,,,,,,,,,,,,,,,,,,,,,,,,,,,,,,,,,,,,,,,,,,,,,,,,,,,,,,,,,,,,,,,,422.0215019169991,None,422.0215019169991,None,5.0,0.15695937500277068,422.0215019169991,None,422.0215019169991,None,,,,,,,8,2023_Jun_18_1507,working_memory,2021.2.3,None,
highway_294.jpg,highway_203.jpg,highway_294.jpg,right,highway_294.jpg,mountain_176.jpg,playground_196.jpg,badlands_106.jpg,bridge_120.jpg,golf_course_269.jpg,0,highway_203.jpg,0,highway,,,,,,,,,0,46,46,46,,,,,,,,,,,,,,,,,,,,,,,,,,,,,,,,,,,,,,,,,,,,,,,,,,,,,,,,,,,,,,,,,,,,,,,,,,,,,,,,,422.19778212500387,None,422.19778212500387,None,5.0,0.17989254200074356,422.19778212500387,None,422.19778212500387,None,,,,,,,8,2023_Jun_18_1507,working_memory,2021.2.3,None,
golf_course_195.jpg,golf_course_2.jpg,golf_course_195.jpg,right,golf_course_195.jpg,playground_54.jpg,badlands_211.jpg,mountain_92.jpg,highway_28.jpg,bridge_63.jpg,0,golf_course_2.jpg,1,golf,,,,,,,,,0,47,47,47,,,,,,,,,,,,,,,,,,,,,,,,,,,,,,,,,,,,,,,,,,,,,,,,,,,,,,,,,,,,,,,,,,,,,,,,,,,,,,,,,422.39818470799946,None,422.39818470799946,None,5.0,0.13666329201078042,422.39818470799946,None,422.39818470799946,None,,,,,,,8,2023_Jun_18_1507,working_memory,2021.2.3,None,
mountain_57.jpg,mountain_57.jpg,mountain_138.jpg,left,playground_241.jpg,golf_course_71.jpg,badlands_125.jpg,mountain_57.jpg,highway_37.jpg,bridge_68.jpg,3,mountain_138.jpg,1,mountain,,,,,,,,,0,48,48,48,,,,,,,,,,,,,,,,,,,,,,,,,,,,,,,,,,,,,,,,,,,,,,,,,,,,,,,,,,,,,,,,,,,,,,,,,,,,,,,,,422.5554189579998,None,422.5554189579998,None,5.0,0.14660120900953189,422.5554189579998,None,422.5554189579998,None,,,,,,,8,2023_Jun_18_1507,working_memory,2021.2.3,None,
bridge_108.jpg,bridge_108.jpg,bridge_116.jpg,left,golf_course_297.jpg,highway_90.jpg,badlands_81.jpg,mountain_135.jpg,bridge_108.jpg,playground_118.jpg,4,bridge_116.jpg,0,bridge,,,,,,,,,0,49,49,49,,,,,,,,,,,,,,,,,,,,,,,,,,,,,,,,,,,,,,,,,,,,,,,,,,,,,,,,,,,,,,,,,,,,,,,,,,,,,,,,,422.7224395420053,None,422.7224395420053,None,5.0,0.1638348330016015,422.7224395420053,None,422.7224395420053,None,,,,,,,8,2023_Jun_18_1507,working_memory,2021.2.3,None,
golf_course_193.jpg,golf_course_193.jpg,golf_course_235.jpg,left,mountain_306.jpg,badlands_138.jpg,golf_course_193.jpg,bridge_204.jpg,playground_132.jpg,highway_3.jpg,2,golf_course_235.jpg,0,golf,,,,,,,,,0,50,50,50,,,,,,,,,,,,,,,,,,,,,,,,,,,,,,,,,,,,,,,,,,,,,,,,,,,,,,,,,,,,,,,,,,,,,,,,,,,,,,,,,422.9070595000085,None,422.9070595000085,None,5.0,0.13597933399432804,422.9070595000085,None,422.9070595000085,None,,,,,,,8,2023_Jun_18_1507,working_memory,2021.2.3,None,
bridge_65.jpg,bridge_65.jpg,bridge_60.jpg,left,highway_31.jpg,golf_course_226.jpg,badlands_201.jpg,mountain_120.jpg,bridge_65.jpg,playground_141.jpg,4,bridge_60.jpg,1,bridge,,,,,,,,,0,51,51,51,,,,,,,,,,,,,,,,,,,,,,,,,,,,,,,,,,,,,,,,,,,,,,,,,,,,,,,,,,,,,,,,,,,,,,,,,,,,,,,,,423.0636142500007,None,423.0636142500007,None,5.0,0.14845329101081006,423.0636142500007,None,423.0636142500007,None,,,,,,,8,2023_Jun_18_1507,working_memory,2021.2.3,None,
playground_76.jpg,playground_22.jpg,playground_76.jpg,right,highway_50.jpg,playground_76.jpg,bridge_126.jpg,mountain_277.jpg,badlands_213.jpg,golf_course_288.jpg,1,playground_22.jpg,0,playground,,,,,,,,,0,52,52,52,,,,,,,,,,,,,,,,,,,,,,,,,,,,,,,,,,,,,,,,,,,,,,,,,,,,,,,,,,,,,,,,,,,,,,,,,,,,,,,,,423.23508754200884,None,423.23508754200884,None,5.0,0.3267297919956036,423.23508754200884,None,423.23508754200884,None,,,,,,,8,2023_Jun_18_1507,working_memory,2021.2.3,None,
golf_course_15.jpg,golf_course_113.jpg,golf_course_15.jpg,right,highway_18.jpg,badlands_173.jpg,bridge_24.jpg,playground_251.jpg,golf_course_15.jpg,mountain_137.jpg,4,golf_course_113.jpg,0,golf,,,,,,,,,0,53,53,53,,,,,,,,,,,,,,,,,,,,,,,,,,,,,,,,,,,,,,,,,,,,,,,,,,,,,,,,,,,,,,,,,,,,,,,,,,,,,,,,,423.5822305420006,None,423.5822305420006,None,5.0,0.19460429200262297,423.5822305420006,None,423.5822305420006,None,,,,,,,8,2023_Jun_18_1507,working_memory,2021.2.3,None,
badlands_24.jpg,badlands_53.jpg,badlands_24.jpg,right,playground_50.jpg,golf_course_72.jpg,badlands_24.jpg,highway_29.jpg,mountain_51.jpg,bridge_66.jpg,2,badlands_53.jpg,1,badlands,,,,,,,,,0,54,54,54,,,,,,,,,,,,,,,,,,,,,,,,,,,,,,,,,,,,,,,,,,,,,,,,,,,,,,,,,,,,,,,,,,,,,,,,,,,,,,,,,423.7976212920039,None,423.7976212920039,None,5.0,0.15551583300111815,423.7976212920039,None,423.7976212920039,None,,,,,,,8,2023_Jun_18_1507,working_memory,2021.2.3,None,
mountain_123.jpg,mountain_123.jpg,mountain_94.jpg,left,badlands_105.jpg,bridge_110.jpg,playground_85.jpg,highway_172.jpg,mountain_123.jpg,golf_course_162.jpg,4,mountain_94.jpg,0,mountain,,,,,,,,,0,55,55,55,,,,,,,,,,,,,,,,,,,,,,,,,,,,,,,,,,,,,,,,,,,,,,,,,,,,,,,,,,,,,,,,,,,,,,,,,,,,,,,,,423.97229612500814,None,423.97229612500814,None,5.0,0.1466511670005275,423.97229612500814,None,423.97229612500814,None,,,,,,,8,2023_Jun_18_1507,working_memory,2021.2.3,None,
bridge_191.jpg,bridge_191.jpg,bridge_184.jpg,left,playground_49.jpg,bridge_191.jpg,golf_course_3.jpg,mountain_233.jpg,highway_191.jpg,badlands_200.jpg,1,bridge_184.jpg,0,bridge,,,,,,,,,0,56,56,56,,,,,,,,,,,,,,,,,,,,,,,,,,,,,,,,,,,,,,,,,,,,,,,,,,,,,,,,,,,,,,,,,,,,,,,,,,,,,,,,,424.13754450000124,None,424.13754450000124,None,5.0,0.3303099159966223,424.13754450000124,None,424.13754450000124,None,,,,,,,8,2023_Jun_18_1507,working_memory,2021.2.3,None,
golf_course_78.jpg,golf_course_134.jpg,golf_course_78.jpg,right,playground_16.jpg,golf_course_78.jpg,bridge_254.jpg,highway_193.jpg,mountain_290.jpg,badlands_214.jpg,1,golf_course_134.jpg,0,golf,,,,,,,,,0,57,57,57,,,,,,,,,,,,,,,,,,,,,,,,,,,,,,,,,,,,,,,,,,,,,,,,,,,,,,,,,,,,,,,,,,,,,,,,,,,,,,,,,424.48697154200636,None,424.48697154200636,None,5.0,0.14826316700782627,424.48697154200636,None,424.48697154200636,None,,,,,,,8,2023_Jun_18_1507,working_memory,2021.2.3,None,
playground_117.jpg,playground_127.jpg,playground_117.jpg,right,highway_36.jpg,badlands_30.jpg,playground_117.jpg,golf_course_219.jpg,bridge_106.jpg,mountain_302.jpg,2,playground_127.jpg,1,playground,,,,,,,,,0,58,58,58,,,,,,,,,,,,,,,,,,,,,,,,,,,,,,,,,,,,,,,,,,,,,,,,,,,,,,,,,,,,,,,,,,,,,,,,,,,,,,,,,424.65503925000667,None,424.65503925000667,None,5.0,0.31293204199755564,424.65503925000667,None,424.65503925000667,None,,,,,,,8,2023_Jun_18_1507,working_memory,2021.2.3,None,
highway_415.jpg,highway_415.jpg,highway_174.jpg,left,playground_173.jpg,bridge_20.jpg,golf_course_59.jpg,highway_415.jpg,mountain_87.jpg,badlands_150.jpg,3,highway_174.jpg,1,highway,,,,,,,,,0,59,59,59,,,,,,,,,,,,,,,,,,,,,,,,,,,,,,,,,,,,,,,,,,,,,,,,,,,,,,,,,,,,,,,,,,,,,,,,,,,,,,,,,424.9867878750083,None,424.9867878750083,None,5.0,0.23134650000429247,424.9867878750083,None,424.9867878750083,None,,,,,,,8,2023_Jun_18_1507,working_memory,2021.2.3,None,
,,,,,,,,,,,,,,,,,,,,,,,,,,,,,,,,,,,,,,,,,,,,,,,,,,,,,,,,,,,,,,,,,,,,,,,,,,,,,,,,,,,,,,,,,,,,,,,,,,,,,,,,,,,,,,,,,,,,space,5.33166004200757,425.22567812500347,None,,,8,2023_Jun_18_1507,working_memory,2021.2.3,None,
,,,,,,,,,,,,,,,,,,,,,,,,,,,,,,,,,,,,,,,,,,,,,,,,,,,,,,,,,,,,,,,,,,,,,,,,,,,,,,,,,,,,,,,,,,,,,,,,,,,,,,,,,,,,,,,,,,,,,,,,425.22567812500347,None,,,,,,
