target,image1,image2,correct,background_0,background_1,background_2,background_3,background_4,background_5,target_index,selected_dist,distractor_level,category,demo_loops.thisRepN,demo_loops.thisTrialN,demo_loops.thisN,demo_loops.thisIndex,exp_loops.thisRepN,exp_loops.thisTrialN,exp_loops.thisN,exp_loops.thisIndex,exp_loops_part2.thisRepN,exp_loops_part2.thisTrialN,exp_loops_part2.thisN,exp_loops_part2.thisIndex,key_resp.keys,key_resp.started,key_resp.stopped,text_consent_form.started,text_consent_form.stopped,button.started,button.stopped,button.numClicks,button.timesOn,button.timesOff,key_resp_2.keys,key_resp_2.rt,key_resp_2.started,key_resp_2.stopped,text_instructions_first_slide.started,text_instructions_first_slide.stopped,image_0_demo.started,image_0_demo.stopped,image_1_demo.started,image_1_demo.stopped,image_2_demo.started,image_2_demo.stopped,image_3_demo.started,image_3_demo.stopped,image_4_demo.started,image_4_demo.stopped,image_5_demo.started,image_5_demo.stopped,blank_screen_demo.started,blank_screen_demo.stopped,fixation_demo.started,fixation_demo.stopped,image_left_demo.started,image_left_demo.stopped,image_right_demo.started,image_right_demo.stopped,demo_test_key_resp.keys,demo_test_key_resp.rt,demo_test_key_resp.started,demo_test_key_resp.stopped,text_4.started,text_4.stopped,key_resp_after_demo.keys,key_resp_after_demo.rt,key_resp_after_demo.started,key_resp_after_demo.stopped,text_after_demo_instr.started,text_after_demo_instr.stopped,image_0.started,image_0.stopped,image_1.started,image_1.stopped,image_2.started,image_2.stopped,image_3.started,image_3.stopped,image_4.started,image_4.stopped,image_5.started,image_5.stopped,blank_screen.started,blank_screen.stopped,fixation_encoding.started,fixation_encoding.stopped,image_left.started,image_left.stopped,image_right.started,image_right.stopped,test_key_resp.keys,test_key_resp.rt,test_key_resp.started,test_key_resp.stopped,text_6.started,text_6.stopped,text_2.started,text_2.stopped,key_resp_4.keys,key_resp_4.rt,key_resp_4.started,key_resp_4.stopped,image_left_part2.started,image_left_part2.stopped,image_right_part2.started,image_right_part2.stopped,slider_part2.response,slider_part2.rt,slider_part2.started,slider_part2.stopped,text_5.started,text_5.stopped,key_resp_last_slide.keys,key_resp_last_slide.rt,key_resp_last_slide.started,key_resp_last_slide.stopped,text_last_slide.started,text_last_slide.stopped,ID,date,expName,psychopyVersion,frameRate,
,,,,,,,,,,,,,,,,,,,,,,,,,,None,10.944274082998163,None,,,,,,,,,,,,,,,,,,,,,,,,,,,,,,,,,,,,,,,,,,,,,,,,,,,,,,,,,,,,,,,,,,,,,,,,,,,,,,,,,,,,,,,,,,,,,,dekel,2023_Jun_18_1532,working_memory,2021.2.3,None,
,,,,,,,,,,,,,,,,,,,,,,,,,,,,,10.944274082998163,None,10.944274082998163,None,1,[47.83455333400343],[47.834556583999074],space,1.486804874992231,58.77288841700647,None,,,,,,,,,,,,,,,,,,,,,,,,,,,,,,,,,,,,,,,,,,,,,,,,,,,,,,,,,,,,,,,,,,,,,,,,,,,,,,,,,,,dekel,2023_Jun_18_1532,working_memory,2021.2.3,None,
flower1.jpg,flower1.jpg,flower1_pair.jpg,left,leaf3.jpg,trail1.jpg,flower1.jpg,bird1.jpg,tree3.jpg,fence4.jpg,2,,,,0,0,0,0,,,,,,,,,,,,,,,,,,,,,,,58.77288841700647,None,60.85284004200366,61.05089374999807,61.05089374999807,61.25113408299512,61.25113408299512,61.45037320800475,61.45037320800475,61.637901958005386,61.65068487499957,61.85139424999943,61.85139424999943,62.040517125002225,62.040517125002225,None,60.36417349999829,60.85687470799894,62.997304667005665,None,62.997304667005665,None,left,1.0353087919938844,62.997304667005665,None,62.997304667005665,None,,,,,,,,,,,,,,,,,,,,,,,,,,,,,,,,,,,,,,,,,,,,,,,,,,,,,,,dekel,2023_Jun_18_1532,working_memory,2021.2.3,None,
leaf2.jpg,leaf1.jpg,leaf2.jpg,right,trail2.jpg,leaf2.jpg,bird2.jpg,tree2.jpg,fence3.jpg,flower2.jpg,1,,,,0,1,1,1,,,,,,,,,,,,,,,,,,,,,,,,,64.56838599999901,64.76325041700329,64.76325041700329,64.95838091699989,64.95838091699989,65.15883775000111,65.15883775000111,65.35979829200369,65.35979829200369,65.54640775000735,65.56503295799484,65.7658495420037,65.7658495420037,None,64.14796554199711,64.64579350000713,66.77062212499732,None,66.77062212499732,None,right,0.6547777920059161,66.77062212499732,None,66.77062212499732,None,,,,,,,,,,,,,,,,,,,,,,,,,,,,,,,,,,,,,,,,,,,,,,,,,,,,,,,dekel,2023_Jun_18_1532,working_memory,2021.2.3,None,
fence1.jpg,fence1.jpg,fence2.jpg,left,tree1.jpg,bird3.jpg,trail3.jpg,fence1.jpg,leaf4.jpg,flower3.jpg,3,,,,0,2,2,2,,,,,,,,,,,,,,,,,,,,,,,,,67.95477320799546,68.14192983300018,68.16465716699895,68.35894345800625,68.35894345800625,68.55834566699923,68.55834566699923,68.75877016699815,68.75877016699815,68.95925591699779,68.95925591699779,69.1456765000039,69.16706987499492,None,67.47958020800434,67.9709754170035,70.15915300000052,None,70.15915300000052,None,left,5.928758458001539,70.15915300000052,None,70.15915300000052,None,,,,,,,,,,,,,,,,,,,,,,,,,,,,,,,,,,,,,,,,,,,,,,,,,,,,,,,dekel,2023_Jun_18_1532,working_memory,2021.2.3,None,
,,,,,,,,,,,,,,,,,,,,,,,,,,,,,,,,,,,,,,,,,,,,,,,,,,,,,,,,,,,,,,,,,,,,space,1.4686965000000782,76.09974216700357,None,,,,,,,,,,,,,,,,,,,,,,,,,,,,,,,,,,,,,,,,,,,,,,,,,,,dekel,2023_Jun_18_1532,working_memory,2021.2.3,None,
badlands_113.jpg,badlands_225.jpg,badlands_113.jpg,right,badlands_113.jpg,mountain_102.jpg,golf_course_219.jpg,bridge_102.jpg,playground_37.jpg,highway_178.jpg,0,badlands_225.jpg,0,badlands,,,,,0,0,0,0,,,,,,,,,,,,,,,,,,,,,,,,,,,,,,,,,,,,,,,,,,,,,,,,,,,76.09974216700357,None,78.13699387499946,78.375454042005,78.39462266700866,78.640888000009,78.64698750000389,78.88821729199844,78.88821729199844,79.13400670800183,79.13400670800183,79.38303216699569,79.3895114170009,79.63669558300171,79.63669558300171,None,77.66562966699712,78.15860108300694,80.61403145799704,None,80.61403145799704,None,right,1.4832789999927627,80.61403145799704,None,80.61403145799704,None,,,,,,,,,,,,,,,,,,,,,,,dekel,2023_Jun_18_1532,working_memory,2021.2.3,None,
badlands_222.jpg,badlands_222.jpg,badlands_62.jpg,left,golf_course_269.jpg,bridge_76.jpg,mountain_135.jpg,badlands_222.jpg,highway_404.jpg,playground_78.jpg,3,badlands_62.jpg,1,badlands,,,,,0,1,1,1,,,,,,,,,,,,,,,,,,,,,,,,,,,,,,,,,,,,,,,,,,,,,,,,,,,,,82.64147487499577,82.88921908300836,82.89522408299672,83.1337225419993,83.14717966700846,83.39215695799794,83.39215695799794,83.64055024999834,83.6461696250044,83.8835485830059,83.89813874999527,84.14320662499813,84.14320662499813,None,82.16507666700636,82.65930954199575,85.14757450000616,None,85.14757450000616,None,right,2.6671451250003884,85.14757450000616,None,85.14757450000616,None,,,,,,,,,,,,,,,,,,,,,,,dekel,2023_Jun_18_1532,working_memory,2021.2.3,None,
highway_359.jpg,highway_389.jpg,highway_359.jpg,right,playground_85.jpg,highway_359.jpg,bridge_68.jpg,golf_course_226.jpg,badlands_219.jpg,mountain_40.jpg,1,highway_389.jpg,0,highway,,,,,0,2,2,2,,,,,,,,,,,,,,,,,,,,,,,,,,,,,,,,,,,,,,,,,,,,,,,,,,,,,88.3620141249994,88.60761758299486,88.61321637500077,88.85397774999728,88.85397774999728,89.0918582919985,89.11319699999876,89.35417904199858,89.35417904199858,89.59544533300505,89.61316500000248,89.85575987500488,89.85575987500488,None,87.88647687500634,88.38318008300848,90.85813550000603,None,90.85813550000603,None,right,2.961491374997422,90.85813550000603,None,90.85813550000603,None,,,,,,,,,,,,,,,,,,,,,,,dekel,2023_Jun_18_1532,working_memory,2021.2.3,None,
mountain_222.jpg,mountain_244.jpg,mountain_222.jpg,right,badlands_166.jpg,bridge_63.jpg,playground_153.jpg,mountain_222.jpg,golf_course_127.jpg,highway_42.jpg,3,mountain_244.jpg,0,mountain,,,,,0,3,3,3,,,,,,,,,,,,,,,,,,,,,,,,,,,,,,,,,,,,,,,,,,,,,,,,,,,,,94.37569300000905,94.6228506250045,94.62853087500844,94.86707279199618,94.88766820800083,95.12816079199547,95.12816079199547,95.37544262500887,95.37544262500887,95.61595870800375,95.63371779200679,95.88052849999804,95.88052849999804,None,93.89352554200741,94.39384400000563,96.86787354199623,None,96.86787354199623,None,right,2.2894682500045747,96.86787354199623,None,96.86787354199623,None,,,,,,,,,,,,,,,,,,,,,,,dekel,2023_Jun_18_1532,working_memory,2021.2.3,None,
bridge_172.jpg,bridge_163.jpg,bridge_172.jpg,right,playground_141.jpg,badlands_47.jpg,bridge_172.jpg,highway_15.jpg,mountain_206.jpg,golf_course_41.jpg,2,bridge_163.jpg,1,bridge,,,,,0,4,4,4,,,,,,,,,,,,,,,,,,,,,,,,,,,,,,,,,,,,,,,,,,,,,,,,,,,,,99.7018245000072,99.95788641700346,99.97468304200447,100.22456795800827,100.22456795800827,100.474455167001,100.474455167001,100.72445079199679,100.72445079199679,100.97434541699477,100.97434541699477,101.22443375000148,101.22443375000148,None,99.22515933300019,99.71786733300542,102.2058010000037,None,102.2058010000037,None,right,0.6099945000023581,102.2058010000037,None,102.2058010000037,None,,,,,,,,,,,,,,,,,,,,,,,dekel,2023_Jun_18_1532,working_memory,2021.2.3,None,
playground_145.jpg,playground_242.jpg,playground_145.jpg,right,playground_145.jpg,badlands_171.jpg,highway_33.jpg,golf_course_105.jpg,bridge_143.jpg,mountain_198.jpg,0,playground_242.jpg,1,playground,,,,,0,5,5,5,,,,,,,,,,,,,,,,,,,,,,,,,,,,,,,,,,,,,,,,,,,,,,,,,,,,,103.36985899999854,103.61307837499771,103.61307837499771,103.85441279200313,103.86789908300852,104.10437891700712,104.11875725000573,104.35937945800833,104.35937945800833,104.59927295800298,104.6185979169968,104.86692975000187,104.86692975000187,None,102.88397320800868,103.37370591700892,105.86883175000548,None,105.86883175000548,None,left,1.6030993750027847,105.86883175000548,None,105.86883175000548,None,,,,,,,,,,,,,,,,,,,,,,,dekel,2023_Jun_18_1532,working_memory,2021.2.3,None,
highway_245.jpg,highway_245.jpg,highway_134.jpg,left,badlands_55.jpg,playground_258.jpg,bridge_124.jpg,highway_245.jpg,mountain_92.jpg,golf_course_137.jpg,3,highway_134.jpg,0,highway,,,,,0,6,6,6,,,,,,,,,,,,,,,,,,,,,,,,,,,,,,,,,,,,,,,,,,,,,,,,,,,,,108.01731199999631,108.26364058299805,108.26364058299805,108.50018708300195,108.51979066700733,108.76158420799766,108.76158420799766,109.000398958,109.02141579199815,109.2673519999953,109.2673519999953,109.51084566699865,109.51084566699865,None,107.53702837500896,108.03302529199573,110.51793041700148,None,110.51793041700148,None,right,1.3792333329911344,110.51793041700148,None,110.51793041700148,None,,,,,,,,,,,,,,,,,,,,,,,dekel,2023_Jun_18_1532,working_memory,2021.2.3,None,
mountain_293.jpg,mountain_293.jpg,mountain_47.jpg,left,mountain_293.jpg,badlands_81.jpg,highway_342.jpg,bridge_64.jpg,golf_course_144.jpg,playground_195.jpg,0,mountain_47.jpg,1,mountain,,,,,0,7,7,7,,,,,,,,,,,,,,,,,,,,,,,,,,,,,,,,,,,,,,,,,,,,,,,,,,,,,112.43992200000503,112.68053174999659,112.69954420800786,112.93920849999995,112.93920849999995,113.17997691700293,113.19724137500452,113.4458593330055,113.45141270800377,113.69984179199673,113.69984179199673,113.94114816699584,113.94114816699584,None,111.96803358300531,112.45867583299696,114.9384764169954,None,114.9384764169954,None,right,0.7108379999990575,114.9384764169954,None,114.9384764169954,None,,,,,,,,,,,,,,,,,,,,,,,dekel,2023_Jun_18_1532,working_memory,2021.2.3,None,
bridge_146.jpg,bridge_121.jpg,bridge_146.jpg,right,golf_course_342.jpg,bridge_146.jpg,mountain_268.jpg,playground_227.jpg,highway_246.jpg,badlands_213.jpg,1,bridge_121.jpg,1,bridge,,,,,0,8,8,8,,,,,,,,,,,,,,,,,,,,,,,,,,,,,,,,,,,,,,,,,,,,,,,,,,,,,116.18025124999986,116.4280955419963,116.43373833299847,116.67270737500803,116.68615041700832,116.93094079200819,116.93094079200819,117.1781324580079,117.18355520800105,117.42249195800105,117.43616700000712,117.67510254200897,117.67961258300056,None,115.70905704199686,116.19518704200163,118.6870087080024,None,118.6870087080024,None,right,0.908176833007019,118.6870087080024,None,118.6870087080024,None,,,,,,,,,,,,,,,,,,,,,,,dekel,2023_Jun_18_1532,working_memory,2021.2.3,None,
playground_257.jpg,playground_257.jpg,playground_215.jpg,left,highway_287.jpg,badlands_174.jpg,mountain_137.jpg,playground_257.jpg,golf_course_307.jpg,bridge_4.jpg,3,playground_215.jpg,1,playground,,,,,0,9,9,9,,,,,,,,,,,,,,,,,,,,,,,,,,,,,,,,,,,,,,,,,,,,,,,,,,,,,120.13309404200118,120.38510112500808,120.38510112500808,120.6237709170091,120.64237020800647,120.88449075000244,120.88449075000244,121.12391008299892,121.14345720800338,121.39083499999833,121.39083499999833,121.63321241700032,121.63321241700032,None,119.6581899169978,120.1537466669979,122.63827570799913,None,122.63827570799913,None,left,1.4939028330118163,122.63827570799913,None,122.63827570799913,None,,,,,,,,,,,,,,,,,,,,,,,dekel,2023_Jun_18_1532,working_memory,2021.2.3,None,
mountain_230.jpg,mountain_230.jpg,mountain_184.jpg,left,badlands_105.jpg,bridge_167.jpg,playground_49.jpg,highway_274.jpg,mountain_230.jpg,golf_course_338.jpg,4,mountain_184.jpg,0,mountain,,,,,0,10,10,10,,,,,,,,,,,,,,,,,,,,,,,,,,,,,,,,,,,,,,,,,,,,,,,,,,,,,124.66714545800642,124.90793808300805,124.92571133299498,125.17441858300299,125.17441858300299,125.42001679200621,125.42001679200621,125.66048204200342,125.68023141700542,125.9258203329955,125.9258203329955,126.16758295800537,126.16758295800537,None,124.19487754200236,124.68242991699663,127.17802600000869,None,127.17802600000869,None,right,1.6334712079988094,127.17802600000869,None,127.17802600000869,None,,,,,,,,,,,,,,,,,,,,,,,dekel,2023_Jun_18_1532,working_memory,2021.2.3,None,
playground_10.jpg,playground_122.jpg,playground_10.jpg,right,golf_course_166.jpg,badlands_217.jpg,bridge_152.jpg,highway_147.jpg,playground_10.jpg,mountain_250.jpg,4,playground_122.jpg,0,playground,,,,,0,11,11,11,,,,,,,,,,,,,,,,,,,,,,,,,,,,,,,,,,,,,,,,,,,,,,,,,,,,,129.34596550000424,129.59357583300152,129.59918820799794,129.83785033300228,129.8564035419986,130.09654254199995,130.09654254199995,130.3449559169967,130.35056054200686,130.59069091700076,130.59602825000184,130.84232495800825,130.84783491700364,None,128.8749165830086,129.36417050000455,131.85287925000011,None,131.85287925000011,None,right,2.3396063330001198,131.85287925000011,None,131.85287925000011,None,,,,,,,,,,,,,,,,,,,,,,,dekel,2023_Jun_18_1532,working_memory,2021.2.3,None,
highway_177.jpg,highway_87.jpg,highway_177.jpg,right,mountain_146.jpg,golf_course_282.jpg,badlands_125.jpg,playground_222.jpg,highway_177.jpg,bridge_133.jpg,4,highway_87.jpg,0,highway,,,,,0,12,12,12,,,,,,,,,,,,,,,,,,,,,,,,,,,,,,,,,,,,,,,,,,,,,,,,,,,,,134.72801875000005,134.9732997079991,134.97925229200337,135.21640912500152,135.23377824999625,135.4776238330087,135.4776238330087,135.71700791700277,135.7377313330071,135.9793828749971,135.9793828749971,136.2193104170001,136.2402346250019,None,134.2546719170059,134.7513076250034,137.22709475000738,None,137.22709475000738,None,right,1.5235994160029804,137.22709475000738,None,137.22709475000738,None,,,,,,,,,,,,,,,,,,,,,,,dekel,2023_Jun_18_1532,working_memory,2021.2.3,None,
badlands_21.jpg,badlands_98.jpg,badlands_21.jpg,right,highway_251.jpg,playground_248.jpg,mountain_51.jpg,badlands_21.jpg,golf_course_253.jpg,bridge_24.jpg,3,badlands_98.jpg,1,badlands,,,,,0,13,13,13,,,,,,,,,,,,,,,,,,,,,,,,,,,,,,,,,,,,,,,,,,,,,,,,,,,,,139.2841568330041,139.5342994579987,139.5342994579987,139.78196162500535,139.78806012500718,140.0289848329994,140.03438804199686,140.28254850000667,140.2890945830004,140.52512941700115,140.54531587500242,140.7916104169999,140.7916104169999,None,138.81389704199682,139.3137812920031,141.78822804200172,None,141.78822804200172,None,right,1.6534670409891987,141.78822804200172,None,141.78822804200172,None,,,,,,,,,,,,,,,,,,,,,,,dekel,2023_Jun_18_1532,working_memory,2021.2.3,None,
playground_131.jpg,playground_131.jpg,playground_43.jpg,left,bridge_224.jpg,highway_295.jpg,golf_course_308.jpg,playground_131.jpg,mountain_43.jpg,badlands_30.jpg,3,playground_43.jpg,0,playground,,,,,0,14,14,14,,,,,,,,,,,,,,,,,,,,,,,,,,,,,,,,,,,,,,,,,,,,,,,,,,,,,143.9873205830081,144.23737312499725,144.23737312499725,144.47497429199575,144.49450716700812,144.73393183300504,144.73393183300504,144.97520616700058,144.9964905000088,145.23608329199487,145.23608329199487,145.4871726249985,145.4871726249985,None,143.51287962500646,144.00804666700424,146.49270737500046,None,146.49270737500046,None,left,1.154655874997843,146.49270737500046,None,146.49270737500046,None,,,,,,,,,,,,,,,,,,,,,,,dekel,2023_Jun_18_1532,working_memory,2021.2.3,None,
bridge_256.jpg,bridge_54.jpg,bridge_256.jpg,right,playground_30.jpg,mountain_76.jpg,highway_269.jpg,bridge_256.jpg,golf_course_138.jpg,badlands_106.jpg,3,bridge_54.jpg,0,bridge,,,,,0,15,15,15,,,,,,,,,,,,,,,,,,,,,,,,,,,,,,,,,,,,,,,,,,,,,,,,,,,,,148.1880289170076,148.43087758299953,148.44472200000018,148.68654237499868,148.68654237499868,148.93600583300577,148.94165862500085,149.1826607920084,149.18847408299916,149.4345895419974,149.43978670799697,149.67861762500252,149.70153937500436,None,147.71700062500895,148.2077493329998,150.69158199999947,None,150.69158199999947,None,right,1.5995680420019198,150.69158199999947,None,150.69158199999947,None,,,,,,,,,,,,,,,,,,,,,,,dekel,2023_Jun_18_1532,working_memory,2021.2.3,None,
badlands_52.jpg,badlands_52.jpg,badlands_94.jpg,left,badlands_52.jpg,playground_176.jpg,highway_28.jpg,golf_course_212.jpg,bridge_106.jpg,mountain_38.jpg,0,badlands_94.jpg,0,badlands,,,,,0,16,16,16,,,,,,,,,,,,,,,,,,,,,,,,,,,,,,,,,,,,,,,,,,,,,,,,,,,,,152.84697266700095,153.09110345800582,153.09110345800582,153.32958195800893,153.3489024580049,153.59454762500536,153.59454762500536,153.84067279200826,153.84067279200826,154.0792613329977,154.09827683299955,154.33839095800067,154.33839095800067,None,152.3609850829962,152.85973816699698,155.34307595800783,None,155.34307595800783,None,left,3.9307426669984125,155.34307595800783,None,155.34307595800783,None,,,,,,,,,,,,,,,,,,,,,,,dekel,2023_Jun_18_1532,working_memory,2021.2.3,None,
badlands_23.jpg,badlands_23.jpg,badlands_114.jpg,left,mountain_120.jpg,bridge_190.jpg,playground_204.jpg,badlands_23.jpg,golf_course_133.jpg,highway_29.jpg,3,badlands_114.jpg,0,badlands,,,,,0,17,17,17,,,,,,,,,,,,,,,,,,,,,,,,,,,,,,,,,,,,,,,,,,,,,,,,,,,,,159.82446087499557,160.06481799999892,160.07832395800506,160.31455683300737,160.33064300000842,160.57658366700343,160.57658366700343,160.81436420799582,160.82809624999936,161.07533175000572,161.07533175000572,161.31247895800334,161.3339389169996,None,159.34331424999982,159.8411084170075,162.32605425000656,None,162.32605425000656,None,right,4.6396788749989355,162.32605425000656,None,162.32605425000656,None,,,,,,,,,,,,,,,,,,,,,,,dekel,2023_Jun_18_1532,working_memory,2021.2.3,None,
mountain_101.jpg,mountain_101.jpg,mountain_171.jpg,left,bridge_266.jpg,highway_305.jpg,playground_26.jpg,golf_course_196.jpg,mountain_101.jpg,badlands_104.jpg,4,mountain_171.jpg,0,mountain,,,,,0,18,18,18,,,,,,,,,,,,,,,,,,,,,,,,,,,,,,,,,,,,,,,,,,,,,,,,,,,,,167.51291387500532,167.76065858300717,167.76614379200328,168.01491529200575,168.01491529200575,168.25415266699565,168.26752291699813,168.50776133300678,168.50776133300678,168.7460390000051,168.76492499999586,169.00819170799514,169.00819170799514,None,167.03328899999906,167.52915554199717,170.00513375000446,None,170.00513375000446,None,left,1.5465813749906374,170.00513375000446,None,170.00513375000446,None,,,,,,,,,,,,,,,,,,,,,,,dekel,2023_Jun_18_1532,working_memory,2021.2.3,None,
badlands_221.jpg,badlands_207.jpg,badlands_221.jpg,right,highway_78.jpg,mountain_22.jpg,playground_249.jpg,badlands_221.jpg,bridge_158.jpg,golf_course_218.jpg,3,badlands_207.jpg,1,badlands,,,,,0,19,19,19,,,,,,,,,,,,,,,,,,,,,,,,,,,,,,,,,,,,,,,,,,,,,,,,,,,,,172.09592995799903,172.34531791700283,172.35094062500866,172.59701658300764,172.59701658300764,172.83839091700793,172.85093079200306,173.0876861249999,173.0876861249999,173.33544141700258,173.3417049999989,173.581197624997,173.6019687920052,None,171.61695399999735,172.11539054200693,174.59604200000467,None,174.59604200000467,None,right,12.781585999997333,174.59604200000467,None,174.59604200000467,None,,,,,,,,,,,,,,,,,,,,,,,dekel,2023_Jun_18_1532,working_memory,2021.2.3,None,
mountain_154.jpg,mountain_131.jpg,mountain_154.jpg,right,golf_course_3.jpg,playground_54.jpg,bridge_118.jpg,highway_413.jpg,mountain_154.jpg,badlands_129.jpg,4,mountain_131.jpg,0,mountain,,,,,0,20,20,20,,,,,,,,,,,,,,,,,,,,,,,,,,,,,,,,,,,,,,,,,,,,,,,,,,,,,187.91692645799776,188.16340754200064,188.16857300000265,188.41530112500186,188.4207380000007,188.65834224999708,188.67851425000117,188.91746808300377,188.91746808300377,189.16486679200898,189.17026954199537,189.42200379200222,189.42200379200222,None,187.44500945799518,187.93372058300884,190.41866624999966,None,190.41866624999966,None,left,2.178951459005475,190.41866624999966,None,190.41866624999966,None,,,,,,,,,,,,,,,,,,,,,,,dekel,2023_Jun_18_1532,working_memory,2021.2.3,None,
bridge_91.jpg,bridge_82.jpg,bridge_91.jpg,right,badlands_20.jpg,mountain_45.jpg,golf_course_164.jpg,bridge_91.jpg,playground_98.jpg,highway_199.jpg,3,bridge_82.jpg,1,bridge,,,,,0,21,21,21,,,,,,,,,,,,,,,,,,,,,,,,,,,,,,,,,,,,,,,,,,,,,,,,,,,,,193.15000866699847,193.39253574999748,193.39253574999748,193.63758195799892,193.65249720800784,193.89115170799778,193.89115170799778,194.12968500000716,194.14784491699538,194.38748041700455,194.40415712499816,194.65011450000748,194.65011450000748,None,192.6672189170058,193.1541419999994,195.6394347500027,None,195.6394347500027,None,right,0.9717188750073547,195.6394347500027,None,195.6394347500027,None,,,,,,,,,,,,,,,,,,,,,,,dekel,2023_Jun_18_1532,working_memory,2021.2.3,None,
highway_273.jpg,highway_171.jpg,highway_273.jpg,right,badlands_183.jpg,mountain_253.jpg,bridge_204.jpg,playground_68.jpg,highway_273.jpg,golf_course_42.jpg,4,highway_171.jpg,1,highway,,,,,0,22,22,22,,,,,,,,,,,,,,,,,,,,,,,,,,,,,,,,,,,,,,,,,,,,,,,,,,,,,197.1595632499957,197.40919316699728,197.40919316699728,197.64943383300852,197.64943383300852,197.8961154580029,197.90960116700444,198.14958370800014,198.14958370800014,198.3913305419992,198.40905879200727,198.65121174999513,198.65121174999513,None,196.6773605000053,197.1777980420011,199.64899825000612,None,199.64899825000612,None,right,0.9509950829960871,199.64899825000612,None,199.64899825000612,None,,,,,,,,,,,,,,,,,,,,,,,dekel,2023_Jun_18_1532,working_memory,2021.2.3,None,
playground_60.jpg,playground_244.jpg,playground_60.jpg,right,golf_course_120.jpg,playground_60.jpg,mountain_88.jpg,bridge_169.jpg,highway_18.jpg,badlands_80.jpg,1,playground_244.jpg,1,playground,,,,,0,23,23,23,,,,,,,,,,,,,,,,,,,,,,,,,,,,,,,,,,,,,,,,,,,,,,,,,,,,,201.14813216699986,201.39909612499468,201.39909612499468,201.63845949999813,201.63845949999813,201.88688062499568,201.8928739999974,202.1330255829962,202.13818591700692,202.3803584999987,202.3989986670058,202.64071474999946,202.64071474999946,None,200.668511958007,201.16690399999788,203.64284041700012,None,203.64284041700012,None,left,1.1269926660024794,203.64284041700012,None,203.64284041700012,None,,,,,,,,,,,,,,,,,,,,,,,dekel,2023_Jun_18_1532,working_memory,2021.2.3,None,
golf_course_217.jpg,golf_course_262.jpg,golf_course_217.jpg,right,mountain_166.jpg,bridge_218.jpg,golf_course_217.jpg,highway_50.jpg,playground_64.jpg,badlands_157.jpg,2,golf_course_262.jpg,1,golf,,,,,0,24,24,24,,,,,,,,,,,,,,,,,,,,,,,,,,,,,,,,,,,,,,,,,,,,,,,,,,,,,205.31361416699656,205.5581377500057,205.5581377500057,205.80350495800667,205.80857725000533,206.0542467500054,206.059437332995,206.30801633300143,206.31204545800574,206.56144304199552,206.56144304199552,206.81252154200047,206.81252154200047,None,204.83800637500826,205.33672012500756,207.8137041250011,None,207.8137041250011,None,right,6.309403000006569,207.8137041250011,None,207.8137041250011,None,,,,,,,,,,,,,,,,,,,,,,,dekel,2023_Jun_18_1532,working_memory,2021.2.3,None,
playground_240.jpg,playground_40.jpg,playground_240.jpg,right,golf_course_128.jpg,playground_240.jpg,badlands_60.jpg,mountain_228.jpg,bridge_62.jpg,highway_58.jpg,1,playground_40.jpg,1,playground,,,,,0,25,25,25,,,,,,,,,,,,,,,,,,,,,,,,,,,,,,,,,,,,,,,,,,,,,,,,,,,,,214.665161833007,214.91141970800527,214.91704233300698,215.1633945000067,215.1633945000067,215.41202299999713,215.41790429200046,215.65616120799677,215.67567833300564,215.91670337499818,215.91670337499818,216.1542837080051,216.17481287500414,None,214.1900975000026,214.68376870799693,217.16762525000377,None,217.16762525000377,None,right,1.8285327089979546,217.16762525000377,None,217.16762525000377,None,,,,,,,,,,,,,,,,,,,,,,,dekel,2023_Jun_18_1532,working_memory,2021.2.3,None,
bridge_202.jpg,bridge_202.jpg,bridge_31.jpg,left,bridge_202.jpg,highway_290.jpg,playground_120.jpg,badlands_170.jpg,mountain_290.jpg,golf_course_67.jpg,0,bridge_31.jpg,0,bridge,,,,,0,26,26,26,,,,,,,,,,,,,,,,,,,,,,,,,,,,,,,,,,,,,,,,,,,,,,,,,,,,,219.5377489579987,219.77919033300714,219.77919033300714,220.02730091700505,220.0329260419967,220.27099520800402,220.28941525000846,220.52996108299703,220.52996108299703,220.77644654200412,220.78183287499996,221.0240432080027,221.0308046249993,None,219.05725762499787,219.5534328329959,222.0338311670057,None,222.0338311670057,None,left,0.8577804579981603,222.0338311670057,None,222.0338311670057,None,,,,,,,,,,,,,,,,,,,,,,,dekel,2023_Jun_18_1532,working_memory,2021.2.3,None,
golf_course_331.jpg,golf_course_331.jpg,golf_course_114.jpg,left,highway_3.jpg,badlands_79.jpg,bridge_234.jpg,golf_course_331.jpg,playground_42.jpg,mountain_35.jpg,3,golf_course_114.jpg,0,golf,,,,,0,27,27,27,,,,,,,,,,,,,,,,,,,,,,,,,,,,,,,,,,,,,,,,,,,,,,,,,,,,,223.4282938749966,223.67906700000458,223.67906700000458,223.91707637500076,223.93600499999593,224.17565216700314,224.17565216700314,224.41669445800653,224.43679712500307,224.67526370800624,224.67526370800624,224.92350758300745,224.92796654200356,None,222.9527674169949,223.45179383299546,225.9276177080028,None,225.9276177080028,None,left,1.2038850829994772,225.9276177080028,None,225.9276177080028,None,,,,,,,,,,,,,,,,,,,,,,,dekel,2023_Jun_18_1532,working_memory,2021.2.3,None,
badlands_70.jpg,badlands_119.jpg,badlands_70.jpg,right,playground_84.jpg,badlands_70.jpg,golf_course_194.jpg,highway_31.jpg,bridge_164.jpg,mountain_41.jpg,1,badlands_119.jpg,1,badlands,,,,,0,28,28,28,,,,,,,,,,,,,,,,,,,,,,,,,,,,,,,,,,,,,,,,,,,,,,,,,,,,,227.67379108299792,227.92104845799622,227.92104845799622,228.16660191700794,228.16660191700794,228.4136839999992,228.41660129200318,228.65351079200627,228.67235266699572,228.91200212499825,228.917313708007,229.16643970800214,229.17325641700882,None,227.1937729170022,227.68302820800454,230.17606279200118,None,230.17606279200118,None,left,1.7008405420056079,230.17606279200118,None,230.17606279200118,None,,,,,,,,,,,,,,,,,,,,,,,dekel,2023_Jun_18_1532,working_memory,2021.2.3,None,
highway_156.jpg,highway_156.jpg,highway_160.jpg,left,badlands_10.jpg,highway_156.jpg,mountain_87.jpg,golf_course_221.jpg,playground_110.jpg,bridge_212.jpg,1,highway_160.jpg,0,highway,,,,,0,29,29,29,,,,,,,,,,,,,,,,,,,,,,,,,,,,,,,,,,,,,,,,,,,,,,,,,,,,,232.42114529199898,232.66509150000638,232.67875391700363,232.92530812500627,232.92530812500627,233.16405741700146,233.17775058299594,233.42350062500918,233.42350062500918,233.66288450000866,233.6801178750029,233.9213800830039,233.9213800830039,None,231.9446367920027,232.43787858300493,234.92219608300366,None,234.92219608300366,None,left,1.2840992089913925,234.92219608300366,None,234.92219608300366,None,,,,,,,,,,,,,,,,,,,,,,,dekel,2023_Jun_18_1532,working_memory,2021.2.3,None,
golf_course_309.jpg,golf_course_209.jpg,golf_course_309.jpg,right,golf_course_309.jpg,bridge_142.jpg,mountain_143.jpg,highway_101.jpg,badlands_9.jpg,playground_118.jpg,0,golf_course_209.jpg,1,golf,,,,,0,30,30,30,,,,,,,,,,,,,,,,,,,,,,,,,,,,,,,,,,,,,,,,,,,,,,,,,,,,,236.74640550000186,236.98844066700258,237.00439245799498,237.24614579199988,237.24614579199988,237.4949178329989,237.5003507079964,237.74112816700654,237.74617029199726,237.9948764169967,238.00028287500027,238.2497088329983,238.2497088329983,None,236.2747740420018,236.76258179200522,239.24555691699788,None,239.24555691699788,None,right,2.0154050000128336,239.24555691699788,None,239.24555691699788,None,,,,,,,,,,,,,,,,,,,,,,,dekel,2023_Jun_18_1532,working_memory,2021.2.3,None,
bridge_250.jpg,bridge_134.jpg,bridge_250.jpg,right,golf_course_179.jpg,mountain_233.jpg,bridge_250.jpg,playground_154.jpg,highway_399.jpg,badlands_173.jpg,2,bridge_134.jpg,0,bridge,,,,,0,31,31,31,,,,,,,,,,,,,,,,,,,,,,,,,,,,,,,,,,,,,,,,,,,,,,,,,,,,,241.80442324999603,242.0470601249981,242.0470601249981,242.30015654199815,242.30015654199815,242.53709391699522,242.5586838330055,242.80830841700663,242.80830841700663,243.05022970799473,243.05022970799473,243.29099916700216,243.29709575000743,None,241.32515554199927,241.82415554199542,244.30449012499594,None,244.30449012499594,None,left,1.4981930829962948,244.30449012499594,None,244.30449012499594,None,,,,,,,,,,,,,,,,,,,,,,,dekel,2023_Jun_18_1532,working_memory,2021.2.3,None,
golf_course_214.jpg,golf_course_214.jpg,golf_course_317.jpg,left,highway_313.jpg,badlands_128.jpg,mountain_251.jpg,golf_course_214.jpg,playground_33.jpg,bridge_140.jpg,3,golf_course_317.jpg,1,golf,,,,,0,32,32,32,,,,,,,,,,,,,,,,,,,,,,,,,,,,,,,,,,,,,,,,,,,,,,,,,,,,,246.33765533300175,246.58389604200784,246.58657166700868,246.82890462499927,246.84337191699888,247.08436233300017,247.08436233300017,247.32441545800248,247.34300658300344,247.58739062500536,247.58739062500536,247.83160179200058,247.83778091700515,None,245.86393091699574,246.35466641699895,248.8394952499948,None,248.8394952499948,None,right,4.674536417005584,248.8394952499948,None,248.8394952499948,None,,,,,,,,,,,,,,,,,,,,,,,dekel,2023_Jun_18_1532,working_memory,2021.2.3,None,
playground_219.jpg,playground_21.jpg,playground_219.jpg,right,playground_219.jpg,bridge_193.jpg,highway_81.jpg,mountain_309.jpg,golf_course_199.jpg,badlands_201.jpg,0,playground_21.jpg,0,playground,,,,,0,33,33,33,,,,,,,,,,,,,,,,,,,,,,,,,,,,,,,,,,,,,,,,,,,,,,,,,,,,,254.06699962500716,254.3112379170052,254.3112379170052,254.55033391699544,254.56838887500635,254.80929529199784,254.80929529199784,255.05524458299624,255.0590316250018,255.30341837499873,255.32293954200577,255.57083312500617,255.57083312500617,None,253.58697649999522,254.08254562500224,256.5592593330075,None,256.5592593330075,None,left,0.8442533329944126,256.5592593330075,None,256.5592593330075,None,,,,,,,,,,,,,,,,,,,,,,,dekel,2023_Jun_18_1532,working_memory,2021.2.3,None,
bridge_128.jpg,bridge_244.jpg,bridge_128.jpg,right,bridge_128.jpg,golf_course_33.jpg,mountain_160.jpg,highway_76.jpg,playground_14.jpg,badlands_67.jpg,0,bridge_244.jpg,1,bridge,,,,,0,34,34,34,,,,,,,,,,,,,,,,,,,,,,,,,,,,,,,,,,,,,,,,,,,,,,,,,,,,,257.94741787499515,258.1878330000036,258.1878330000036,258.43498841700784,258.43498841700784,258.67554820800433,258.69422766700154,258.93478458300524,258.93478458300524,259.1802800419973,259.18547987499915,259.42530533300305,259.4426395000046,None,257.4661149580061,257.96479174999695,260.4420487919997,None,260.4420487919997,None,right,1.2065132909920067,260.4420487919997,None,260.4420487919997,None,,,,,,,,,,,,,,,,,,,,,,,dekel,2023_Jun_18_1532,working_memory,2021.2.3,None,
highway_209.jpg,highway_209.jpg,highway_314.jpg,left,playground_47.jpg,bridge_1.jpg,highway_209.jpg,badlands_72.jpg,mountain_19.jpg,golf_course_288.jpg,2,highway_314.jpg,0,highway,,,,,0,35,35,35,,,,,,,,,,,,,,,,,,,,,,,,,,,,,,,,,,,,,,,,,,,,,,,,,,,,,262.19972954200057,262.43934866700147,262.45322408300126,262.70057062500564,262.70057062500564,262.94736358300725,262.94736358300725,263.1955052919948,263.1955052919948,263.44405854200886,263.4499156670063,263.68929533299524,263.70294520800235,None,261.71871549999923,262.216976124997,264.6968686670007,None,264.6968686670007,None,left,1.5743357089959318,264.6968686670007,None,264.6968686670007,None,,,,,,,,,,,,,,,,,,,,,,,dekel,2023_Jun_18_1532,working_memory,2021.2.3,None,
playground_144.jpg,playground_137.jpg,playground_144.jpg,right,mountain_62.jpg,badlands_6.jpg,bridge_86.jpg,golf_course_102.jpg,playground_144.jpg,highway_83.jpg,4,playground_137.jpg,0,playground,,,,,0,36,36,36,,,,,,,,,,,,,,,,,,,,,,,,,,,,,,,,,,,,,,,,,,,,,,,,,,,,,266.8170315000025,267.0623009999981,267.0623009999981,267.3000302500004,267.3205937080056,267.55976370800636,267.55976370800636,267.8057637919992,267.8111949580052,268.05060237500584,268.06953062499815,268.31096641700424,268.31096641700424,None,266.3369512920035,266.8331652080087,269.3224507499981,None,269.3224507499981,None,left,1.7795630420005182,269.3224507499981,None,269.3224507499981,None,,,,,,,,,,,,,,,,,,,,,,,dekel,2023_Jun_18_1532,working_memory,2021.2.3,None,
mountain_110.jpg,mountain_110.jpg,mountain_157.jpg,left,playground_55.jpg,golf_course_313.jpg,badlands_215.jpg,mountain_110.jpg,highway_107.jpg,bridge_156.jpg,3,mountain_157.jpg,0,mountain,,,,,0,37,37,37,,,,,,,,,,,,,,,,,,,,,,,,,,,,,,,,,,,,,,,,,,,,,,,,,,,,,271.6499960000074,271.89935925000464,271.9053383749997,272.1520555419993,272.1520555419993,272.4021502920077,272.4021502920077,272.6491041249974,272.655146582998,272.9029701249965,272.9029701249965,273.14154533299734,273.15582733300107,None,271.17270624999946,271.66715966700576,274.1409376250085,None,274.1409376250085,None,right,1.1706493329984369,274.1409376250085,None,274.1409376250085,None,,,,,,,,,,,,,,,,,,,,,,,dekel,2023_Jun_18_1532,working_memory,2021.2.3,None,
highway_394.jpg,highway_204.jpg,highway_394.jpg,right,playground_132.jpg,bridge_110.jpg,golf_course_116.jpg,badlands_200.jpg,highway_394.jpg,mountain_192.jpg,4,highway_204.jpg,0,highway,,,,,0,38,38,38,,,,,,,,,,,,,,,,,,,,,,,,,,,,,,,,,,,,,,,,,,,,,,,,,,,,,275.8419363330031,276.0903887500026,276.09605791700596,276.3370884169999,276.34253733299556,276.58357712499856,276.6000650420028,276.8486280829966,276.85429437500716,277.09457575000124,277.09457575000124,277.33277833300235,277.3542434999981,None,275.37266991700744,275.87249137500476,278.34452779199637,None,278.34452779199637,None,right,2.444187625005725,278.34452779199637,None,278.34452779199637,None,,,,,,,,,,,,,,,,,,,,,,,dekel,2023_Jun_18_1532,working_memory,2021.2.3,None,
golf_course_87.jpg,golf_course_130.jpg,golf_course_87.jpg,right,highway_191.jpg,badlands_54.jpg,playground_61.jpg,mountain_169.jpg,golf_course_87.jpg,bridge_52.jpg,4,golf_course_130.jpg,0,golf,,,,,0,39,39,39,,,,,,,,,,,,,,,,,,,,,,,,,,,,,,,,,,,,,,,,,,,,,,,,,,,,,281.329963917,281.57587975000206,281.5812708750018,281.8207865419972,281.83524962500087,282.0743752080016,282.0743752080016,282.3140119580057,282.33028204200673,282.5708242499968,282.5837100829958,282.8251704580034,282.8251704580034,None,280.852444958,281.34503475000383,283.8294988330017,None,283.8294988330017,None,right,1.465122124995105,283.8294988330017,None,283.8294988330017,None,,,,,,,,,,,,,,,,,,,,,,,dekel,2023_Jun_18_1532,working_memory,2021.2.3,None,
mountain_156.jpg,mountain_156.jpg,mountain_295.jpg,left,mountain_156.jpg,badlands_175.jpg,playground_251.jpg,bridge_45.jpg,golf_course_316.jpg,highway_268.jpg,0,mountain_295.jpg,1,mountain,,,,,0,40,40,40,,,,,,,,,,,,,,,,,,,,,,,,,,,,,,,,,,,,,,,,,,,,,,,,,,,,,285.8396970419999,286.0864543750067,286.0864543750067,286.3339821670088,286.3339821670088,286.5729609580012,286.59226916699845,286.8339494170068,286.8339494170068,287.08014125000045,287.08014125000045,287.32111733300553,287.34050508300425,None,285.3585588749993,285.8582510420092,288.3369619169971,None,288.3369619169971,None,right,2.0594821669947123,288.3369619169971,None,288.3369619169971,None,,,,,,,,,,,,,,,,,,,,,,,dekel,2023_Jun_18_1532,working_memory,2021.2.3,None,
badlands_137.jpg,badlands_137.jpg,badlands_139.jpg,left,mountain_29.jpg,playground_184.jpg,badlands_137.jpg,bridge_225.jpg,highway_335.jpg,golf_course_291.jpg,2,badlands_139.jpg,1,badlands,,,,,0,41,41,41,,,,,,,,,,,,,,,,,,,,,,,,,,,,,,,,,,,,,,,,,,,,,,,,,,,,,290.9378061669995,291.1848614580085,291.1902599169989,291.42945316700207,291.44290666699817,291.6884460000001,291.6884460000001,291.936472166999,291.9420686670055,292.18086170799506,292.19472600000154,292.43573437500163,292.43573437500163,None,290.465503792002,290.9558362079988,293.44102974999987,None,293.44102974999987,None,right,3.303317291996791,293.44102974999987,None,293.44102974999987,None,,,,,,,,,,,,,,,,,,,,,,,dekel,2023_Jun_18_1532,working_memory,2021.2.3,None,
golf_course_188.jpg,golf_course_188.jpg,golf_course_160.jpg,left,highway_288.jpg,golf_course_188.jpg,playground_74.jpg,bridge_126.jpg,mountain_226.jpg,badlands_26.jpg,1,golf_course_160.jpg,1,golf,,,,,0,42,42,42,,,,,,,,,,,,,,,,,,,,,,,,,,,,,,,,,,,,,,,,,,,,,,,,,,,,,297.29442679199565,297.5445191250037,297.5445191250037,297.78646874999686,297.78646874999686,298.0364588329976,298.0364588329976,298.27772050000203,298.2967854169983,298.54283312500047,298.54283312500047,298.7904197500029,298.79678274999605,None,296.8139010419982,297.3110787500045,299.7849993330019,None,299.7849993330019,None,left,1.128953958992497,299.7849993330019,None,299.7849993330019,None,,,,,,,,,,,,,,,,,,,,,,,dekel,2023_Jun_18_1532,working_memory,2021.2.3,None,
badlands_184.jpg,badlands_103.jpg,badlands_184.jpg,right,golf_course_328.jpg,badlands_184.jpg,playground_256.jpg,bridge_147.jpg,highway_9.jpg,mountain_277.jpg,1,badlands_103.jpg,1,badlands,,,,,0,43,43,43,,,,,,,,,,,,,,,,,,,,,,,,,,,,,,,,,,,,,,,,,,,,,,,,,,,,,301.4569163749984,301.705936792001,301.705936792001,301.95273466700746,301.95273466700746,302.1915943750064,302.2053176250047,302.44633600000816,302.44633600000816,302.68664283299586,302.7059408750065,302.95539425000607,302.95539425000607,None,300.9768022079952,301.46621174999746,303.95048416699865,None,303.95048416699865,None,right,1.7685814580036094,303.95048416699865,None,303.95048416699865,None,,,,,,,,,,,,,,,,,,,,,,,dekel,2023_Jun_18_1532,working_memory,2021.2.3,None,
mountain_232.jpg,mountain_232.jpg,mountain_3.jpg,left,badlands_150.jpg,golf_course_59.jpg,mountain_232.jpg,playground_103.jpg,highway_53.jpg,bridge_228.jpg,2,mountain_3.jpg,0,mountain,,,,,0,44,44,44,,,,,,,,,,,,,,,,,,,,,,,,,,,,,,,,,,,,,,,,,,,,,,,,,,,,,306.25879704199906,306.50027512499946,306.50027512499946,306.741909999997,306.7621107080049,307.00261262500135,307.00261262500135,307.2439425830089,307.26362441699894,307.51284816699626,307.51284816699626,307.75381520800875,307.75381520800875,None,305.78119258300285,306.2748212919978,308.7527517080016,None,308.7527517080016,None,left,0.9311807910125935,308.7527517080016,None,308.7527517080016,None,,,,,,,,,,,,,,,,,,,,,,,dekel,2023_Jun_18_1532,working_memory,2021.2.3,None,
highway_93.jpg,highway_369.jpg,highway_93.jpg,right,bridge_66.jpg,mountain_249.jpg,highway_93.jpg,badlands_180.jpg,playground_140.jpg,golf_course_176.jpg,2,highway_369.jpg,1,highway,,,,,0,45,45,45,,,,,,,,,,,,,,,,,,,,,,,,,,,,,,,,,,,,,,,,,,,,,,,,,,,,,310.2297140419978,310.4758299170062,310.48082766700827,310.7331932500092,310.7331932500092,310.9712019580038,310.99076762500044,311.2301531670091,311.2301531670091,311.47109520800586,311.4889605829958,311.7359187920083,311.74221695799497,None,309.75796433299547,310.2458871669951,312.7389491250069,None,312.7389491250069,None,right,1.616887249998399,312.7389491250069,None,312.7389491250069,None,,,,,,,,,,,,,,,,,,,,,,,dekel,2023_Jun_18_1532,working_memory,2021.2.3,None,
highway_294.jpg,highway_294.jpg,highway_203.jpg,left,mountain_202.jpg,golf_course_300.jpg,highway_294.jpg,bridge_120.jpg,badlands_44.jpg,playground_173.jpg,2,highway_203.jpg,0,highway,,,,,0,46,46,46,,,,,,,,,,,,,,,,,,,,,,,,,,,,,,,,,,,,,,,,,,,,,,,,,,,,,314.8920460000081,315.13579699999536,315.13579699999536,315.37852541700704,315.3919567080011,315.6325207080081,315.63861470800475,315.8853220000019,315.89074208300735,316.13632495800266,316.14195533300517,316.3807210829982,316.3947864579968,None,314.41532358300174,314.9127453330002,317.38740587500797,None,317.38740587500797,None,right,1.3992895839910489,317.38740587500797,None,317.38740587500797,None,,,,,,,,,,,,,,,,,,,,,,,dekel,2023_Jun_18_1532,working_memory,2021.2.3,None,
golf_course_195.jpg,golf_course_2.jpg,golf_course_195.jpg,right,playground_63.jpg,golf_course_195.jpg,highway_315.jpg,mountain_89.jpg,bridge_155.jpg,badlands_185.jpg,1,golf_course_2.jpg,1,golf,,,,,0,47,47,47,,,,,,,,,,,,,,,,,,,,,,,,,,,,,,,,,,,,,,,,,,,,,,,,,,,,,319.33403679200273,319.5826497079979,319.5826497079979,319.8268049170001,319.8268049170001,320.07368483299797,320.07935379199625,320.3180905830086,320.33736533300544,320.57837458299764,320.57837458299764,320.81961600000795,320.8255370830011,None,318.85355920800066,319.3518380000023,321.83656954200706,None,321.83656954200706,None,left,1.329001749996678,321.83656954200706,None,321.83656954200706,None,,,,,,,,,,,,,,,,,,,,,,,dekel,2023_Jun_18_1532,working_memory,2021.2.3,None,
mountain_57.jpg,mountain_138.jpg,mountain_57.jpg,right,badlands_216.jpg,highway_319.jpg,bridge_72.jpg,mountain_57.jpg,golf_course_0.jpg,playground_7.jpg,3,mountain_138.jpg,1,mountain,,,,,0,48,48,48,,,,,,,,,,,,,,,,,,,,,,,,,,,,,,,,,,,,,,,,,,,,,,,,,,,,,323.70835579199775,323.9507156250038,323.9507156250038,324.1992863750056,324.20537187499576,324.45321583299665,324.45321583299665,324.70303045799665,324.70303045799665,324.9449654170021,324.9505379170005,325.20167879200017,325.20167879200017,None,323.2304286669969,323.72432062499865,326.20451804199547,None,326.20451804199547,None,right,0.9019565000053262,326.20451804199547,None,326.20451804199547,None,,,,,,,,,,,,,,,,,,,,,,,dekel,2023_Jun_18_1532,working_memory,2021.2.3,None,
bridge_108.jpg,bridge_108.jpg,bridge_116.jpg,left,badlands_122.jpg,bridge_108.jpg,mountain_256.jpg,golf_course_72.jpg,highway_138.jpg,playground_83.jpg,1,bridge_116.jpg,0,bridge,,,,,0,49,49,49,,,,,,,,,,,,,,,,,,,,,,,,,,,,,,,,,,,,,,,,,,,,,,,,,,,,,327.6421240000054,327.8838174170087,327.897497708007,328.142325000008,328.142325000008,328.3902063330024,328.3955702499952,328.6327457080042,328.6466285829956,328.8950787079957,328.8950787079957,329.1333486670046,329.1463620419963,None,327.1695807920041,327.658104208007,330.14661820800393,None,330.14661820800393,None,left,1.2467850840039318,330.14661820800393,None,330.14661820800393,None,,,,,,,,,,,,,,,,,,,,,,,dekel,2023_Jun_18_1532,working_memory,2021.2.3,None,
golf_course_193.jpg,golf_course_123.jpg,golf_course_193.jpg,right,bridge_87.jpg,golf_course_193.jpg,highway_154.jpg,mountain_39.jpg,badlands_33.jpg,playground_36.jpg,1,golf_course_123.jpg,1,golf,,,,,0,50,50,50,,,,,,,,,,,,,,,,,,,,,,,,,,,,,,,,,,,,,,,,,,,,,,,,,,,,,331.93308691700804,332.179672667,332.18404670800373,332.425199624995,332.4454230830015,332.6844663750089,332.6844663750089,332.9324682919978,332.93848891700327,333.17910216700693,333.1839794999978,333.4302940829948,333.4366861669987,None,331.4635677500046,331.96232258300006,334.44540404199506,None,334.44540404199506,None,left,1.387415459001204,334.44540404199506,None,334.44540404199506,None,,,,,,,,,,,,,,,,,,,,,,,dekel,2023_Jun_18_1532,working_memory,2021.2.3,None,
bridge_65.jpg,bridge_65.jpg,bridge_181.jpg,left,mountain_187.jpg,golf_course_333.jpg,bridge_65.jpg,playground_237.jpg,badlands_156.jpg,highway_308.jpg,2,bridge_181.jpg,0,bridge,,,,,0,51,51,51,,,,,,,,,,,,,,,,,,,,,,,,,,,,,,,,,,,,,,,,,,,,,,,,,,,,,336.3766375420091,336.6256384580047,336.6297137079964,336.8715500420076,336.8715500420076,337.11785587499617,337.12326783299795,337.36272499999905,337.3833239579981,337.6225160419999,337.6225160419999,337.86948024999583,337.8770396250038,None,335.90178387500055,336.396014708007,338.88206404200173,None,338.88206404200173,None,left,1.1963471249910071,338.88206404200173,None,338.88206404200173,None,,,,,,,,,,,,,,,,,,,,,,,dekel,2023_Jun_18_1532,working_memory,2021.2.3,None,
playground_76.jpg,playground_76.jpg,playground_22.jpg,left,mountain_34.jpg,bridge_22.jpg,golf_course_181.jpg,highway_102.jpg,playground_76.jpg,badlands_88.jpg,4,playground_22.jpg,0,playground,,,,,0,52,52,52,,,,,,,,,,,,,,,,,,,,,,,,,,,,,,,,,,,,,,,,,,,,,,,,,,,,,340.6155215000035,340.8534127919993,340.8674925420055,341.11353479200625,341.11353479200625,341.3618040000001,341.36784112500027,341.6045354579983,341.6206045419967,341.8640613750031,341.8640613750031,342.1109237500059,342.11833675000526,None,340.13955750000605,340.63972279199515,343.12575249999645,None,343.12575249999645,None,right,1.7197300830011955,343.12575249999645,None,343.12575249999645,None,,,,,,,,,,,,,,,,,,,,,,,dekel,2023_Jun_18_1532,working_memory,2021.2.3,None,
golf_course_15.jpg,golf_course_15.jpg,golf_course_113.jpg,left,golf_course_15.jpg,highway_36.jpg,badlands_121.jpg,bridge_197.jpg,mountain_190.jpg,playground_246.jpg,0,golf_course_113.jpg,0,golf,,,,,0,53,53,53,,,,,,,,,,,,,,,,,,,,,,,,,,,,,,,,,,,,,,,,,,,,,,,,,,,,,345.38965229199675,345.6403675000038,345.6403675000038,345.88614724999934,345.88614724999934,346.1317557919974,346.1317557919974,346.37342908300343,346.379467250008,346.6268112920079,346.63218575000064,346.87224275000335,346.89292187499814,None,344.9085406670056,345.4042286250042,347.8916519170016,None,347.8916519170016,None,left,0.7513207500014687,347.8916519170016,None,347.8916519170016,None,,,,,,,,,,,,,,,,,,,,,,,dekel,2023_Jun_18_1532,working_memory,2021.2.3,None,
badlands_24.jpg,badlands_53.jpg,badlands_24.jpg,right,badlands_24.jpg,golf_course_162.jpg,mountain_32.jpg,highway_365.jpg,bridge_20.jpg,playground_165.jpg,0,badlands_53.jpg,1,badlands,,,,,0,54,54,54,,,,,,,,,,,,,,,,,,,,,,,,,,,,,,,,,,,,,,,,,,,,,,,,,,,,,349.1866890829988,349.4247365830088,349.4455773750087,349.68405895799515,349.68405895799515,349.9287360419985,349.94723054200585,350.1997541250021,350.1997541250021,350.4476786669984,350.4361732499965,350.6843043330009,350.6843043330009,None,348.71410008300154,349.2105795420066,351.688041292,None,351.688041292,None,right,0.9638504159956938,351.688041292,None,351.688041292,None,,,,,,,,,,,,,,,,,,,,,,,dekel,2023_Jun_18_1532,working_memory,2021.2.3,None,
mountain_123.jpg,mountain_189.jpg,mountain_123.jpg,right,highway_257.jpg,mountain_123.jpg,bridge_180.jpg,playground_6.jpg,golf_course_56.jpg,badlands_36.jpg,1,mountain_189.jpg,1,mountain,,,,,0,55,55,55,,,,,,,,,,,,,,,,,,,,,,,,,,,,,,,,,,,,,,,,,,,,,,,,,,,,,353.20165829200414,353.45133666699985,353.4379799169983,353.6855372919963,353.69129787500424,353.9293081250071,353.95009620800556,354.1917326670082,354.1917326670082,354.4292094170087,354.4471395830042,354.6937722080038,354.70017670800735,None,352.7170192920021,353.2043895829993,355.69796970799507,None,355.69796970799507,None,left,3.853893874998903,355.69796970799507,None,355.69796970799507,None,,,,,,,,,,,,,,,,,,,,,,,dekel,2023_Jun_18_1532,working_memory,2021.2.3,None,
bridge_191.jpg,bridge_75.jpg,bridge_191.jpg,right,golf_course_252.jpg,playground_50.jpg,bridge_191.jpg,mountain_307.jpg,highway_17.jpg,badlands_138.jpg,2,bridge_75.jpg,1,bridge,,,,,0,56,56,56,,,,,,,,,,,,,,,,,,,,,,,,,,,,,,,,,,,,,,,,,,,,,,,,,,,,,360.10186541700386,360.34530020800594,360.34530020800594,360.59523133300536,360.60104833300284,360.84595004199946,360.84595004199946,361.0949464169971,361.1005622500088,361.34129362499516,361.34129362499516,361.58192954200786,361.60194883300574,None,359.61898704200576,360.1046442079969,362.5917504999961,None,362.5917504999961,None,right,2.071058792003896,362.5917504999961,None,362.5917504999961,None,,,,,,,,,,,,,,,,,,,,,,,dekel,2023_Jun_18_1532,working_memory,2021.2.3,None,
golf_course_78.jpg,golf_course_134.jpg,golf_course_78.jpg,right,playground_16.jpg,badlands_211.jpg,bridge_238.jpg,golf_course_78.jpg,highway_141.jpg,mountain_33.jpg,3,golf_course_134.jpg,0,golf,,,,,0,57,57,57,,,,,,,,,,,,,,,,,,,,,,,,,,,,,,,,,,,,,,,,,,,,,,,,,,,,,365.21998112500296,365.46517695800867,365.4712630830036,365.71294487500563,365.71294487500563,365.9532465000084,365.97276691699517,366.2189890000009,366.2189890000009,366.4604302920052,366.4604302920052,366.6999560420081,366.71873308300565,None,364.7373983330035,365.23189658300544,367.7078852919949,None,367.7078852919949,None,right,0.9784556660015369,367.7078852919949,None,367.7078852919949,None,,,,,,,,,,,,,,,,,,,,,,,dekel,2023_Jun_18_1532,working_memory,2021.2.3,None,
playground_117.jpg,playground_167.jpg,playground_117.jpg,right,playground_117.jpg,bridge_39.jpg,golf_course_71.jpg,highway_193.jpg,mountain_91.jpg,badlands_27.jpg,0,playground_167.jpg,0,playground,,,,,0,58,58,58,,,,,,,,,,,,,,,,,,,,,,,,,,,,,,,,,,,,,,,,,,,,,,,,,,,,,369.22526037499483,369.4705050420016,369.4705050420016,369.7085540420085,369.72719674999826,369.9786134580063,369.9786134580063,370.21787666699674,370.21787666699674,370.4589425419981,370.4768183330016,370.7177590000065,370.7177590000065,None,368.74715145799564,369.2417617500032,371.7317151669995,None,371.7317151669995,None,right,2.2335206249990733,371.7317151669995,None,371.7317151669995,None,,,,,,,,,,,,,,,,,,,,,,,dekel,2023_Jun_18_1532,working_memory,2021.2.3,None,
highway_415.jpg,highway_174.jpg,highway_415.jpg,right,golf_course_61.jpg,highway_415.jpg,bridge_117.jpg,badlands_164.jpg,playground_233.jpg,mountain_306.jpg,1,highway_174.jpg,1,highway,,,,,0,59,59,59,,,,,,,,,,,,,,,,,,,,,,,,,,,,,,,,,,,,,,,,,,,,,,,,,,,,,374.512960292006,374.7554763329972,374.7554763329972,374.9951496249996,375.012945208,375.2615829580027,375.2615829580027,375.5010710420029,375.5132567499968,375.7608399580058,375.7608399580058,376.00000625000393,376.0134751669975,None,374.02945237500535,374.5156799170072,376.9996496249951,None,376.9996496249951,None,left,3.2844839579920517,376.9996496249951,None,376.9996496249951,None,,,,,,,,,,,,,,,,,,,,,,,dekel,2023_Jun_18_1532,working_memory,2021.2.3,None,
,,,,,,,,,,,,,,,,,,,,,,,,,,,,,,,,,,,,,,,,,,,,,,,,,,,,,,,,,,,,,,,,,,,,,,,,,,,,,,,,,,,,,,,,,,,,,,,,,,,,380.3039328330051,None,space,3.177711999989697,380.3039328330051,None,,,,,,,,,,,,,,,,,dekel,2023_Jun_18_1532,working_memory,2021.2.3,None,
badlands_113.jpg,badlands_113.jpg,badlands_225.jpg,left,mountain_151.jpg,highway_76.jpg,badlands_113.jpg,golf_course_221.jpg,bridge_136.jpg,playground_153.jpg,2,badlands_225.jpg,0,badlands,,,,,,,,,0,0,0,0,,,,,,,,,,,,,,,,,,,,,,,,,,,,,,,,,,,,,,,,,,,,,,,,,,,,,,,,,,,,,,,,,,,,,,,,,,,,,,,,,383.5549743330048,None,383.5549743330048,None,6.116089613034623,2.0550223750033183,383.5549743330048,None,383.5549743330048,None,,,,,,,dekel,2023_Jun_18_1532,working_memory,2021.2.3,None,
badlands_222.jpg,badlands_222.jpg,badlands_34.jpg,left,highway_247.jpg,badlands_222.jpg,mountain_43.jpg,golf_course_333.jpg,bridge_142.jpg,playground_126.jpg,1,badlands_34.jpg,0,badlands,,,,,,,,,0,1,1,1,,,,,,,,,,,,,,,,,,,,,,,,,,,,,,,,,,,,,,,,,,,,,,,,,,,,,,,,,,,,,,,,,,,,,,,,,,,,,,,,,385.6179136669962,None,385.6179136669962,None,5.945010183299389,2.419981833998463,385.6179136669962,None,385.6179136669962,None,,,,,,,dekel,2023_Jun_18_1532,working_memory,2021.2.3,None,
highway_359.jpg,highway_359.jpg,highway_379.jpg,left,mountain_268.jpg,badlands_180.jpg,bridge_96.jpg,highway_359.jpg,playground_191.jpg,golf_course_67.jpg,3,highway_379.jpg,1,highway,,,,,,,,,0,2,2,2,,,,,,,,,,,,,,,,,,,,,,,,,,,,,,,,,,,,,,,,,,,,,,,,,,,,,,,,,,,,,,,,,,,,,,,,,,,,,,,,,388.05858520799666,None,388.05858520799666,None,4.983706720977597,1.5375230419886066,388.05858520799666,None,388.05858520799666,None,,,,,,,dekel,2023_Jun_18_1532,working_memory,2021.2.3,None,
mountain_222.jpg,mountain_244.jpg,mountain_222.jpg,right,mountain_222.jpg,playground_181.jpg,bridge_266.jpg,golf_course_176.jpg,badlands_156.jpg,highway_268.jpg,0,mountain_244.jpg,0,mountain,,,,,,,,,0,3,3,3,,,,,,,,,,,,,,,,,,,,,,,,,,,,,,,,,,,,,,,,,,,,,,,,,,,,,,,,,,,,,,,,,,,,,,,,,,,,,,,,,389.6181889580039,None,389.6181889580039,None,4.022403258655805,1.4536045420099981,389.6181889580039,None,389.6181889580039,None,,,,,,,dekel,2023_Jun_18_1532,working_memory,2021.2.3,None,
bridge_172.jpg,bridge_172.jpg,bridge_17.jpg,left,golf_course_171.jpg,highway_404.jpg,bridge_172.jpg,playground_83.jpg,mountain_309.jpg,badlands_157.jpg,2,bridge_17.jpg,0,bridge,,,,,,,,,0,4,4,4,,,,,,,,,,,,,,,,,,,,,,,,,,,,,,,,,,,,,,,,,,,,,,,,,,,,,,,,,,,,,,,,,,,,,,,,,,,,,,,,,391.09396825000294,None,391.09396825000294,None,3.0610997963340125,1.910869792001904,391.09396825000294,None,391.09396825000294,None,,,,,,,dekel,2023_Jun_18_1532,working_memory,2021.2.3,None,
playground_145.jpg,playground_242.jpg,playground_145.jpg,right,playground_145.jpg,highway_9.jpg,bridge_39.jpg,mountain_212.jpg,badlands_79.jpg,golf_course_241.jpg,0,playground_242.jpg,1,playground,,,,,,,,,0,5,5,5,,,,,,,,,,,,,,,,,,,,,,,,,,,,,,,,,,,,,,,,,,,,,,,,,,,,,,,,,,,,,,,,,,,,,,,,,,,,,,,,,393.0266370419995,None,393.0266370419995,None,6.963340122199593,1.8788814159925096,393.0266370419995,None,393.0266370419995,None,,,,,,,dekel,2023_Jun_18_1532,working_memory,2021.2.3,None,
highway_245.jpg,highway_245.jpg,highway_134.jpg,left,bridge_1.jpg,golf_course_338.jpg,playground_256.jpg,highway_245.jpg,badlands_46.jpg,mountain_166.jpg,3,highway_134.jpg,0,highway,,,,,,,,,0,6,6,6,,,,,,,,,,,,,,,,,,,,,,,,,,,,,,,,,,,,,,,,,,,,,,,,,,,,,,,,,,,,,,,,,,,,,,,,,,,,,,,,,394.92548179200094,None,394.92548179200094,None,8.079429735234216,1.6291597920062486,394.92548179200094,None,394.92548179200094,None,,,,,,,dekel,2023_Jun_18_1532,working_memory,2021.2.3,None,
mountain_293.jpg,mountain_293.jpg,mountain_47.jpg,left,badlands_183.jpg,golf_course_181.jpg,mountain_293.jpg,playground_222.jpg,bridge_173.jpg,highway_83.jpg,2,mountain_47.jpg,1,mountain,,,,,,,,,0,7,7,7,,,,,,,,,,,,,,,,,,,,,,,,,,,,,,,,,,,,,,,,,,,,,,,,,,,,,,,,,,,,,,,,,,,,,,,,,,,,,,,,,396.57543595800234,None,396.57543595800234,None,7.101832993890021,1.0705967910034815,396.57543595800234,None,396.57543595800234,None,,,,,,,dekel,2023_Jun_18_1532,working_memory,2021.2.3,None,
bridge_146.jpg,bridge_27.jpg,bridge_146.jpg,right,highway_269.jpg,bridge_146.jpg,golf_course_291.jpg,mountain_35.jpg,badlands_55.jpg,playground_195.jpg,1,bridge_27.jpg,0,bridge,,,,,,,,,0,8,8,8,,,,,,,,,,,,,,,,,,,,,,,,,,,,,,,,,,,,,,,,,,,,,,,,,,,,,,,,,,,,,,,,,,,,,,,,,,,,,,,,,397.66766004200326,None,397.66766004200326,None,6.026476578411406,1.129722124998807,397.66766004200326,None,397.66766004200326,None,,,,,,,dekel,2023_Jun_18_1532,working_memory,2021.2.3,None,
playground_257.jpg,playground_257.jpg,playground_215.jpg,left,mountain_198.jpg,highway_15.jpg,badlands_80.jpg,golf_course_282.jpg,playground_257.jpg,bridge_62.jpg,4,playground_215.jpg,1,playground,,,,,,,,,0,9,9,9,,,,,,,,,,,,,,,,,,,,,,,,,,,,,,,,,,,,,,,,,,,,,,,,,,,,,,,,,,,,,,,,,,,,,,,,,,,,,,,,,398.81861108299927,None,398.81861108299927,None,5.423625254582484,1.4196126250026282,398.81861108299927,None,398.81861108299927,None,,,,,,,dekel,2023_Jun_18_1532,working_memory,2021.2.3,None,
mountain_230.jpg,mountain_230.jpg,mountain_97.jpg,left,golf_course_253.jpg,mountain_230.jpg,highway_81.jpg,playground_47.jpg,badlands_9.jpg,bridge_4.jpg,1,mountain_97.jpg,1,mountain,,,,,,,,,0,10,10,10,,,,,,,,,,,,,,,,,,,,,,,,,,,,,,,,,,,,,,,,,,,,,,,,,,,,,,,,,,,,,,,,,,,,,,,,,,,,,,,,,400.25895237500663,None,400.25895237500663,None,4.617107942973524,1.3123598329984816,400.25895237500663,None,400.25895237500663,None,,,,,,,dekel,2023_Jun_18_1532,working_memory,2021.2.3,None,
playground_10.jpg,playground_10.jpg,playground_122.jpg,left,highway_226.jpg,golf_course_33.jpg,mountain_38.jpg,playground_10.jpg,bridge_102.jpg,badlands_10.jpg,3,playground_122.jpg,0,playground,,,,,,,,,0,11,11,11,,,,,,,,,,,,,,,,,,,,,,,,,,,,,,,,,,,,,,,,,,,,,,,,,,,,,,,,,,,,,,,,,,,,,,,,,,,,,,,,,401.59410874999594,None,401.59410874999594,None,3.794297352342159,1.3021039169980213,401.59410874999594,None,401.59410874999594,None,,,,,,,dekel,2023_Jun_18_1532,working_memory,2021.2.3,None,
highway_177.jpg,highway_177.jpg,highway_278.jpg,left,golf_course_202.jpg,playground_14.jpg,highway_177.jpg,bridge_152.jpg,badlands_227.jpg,mountain_192.jpg,2,highway_278.jpg,1,highway,,,,,,,,,0,12,12,12,,,,,,,,,,,,,,,,,,,,,,,,,,,,,,,,,,,,,,,,,,,,,,,,,,,,,,,,,,,,,,,,,,,,,,,,,,,,,,,,,402.9175459580001,None,402.9175459580001,None,2.75152749490835,1.1703080410079565,402.9175459580001,None,402.9175459580001,None,,,,,,,dekel,2023_Jun_18_1532,working_memory,2021.2.3,None,
badlands_21.jpg,badlands_1.jpg,badlands_21.jpg,right,bridge_72.jpg,badlands_21.jpg,playground_74.jpg,golf_course_56.jpg,mountain_228.jpg,highway_251.jpg,1,badlands_1.jpg,0,badlands,,,,,,,,,0,13,13,13,,,,,,,,,,,,,,,,,,,,,,,,,,,,,,,,,,,,,,,,,,,,,,,,,,,,,,,,,,,,,,,,,,,,,,,,,,,,,,,,,404.1109826250031,None,404.1109826250031,None,1.7902240325865582,2.655406000005314,404.1109826250031,None,404.1109826250031,None,,,,,,,dekel,2023_Jun_18_1532,working_memory,2021.2.3,None,
playground_131.jpg,playground_164.jpg,playground_131.jpg,right,highway_101.jpg,golf_course_166.jpg,bridge_117.jpg,mountain_180.jpg,playground_131.jpg,badlands_27.jpg,4,playground_164.jpg,1,playground,,,,,,,,,0,14,14,14,,,,,,,,,,,,,,,,,,,,,,,,,,,,,,,,,,,,,,,,,,,,,,,,,,,,,,,,,,,,,,,,,,,,,,,,,,,,,,,,,406.7889430829964,None,406.7889430829964,None,8.714867617107943,1.80038416699972,406.7889430829964,None,406.7889430829964,None,,,,,,,dekel,2023_Jun_18_1532,working_memory,2021.2.3,None,
bridge_256.jpg,bridge_256.jpg,bridge_211.jpg,left,highway_53.jpg,mountain_250.jpg,bridge_256.jpg,playground_165.jpg,golf_course_300.jpg,badlands_128.jpg,2,bridge_211.jpg,1,bridge,,,,,,,,,0,15,15,15,,,,,,,,,,,,,,,,,,,,,,,,,,,,,,,,,,,,,,,,,,,,,,,,,,,,,,,,,,,,,,,,,,,,,,,,,,,,,,,,,408.60880870799883,None,408.60880870799883,None,5.969450101832994,1.8632589589979034,408.60880870799883,None,408.60880870799883,None,,,,,,,dekel,2023_Jun_18_1532,working_memory,2021.2.3,None,
badlands_52.jpg,badlands_94.jpg,badlands_52.jpg,right,highway_399.jpg,golf_course_174.jpg,mountain_91.jpg,badlands_52.jpg,bridge_140.jpg,playground_154.jpg,3,badlands_94.jpg,0,badlands,,,,,,,,,0,16,16,16,,,,,,,,,,,,,,,,,,,,,,,,,,,,,,,,,,,,,,,,,,,,,,,,,,,,,,,,,,,,,,,,,,,,,,,,,,,,,,,,,410.49418258300284,None,410.49418258300284,None,4.967413441955193,1.1021753749955678,410.49418258300284,None,410.49418258300284,None,,,,,,,dekel,2023_Jun_18_1532,working_memory,2021.2.3,None,
badlands_23.jpg,badlands_114.jpg,badlands_23.jpg,right,highway_257.jpg,badlands_23.jpg,golf_course_194.jpg,mountain_251.jpg,playground_140.jpg,bridge_144.jpg,1,badlands_114.jpg,0,badlands,,,,,,,,,0,17,17,17,,,,,,,,,,,,,,,,,,,,,,,,,,,,,,,,,,,,,,,,,,,,,,,,,,,,,,,,,,,,,,,,,,,,,,,,,,,,,,,,,411.6185297500051,None,411.6185297500051,None,4.967413441955193,0.15290495900262613,411.6185297500051,None,411.6185297500051,None,,,,,,,dekel,2023_Jun_18_1532,working_memory,2021.2.3,None,
mountain_101.jpg,mountain_221.jpg,mountain_101.jpg,right,bridge_155.jpg,playground_33.jpg,highway_287.jpg,mountain_101.jpg,badlands_44.jpg,golf_course_127.jpg,3,mountain_221.jpg,1,mountain,,,,,,,,,0,18,18,18,,,,,,,,,,,,,,,,,,,,,,,,,,,,,,,,,,,,,,,,,,,,,,,,,,,,,,,,,,,,,,,,,,,,,,,,,,,,,,,,,411.7926491249964,None,411.7926491249964,None,4.006109979633401,6.045815250006854,411.7926491249964,None,411.7926491249964,None,,,,,,,dekel,2023_Jun_18_1532,working_memory,2021.2.3,None,
badlands_221.jpg,badlands_207.jpg,badlands_221.jpg,right,golf_course_328.jpg,playground_36.jpg,highway_78.jpg,badlands_221.jpg,mountain_152.jpg,bridge_87.jpg,3,badlands_207.jpg,1,badlands,,,,,,,,,0,19,19,19,,,,,,,,,,,,,,,,,,,,,,,,,,,,,,,,,,,,,,,,,,,,,,,,,,,,,,,,,,,,,,,,,,,,,,,,,,,,,,,,,417.8591063750064,None,417.8591063750064,None,3.020366598778004,1.36237175000133,417.8591063750064,None,417.8591063750064,None,,,,,,,dekel,2023_Jun_18_1532,working_memory,2021.2.3,None,
mountain_154.jpg,mountain_154.jpg,mountain_95.jpg,left,golf_course_305.jpg,playground_204.jpg,bridge_74.jpg,mountain_154.jpg,badlands_166.jpg,highway_288.jpg,3,mountain_95.jpg,1,mountain,,,,,,,,,0,20,20,20,,,,,,,,,,,,,,,,,,,,,,,,,,,,,,,,,,,,,,,,,,,,,,,,,,,,,,,,,,,,,,,,,,,,,,,,,,,,,,,,,419.2427741249994,None,419.2427741249994,None,1.9857433808553973,2.5449000829976285,419.2427741249994,None,419.2427741249994,None,,,,,,,dekel,2023_Jun_18_1532,working_memory,2021.2.3,None,
bridge_91.jpg,bridge_253.jpg,bridge_91.jpg,right,golf_course_55.jpg,playground_98.jpg,bridge_91.jpg,highway_295.jpg,mountain_41.jpg,badlands_33.jpg,2,bridge_253.jpg,0,bridge,,,,,,,,,0,21,21,21,,,,,,,,,,,,,,,,,,,,,,,,,,,,,,,,,,,,,,,,,,,,,,,,,,,,,,,,,,,,,,,,,,,,,,,,,,,,,,,,,421.8097747080028,None,421.8097747080028,None,6.067209775967413,1.6273892919998616,421.8097747080028,None,421.8097747080028,None,,,,,,,dekel,2023_Jun_18_1532,working_memory,2021.2.3,None,
highway_273.jpg,highway_273.jpg,highway_384.jpg,left,bridge_22.jpg,mountain_146.jpg,badlands_217.jpg,highway_273.jpg,golf_course_116.jpg,playground_55.jpg,3,highway_384.jpg,0,highway,,,,,,,,,0,22,22,22,,,,,,,,,,,,,,,,,,,,,,,,,,,,,,,,,,,,,,,,,,,,,,,,,,,,,,,,,,,,,,,,,,,,,,,,,,,,,,,,,423.4585278750019,None,423.4585278750019,None,7.0285132382892055,2.312778209001408,423.4585278750019,None,423.4585278750019,None,,,,,,,dekel,2023_Jun_18_1532,working_memory,2021.2.3,None,
playground_60.jpg,playground_60.jpg,playground_244.jpg,left,playground_60.jpg,highway_178.jpg,badlands_121.jpg,mountain_126.jpg,golf_course_179.jpg,bridge_118.jpg,0,playground_244.jpg,1,playground,,,,,,,,,0,23,23,23,,,,,,,,,,,,,,,,,,,,,,,,,,,,,,,,,,,,,,,,,,,,,,,,,,,,,,,,,,,,,,,,,,,,,,,,,,,,,,,,,425.79354462500487,None,425.79354462500487,None,8.014256619144604,2.4117242920037825,425.79354462500487,None,425.79354462500487,None,,,,,,,dekel,2023_Jun_18_1532,working_memory,2021.2.3,None,
golf_course_217.jpg,golf_course_35.jpg,golf_course_217.jpg,right,playground_37.jpg,mountain_199.jpg,bridge_193.jpg,golf_course_217.jpg,highway_17.jpg,badlands_174.jpg,3,golf_course_35.jpg,0,golf,,,,,,,,,0,24,24,24,,,,,,,,,,,,,,,,,,,,,,,,,,,,,,,,,,,,,,,,,,,,,,,,,,,,,,,,,,,,,,,,,,,,,,,,,,,,,,,,,428.2276326669962,None,428.2276326669962,None,5.790224032586558,1.469030209002085,428.2276326669962,None,428.2276326669962,None,,,,,,,dekel,2023_Jun_18_1532,working_memory,2021.2.3,None,
playground_240.jpg,playground_40.jpg,playground_240.jpg,right,mountain_226.jpg,highway_265.jpg,playground_240.jpg,golf_course_313.jpg,badlands_104.jpg,bridge_79.jpg,2,playground_40.jpg,1,playground,,,,,,,,,0,25,25,25,,,,,,,,,,,,,,,,,,,,,,,,,,,,,,,,,,,,,,,,,,,,,,,,,,,,,,,,,,,,,,,,,,,,,,,,,,,,,,,,,429.71717758300656,None,429.71717758300656,None,4.641547861507128,1.2959288749989355,429.71717758300656,None,429.71717758300656,None,,,,,,,dekel,2023_Jun_18_1532,working_memory,2021.2.3,None,
bridge_202.jpg,bridge_202.jpg,bridge_38.jpg,left,highway_138.jpg,bridge_202.jpg,mountain_29.jpg,badlands_16.jpg,golf_course_105.jpg,playground_246.jpg,1,bridge_38.jpg,1,bridge,,,,,,,,,0,26,26,26,,,,,,,,,,,,,,,,,,,,,,,,,,,,,,,,,,,,,,,,,,,,,,,,,,,,,,,,,,,,,,,,,,,,,,,,,,,,,,,,,431.034732125001,None,431.034732125001,None,3.3299389002036657,1.1894936250027968,431.034732125001,None,431.034732125001,None,,,,,,,dekel,2023_Jun_18_1532,working_memory,2021.2.3,None,
golf_course_331.jpg,golf_course_331.jpg,golf_course_26.jpg,left,mountain_169.jpg,golf_course_331.jpg,playground_258.jpg,bridge_234.jpg,highway_148.jpg,badlands_122.jpg,1,golf_course_26.jpg,1,golf,,,,,,,,,0,27,27,27,,,,,,,,,,,,,,,,,,,,,,,,,,,,,,,,,,,,,,,,,,,,,,,,,,,,,,,,,,,,,,,,,,,,,,,,,,,,,,,,,432.2452484999958,None,432.2452484999958,None,2.1894093686354377,1.1675022499985062,432.2452484999958,None,432.2452484999958,None,,,,,,,dekel,2023_Jun_18_1532,working_memory,2021.2.3,None,
badlands_70.jpg,badlands_70.jpg,badlands_119.jpg,left,bridge_112.jpg,mountain_307.jpg,golf_course_238.jpg,badlands_70.jpg,highway_383.jpg,playground_233.jpg,3,badlands_119.jpg,1,badlands,,,,,,,,,0,28,28,28,,,,,,,,,,,,,,,,,,,,,,,,,,,,,,,,,,,,,,,,,,,,,,,,,,,,,,,,,,,,,,,,,,,,,,,,,,,,,,,,,433.43479179199494,None,433.43479179199494,None,7.1507128309572305,4.72881995899661,433.43479179199494,None,433.43479179199494,None,,,,,,,dekel,2023_Jun_18_1532,working_memory,2021.2.3,None,
highway_156.jpg,highway_156.jpg,highway_293.jpg,left,playground_6.jpg,highway_156.jpg,badlands_6.jpg,bridge_45.jpg,golf_course_120.jpg,mountain_102.jpg,1,highway_293.jpg,1,highway,,,,,,,,,0,29,29,29,,,,,,,,,,,,,,,,,,,,,,,,,,,,,,,,,,,,,,,,,,,,,,,,,,,,,,,,,,,,,,,,,,,,,,,,,,,,,,,,,438.18437354199705,None,438.18437354199705,None,8.160896130346233,1.4953157499985537,438.18437354199705,None,438.18437354199705,None,,,,,,,dekel,2023_Jun_18_1532,working_memory,2021.2.3,None,
golf_course_309.jpg,golf_course_209.jpg,golf_course_309.jpg,right,highway_354.jpg,playground_15.jpg,mountain_187.jpg,badlands_216.jpg,golf_course_309.jpg,bridge_133.jpg,4,golf_course_209.jpg,1,golf,,,,,,,,,0,30,30,30,,,,,,,,,,,,,,,,,,,,,,,,,,,,,,,,,,,,,,,,,,,,,,,,,,,,,,,,,,,,,,,,,,,,,,,,,,,,,,,,,439.70015600000625,None,439.70015600000625,None,2.979633401221996,2.8373107920051552,439.70015600000625,None,439.70015600000625,None,,,,,,,dekel,2023_Jun_18_1532,working_memory,2021.2.3,None,
bridge_250.jpg,bridge_250.jpg,bridge_134.jpg,left,golf_course_196.jpg,highway_30.jpg,bridge_250.jpg,mountain_40.jpg,playground_249.jpg,badlands_97.jpg,2,bridge_134.jpg,0,bridge,,,,,,,,,0,31,31,31,,,,,,,,,,,,,,,,,,,,,,,,,,,,,,,,,,,,,,,,,,,,,,,,,,,,,,,,,,,,,,,,,,,,,,,,,,,,,,,,,442.55919645800896,None,442.55919645800896,None,1.9857433808553973,1.287158166989684,442.55919645800896,None,442.55919645800896,None,,,,,,,dekel,2023_Jun_18_1532,working_memory,2021.2.3,None,
golf_course_214.jpg,golf_course_312.jpg,golf_course_214.jpg,right,highway_102.jpg,golf_course_214.jpg,playground_176.jpg,bridge_164.jpg,badlands_171.jpg,mountain_253.jpg,1,golf_course_312.jpg,0,golf,,,,,,,,,0,32,32,32,,,,,,,,,,,,,,,,,,,,,,,,,,,,,,,,,,,,,,,,,,,,,,,,,,,,,,,,,,,,,,,,,,,,,,,,,,,,,,,,,443.86751154200465,None,443.86751154200465,None,6.067209775967413,4.563607000003685,443.86751154200465,None,443.86751154200465,None,,,,,,,dekel,2023_Jun_18_1532,working_memory,2021.2.3,None,
playground_219.jpg,playground_21.jpg,playground_219.jpg,right,golf_course_252.jpg,badlands_120.jpg,bridge_158.jpg,playground_219.jpg,highway_33.jpg,mountain_202.jpg,3,playground_21.jpg,0,playground,,,,,,,,,0,33,33,33,,,,,,,,,,,,,,,,,,,,,,,,,,,,,,,,,,,,,,,,,,,,,,,,,,,,,,,,,,,,,,,,,,,,,,,,,,,,,,,,,448.4527195420087,None,448.4527195420087,None,7.077393075356415,4.268628833000548,448.4527195420087,None,448.4527195420087,None,,,,,,,dekel,2023_Jun_18_1532,working_memory,2021.2.3,None,
bridge_128.jpg,bridge_61.jpg,bridge_128.jpg,right,bridge_128.jpg,highway_154.jpg,badlands_35.jpg,golf_course_137.jpg,mountain_39.jpg,playground_162.jpg,0,bridge_61.jpg,0,bridge,,,,,,,,,0,34,34,34,,,,,,,,,,,,,,,,,,,,,,,,,,,,,,,,,,,,,,,,,,,,,,,,,,,,,,,,,,,,,,,,,,,,,,,,,,,,,,,,,452.74273354200704,None,452.74273354200704,None,8.120162932790224,5.378223249994335,452.74273354200704,None,452.74273354200704,None,,,,,,,dekel,2023_Jun_18_1532,working_memory,2021.2.3,None,
highway_209.jpg,highway_209.jpg,highway_122.jpg,left,bridge_52.jpg,playground_78.jpg,golf_course_41.jpg,badlands_47.jpg,highway_209.jpg,mountain_33.jpg,4,highway_122.jpg,1,highway,,,,,,,,,0,35,35,35,,,,,,,,,,,,,,,,,,,,,,,,,,,,,,,,,,,,,,,,,,,,,,,,,,,,,,,,,,,,,,,,,,,,,,,,,,,,,,,,,458.1416721249989,None,458.1416721249989,None,2.9633401221995928,2.180265707997023,458.1416721249989,None,458.1416721249989,None,,,,,,,dekel,2023_Jun_18_1532,working_memory,2021.2.3,None,
playground_144.jpg,playground_144.jpg,playground_65.jpg,left,badlands_215.jpg,mountain_88.jpg,golf_course_102.jpg,playground_144.jpg,bridge_238.jpg,highway_274.jpg,3,playground_65.jpg,1,playground,,,,,,,,,0,36,36,36,,,,,,,,,,,,,,,,,,,,,,,,,,,,,,,,,,,,,,,,,,,,,,,,,,,,,,,,,,,,,,,,,,,,,,,,,,,,,,,,,460.3446146250062,None,460.3446146250062,None,6.002036659877801,2.209694666991709,460.3446146250062,None,460.3446146250062,None,,,,,,,dekel,2023_Jun_18_1532,working_memory,2021.2.3,None,
mountain_110.jpg,mountain_157.jpg,mountain_110.jpg,right,golf_course_42.jpg,playground_103.jpg,mountain_110.jpg,bridge_86.jpg,badlands_60.jpg,highway_342.jpg,2,mountain_157.jpg,0,mountain,,,,,,,,,0,37,37,37,,,,,,,,,,,,,,,,,,,,,,,,,,,,,,,,,,,,,,,,,,,,,,,,,,,,,,,,,,,,,,,,,,,,,,,,,,,,,,,,,462.5754374579992,None,462.5754374579992,None,4.136456211812627,3.3793518749880604,462.5754374579992,None,462.5754374579992,None,,,,,,,dekel,2023_Jun_18_1532,working_memory,2021.2.3,None,
highway_394.jpg,highway_204.jpg,highway_394.jpg,right,highway_394.jpg,golf_course_144.jpg,playground_68.jpg,badlands_26.jpg,bridge_218.jpg,mountain_32.jpg,0,highway_204.jpg,0,highway,,,,,,,,,0,38,38,38,,,,,,,,,,,,,,,,,,,,,,,,,,,,,,,,,,,,,,,,,,,,,,,,,,,,,,,,,,,,,,,,,,,,,,,,,,,,,,,,,465.9752901669999,None,465.9752901669999,None,3.0122199592668024,3.280684166995343,465.9752901669999,None,465.9752901669999,None,,,,,,,dekel,2023_Jun_18_1532,working_memory,2021.2.3,None,
golf_course_87.jpg,golf_course_87.jpg,golf_course_161.jpg,left,golf_course_87.jpg,mountain_190.jpg,bridge_124.jpg,highway_58.jpg,badlands_152.jpg,playground_237.jpg,0,golf_course_161.jpg,1,golf,,,,,,,,,0,39,39,39,,,,,,,,,,,,,,,,,,,,,,,,,,,,,,,,,,,,,,,,,,,,,,,,,,,,,,,,,,,,,,,,,,,,,,,,,,,,,,,,,469.2772443330032,None,469.2772443330032,None,3.0122199592668024,0.12752512498991564,469.2772443330032,None,469.2772443330032,None,,,,,,,dekel,2023_Jun_18_1532,working_memory,2021.2.3,None,
mountain_156.jpg,mountain_128.jpg,mountain_156.jpg,right,playground_64.jpg,bridge_180.jpg,badlands_72.jpg,mountain_156.jpg,highway_319.jpg,golf_course_23.jpg,3,mountain_128.jpg,0,mountain,,,,,,,,,0,40,40,40,,,,,,,,,,,,,,,,,,,,,,,,,,,,,,,,,,,,,,,,,,,,,,,,,,,,,,,,,,,,,,,,,,,,,,,,,,,,,,,,,469.42504995800846,None,469.42504995800846,None,2.010183299389002,1.5723735000065062,469.42504995800846,None,469.42504995800846,None,,,,,,,dekel,2023_Jun_18_1532,working_memory,2021.2.3,None,
badlands_137.jpg,badlands_194.jpg,badlands_137.jpg,right,highway_107.jpg,bridge_212.jpg,mountain_206.jpg,badlands_137.jpg,playground_63.jpg,golf_course_265.jpg,3,badlands_194.jpg,0,badlands,,,,,,,,,0,41,41,41,,,,,,,,,,,,,,,,,,,,,,,,,,,,,,,,,,,,,,,,,,,,,,,,,,,,,,,,,,,,,,,,,,,,,,,,,,,,,,,,,471.0174532920064,None,471.0174532920064,None,2.010183299389002,0.13706791700678878,471.0174532920064,None,471.0174532920064,None,,,,,,,dekel,2023_Jun_18_1532,working_memory,2021.2.3,None,
golf_course_188.jpg,golf_course_157.jpg,golf_course_188.jpg,right,highway_199.jpg,playground_227.jpg,badlands_54.jpg,bridge_228.jpg,golf_course_188.jpg,mountain_62.jpg,4,golf_course_157.jpg,0,golf,,,,,,,,,0,42,42,42,,,,,,,,,,,,,,,,,,,,,,,,,,,,,,,,,,,,,,,,,,,,,,,,,,,,,,,,,,,,,,,,,,,,,,,,,,,,,,,,,471.17419200000586,None,471.17419200000586,None,4.022403258655805,1.3222182500030613,471.17419200000586,None,471.17419200000586,None,,,,,,,dekel,2023_Jun_18_1532,working_memory,2021.2.3,None,
badlands_184.jpg,badlands_184.jpg,badlands_103.jpg,left,playground_235.jpg,golf_course_342.jpg,bridge_197.jpg,mountain_294.jpg,badlands_184.jpg,highway_308.jpg,4,badlands_103.jpg,1,badlands,,,,,,,,,0,43,43,43,,,,,,,,,,,,,,,,,,,,,,,,,,,,,,,,,,,,,,,,,,,,,,,,,,,,,,,,,,,,,,,,,,,,,,,,,,,,,,,,,472.51646345799963,None,472.51646345799963,None,5.089613034623218,1.721282667000196,472.51646345799963,None,472.51646345799963,None,,,,,,,dekel,2023_Jun_18_1532,working_memory,2021.2.3,None,
mountain_232.jpg,mountain_232.jpg,mountain_3.jpg,left,golf_course_128.jpg,playground_124.jpg,badlands_170.jpg,mountain_232.jpg,bridge_147.jpg,highway_305.jpg,3,mountain_3.jpg,0,mountain,,,,,,,,,0,44,44,44,,,,,,,,,,,,,,,,,,,,,,,,,,,,,,,,,,,,,,,,,,,,,,,,,,,,,,,,,,,,,,,,,,,,,,,,,,,,,,,,,474.25839308300056,None,474.25839308300056,None,6.05091649694501,1.5404269159917021,474.25839308300056,None,474.25839308300056,None,,,,,,,dekel,2023_Jun_18_1532,working_memory,2021.2.3,None,
highway_93.jpg,highway_85.jpg,highway_93.jpg,right,golf_course_307.jpg,highway_93.jpg,badlands_164.jpg,playground_184.jpg,mountain_76.jpg,bridge_190.jpg,1,highway_85.jpg,0,highway,,,,,,,,,0,45,45,45,,,,,,,,,,,,,,,,,,,,,,,,,,,,,,,,,,,,,,,,,,,,,,,,,,,,,,,,,,,,,,,,,,,,,,,,,,,,,,,,,475.81969166699855,None,475.81969166699855,None,6.9714867617107945,2.6948068749916274,475.81969166699855,None,475.81969166699855,None,,,,,,,dekel,2023_Jun_18_1532,working_memory,2021.2.3,None,
highway_294.jpg,highway_203.jpg,highway_294.jpg,right,highway_294.jpg,mountain_176.jpg,playground_196.jpg,badlands_106.jpg,bridge_120.jpg,golf_course_269.jpg,0,highway_203.jpg,0,highway,,,,,,,,,0,46,46,46,,,,,,,,,,,,,,,,,,,,,,,,,,,,,,,,,,,,,,,,,,,,,,,,,,,,,,,,,,,,,,,,,,,,,,,,,,,,,,,,,478.53496462499606,None,478.53496462499606,None,8.0061099796334,1.5368432920076884,478.53496462499606,None,478.53496462499606,None,,,,,,,dekel,2023_Jun_18_1532,working_memory,2021.2.3,None,
golf_course_195.jpg,golf_course_2.jpg,golf_course_195.jpg,right,golf_course_195.jpg,playground_54.jpg,badlands_211.jpg,mountain_92.jpg,highway_28.jpg,bridge_63.jpg,0,golf_course_2.jpg,1,golf,,,,,,,,,0,47,47,47,,,,,,,,,,,,,,,,,,,,,,,,,,,,,,,,,,,,,,,,,,,,,,,,,,,,,,,,,,,,,,,,,,,,,,,,,,,,,,,,,480.09241016699525,None,480.09241016699525,None,5.008146639511201,1.6953691250091651,480.09241016699525,None,480.09241016699525,None,,,,,,,dekel,2023_Jun_18_1532,working_memory,2021.2.3,None,
mountain_57.jpg,mountain_57.jpg,mountain_138.jpg,left,playground_241.jpg,golf_course_71.jpg,badlands_125.jpg,mountain_57.jpg,highway_37.jpg,bridge_68.jpg,3,mountain_138.jpg,1,mountain,,,,,,,,,0,48,48,48,,,,,,,,,,,,,,,,,,,,,,,,,,,,,,,,,,,,,,,,,,,,,,,,,,,,,,,,,,,,,,,,,,,,,,,,,,,,,,,,,481.8098089999985,None,481.8098089999985,None,3.9816700610997966,1.403661167001701,481.8098089999985,None,481.8098089999985,None,,,,,,,dekel,2023_Jun_18_1532,working_memory,2021.2.3,None,
bridge_108.jpg,bridge_108.jpg,bridge_116.jpg,left,golf_course_297.jpg,highway_90.jpg,badlands_81.jpg,mountain_135.jpg,bridge_108.jpg,playground_118.jpg,4,bridge_116.jpg,0,bridge,,,,,,,,,0,49,49,49,,,,,,,,,,,,,,,,,,,,,,,,,,,,,,,,,,,,,,,,,,,,,,,,,,,,,,,,,,,,,,,,,,,,,,,,,,,,,,,,,483.23498562500754,None,483.23498562500754,None,3.020366598778004,1.3028154170024209,483.23498562500754,None,483.23498562500754,None,,,,,,,dekel,2023_Jun_18_1532,working_memory,2021.2.3,None,
golf_course_193.jpg,golf_course_193.jpg,golf_course_235.jpg,left,mountain_306.jpg,badlands_138.jpg,golf_course_193.jpg,bridge_204.jpg,playground_132.jpg,highway_3.jpg,2,golf_course_235.jpg,0,golf,,,,,,,,,0,50,50,50,,,,,,,,,,,,,,,,,,,,,,,,,,,,,,,,,,,,,,,,,,,,,,,,,,,,,,,,,,,,,,,,,,,,,,,,,,,,,,,,,484.56017441699805,None,484.56017441699805,None,2.018329938900204,2.8527683339925716,484.56017441699805,None,484.56017441699805,None,,,,,,,dekel,2023_Jun_18_1532,working_memory,2021.2.3,None,
bridge_65.jpg,bridge_65.jpg,bridge_60.jpg,left,highway_31.jpg,golf_course_226.jpg,badlands_201.jpg,mountain_120.jpg,bridge_65.jpg,playground_141.jpg,4,bridge_60.jpg,1,bridge,,,,,,,,,0,51,51,51,,,,,,,,,,,,,,,,,,,,,,,,,,,,,,,,,,,,,,,,,,,,,,,,,,,,,,,,,,,,,,,,,,,,,,,,,,,,,,,,,487.4335632500006,None,487.4335632500006,None,1.2688391038696536,1.8873632500035455,487.4335632500006,None,487.4335632500006,None,,,,,,,dekel,2023_Jun_18_1532,working_memory,2021.2.3,None,
playground_76.jpg,playground_22.jpg,playground_76.jpg,right,highway_50.jpg,playground_76.jpg,bridge_126.jpg,mountain_277.jpg,badlands_213.jpg,golf_course_288.jpg,1,playground_22.jpg,0,playground,,,,,,,,,0,52,52,52,,,,,,,,,,,,,,,,,,,,,,,,,,,,,,,,,,,,,,,,,,,,,,,,,,,,,,,,,,,,,,,,,,,,,,,,,,,,,,,,,489.342782000007,None,489.342782000007,None,6.189409368635438,1.3538262079964625,489.342782000007,None,489.342782000007,None,,,,,,,dekel,2023_Jun_18_1532,working_memory,2021.2.3,None,
golf_course_15.jpg,golf_course_113.jpg,golf_course_15.jpg,right,highway_18.jpg,badlands_173.jpg,bridge_24.jpg,playground_251.jpg,golf_course_15.jpg,mountain_137.jpg,4,golf_course_113.jpg,0,golf,,,,,,,,,0,53,53,53,,,,,,,,,,,,,,,,,,,,,,,,,,,,,,,,,,,,,,,,,,,,,,,,,,,,,,,,,,,,,,,,,,,,,,,,,,,,,,,,,490.7189851250005,None,490.7189851250005,None,6.189409368635438,1.2438092090014834,490.7189851250005,None,490.7189851250005,None,,,,,,,dekel,2023_Jun_18_1532,working_memory,2021.2.3,None,
badlands_24.jpg,badlands_53.jpg,badlands_24.jpg,right,playground_50.jpg,golf_course_72.jpg,badlands_24.jpg,highway_29.jpg,mountain_51.jpg,bridge_66.jpg,2,badlands_53.jpg,1,badlands,,,,,,,,,0,54,54,54,,,,,,,,,,,,,,,,,,,,,,,,,,,,,,,,,,,,,,,,,,,,,,,,,,,,,,,,,,,,,,,,,,,,,,,,,,,,,,,,,491.9841095830052,None,491.9841095830052,None,6.189409368635438,0.8137994999997318,491.9841095830052,None,491.9841095830052,None,,,,,,,dekel,2023_Jun_18_1532,working_memory,2021.2.3,None,
mountain_123.jpg,mountain_123.jpg,mountain_94.jpg,left,badlands_105.jpg,bridge_110.jpg,playground_85.jpg,highway_172.jpg,mountain_123.jpg,golf_course_162.jpg,4,mountain_94.jpg,0,mountain,,,,,,,,,0,55,55,55,,,,,,,,,,,,,,,,,,,,,,,,,,,,,,,,,,,,,,,,,,,,,,,,,,,,,,,,,,,,,,,,,,,,,,,,,,,,,,,,,492.819533707996,None,492.819533707996,None,6.189409368635438,0.1527640409913147,492.819533707996,None,492.819533707996,None,,,,,,,dekel,2023_Jun_18_1532,working_memory,2021.2.3,None,
bridge_191.jpg,bridge_191.jpg,bridge_184.jpg,left,playground_49.jpg,bridge_191.jpg,golf_course_3.jpg,mountain_233.jpg,highway_191.jpg,badlands_200.jpg,1,bridge_184.jpg,0,bridge,,,,,,,,,0,56,56,56,,,,,,,,,,,,,,,,,,,,,,,,,,,,,,,,,,,,,,,,,,,,,,,,,,,,,,,,,,,,,,,,,,,,,,,,,,,,,,,,,492.9926228330005,None,492.9926228330005,None,6.189409368635438,0.13736662500014063,492.9926228330005,None,492.9926228330005,None,,,,,,,dekel,2023_Jun_18_1532,working_memory,2021.2.3,None,
golf_course_78.jpg,golf_course_134.jpg,golf_course_78.jpg,right,playground_16.jpg,golf_course_78.jpg,bridge_254.jpg,highway_193.jpg,mountain_290.jpg,badlands_214.jpg,1,golf_course_134.jpg,0,golf,,,,,,,,,0,57,57,57,,,,,,,,,,,,,,,,,,,,,,,,,,,,,,,,,,,,,,,,,,,,,,,,,,,,,,,,,,,,,,,,,,,,,,,,,,,,,,,,,493.150678082995,None,493.150678082995,None,6.189409368635438,0.5040241250098916,493.150678082995,None,493.150678082995,None,,,,,,,dekel,2023_Jun_18_1532,working_memory,2021.2.3,None,
playground_117.jpg,playground_127.jpg,playground_117.jpg,right,highway_36.jpg,badlands_30.jpg,playground_117.jpg,golf_course_219.jpg,bridge_106.jpg,mountain_302.jpg,2,playground_127.jpg,1,playground,,,,,,,,,0,58,58,58,,,,,,,,,,,,,,,,,,,,,,,,,,,,,,,,,,,,,,,,,,,,,,,,,,,,,,,,,,,,,,,,,,,,,,,,,,,,,,,,,493.67788641700463,None,493.67788641700463,None,5.537678207739307,1.0441439999995055,493.67788641700463,None,493.67788641700463,None,,,,,,,dekel,2023_Jun_18_1532,working_memory,2021.2.3,None,
highway_415.jpg,highway_415.jpg,highway_174.jpg,left,playground_173.jpg,bridge_20.jpg,golf_course_59.jpg,highway_415.jpg,mountain_87.jpg,badlands_150.jpg,3,highway_174.jpg,1,highway,,,,,,,,,0,59,59,59,,,,,,,,,,,,,,,,,,,,,,,,,,,,,,,,,,,,,,,,,,,,,,,,,,,,,,,,,,,,,,,,,,,,,,,,,,,,,,,,,494.7427017500013,None,494.7427017500013,None,5.537678207739307,0.4780378750001546,494.7427017500013,None,494.7427017500013,None,,,,,,,dekel,2023_Jun_18_1532,working_memory,2021.2.3,None,
,,,,,,,,,,,,,,,,,,,,,,,,,,,,,,,,,,,,,,,,,,,,,,,,,,,,,,,,,,,,,,,,,,,,,,,,,,,,,,,,,,,,,,,,,,,,,,,,,,,,,,,,,,,,,,,,,,,,space,1.6992849999951432,495.228223291997,None,,,dekel,2023_Jun_18_1532,working_memory,2021.2.3,None,
,,,,,,,,,,,,,,,,,,,,,,,,,,,,,,,,,,,,,,,,,,,,,,,,,,,,,,,,,,,,,,,,,,,,,,,,,,,,,,,,,,,,,,,,,,,,,,,,,,,,,,,,,,,,,,,,,,,,,,,,495.228223291997,None,,,,,,
