target,image1,image2,correct,background_0,background_1,background_2,background_3,background_4,background_5,target_index,selected_dist,distractor_level,category,demo_loops.thisRepN,demo_loops.thisTrialN,demo_loops.thisN,demo_loops.thisIndex,exp_loops.thisRepN,exp_loops.thisTrialN,exp_loops.thisN,exp_loops.thisIndex,exp_loops_part2.thisRepN,exp_loops_part2.thisTrialN,exp_loops_part2.thisN,exp_loops_part2.thisIndex,key_resp.keys,key_resp.started,key_resp.stopped,text_consent_form.started,text_consent_form.stopped,button.started,button.stopped,button.numClicks,button.timesOn,button.timesOff,key_resp_2.keys,key_resp_2.rt,key_resp_2.started,key_resp_2.stopped,text_instructions_first_slide.started,text_instructions_first_slide.stopped,image_0_demo.started,image_0_demo.stopped,image_1_demo.started,image_1_demo.stopped,image_2_demo.started,image_2_demo.stopped,image_3_demo.started,image_3_demo.stopped,image_4_demo.started,image_4_demo.stopped,image_5_demo.started,image_5_demo.stopped,blank_screen_demo.started,blank_screen_demo.stopped,fixation_demo.started,fixation_demo.stopped,image_left_demo.started,image_left_demo.stopped,image_right_demo.started,image_right_demo.stopped,demo_test_key_resp.keys,demo_test_key_resp.rt,demo_test_key_resp.started,demo_test_key_resp.stopped,text_4.started,text_4.stopped,key_resp_after_demo.keys,key_resp_after_demo.rt,key_resp_after_demo.started,key_resp_after_demo.stopped,text_after_demo_instr.started,text_after_demo_instr.stopped,image_0.started,image_0.stopped,image_1.started,image_1.stopped,image_2.started,image_2.stopped,image_3.started,image_3.stopped,image_4.started,image_4.stopped,image_5.started,image_5.stopped,blank_screen.started,blank_screen.stopped,fixation_encoding.started,fixation_encoding.stopped,image_left.started,image_left.stopped,image_right.started,image_right.stopped,test_key_resp.keys,test_key_resp.rt,test_key_resp.started,test_key_resp.stopped,text_6.started,text_6.stopped,text_2.started,text_2.stopped,key_resp_4.keys,key_resp_4.rt,key_resp_4.started,key_resp_4.stopped,image_left_part2.started,image_left_part2.stopped,image_right_part2.started,image_right_part2.stopped,slider_part2.response,slider_part2.rt,slider_part2.started,slider_part2.stopped,text_5.started,text_5.stopped,key_resp_5.keys,key_resp_5.rt,key_resp_5.started,key_resp_5.stopped,text_3.started,text_3.stopped,participant,session,date,expName,psychopyVersion,frameRate,
,,,,,,,,,,,,,,,,,,,,,,,,,,None,10.704540667000401,None,,,,,,,,,,,,,,,,,,,,,,,,,,,,,,,,,,,,,,,,,,,,,,,,,,,,,,,,,,,,,,,,,,,,,,,,,,,,,,,,,,,,,,,,,,,,,,eden,001,2023_Jun_14_1153,working,2021.2.3,None,
,,,,,,,,,,,,,,,,,,,,,,,,,,,,,10.704540667000401,None,10.704540667000401,None,1,[5.760434874995553],[5.760439124998811],space,21.661240041001292,16.465045666998776,None,,,,,,,,,,,,,,,,,,,,,,,,,,,,,,,,,,,,,,,,,,,,,,,,,,,,,,,,,,,,,,,,,,,,,,,,,,,,,,,,,,,eden,001,2023_Jun_14_1153,working,2021.2.3,None,
flower1.jpg,flower1.jpg,flower1_pair.jpg,left,leaf3.jpg,trail1.jpg,flower1.jpg,bird1.jpg,tree3.jpg,fence4.jpg,2,,,,0,0,0,0,,,,,,,,,,,,,,,,,,,,,,,16.465045666998776,None,38.71986041699711,38.91932874999475,38.907847624999704,39.10207387499395,39.107793541996216,39.29872912499559,39.3198343749973,39.508814999993774,39.508814999993774,39.70490974999848,39.712248833995545,39.90216999999393,39.90784591699776,None,38.241756416995486,38.73665916699974,40.86683641700074,None,40.86683641700074,None,right,2.012809332998586,40.86683641700074,None,40.86683641700074,None,,,,,,,,,,,,,,,,,,,,,,,,,,,,,,,,,,,,,,,,,,,,,,,,,,,,,,,eden,001,2023_Jun_14_1153,working,2021.2.3,None,
leaf2.jpg,leaf1.jpg,leaf2.jpg,right,trail2.jpg,leaf2.jpg,bird2.jpg,tree2.jpg,fence3.jpg,flower2.jpg,1,,,,0,1,1,1,,,,,,,,,,,,,,,,,,,,,,,,,43.41352512499725,43.60588941699825,43.61118495899427,43.80635999999504,43.81161370899645,44.00179558399395,44.0210208339995,44.216576499995426,44.216576499995426,44.404117083999154,44.41734887499479,44.61645766699803,44.62056408399803,None,42.95294479199947,43.4484199590006,45.620926333998796,None,45.620926333998796,None,left,1.230200625002908,45.620926333998796,None,45.620926333998796,None,,,,,,,,,,,,,,,,,,,,,,,,,,,,,,,,,,,,,,,,,,,,,,,,,,,,,,,eden,001,2023_Jun_14_1153,working,2021.2.3,None,
fence1.jpg,fence1.jpg,fence2.jpg,left,tree1.jpg,bird3.jpg,trail3.jpg,fence1.jpg,leaf4.jpg,flower3.jpg,3,,,,0,2,2,2,,,,,,,,,,,,,,,,,,,,,,,,,47.38219545899483,47.580996999997296,47.58639558399591,47.787804333995155,47.787804333995155,47.987433374997636,47.987433374997636,48.18711795899435,48.18711795899435,48.38391216699529,48.38391216699529,48.58024812499934,48.58663808399433,None,46.90045537499827,47.39817233399663,49.581746208998084,None,49.581746208998084,None,left,0.8203495420020772,49.581746208998084,None,49.581746208998084,None,,,,,,,,,,,,,,,,,,,,,,,,,,,,,,,,,,,,,,,,,,,,,,,,,,,,,,,eden,001,2023_Jun_14_1153,working,2021.2.3,None,
,,,,,,,,,,,,,,,,,,,,,,,,,,,,,,,,,,,,,,,,,,,,,,,,,,,,,,,,,,,,,,,,,,,,space,14.8374773750038,50.429094249993796,None,,,,,,,,,,,,,,,,,,,,,,,,,,,,,,,,,,,,,,,,,,,,,,,,,,,eden,001,2023_Jun_14_1153,working,2021.2.3,None,
,,,,,,,,,,,,,,,,,,,,,,,,,,,,,,,,,,,,,,,,,,,,,,,,,,,,,,,,,,,,,,,,,,,,,,,,50.429094249993796,None,289.64921091699944,289.84513958399475,289.8504272919963,290.0508651669952,290.0508651669952,290.25141458399594,290.25141458399594,290.4474433340001,290.4534404169972,290.65257945899793,290.65257945899793,290.8544442919956,290.8544442919956,None,289.1709005839948,289.6681922919961,291.85089683399565,None,291.85089683399565,None,left,0.28575525000633206,291.85089683399565,None,291.85089683399565,None,292.1445139589996,None,space,66.02992566600005,292.1445139589996,None,,,,,,,,,,,,,,,,,eden,001,2023_Jun_14_1153,working,2021.2.3,None,
badlands_113.jpg,badlands_113.jpg,badlands_225.jpg,left,mountain_151.jpg,highway_76.jpg,badlands_113.jpg,golf_course_221.jpg,bridge_136.jpg,playground_153.jpg,2,badlands_225.jpg,0,badlands,,,,,,,,,0,0,0,0,,,,,,,,,,,,,,,,,,,,,,,,,,,,,,,,,,,,,,,,,,,,,,,,,,,,,,,,,,,,,,,,,,,,,,,,,,,,,,,,,358.2413722499987,None,358.2413722499987,None,5.032586558044806,1.299682249999023,358.2413722499987,None,358.2413722499987,None,,,,,,,eden,001,2023_Jun_14_1153,working,2021.2.3,None,
badlands_222.jpg,badlands_222.jpg,badlands_34.jpg,left,highway_247.jpg,badlands_222.jpg,mountain_43.jpg,golf_course_333.jpg,bridge_142.jpg,playground_126.jpg,1,badlands_34.jpg,0,badlands,,,,,,,,,0,1,1,1,,,,,,,,,,,,,,,,,,,,,,,,,,,,,,,,,,,,,,,,,,,,,,,,,,,,,,,,,,,,,,,,,,,,,,,,,,,,,,,,,359.5502367089939,None,359.5502367089939,None,5.032586558044806,0.48586858300404856,359.5502367089939,None,359.5502367089939,None,,,,,,,eden,001,2023_Jun_14_1153,working,2021.2.3,None,
highway_359.jpg,highway_359.jpg,highway_379.jpg,left,mountain_268.jpg,badlands_180.jpg,bridge_96.jpg,highway_359.jpg,playground_191.jpg,golf_course_67.jpg,3,highway_379.jpg,1,highway,,,,,,,,,0,2,2,2,,,,,,,,,,,,,,,,,,,,,,,,,,,,,,,,,,,,,,,,,,,,,,,,,,,,,,,,,,,,,,,,,,,,,,,,,,,,,,,,,360.0565354999999,None,360.0565354999999,None,5.032586558044806,0.35435091700492194,360.0565354999999,None,360.0565354999999,None,,,,,,,eden,001,2023_Jun_14_1153,working,2021.2.3,None,
mountain_222.jpg,mountain_244.jpg,mountain_222.jpg,right,mountain_222.jpg,playground_181.jpg,bridge_266.jpg,golf_course_176.jpg,badlands_156.jpg,highway_268.jpg,0,mountain_244.jpg,0,mountain,,,,,,,,,0,3,3,3,,,,,,,,,,,,,,,,,,,,,,,,,,,,,,,,,,,,,,,,,,,,,,,,,,,,,,,,,,,,,,,,,,,,,,,,,,,,,,,,,360.43219091699575,None,360.43219091699575,None,5.032586558044806,0.2958483749971492,360.43219091699575,None,360.43219091699575,None,,,,,,,eden,001,2023_Jun_14_1153,working,2021.2.3,None,
bridge_172.jpg,bridge_172.jpg,bridge_17.jpg,left,golf_course_171.jpg,highway_404.jpg,bridge_172.jpg,playground_83.jpg,mountain_309.jpg,badlands_157.jpg,2,bridge_17.jpg,0,bridge,,,,,,,,,0,4,4,4,,,,,,,,,,,,,,,,,,,,,,,,,,,,,,,,,,,,,,,,,,,,,,,,,,,,,,,,,,,,,,,,,,,,,,,,,,,,,,,,,360.7495878339978,None,360.7495878339978,None,5.032586558044806,0.25305058399681,360.7495878339978,None,360.7495878339978,None,,,,,,,eden,001,2023_Jun_14_1153,working,2021.2.3,None,
playground_145.jpg,playground_242.jpg,playground_145.jpg,right,playground_145.jpg,highway_9.jpg,bridge_39.jpg,mountain_212.jpg,badlands_79.jpg,golf_course_241.jpg,0,playground_242.jpg,1,playground,,,,,,,,,0,5,5,5,,,,,,,,,,,,,,,,,,,,,,,,,,,,,,,,,,,,,,,,,,,,,,,,,,,,,,,,,,,,,,,,,,,,,,,,,,,,,,,,,361.025472041998,None,361.025472041998,None,5.032586558044806,0.2290226250042906,361.025472041998,None,361.025472041998,None,,,,,,,eden,001,2023_Jun_14_1153,working,2021.2.3,None,
highway_245.jpg,highway_245.jpg,highway_134.jpg,left,bridge_1.jpg,golf_course_338.jpg,playground_256.jpg,highway_245.jpg,badlands_46.jpg,mountain_166.jpg,3,highway_134.jpg,0,highway,,,,,,,,,0,6,6,6,,,,,,,,,,,,,,,,,,,,,,,,,,,,,,,,,,,,,,,,,,,,,,,,,,,,,,,,,,,,,,,,,,,,,,,,,,,,,,,,,361.2737748340005,None,361.2737748340005,None,5.032586558044806,0.261743666997063,361.2737748340005,None,361.2737748340005,None,,,,,,,eden,001,2023_Jun_14_1153,working,2021.2.3,None,
mountain_293.jpg,mountain_293.jpg,mountain_47.jpg,left,badlands_183.jpg,golf_course_181.jpg,mountain_293.jpg,playground_222.jpg,bridge_173.jpg,highway_83.jpg,2,mountain_47.jpg,1,mountain,,,,,,,,,0,7,7,7,,,,,,,,,,,,,,,,,,,,,,,,,,,,,,,,,,,,,,,,,,,,,,,,,,,,,,,,,,,,,,,,,,,,,,,,,,,,,,,,,361.55635166700085,None,361.55635166700085,None,5.032586558044806,0.245902415997989,361.55635166700085,None,361.55635166700085,None,,,,,,,eden,001,2023_Jun_14_1153,working,2021.2.3,None,
bridge_146.jpg,bridge_27.jpg,bridge_146.jpg,right,highway_269.jpg,bridge_146.jpg,golf_course_291.jpg,mountain_35.jpg,badlands_55.jpg,playground_195.jpg,1,bridge_27.jpg,0,bridge,,,,,,,,,0,8,8,8,,,,,,,,,,,,,,,,,,,,,,,,,,,,,,,,,,,,,,,,,,,,,,,,,,,,,,,,,,,,,,,,,,,,,,,,,,,,,,,,,361.82304454199766,None,361.82304454199766,None,5.977596741344195,0.9544516669993754,361.82304454199766,None,361.82304454199766,None,,,,,,,eden,001,2023_Jun_14_1153,working,2021.2.3,None,
playground_257.jpg,playground_257.jpg,playground_215.jpg,left,mountain_198.jpg,highway_15.jpg,badlands_80.jpg,golf_course_282.jpg,playground_257.jpg,bridge_62.jpg,4,playground_215.jpg,1,playground,,,,,,,,,0,9,9,9,,,,,,,,,,,,,,,,,,,,,,,,,,,,,,,,,,,,,,,,,,,,,,,,,,,,,,,,,,,,,,,,,,,,,,,,,,,,,,,,,362.8002830419937,None,362.8002830419937,None,5.977596741344195,0.16152554199652513,362.8002830419937,None,362.8002830419937,None,,,,,,,eden,001,2023_Jun_14_1153,working,2021.2.3,None,
mountain_230.jpg,mountain_230.jpg,mountain_97.jpg,left,golf_course_253.jpg,mountain_230.jpg,highway_81.jpg,playground_47.jpg,badlands_9.jpg,bridge_4.jpg,1,mountain_97.jpg,1,mountain,,,,,,,,,0,10,10,10,,,,,,,,,,,,,,,,,,,,,,,,,,,,,,,,,,,,,,,,,,,,,,,,,,,,,,,,,,,,,,,,,,,,,,,,,,,,,,,,,362.9822207499965,None,362.9822207499965,None,5.977596741344195,0.20376816699717892,362.9822207499965,None,362.9822207499965,None,,,,,,,eden,001,2023_Jun_14_1153,working,2021.2.3,None,
playground_10.jpg,playground_10.jpg,playground_122.jpg,left,highway_226.jpg,golf_course_33.jpg,mountain_38.jpg,playground_10.jpg,bridge_102.jpg,badlands_10.jpg,3,playground_122.jpg,0,playground,,,,,,,,,0,11,11,11,,,,,,,,,,,,,,,,,,,,,,,,,,,,,,,,,,,,,,,,,,,,,,,,,,,,,,,,,,,,,,,,,,,,,,,,,,,,,,,,,363.2081262089996,None,363.2081262089996,None,5.977596741344195,0.17838545799895655,363.2081262089996,None,363.2081262089996,None,,,,,,,eden,001,2023_Jun_14_1153,working,2021.2.3,None,
highway_177.jpg,highway_177.jpg,highway_278.jpg,left,golf_course_202.jpg,playground_14.jpg,highway_177.jpg,bridge_152.jpg,badlands_227.jpg,mountain_192.jpg,2,highway_278.jpg,1,highway,,,,,,,,,0,12,12,12,,,,,,,,,,,,,,,,,,,,,,,,,,,,,,,,,,,,,,,,,,,,,,,,,,,,,,,,,,,,,,,,,,,,,,,,,,,,,,,,,363.4069958339969,None,363.4069958339969,None,5.977596741344195,0.17965729199931957,363.4069958339969,None,363.4069958339969,None,,,,,,,eden,001,2023_Jun_14_1153,working,2021.2.3,None,
badlands_21.jpg,badlands_1.jpg,badlands_21.jpg,right,bridge_72.jpg,badlands_21.jpg,playground_74.jpg,golf_course_56.jpg,mountain_228.jpg,highway_251.jpg,1,badlands_1.jpg,0,badlands,,,,,,,,,0,13,13,13,,,,,,,,,,,,,,,,,,,,,,,,,,,,,,,,,,,,,,,,,,,,,,,,,,,,,,,,,,,,,,,,,,,,,,,,,,,,,,,,,363.6101560419993,None,363.6101560419993,None,5.977596741344195,0.16103395800018916,363.6101560419993,None,363.6101560419993,None,,,,,,,eden,001,2023_Jun_14_1153,working,2021.2.3,None,
playground_131.jpg,playground_164.jpg,playground_131.jpg,right,highway_101.jpg,golf_course_166.jpg,bridge_117.jpg,mountain_180.jpg,playground_131.jpg,badlands_27.jpg,4,playground_164.jpg,1,playground,,,,,,,,,0,14,14,14,,,,,,,,,,,,,,,,,,,,,,,,,,,,,,,,,,,,,,,,,,,,,,,,,,,,,,,,,,,,,,,,,,,,,,,,,,,,,,,,,363.7929772089992,None,363.7929772089992,None,5.977596741344195,0.15237229100603145,363.7929772089992,None,363.7929772089992,None,,,,,,,eden,001,2023_Jun_14_1153,working,2021.2.3,None,
bridge_256.jpg,bridge_256.jpg,bridge_211.jpg,left,highway_53.jpg,mountain_250.jpg,bridge_256.jpg,playground_165.jpg,golf_course_300.jpg,badlands_128.jpg,2,bridge_211.jpg,1,bridge,,,,,,,,,0,15,15,15,,,,,,,,,,,,,,,,,,,,,,,,,,,,,,,,,,,,,,,,,,,,,,,,,,,,,,,,,,,,,,,,,,,,,,,,,,,,,,,,,363.9639300419949,None,363.9639300419949,None,5.977596741344195,0.18027908300427953,363.9639300419949,None,363.9639300419949,None,,,,,,,eden,001,2023_Jun_14_1153,working,2021.2.3,None,
badlands_52.jpg,badlands_94.jpg,badlands_52.jpg,right,highway_399.jpg,golf_course_174.jpg,mountain_91.jpg,badlands_52.jpg,bridge_140.jpg,playground_154.jpg,3,badlands_94.jpg,0,badlands,,,,,,,,,0,16,16,16,,,,,,,,,,,,,,,,,,,,,,,,,,,,,,,,,,,,,,,,,,,,,,,,,,,,,,,,,,,,,,,,,,,,,,,,,,,,,,,,,364.1666660839983,None,364.1666660839983,None,5.977596741344195,0.2872690420044819,364.1666660839983,None,364.1666660839983,None,,,,,,,eden,001,2023_Jun_14_1153,working,2021.2.3,None,
badlands_23.jpg,badlands_114.jpg,badlands_23.jpg,right,highway_257.jpg,badlands_23.jpg,golf_course_194.jpg,mountain_251.jpg,playground_140.jpg,bridge_144.jpg,1,badlands_114.jpg,0,badlands,,,,,,,,,0,17,17,17,,,,,,,,,,,,,,,,,,,,,,,,,,,,,,,,,,,,,,,,,,,,,,,,,,,,,,,,,,,,,,,,,,,,,,,,,,,,,,,,,364.4746912499977,None,364.4746912499977,None,7.020366598778004,0.7283130830037408,364.4746912499977,None,364.4746912499977,None,,,,,,,eden,001,2023_Jun_14_1153,working,2021.2.3,None,
mountain_101.jpg,mountain_221.jpg,mountain_101.jpg,right,bridge_155.jpg,playground_33.jpg,highway_287.jpg,mountain_101.jpg,badlands_44.jpg,golf_course_127.jpg,3,mountain_221.jpg,1,mountain,,,,,,,,,0,18,18,18,,,,,,,,,,,,,,,,,,,,,,,,,,,,,,,,,,,,,,,,,,,,,,,,,,,,,,,,,,,,,,,,,,,,,,,,,,,,,,,,,365.22421137499623,None,365.22421137499623,None,7.020366598778004,0.15399504100059858,365.22421137499623,None,365.22421137499623,None,,,,,,,eden,001,2023_Jun_14_1153,working,2021.2.3,None,
badlands_221.jpg,badlands_207.jpg,badlands_221.jpg,right,golf_course_328.jpg,playground_36.jpg,highway_78.jpg,badlands_221.jpg,mountain_152.jpg,bridge_87.jpg,3,badlands_207.jpg,1,badlands,,,,,,,,,0,19,19,19,,,,,,,,,,,,,,,,,,,,,,,,,,,,,,,,,,,,,,,,,,,,,,,,,,,,,,,,,,,,,,,,,,,,,,,,,,,,,,,,,365.39746658399963,None,365.39746658399963,None,7.020366598778004,0.15428829200391192,365.39746658399963,None,365.39746658399963,None,,,,,,,eden,001,2023_Jun_14_1153,working,2021.2.3,None,
mountain_154.jpg,mountain_154.jpg,mountain_95.jpg,left,golf_course_305.jpg,playground_204.jpg,bridge_74.jpg,mountain_154.jpg,badlands_166.jpg,highway_288.jpg,3,mountain_95.jpg,1,mountain,,,,,,,,,0,20,20,20,,,,,,,,,,,,,,,,,,,,,,,,,,,,,,,,,,,,,,,,,,,,,,,,,,,,,,,,,,,,,,,,,,,,,,,,,,,,,,,,,365.572332083997,None,365.572332083997,None,7.020366598778004,0.13933379200170748,365.572332083997,None,365.572332083997,None,,,,,,,eden,001,2023_Jun_14_1153,working,2021.2.3,None,
bridge_91.jpg,bridge_253.jpg,bridge_91.jpg,right,golf_course_55.jpg,playground_98.jpg,bridge_91.jpg,highway_295.jpg,mountain_41.jpg,badlands_33.jpg,2,bridge_253.jpg,0,bridge,,,,,,,,,0,21,21,21,,,,,,,,,,,,,,,,,,,,,,,,,,,,,,,,,,,,,,,,,,,,,,,,,,,,,,,,,,,,,,,,,,,,,,,,,,,,,,,,,365.7341932089985,None,365.7341932089985,None,7.957230142566191,0.8939672089982196,365.7341932089985,None,365.7341932089985,None,,,,,,,eden,001,2023_Jun_14_1153,working,2021.2.3,None,
highway_273.jpg,highway_273.jpg,highway_384.jpg,left,bridge_22.jpg,mountain_146.jpg,badlands_217.jpg,highway_273.jpg,golf_course_116.jpg,playground_55.jpg,3,highway_384.jpg,0,highway,,,,,,,,,0,22,22,22,,,,,,,,,,,,,,,,,,,,,,,,,,,,,,,,,,,,,,,,,,,,,,,,,,,,,,,,,,,,,,,,,,,,,,,,,,,,,,,,,366.64836437499616,None,366.64836437499616,None,7.957230142566191,0.15451216699875658,366.64836437499616,None,366.64836437499616,None,,,,,,,eden,001,2023_Jun_14_1153,working,2021.2.3,None,
playground_60.jpg,playground_60.jpg,playground_244.jpg,left,playground_60.jpg,highway_178.jpg,badlands_121.jpg,mountain_126.jpg,golf_course_179.jpg,bridge_118.jpg,0,playground_244.jpg,1,playground,,,,,,,,,0,23,23,23,,,,,,,,,,,,,,,,,,,,,,,,,,,,,,,,,,,,,,,,,,,,,,,,,,,,,,,,,,,,,,,,,,,,,,,,,,,,,,,,,366.82535041699884,None,366.82535041699884,None,7.957230142566191,0.13696208400506293,366.82535041699884,None,366.82535041699884,None,,,,,,,eden,001,2023_Jun_14_1153,working,2021.2.3,None,
golf_course_217.jpg,golf_course_35.jpg,golf_course_217.jpg,right,playground_37.jpg,mountain_199.jpg,bridge_193.jpg,golf_course_217.jpg,highway_17.jpg,badlands_174.jpg,3,golf_course_35.jpg,0,golf,,,,,,,,,0,24,24,24,,,,,,,,,,,,,,,,,,,,,,,,,,,,,,,,,,,,,,,,,,,,,,,,,,,,,,,,,,,,,,,,,,,,,,,,,,,,,,,,,366.9844613749956,None,366.9844613749956,None,7.957230142566191,0.16872041600436205,366.9844613749956,None,366.9844613749956,None,,,,,,,eden,001,2023_Jun_14_1153,working,2021.2.3,None,
playground_240.jpg,playground_40.jpg,playground_240.jpg,right,mountain_226.jpg,highway_265.jpg,playground_240.jpg,golf_course_313.jpg,badlands_104.jpg,bridge_79.jpg,2,playground_40.jpg,1,playground,,,,,,,,,0,25,25,25,,,,,,,,,,,,,,,,,,,,,,,,,,,,,,,,,,,,,,,,,,,,,,,,,,,,,,,,,,,,,,,,,,,,,,,,,,,,,,,,,367.1735959169964,None,367.1735959169964,None,7.957230142566191,0.1463320000038948,367.1735959169964,None,367.1735959169964,None,,,,,,,eden,001,2023_Jun_14_1153,working,2021.2.3,None,
bridge_202.jpg,bridge_202.jpg,bridge_38.jpg,left,highway_138.jpg,bridge_202.jpg,mountain_29.jpg,badlands_16.jpg,golf_course_105.jpg,playground_246.jpg,1,bridge_38.jpg,1,bridge,,,,,,,,,0,26,26,26,,,,,,,,,,,,,,,,,,,,,,,,,,,,,,,,,,,,,,,,,,,,,,,,,,,,,,,,,,,,,,,,,,,,,,,,,,,,,,,,,367.34156562499993,None,367.34156562499993,None,8.983706720977597,0.9286735409987159,367.34156562499993,None,367.34156562499993,None,,,,,,,eden,001,2023_Jun_14_1153,working,2021.2.3,None,
golf_course_331.jpg,golf_course_331.jpg,golf_course_26.jpg,left,mountain_169.jpg,golf_course_331.jpg,playground_258.jpg,bridge_234.jpg,highway_148.jpg,badlands_122.jpg,1,golf_course_26.jpg,1,golf,,,,,,,,,0,27,27,27,,,,,,,,,,,,,,,,,,,,,,,,,,,,,,,,,,,,,,,,,,,,,,,,,,,,,,,,,,,,,,,,,,,,,,,,,,,,,,,,,368.29158212499897,None,368.29158212499897,None,8.983706720977597,0.1698890840052627,368.29158212499897,None,368.29158212499897,None,,,,,,,eden,001,2023_Jun_14_1153,working,2021.2.3,None,
badlands_70.jpg,badlands_70.jpg,badlands_119.jpg,left,bridge_112.jpg,mountain_307.jpg,golf_course_238.jpg,badlands_70.jpg,highway_383.jpg,playground_233.jpg,3,badlands_119.jpg,1,badlands,,,,,,,,,0,28,28,28,,,,,,,,,,,,,,,,,,,,,,,,,,,,,,,,,,,,,,,,,,,,,,,,,,,,,,,,,,,,,,,,,,,,,,,,,,,,,,,,,368.4826233749991,None,368.4826233749991,None,8.983706720977597,0.19479737499932526,368.4826233749991,None,368.4826233749991,None,,,,,,,eden,001,2023_Jun_14_1153,working,2021.2.3,None,
highway_156.jpg,highway_156.jpg,highway_293.jpg,left,playground_6.jpg,highway_156.jpg,badlands_6.jpg,bridge_45.jpg,golf_course_120.jpg,mountain_102.jpg,1,highway_293.jpg,1,highway,,,,,,,,,0,29,29,29,,,,,,,,,,,,,,,,,,,,,,,,,,,,,,,,,,,,,,,,,,,,,,,,,,,,,,,,,,,,,,,,,,,,,,,,,,,,,,,,,368.69862162500067,None,368.69862162500067,None,8.983706720977597,0.1545697920009843,368.69862162500067,None,368.69862162500067,None,,,,,,,eden,001,2023_Jun_14_1153,working,2021.2.3,None,
golf_course_309.jpg,golf_course_209.jpg,golf_course_309.jpg,right,highway_354.jpg,playground_15.jpg,mountain_187.jpg,badlands_216.jpg,golf_course_309.jpg,bridge_133.jpg,4,golf_course_209.jpg,1,golf,,,,,,,,,0,30,30,30,,,,,,,,,,,,,,,,,,,,,,,,,,,,,,,,,,,,,,,,,,,,,,,,,,,,,,,,,,,,,,,,,,,,,,,,,,,,,,,,,368.874275958995,None,368.874275958995,None,8.983706720977597,0.17848137500550365,368.874275958995,None,368.874275958995,None,,,,,,,eden,001,2023_Jun_14_1153,working,2021.2.3,None,
bridge_250.jpg,bridge_250.jpg,bridge_134.jpg,left,golf_course_196.jpg,highway_30.jpg,bridge_250.jpg,mountain_40.jpg,playground_249.jpg,badlands_97.jpg,2,bridge_134.jpg,0,bridge,,,,,,,,,0,31,31,31,,,,,,,,,,,,,,,,,,,,,,,,,,,,,,,,,,,,,,,,,,,,,,,,,,,,,,,,,,,,,,,,,,,,,,,,,,,,,,,,,369.0736269169938,None,369.0736269169938,None,8.983706720977597,0.18829987500066636,369.0736269169938,None,369.0736269169938,None,,,,,,,eden,001,2023_Jun_14_1153,working,2021.2.3,None,
golf_course_214.jpg,golf_course_312.jpg,golf_course_214.jpg,right,highway_102.jpg,golf_course_214.jpg,playground_176.jpg,bridge_164.jpg,badlands_171.jpg,mountain_253.jpg,1,golf_course_312.jpg,0,golf,,,,,,,,,0,32,32,32,,,,,,,,,,,,,,,,,,,,,,,,,,,,,,,,,,,,,,,,,,,,,,,,,,,,,,,,,,,,,,,,,,,,,,,,,,,,,,,,,369.28173545900063,None,369.28173545900063,None,7.908350305498981,0.9962722080017556,369.28173545900063,None,369.28173545900063,None,,,,,,,eden,001,2023_Jun_14_1153,working,2021.2.3,None,
playground_219.jpg,playground_21.jpg,playground_219.jpg,right,golf_course_252.jpg,badlands_120.jpg,bridge_158.jpg,playground_219.jpg,highway_33.jpg,mountain_202.jpg,3,playground_21.jpg,0,playground,,,,,,,,,0,33,33,33,,,,,,,,,,,,,,,,,,,,,,,,,,,,,,,,,,,,,,,,,,,,,,,,,,,,,,,,,,,,,,,,,,,,,,,,,,,,,,,,,370.2988129169971,None,370.2988129169971,None,7.908350305498981,0.1457846250050352,370.2988129169971,None,370.2988129169971,None,,,,,,,eden,001,2023_Jun_14_1153,working,2021.2.3,None,
bridge_128.jpg,bridge_61.jpg,bridge_128.jpg,right,bridge_128.jpg,highway_154.jpg,badlands_35.jpg,golf_course_137.jpg,mountain_39.jpg,playground_162.jpg,0,bridge_61.jpg,0,bridge,,,,,,,,,0,34,34,34,,,,,,,,,,,,,,,,,,,,,,,,,,,,,,,,,,,,,,,,,,,,,,,,,,,,,,,,,,,,,,,,,,,,,,,,,,,,,,,,,370.46630141700007,None,370.46630141700007,None,7.908350305498981,0.1374775000003865,370.46630141700007,None,370.46630141700007,None,,,,,,,eden,001,2023_Jun_14_1153,working,2021.2.3,None,
highway_209.jpg,highway_209.jpg,highway_122.jpg,left,bridge_52.jpg,playground_78.jpg,golf_course_41.jpg,badlands_47.jpg,highway_209.jpg,mountain_33.jpg,4,highway_122.jpg,1,highway,,,,,,,,,0,35,35,35,,,,,,,,,,,,,,,,,,,,,,,,,,,,,,,,,,,,,,,,,,,,,,,,,,,,,,,,,,,,,,,,,,,,,,,,,,,,,,,,,370.62298258399824,None,370.62298258399824,None,7.908350305498981,0.1306865000005928,370.62298258399824,None,370.62298258399824,None,,,,,,,eden,001,2023_Jun_14_1153,working,2021.2.3,None,
playground_144.jpg,playground_144.jpg,playground_65.jpg,left,badlands_215.jpg,mountain_88.jpg,golf_course_102.jpg,playground_144.jpg,bridge_238.jpg,highway_274.jpg,3,playground_65.jpg,1,playground,,,,,,,,,0,36,36,36,,,,,,,,,,,,,,,,,,,,,,,,,,,,,,,,,,,,,,,,,,,,,,,,,,,,,,,,,,,,,,,,,,,,,,,,,,,,,,,,,370.7749836669973,None,370.7749836669973,None,7.036659877800407,0.7115702500013867,370.7749836669973,None,370.7749836669973,None,,,,,,,eden,001,2023_Jun_14_1153,working,2021.2.3,None,
mountain_110.jpg,mountain_157.jpg,mountain_110.jpg,right,golf_course_42.jpg,playground_103.jpg,mountain_110.jpg,bridge_86.jpg,badlands_60.jpg,highway_342.jpg,2,mountain_157.jpg,0,mountain,,,,,,,,,0,37,37,37,,,,,,,,,,,,,,,,,,,,,,,,,,,,,,,,,,,,,,,,,,,,,,,,,,,,,,,,,,,,,,,,,,,,,,,,,,,,,,,,,371.5067617089953,None,371.5067617089953,None,7.036659877800407,0.12931200000457466,371.5067617089953,None,371.5067617089953,None,,,,,,,eden,001,2023_Jun_14_1153,working,2021.2.3,None,
highway_394.jpg,highway_204.jpg,highway_394.jpg,right,highway_394.jpg,golf_course_144.jpg,playground_68.jpg,badlands_26.jpg,bridge_218.jpg,mountain_32.jpg,0,highway_204.jpg,0,highway,,,,,,,,,0,38,38,38,,,,,,,,,,,,,,,,,,,,,,,,,,,,,,,,,,,,,,,,,,,,,,,,,,,,,,,,,,,,,,,,,,,,,,,,,,,,,,,,,371.6559385839937,None,371.6559385839937,None,7.036659877800407,0.12350366699683946,371.6559385839937,None,371.6559385839937,None,,,,,,,eden,001,2023_Jun_14_1153,working,2021.2.3,None,
golf_course_87.jpg,golf_course_87.jpg,golf_course_161.jpg,left,golf_course_87.jpg,mountain_190.jpg,bridge_124.jpg,highway_58.jpg,badlands_152.jpg,playground_237.jpg,0,golf_course_161.jpg,1,golf,,,,,,,,,0,39,39,39,,,,,,,,,,,,,,,,,,,,,,,,,,,,,,,,,,,,,,,,,,,,,,,,,,,,,,,,,,,,,,,,,,,,,,,,,,,,,,,,,371.7987709589943,None,371.7987709589943,None,5.871690427698574,0.6124153749988182,371.7987709589943,None,371.7987709589943,None,,,,,,,eden,001,2023_Jun_14_1153,working,2021.2.3,None,
mountain_156.jpg,mountain_128.jpg,mountain_156.jpg,right,playground_64.jpg,bridge_180.jpg,badlands_72.jpg,mountain_156.jpg,highway_319.jpg,golf_course_23.jpg,3,mountain_128.jpg,0,mountain,,,,,,,,,0,40,40,40,,,,,,,,,,,,,,,,,,,,,,,,,,,,,,,,,,,,,,,,,,,,,,,,,,,,,,,,,,,,,,,,,,,,,,,,,,,,,,,,,372.43113416699634,None,372.43113416699634,None,5.871690427698574,0.1306345839984715,372.43113416699634,None,372.43113416699634,None,,,,,,,eden,001,2023_Jun_14_1153,working,2021.2.3,None,
badlands_137.jpg,badlands_194.jpg,badlands_137.jpg,right,highway_107.jpg,bridge_212.jpg,mountain_206.jpg,badlands_137.jpg,playground_63.jpg,golf_course_265.jpg,3,badlands_194.jpg,0,badlands,,,,,,,,,0,41,41,41,,,,,,,,,,,,,,,,,,,,,,,,,,,,,,,,,,,,,,,,,,,,,,,,,,,,,,,,,,,,,,,,,,,,,,,,,,,,,,,,,372.58110383399617,None,372.58110383399617,None,5.871690427698574,0.11358808299701195,372.58110383399617,None,372.58110383399617,None,,,,,,,eden,001,2023_Jun_14_1153,working,2021.2.3,None,
golf_course_188.jpg,golf_course_157.jpg,golf_course_188.jpg,right,highway_199.jpg,playground_227.jpg,badlands_54.jpg,bridge_228.jpg,golf_course_188.jpg,mountain_62.jpg,4,golf_course_157.jpg,0,golf,,,,,,,,,0,42,42,42,,,,,,,,,,,,,,,,,,,,,,,,,,,,,,,,,,,,,,,,,,,,,,,,,,,,,,,,,,,,,,,,,,,,,,,,,,,,,,,,,372.714544167,None,372.714544167,None,5.871690427698574,0.1135634999955073,372.714544167,None,372.714544167,None,,,,,,,eden,001,2023_Jun_14_1153,working,2021.2.3,None,
badlands_184.jpg,badlands_184.jpg,badlands_103.jpg,left,playground_235.jpg,golf_course_342.jpg,bridge_197.jpg,mountain_294.jpg,badlands_184.jpg,highway_308.jpg,4,badlands_103.jpg,1,badlands,,,,,,,,,0,43,43,43,,,,,,,,,,,,,,,,,,,,,,,,,,,,,,,,,,,,,,,,,,,,,,,,,,,,,,,,,,,,,,,,,,,,,,,,,,,,,,,,,372.84741004199896,None,372.84741004199896,None,5.0,0.6461485420004465,372.84741004199896,None,372.84741004199896,None,,,,,,,eden,001,2023_Jun_14_1153,working,2021.2.3,None,
mountain_232.jpg,mountain_232.jpg,mountain_3.jpg,left,golf_course_128.jpg,playground_124.jpg,badlands_170.jpg,mountain_232.jpg,bridge_147.jpg,highway_305.jpg,3,mountain_3.jpg,0,mountain,,,,,,,,,0,44,44,44,,,,,,,,,,,,,,,,,,,,,,,,,,,,,,,,,,,,,,,,,,,,,,,,,,,,,,,,,,,,,,,,,,,,,,,,,,,,,,,,,373.51523870899837,None,373.51523870899837,None,5.0,0.10531050000281539,373.51523870899837,None,373.51523870899837,None,,,,,,,eden,001,2023_Jun_14_1153,working,2021.2.3,None,
highway_93.jpg,highway_85.jpg,highway_93.jpg,right,golf_course_307.jpg,highway_93.jpg,badlands_164.jpg,playground_184.jpg,mountain_76.jpg,bridge_190.jpg,1,highway_85.jpg,0,highway,,,,,,,,,0,45,45,45,,,,,,,,,,,,,,,,,,,,,,,,,,,,,,,,,,,,,,,,,,,,,,,,,,,,,,,,,,,,,,,,,,,,,,,,,,,,,,,,,373.6395118750006,None,373.6395118750006,None,5.0,0.11419033400306944,373.6395118750006,None,373.6395118750006,None,,,,,,,eden,001,2023_Jun_14_1153,working,2021.2.3,None,
highway_294.jpg,highway_203.jpg,highway_294.jpg,right,highway_294.jpg,mountain_176.jpg,playground_196.jpg,badlands_106.jpg,bridge_120.jpg,golf_course_269.jpg,0,highway_203.jpg,0,highway,,,,,,,,,0,46,46,46,,,,,,,,,,,,,,,,,,,,,,,,,,,,,,,,,,,,,,,,,,,,,,,,,,,,,,,,,,,,,,,,,,,,,,,,,,,,,,,,,373.7726984589972,None,373.7726984589972,None,5.0,0.09705516699614236,373.7726984589972,None,373.7726984589972,None,,,,,,,eden,001,2023_Jun_14_1153,working,2021.2.3,None,
golf_course_195.jpg,golf_course_2.jpg,golf_course_195.jpg,right,golf_course_195.jpg,playground_54.jpg,badlands_211.jpg,mountain_92.jpg,highway_28.jpg,bridge_63.jpg,0,golf_course_2.jpg,1,golf,,,,,,,,,0,47,47,47,,,,,,,,,,,,,,,,,,,,,,,,,,,,,,,,,,,,,,,,,,,,,,,,,,,,,,,,,,,,,,,,,,,,,,,,,,,,,,,,,373.8891387499971,None,373.8891387499971,None,5.0,0.11395912499574479,373.8891387499971,None,373.8891387499971,None,,,,,,,eden,001,2023_Jun_14_1153,working,2021.2.3,None,
mountain_57.jpg,mountain_57.jpg,mountain_138.jpg,left,playground_241.jpg,golf_course_71.jpg,badlands_125.jpg,mountain_57.jpg,highway_37.jpg,bridge_68.jpg,3,mountain_138.jpg,1,mountain,,,,,,,,,0,48,48,48,,,,,,,,,,,,,,,,,,,,,,,,,,,,,,,,,,,,,,,,,,,,,,,,,,,,,,,,,,,,,,,,,,,,,,,,,,,,,,,,,374.02370391699515,None,374.02370391699515,None,3.9246435845213847,0.6290607909977552,374.02370391699515,None,374.02370391699515,None,,,,,,,eden,001,2023_Jun_14_1153,working,2021.2.3,None,
bridge_108.jpg,bridge_108.jpg,bridge_116.jpg,left,golf_course_297.jpg,highway_90.jpg,badlands_81.jpg,mountain_135.jpg,bridge_108.jpg,playground_118.jpg,4,bridge_116.jpg,0,bridge,,,,,,,,,0,49,49,49,,,,,,,,,,,,,,,,,,,,,,,,,,,,,,,,,,,,,,,,,,,,,,,,,,,,,,,,,,,,,,,,,,,,,,,,,,,,,,,,,374.6728887089994,None,374.6728887089994,None,3.9246435845213847,0.11350254099670565,374.6728887089994,None,374.6728887089994,None,,,,,,,eden,001,2023_Jun_14_1153,working,2021.2.3,None,
golf_course_193.jpg,golf_course_193.jpg,golf_course_235.jpg,left,mountain_306.jpg,badlands_138.jpg,golf_course_193.jpg,bridge_204.jpg,playground_132.jpg,highway_3.jpg,2,golf_course_235.jpg,0,golf,,,,,,,,,0,50,50,50,,,,,,,,,,,,,,,,,,,,,,,,,,,,,,,,,,,,,,,,,,,,,,,,,,,,,,,,,,,,,,,,,,,,,,,,,,,,,,,,,374.80816870899434,None,374.80816870899434,None,3.9246435845213847,0.23704233299940825,374.80816870899434,None,374.80816870899434,None,,,,,,,eden,001,2023_Jun_14_1153,working,2021.2.3,None,
bridge_65.jpg,bridge_65.jpg,bridge_60.jpg,left,highway_31.jpg,golf_course_226.jpg,badlands_201.jpg,mountain_120.jpg,bridge_65.jpg,playground_141.jpg,4,bridge_60.jpg,1,bridge,,,,,,,,,0,51,51,51,,,,,,,,,,,,,,,,,,,,,,,,,,,,,,,,,,,,,,,,,,,,,,,,,,,,,,,,,,,,,,,,,,,,,,,,,,,,,,,,,375.0651971249972,None,375.0651971249972,None,2.9063136456211813,0.6875882080057636,375.0651971249972,None,375.0651971249972,None,,,,,,,eden,001,2023_Jun_14_1153,working,2021.2.3,None,
playground_76.jpg,playground_22.jpg,playground_76.jpg,right,highway_50.jpg,playground_76.jpg,bridge_126.jpg,mountain_277.jpg,badlands_213.jpg,golf_course_288.jpg,1,playground_22.jpg,0,playground,,,,,,,,,0,52,52,52,,,,,,,,,,,,,,,,,,,,,,,,,,,,,,,,,,,,,,,,,,,,,,,,,,,,,,,,,,,,,,,,,,,,,,,,,,,,,,,,,375.77394662499864,None,375.77394662499864,None,2.9063136456211813,0.10333833400363801,375.77394662499864,None,375.77394662499864,None,,,,,,,eden,001,2023_Jun_14_1153,working,2021.2.3,None,
golf_course_15.jpg,golf_course_113.jpg,golf_course_15.jpg,right,highway_18.jpg,badlands_173.jpg,bridge_24.jpg,playground_251.jpg,golf_course_15.jpg,mountain_137.jpg,4,golf_course_113.jpg,0,golf,,,,,,,,,0,53,53,53,,,,,,,,,,,,,,,,,,,,,,,,,,,,,,,,,,,,,,,,,,,,,,,,,,,,,,,,,,,,,,,,,,,,,,,,,,,,,,,,,375.89909333399555,None,375.89909333399555,None,2.9063136456211813,0.11183420800080057,375.89909333399555,None,375.89909333399555,None,,,,,,,eden,001,2023_Jun_14_1153,working,2021.2.3,None,
badlands_24.jpg,badlands_53.jpg,badlands_24.jpg,right,playground_50.jpg,golf_course_72.jpg,badlands_24.jpg,highway_29.jpg,mountain_51.jpg,bridge_66.jpg,2,badlands_53.jpg,1,badlands,,,,,,,,,0,54,54,54,,,,,,,,,,,,,,,,,,,,,,,,,,,,,,,,,,,,,,,,,,,,,,,,,,,,,,,,,,,,,,,,,,,,,,,,,,,,,,,,,376.0311381249994,None,376.0311381249994,None,2.9063136456211813,0.10544975000084378,376.0311381249994,None,376.0311381249994,None,,,,,,,eden,001,2023_Jun_14_1153,working,2021.2.3,None,
mountain_123.jpg,mountain_123.jpg,mountain_94.jpg,left,badlands_105.jpg,bridge_110.jpg,playground_85.jpg,highway_172.jpg,mountain_123.jpg,golf_course_162.jpg,4,mountain_94.jpg,0,mountain,,,,,,,,,0,55,55,55,,,,,,,,,,,,,,,,,,,,,,,,,,,,,,,,,,,,,,,,,,,,,,,,,,,,,,,,,,,,,,,,,,,,,,,,,,,,,,,,,376.1588854169968,None,376.1588854169968,None,2.9063136456211813,0.07137574999796925,376.1588854169968,None,376.1588854169968,None,,,,,,,eden,001,2023_Jun_14_1153,working,2021.2.3,None,
bridge_191.jpg,bridge_191.jpg,bridge_184.jpg,left,playground_49.jpg,bridge_191.jpg,golf_course_3.jpg,mountain_233.jpg,highway_191.jpg,badlands_200.jpg,1,bridge_184.jpg,0,bridge,,,,,,,,,0,56,56,56,,,,,,,,,,,,,,,,,,,,,,,,,,,,,,,,,,,,,,,,,,,,,,,,,,,,,,,,,,,,,,,,,,,,,,,,,,,,,,,,,376.2493796669951,None,376.2493796669951,None,1.9613034623217924,0.6198557910029194,376.2493796669951,None,376.2493796669951,None,,,,,,,eden,001,2023_Jun_14_1153,working,2021.2.3,None,
golf_course_78.jpg,golf_course_134.jpg,golf_course_78.jpg,right,playground_16.jpg,golf_course_78.jpg,bridge_254.jpg,highway_193.jpg,mountain_290.jpg,badlands_214.jpg,1,golf_course_134.jpg,0,golf,,,,,,,,,0,57,57,57,,,,,,,,,,,,,,,,,,,,,,,,,,,,,,,,,,,,,,,,,,,,,,,,,,,,,,,,,,,,,,,,,,,,,,,,,,,,,,,,,376.89039087499987,None,376.89039087499987,None,1.9613034623217924,0.11309633299970301,376.89039087499987,None,376.89039087499987,None,,,,,,,eden,001,2023_Jun_14_1153,working,2021.2.3,None,
playground_117.jpg,playground_127.jpg,playground_117.jpg,right,highway_36.jpg,badlands_30.jpg,playground_117.jpg,golf_course_219.jpg,bridge_106.jpg,mountain_302.jpg,2,playground_127.jpg,1,playground,,,,,,,,,0,58,58,58,,,,,,,,,,,,,,,,,,,,,,,,,,,,,,,,,,,,,,,,,,,,,,,,,,,,,,,,,,,,,,,,,,,,,,,,,,,,,,,,,377.0258857499939,None,377.0258857499939,None,1.9613034623217924,0.10235495899542002,377.0258857499939,None,377.0258857499939,None,,,,,,,eden,001,2023_Jun_14_1153,working,2021.2.3,None,
highway_415.jpg,highway_415.jpg,highway_174.jpg,left,playground_173.jpg,bridge_20.jpg,golf_course_59.jpg,highway_415.jpg,mountain_87.jpg,badlands_150.jpg,3,highway_174.jpg,1,highway,,,,,,,,,0,59,59,59,,,,,,,,,,,,,,,,,,,,,,,,,,,,,,,,,,,,,,,,,,,,,,,,,,,,,,,,,,,,,,,,,,,,,,,,,,,,,,,,,377.14780829200026,None,377.14780829200026,None,1.9613034623217924,0.11399420799716609,377.14780829200026,None,377.14780829200026,None,,,,,,,eden,001,2023_Jun_14_1153,working,2021.2.3,None,
,,,,,,,,,,,,,,,,,,,,,,,,,,,,,,,,,,,,,,,,,,,,,,,,,,,,,,,,,,,,,,,,,,,,,,,,,,,,,,,,,,,,,,,,,,,,,,,,,,,,,,,,,,,,,,,,,,,,space,3.4446446250003646,377.26872683399415,None,,,eden,001,2023_Jun_14_1153,working,2021.2.3,None,
,,,,,,,,,,,,,,,,,,,,,,,,,,,,,,,,,,,,,,,,,,,,,,,,,,,,,,,,,,,,,,,,,,,,,,,,,,,,,,,,,,,,,,,,,,,,,,,,,,,,,,,,,,,,,,,,,,,,,,,,377.26872683399415,None,,,,,,,
