target,image1,image2,correct,background_0,background_1,background_2,background_3,background_4,background_5,target_index,selected_dist,distractor_level,category,demo_loops.thisRepN,demo_loops.thisTrialN,demo_loops.thisN,demo_loops.thisIndex,exp_loops.thisRepN,exp_loops.thisTrialN,exp_loops.thisN,exp_loops.thisIndex,exp_loops_part2.thisRepN,exp_loops_part2.thisTrialN,exp_loops_part2.thisN,exp_loops_part2.thisIndex,key_resp.keys,key_resp.started,key_resp.stopped,text_consent_form.started,text_consent_form.stopped,button.started,button.stopped,button.numClicks,button.timesOn,button.timesOff,key_resp_2.keys,key_resp_2.rt,key_resp_2.started,key_resp_2.stopped,text_instructions_first_slide.started,text_instructions_first_slide.stopped,image_0_demo.started,image_0_demo.stopped,image_1_demo.started,image_1_demo.stopped,image_2_demo.started,image_2_demo.stopped,image_3_demo.started,image_3_demo.stopped,image_4_demo.started,image_4_demo.stopped,image_5_demo.started,image_5_demo.stopped,blank_screen_demo.started,blank_screen_demo.stopped,fixation_demo.started,fixation_demo.stopped,image_left_demo.started,image_left_demo.stopped,image_right_demo.started,image_right_demo.stopped,demo_test_key_resp.keys,demo_test_key_resp.rt,demo_test_key_resp.started,demo_test_key_resp.stopped,text_4.started,text_4.stopped,key_resp_after_demo.keys,key_resp_after_demo.rt,key_resp_after_demo.started,key_resp_after_demo.stopped,text_after_demo_instr.started,text_after_demo_instr.stopped,image_0.started,image_0.stopped,image_1.started,image_1.stopped,image_2.started,image_2.stopped,image_3.started,image_3.stopped,image_4.started,image_4.stopped,image_5.started,image_5.stopped,blank_screen.started,blank_screen.stopped,fixation_encoding.started,fixation_encoding.stopped,image_left.started,image_left.stopped,image_right.started,image_right.stopped,test_key_resp.keys,test_key_resp.rt,test_key_resp.started,test_key_resp.stopped,text_6.started,text_6.stopped,text_2.started,text_2.stopped,key_resp_4.keys,key_resp_4.rt,key_resp_4.started,key_resp_4.stopped,image_left_part2.started,image_left_part2.stopped,image_right_part2.started,image_right_part2.stopped,slider_part2.response,slider_part2.rt,slider_part2.started,slider_part2.stopped,text_5.started,text_5.stopped,key_resp_last_slide.keys,key_resp_last_slide.rt,key_resp_last_slide.started,key_resp_last_slide.stopped,text_last_slide.started,text_last_slide.stopped,ID,date,expName,psychopyVersion,frameRate,
,,,,,,,,,,,,,,,,,,,,,,,,,,None,10.964077292010188,None,,,,,,,,,,,,,,,,,,,,,,,,,,,,,,,,,,,,,,,,,,,,,,,,,,,,,,,,,,,,,,,,,,,,,,,,,,,,,,,,,,,,,,,,,,,,,,or,2023_Jun_18_1544,working_memory,2021.2.3,None,
,,,,,,,,,,,,,,,,,,,,,,,,,,,,,10.964077292010188,None,10.964077292010188,None,1,[23.94243183299841],[23.94243437499972],space,19.77340891600761,34.90255829200032,None,,,,,,,,,,,,,,,,,,,,,,,,,,,,,,,,,,,,,,,,,,,,,,,,,,,,,,,,,,,,,,,,,,,,,,,,,,,,,,,,,,,or,2023_Jun_18_1544,working_memory,2021.2.3,None,
flower1.jpg,flower1.jpg,flower1_pair.jpg,left,leaf3.jpg,trail1.jpg,flower1.jpg,bird1.jpg,tree3.jpg,fence4.jpg,2,,,,0,0,0,0,,,,,,,,,,,,,,,,,,,,,,,34.90255829200032,None,55.266136167003424,55.45258137500787,55.4661998340016,55.66619833400182,55.66619833400182,55.86510483401071,55.86510483401071,56.064009542009444,56.064009542009444,56.25176212500082,56.265631417001714,56.46611512500385,56.46611512500385,None,54.78019316701102,55.2688602499984,57.41638654201233,None,57.41638654201233,None,left,7.838391708995914,57.41638654201233,None,57.41638654201233,None,,,,,,,,,,,,,,,,,,,,,,,,,,,,,,,,,,,,,,,,,,,,,,,,,,,,,,,or,2023_Jun_18_1544,working_memory,2021.2.3,None,
leaf2.jpg,leaf1.jpg,leaf2.jpg,right,trail2.jpg,leaf2.jpg,bird2.jpg,tree2.jpg,fence3.jpg,flower2.jpg,1,,,,0,1,1,1,,,,,,,,,,,,,,,,,,,,,,,,,65.78610362501058,65.98442487500142,65.98442487500142,66.18117316700227,66.18117316700227,66.37860825000098,66.38403816700156,66.5749937500077,66.5749937500077,66.76682400000573,66.78567704200395,66.98617162500159,66.98617162500159,None,65.33280458400259,65.8263238340005,67.99810208400595,None,67.99810208400595,None,right,1.20960170798935,67.99810208400595,None,67.99810208400595,None,,,,,,,,,,,,,,,,,,,,,,,,,,,,,,,,,,,,,,,,,,,,,,,,,,,,,,,or,2023_Jun_18_1544,working_memory,2021.2.3,None,
fence1.jpg,fence1.jpg,fence2.jpg,left,tree1.jpg,bird3.jpg,trail3.jpg,fence1.jpg,leaf4.jpg,flower3.jpg,3,,,,0,2,2,2,,,,,,,,,,,,,,,,,,,,,,,,,69.74030354199931,69.93596129200887,69.93596129200887,70.12303291700664,70.14190158400743,70.34125454199966,70.34125454199966,70.53485275000276,70.53485275000276,70.73424608400092,70.73424608400092,70.92680954201205,70.94727833400248,None,69.25856116700743,69.75593191701046,71.93750704200647,None,71.93750704200647,None,left,1.3580838329944527,71.93750704200647,None,71.93750704200647,None,,,,,,,,,,,,,,,,,,,,,,,,,,,,,,,,,,,,,,,,,,,,,,,,,,,,,,,or,2023_Jun_18_1544,working_memory,2021.2.3,None,
,,,,,,,,,,,,,,,,,,,,,,,,,,,,,,,,,,,,,,,,,,,,,,,,,,,,,,,,,,,,,,,,,,,,space,3.4938467500032857,73.3106133340043,None,,,,,,,,,,,,,,,,,,,,,,,,,,,,,,,,,,,,,,,,,,,,,,,,,,,or,2023_Jun_18_1544,working_memory,2021.2.3,None,
badlands_113.jpg,badlands_113.jpg,badlands_225.jpg,left,playground_246.jpg,golf_course_55.jpg,badlands_113.jpg,mountain_92.jpg,highway_107.jpg,bridge_140.jpg,2,badlands_225.jpg,0,badlands,,,,,0,0,0,0,,,,,,,,,,,,,,,,,,,,,,,,,,,,,,,,,,,,,,,,,,,,,,,,,,,73.3106133340043,None,77.37883404199965,77.62368612500723,77.62368612500723,77.86900345901086,77.88225183400209,78.12114979200123,78.12114979200123,78.36284295900259,78.38375341700157,78.62996887500049,78.62996887500049,78.86904775000585,78.88235387500026,None,76.90340424999886,77.39381725000567,79.85990658400988,None,79.85990658400988,None,left,1.0904324169969186,79.85990658400988,None,79.85990658400988,None,,,,,,,,,,,,,,,,,,,,,,,or,2023_Jun_18_1544,working_memory,2021.2.3,None,
badlands_222.jpg,badlands_222.jpg,badlands_62.jpg,left,bridge_76.jpg,badlands_222.jpg,golf_course_226.jpg,mountain_32.jpg,playground_162.jpg,highway_83.jpg,1,badlands_62.jpg,1,badlands,,,,,0,1,1,1,,,,,,,,,,,,,,,,,,,,,,,,,,,,,,,,,,,,,,,,,,,,,,,,,,,,,81.50693937500182,81.74610233400017,81.75957616700907,82.00276158400811,82.00276158400811,82.24399129200901,82.25700166700699,82.49355695900158,82.50801770899852,82.7521787500009,82.7521787500009,83.00069045901182,83.00767583400011,None,81.01981820900983,81.50964754199958,83.98889387500822,None,83.98889387500822,None,left,1.3789783749962226,83.98889387500822,None,83.98889387500822,None,,,,,,,,,,,,,,,,,,,,,,,or,2023_Jun_18_1544,working_memory,2021.2.3,None,
highway_359.jpg,highway_359.jpg,highway_389.jpg,left,badlands_185.jpg,highway_359.jpg,golf_course_67.jpg,playground_251.jpg,bridge_167.jpg,mountain_137.jpg,1,highway_389.jpg,0,highway,,,,,0,2,2,2,,,,,,,,,,,,,,,,,,,,,,,,,,,,,,,,,,,,,,,,,,,,,,,,,,,,,85.91876808401139,86.15798154201184,86.1716316670063,86.41899158401066,86.41899158401066,86.6547898340068,86.67310425000323,86.91483316700032,86.91483316700032,87.1624945000076,87.1689363750047,87.41550958401058,87.41550958401058,None,85.44138725000084,85.93872366700089,88.40322145901155,None,88.40322145901155,None,left,2.0729324580024695,88.40322145901155,None,88.40322145901155,None,,,,,,,,,,,,,,,,,,,,,,,or,2023_Jun_18_1544,working_memory,2021.2.3,None,
mountain_222.jpg,mountain_222.jpg,mountain_93.jpg,left,highway_251.jpg,golf_course_199.jpg,mountain_222.jpg,playground_233.jpg,badlands_156.jpg,bridge_62.jpg,2,mountain_93.jpg,1,mountain,,,,,0,3,3,3,,,,,,,,,,,,,,,,,,,,,,,,,,,,,,,,,,,,,,,,,,,,,,,,,,,,,91.02722033399914,91.26654462500301,91.26654462500301,91.50649508400238,91.5270958750043,91.76456162500835,91.76456162500835,92.00273387500783,92.025837417008,92.2654132500029,92.2654132500029,92.513405375008,92.52023795900459,None,90.54265891700925,91.03013816699968,93.5150669170107,None,93.5150669170107,None,right,2.1204908750078175,93.5150669170107,None,93.5150669170107,None,,,,,,,,,,,,,,,,,,,,,,,or,2023_Jun_18_1544,working_memory,2021.2.3,None,
bridge_172.jpg,bridge_172.jpg,bridge_163.jpg,left,badlands_138.jpg,playground_173.jpg,highway_18.jpg,bridge_172.jpg,golf_course_333.jpg,mountain_302.jpg,3,bridge_163.jpg,1,bridge,,,,,0,4,4,4,,,,,,,,,,,,,,,,,,,,,,,,,,,,,,,,,,,,,,,,,,,,,,,,,,,,,96.1779475420044,96.42366416699952,96.42828041700704,96.66903075001028,96.68694241699995,96.92782087500382,96.92782087500382,97.17186512501212,97.17741312499857,97.42063791700639,97.43070950001129,97.66843629200594,97.68892695900286,None,95.70238462500856,96.19354725000449,98.68077099999937,None,98.68077099999937,None,right,1.769293083998491,98.68077099999937,None,98.68077099999937,None,,,,,,,,,,,,,,,,,,,,,,,or,2023_Jun_18_1544,working_memory,2021.2.3,None,
playground_145.jpg,playground_145.jpg,playground_242.jpg,left,badlands_180.jpg,mountain_309.jpg,bridge_79.jpg,golf_course_269.jpg,playground_145.jpg,highway_154.jpg,4,playground_242.jpg,1,playground,,,,,0,5,5,5,,,,,,,,,,,,,,,,,,,,,,,,,,,,,,,,,,,,,,,,,,,,,,,,,,,,,100.98476195900002,101.2241908750002,101.24328179200529,101.48425812501227,101.48425812501227,101.72322062500461,101.74166025000159,101.9811222920107,101.99496579200786,102.23388458399859,102.23388458399859,102.48529329200392,102.48529329200392,None,100.51175616700493,101.00845258400659,103.49550558401097,None,103.49550558401097,None,left,1.9286740840034327,103.49550558401097,None,103.49550558401097,None,,,,,,,,,,,,,,,,,,,,,,,or,2023_Jun_18_1544,working_memory,2021.2.3,None,
highway_245.jpg,highway_134.jpg,highway_245.jpg,right,badlands_16.jpg,highway_245.jpg,golf_course_297.jpg,mountain_233.jpg,playground_140.jpg,bridge_126.jpg,1,highway_134.jpg,0,highway,,,,,0,6,6,6,,,,,,,,,,,,,,,,,,,,,,,,,,,,,,,,,,,,,,,,,,,,,,,,,,,,,105.96066224999959,106.20270700000401,106.21948416699888,106.46293854201213,106.46293854201213,106.7092063750024,106.71484924999822,106.96039866701176,106.96039866701176,107.20829695901193,107.21457775001181,107.45294179199846,107.47454733400082,None,105.49156633400708,105.99065037500986,108.47117641700606,None,108.47117641700606,None,right,3.010632584002451,108.47117641700606,None,108.47117641700606,None,,,,,,,,,,,,,,,,,,,,,,,or,2023_Jun_18_1544,working_memory,2021.2.3,None,
mountain_293.jpg,mountain_293.jpg,mountain_47.jpg,left,highway_257.jpg,playground_36.jpg,badlands_26.jpg,golf_course_128.jpg,mountain_293.jpg,bridge_158.jpg,4,mountain_47.jpg,1,mountain,,,,,0,7,7,7,,,,,,,,,,,,,,,,,,,,,,,,,,,,,,,,,,,,,,,,,,,,,,,,,,,,,112.02261108400126,112.26046566700097,112.28129245901073,112.52781904200674,112.52781904200674,112.76863304201106,112.78340150001168,113.03168204201211,113.03168204201211,113.27812270900176,113.27812270900176,113.5235505419987,113.52723195900035,None,111.54862108400266,112.04359079200367,114.52483466701233,None,114.52483466701233,None,left,1.193479458001093,114.52483466701233,None,114.52483466701233,None,,,,,,,,,,,,,,,,,,,,,,,or,2023_Jun_18_1544,working_memory,2021.2.3,None,
bridge_146.jpg,bridge_146.jpg,bridge_121.jpg,left,badlands_55.jpg,golf_course_291.jpg,playground_50.jpg,bridge_146.jpg,highway_354.jpg,mountain_253.jpg,3,bridge_121.jpg,1,bridge,,,,,0,8,8,8,,,,,,,,,,,,,,,,,,,,,,,,,,,,,,,,,,,,,,,,,,,,,,,,,,,,,116.26922791700053,116.51069929200457,116.52393479199964,116.76025500000105,116.77499595900008,117.02313008400961,117.02313008400961,117.2636624170118,117.2636624170118,117.50299641700985,117.52442000000156,117.7688040840003,117.7688040840003,None,115.78982558401185,116.28564658400137,118.76527916701161,None,118.76527916701161,None,left,1.1622615410014987,118.76527916701161,None,118.76527916701161,None,,,,,,,,,,,,,,,,,,,,,,,or,2023_Jun_18_1544,working_memory,2021.2.3,None,
playground_257.jpg,playground_214.jpg,playground_257.jpg,right,badlands_59.jpg,bridge_180.jpg,highway_172.jpg,mountain_35.jpg,playground_257.jpg,golf_course_61.jpg,4,playground_214.jpg,0,playground,,,,,0,9,9,9,,,,,,,,,,,,,,,,,,,,,,,,,,,,,,,,,,,,,,,,,,,,,,,,,,,,,120.4619155840046,120.70473612500064,120.71809766700608,120.96527641700231,120.96527641700231,121.21243337501073,121.21243337501073,121.45412091699836,121.4680128750042,121.71405270900868,121.71405270900868,121.95225379199837,121.97550450000563,None,119.98869120900054,120.47656512500544,122.97392425000726,None,122.97392425000726,None,left,1.3201036660029786,122.97392425000726,None,122.97392425000726,None,,,,,,,,,,,,,,,,,,,,,,,or,2023_Jun_18_1544,working_memory,2021.2.3,None,
mountain_230.jpg,mountain_184.jpg,mountain_230.jpg,right,badlands_216.jpg,mountain_230.jpg,bridge_238.jpg,golf_course_212.jpg,highway_287.jpg,playground_61.jpg,1,mountain_184.jpg,0,mountain,,,,,0,10,10,10,,,,,,,,,,,,,,,,,,,,,,,,,,,,,,,,,,,,,,,,,,,,,,,,,,,,,124.84004633400764,125.08108770901163,125.08108770901163,125.32987695900374,125.33526570899994,125.57496112500667,125.5940142920008,125.835635542011,125.835635542011,126.07670416700421,126.08148029200675,126.33019387500826,126.3365987920115,None,124.36158916700515,124.85597370901087,127.33739950000017,None,127.33739950000017,None,left,1.1396645839995472,127.33739950000017,None,127.33739950000017,None,,,,,,,,,,,,,,,,,,,,,,,or,2023_Jun_18_1544,working_memory,2021.2.3,None,
playground_10.jpg,playground_10.jpg,playground_122.jpg,left,badlands_150.jpg,playground_10.jpg,bridge_234.jpg,mountain_29.jpg,highway_36.jpg,golf_course_218.jpg,1,playground_122.jpg,0,playground,,,,,0,11,11,11,,,,,,,,,,,,,,,,,,,,,,,,,,,,,,,,,,,,,,,,,,,,,,,,,,,,,129.03306012500252,129.28017816699867,129.28017816699867,129.51964862500608,129.53142662500613,129.77017483400414,129.78404258401133,130.02206204200047,130.02754262500093,130.27194241700636,130.28535820900288,130.53293512501114,130.53293512501114,None,128.54978720900544,129.03588020900497,131.53027608399861,None,131.53027608399861,None,left,0.9091492089937674,131.53027608399861,None,131.53027608399861,None,,,,,,,,,,,,,,,,,,,,,,,or,2023_Jun_18_1544,working_memory,2021.2.3,None,
highway_177.jpg,highway_278.jpg,highway_177.jpg,right,golf_course_328.jpg,playground_7.jpg,badlands_213.jpg,highway_177.jpg,mountain_102.jpg,bridge_173.jpg,3,highway_278.jpg,1,highway,,,,,0,12,12,12,,,,,,,,,,,,,,,,,,,,,,,,,,,,,,,,,,,,,,,,,,,,,,,,,,,,,132.9765622499981,133.21438958399813,133.23401145900425,133.477900709011,133.477900709011,133.7145862920006,133.73526220901113,133.97712033400603,133.97712033400603,134.21661079200567,134.23632287500368,134.47783508400607,134.47783508400607,None,132.50251591700362,132.99771908399998,135.47421425000357,None,135.47421425000357,None,right,1.5880439169995952,135.47421425000357,None,135.47421425000357,None,,,,,,,,,,,,,,,,,,,,,,,or,2023_Jun_18_1544,working_memory,2021.2.3,None,
badlands_21.jpg,badlands_21.jpg,badlands_98.jpg,left,bridge_63.jpg,golf_course_133.jpg,highway_90.jpg,badlands_21.jpg,playground_256.jpg,mountain_143.jpg,3,badlands_98.jpg,1,badlands,,,,,0,13,13,13,,,,,,,,,,,,,,,,,,,,,,,,,,,,,,,,,,,,,,,,,,,,,,,,,,,,,137.61279387499962,137.85562200000277,137.85562200000277,138.09550558400224,138.11459641699912,138.3557342090062,138.3557342090062,138.60071704200527,138.60701375000644,138.85572195900022,138.85572195900022,139.0945015840116,139.11338129200158,None,137.13004187500337,137.62582287500845,140.11019274999853,None,140.11019274999853,None,left,0.9865622500074096,140.11019274999853,None,140.11019274999853,None,,,,,,,,,,,,,,,,,,,,,,,or,2023_Jun_18_1544,working_memory,2021.2.3,None,
playground_131.jpg,playground_43.jpg,playground_131.jpg,right,highway_319.jpg,playground_131.jpg,badlands_47.jpg,golf_course_102.jpg,bridge_224.jpg,mountain_202.jpg,1,playground_43.jpg,0,playground,,,,,0,14,14,14,,,,,,,,,,,,,,,,,,,,,,,,,,,,,,,,,,,,,,,,,,,,,,,,,,,,,141.6319227089989,141.87654312500672,141.88170162501046,142.13033158400503,142.13569720899977,142.37582400000247,142.38140466700133,142.6295370000007,142.63536712501082,142.87576291699952,142.88161445900914,143.12251816700154,143.139449084003,None,141.16092133401253,141.64742662500066,144.1448172090022,None,144.1448172090022,None,right,0.9198057500034338,144.1448172090022,None,144.1448172090022,None,,,,,,,,,,,,,,,,,,,,,,,or,2023_Jun_18_1544,working_memory,2021.2.3,None,
bridge_256.jpg,bridge_211.jpg,bridge_256.jpg,right,highway_342.jpg,golf_course_338.jpg,playground_55.jpg,bridge_256.jpg,mountain_126.jpg,badlands_122.jpg,3,bridge_211.jpg,1,bridge,,,,,0,15,15,15,,,,,,,,,,,,,,,,,,,,,,,,,,,,,,,,,,,,,,,,,,,,,,,,,,,,,145.61412737501087,145.85216108401073,145.86582266700862,146.11316370900022,146.11316370900022,146.3547841670079,146.3547841670079,146.6006109170121,146.60626675000822,146.84549287499976,146.86503416699998,147.10736329200154,147.10736329200154,None,145.1338092090009,145.6307366250112,148.11726374999853,None,148.11726374999853,None,left,17.01097087500966,148.11726374999853,None,148.11726374999853,None,,,,,,,,,,,,,,,,,,,,,,,or,2023_Jun_18_1544,working_memory,2021.2.3,None,
badlands_52.jpg,badlands_94.jpg,badlands_52.jpg,right,golf_course_162.jpg,badlands_52.jpg,highway_365.jpg,mountain_180.jpg,bridge_212.jpg,playground_85.jpg,1,badlands_94.jpg,0,badlands,,,,,0,16,16,16,,,,,,,,,,,,,,,,,,,,,,,,,,,,,,,,,,,,,,,,,,,,,,,,,,,,,165.68453987500106,165.9320565000089,165.9320565000089,166.1799107500119,166.1799107500119,166.42507379200833,166.43090125000163,166.67080754200288,166.67736162499932,166.92021450000175,166.93409925000742,167.17185050000262,167.1780205420073,None,165.20035629199992,165.68857529200613,168.1807923340093,None,168.1807923340093,None,right,1.2022119169996586,168.1807923340093,None,168.1807923340093,None,,,,,,,,,,,,,,,,,,,,,,,or,2023_Jun_18_1544,working_memory,2021.2.3,None,
badlands_23.jpg,badlands_114.jpg,badlands_23.jpg,right,badlands_23.jpg,mountain_251.jpg,highway_102.jpg,bridge_164.jpg,playground_241.jpg,golf_course_308.jpg,0,badlands_114.jpg,0,badlands,,,,,0,17,17,17,,,,,,,,,,,,,,,,,,,,,,,,,,,,,,,,,,,,,,,,,,,,,,,,,,,,,169.93886225001188,170.1782973750087,170.19182679201185,170.43995554200956,170.43995554200956,170.68094416700478,170.68094416700478,170.92064950001077,170.93970220901247,171.17684608401032,171.19116050000594,171.43874879200303,171.43874879200303,None,169.45338600000832,169.95079266700486,172.42013266700087,None,172.42013266700087,None,right,0.9377043330023298,172.42013266700087,None,172.42013266700087,None,,,,,,,,,,,,,,,,,,,,,,,or,2023_Jun_18_1544,working_memory,2021.2.3,None,
mountain_101.jpg,mountain_101.jpg,mountain_171.jpg,left,mountain_101.jpg,golf_course_56.jpg,bridge_254.jpg,badlands_79.jpg,playground_26.jpg,highway_399.jpg,0,mountain_171.jpg,0,mountain,,,,,0,18,18,18,,,,,,,,,,,,,,,,,,,,,,,,,,,,,,,,,,,,,,,,,,,,,,,,,,,,,173.89630529200076,174.13459987500391,174.15616220900847,174.3933553750103,174.3933553750103,174.64030845899833,174.64610512500803,174.89711825000995,174.89711825000995,175.13838379200024,175.14429945900338,175.39167029201053,175.39938037500542,None,173.42146170900378,173.91240975000255,176.39468420900812,None,176.39468420900812,None,left,0.9500630409893347,176.39468420900812,None,176.39468420900812,None,,,,,,,,,,,,,,,,,,,,,,,or,2023_Jun_18_1544,working_memory,2021.2.3,None,
badlands_221.jpg,badlands_221.jpg,badlands_115.jpg,left,bridge_39.jpg,playground_6.jpg,badlands_221.jpg,highway_226.jpg,mountain_192.jpg,golf_course_219.jpg,2,badlands_115.jpg,0,badlands,,,,,0,19,19,19,,,,,,,,,,,,,,,,,,,,,,,,,,,,,,,,,,,,,,,,,,,,,,,,,,,,,177.87755487499817,178.12184108400834,178.127434250011,178.36785187500936,178.38586420900538,178.62753041701217,178.62753041701217,178.87341575000028,178.878436125,179.12567583400232,179.13211983400106,179.38136766701064,179.38136766701064,None,177.40733087500848,177.9074793750042,180.39129854200291,None,180.39129854200291,None,left,1.063316957995994,180.39129854200291,None,180.39129854200291,None,,,,,,,,,,,,,,,,,,,,,,,or,2023_Jun_18_1544,working_memory,2021.2.3,None,
mountain_154.jpg,mountain_154.jpg,mountain_95.jpg,left,bridge_1.jpg,highway_268.jpg,mountain_154.jpg,badlands_81.jpg,golf_course_166.jpg,playground_181.jpg,2,mountain_95.jpg,1,mountain,,,,,0,20,20,20,,,,,,,,,,,,,,,,,,,,,,,,,,,,,,,,,,,,,,,,,,,,,,,,,,,,,181.998032375006,182.24650645900692,182.25217375000648,182.49004004200106,182.49004004200106,182.7432000000117,182.7432000000117,182.9849122500018,183.0028755000094,183.25067283400858,183.25067283400858,183.49216308401083,183.49216308401083,None,181.5197350840026,182.01465054201253,184.50044920900837,None,184.50044920900837,None,left,0.8741117499885149,184.50044920900837,None,184.50044920900837,None,,,,,,,,,,,,,,,,,,,,,,,or,2023_Jun_18_1544,working_memory,2021.2.3,None,
bridge_91.jpg,bridge_82.jpg,bridge_91.jpg,right,bridge_91.jpg,golf_course_196.jpg,mountain_190.jpg,highway_305.jpg,badlands_173.jpg,playground_42.jpg,0,bridge_82.jpg,1,bridge,,,,,0,21,21,21,,,,,,,,,,,,,,,,,,,,,,,,,,,,,,,,,,,,,,,,,,,,,,,,,,,,,185.91429541700927,186.16365462500835,186.16365462500835,186.40971620900382,186.40971620900382,186.6553788750025,186.67464920900238,186.91057800001,186.91057800001,187.15181858401047,187.17232112500642,187.4152224999998,187.4152224999998,None,185.4390978750016,185.9345229590108,188.41846637500566,None,188.41846637500566,None,left,0.8899679589958396,188.41846637500566,None,188.41846637500566,None,,,,,,,,,,,,,,,,,,,,,,,or,2023_Jun_18_1544,working_memory,2021.2.3,None,
highway_273.jpg,highway_171.jpg,highway_273.jpg,right,playground_196.jpg,highway_273.jpg,bridge_20.jpg,golf_course_305.jpg,badlands_6.jpg,mountain_160.jpg,1,highway_171.jpg,1,highway,,,,,0,22,22,22,,,,,,,,,,,,,,,,,,,,,,,,,,,,,,,,,,,,,,,,,,,,,,,,,,,,,189.8629740000033,190.10527825000463,190.10527825000463,190.3507082920114,190.3507082920114,190.5932260420086,190.5984448340023,190.84695579200343,190.8526196669991,191.09853412500524,191.09853412500524,191.34742162500334,191.35439220900298,None,189.3772070420091,189.86679633401218,192.35310583400133,None,192.35310583400133,None,left,1.44442899999558,192.35310583400133,None,192.35310583400133,None,,,,,,,,,,,,,,,,,,,,,,,or,2023_Jun_18_1544,working_memory,2021.2.3,None,
playground_60.jpg,playground_268.jpg,playground_60.jpg,right,highway_247.jpg,bridge_228.jpg,mountain_151.jpg,playground_60.jpg,badlands_85.jpg,golf_course_164.jpg,3,playground_268.jpg,0,playground,,,,,0,23,23,23,,,,,,,,,,,,,,,,,,,,,,,,,,,,,,,,,,,,,,,,,,,,,,,,,,,,,194.34126549999928,194.58341075001226,194.60269333400356,194.8481874170102,194.8481874170102,195.09638116700808,195.10218541701033,195.34502358399914,195.34502358399914,195.58511862500745,195.60285999999905,195.85159633400326,195.85159633400326,None,193.8686875840067,194.35607729200274,196.83848741700058,None,196.83848741700058,None,left,0.8402348749950761,196.83848741700058,None,196.83848741700058,None,,,,,,,,,,,,,,,,,,,,,,,or,2023_Jun_18_1544,working_memory,2021.2.3,None,
golf_course_217.jpg,golf_course_35.jpg,golf_course_217.jpg,right,highway_148.jpg,bridge_102.jpg,golf_course_217.jpg,badlands_44.jpg,playground_49.jpg,mountain_152.jpg,2,golf_course_35.jpg,0,golf,,,,,0,24,24,24,,,,,,,,,,,,,,,,,,,,,,,,,,,,,,,,,,,,,,,,,,,,,,,,,,,,,198.2196866250015,198.46756879200984,198.4731944170053,198.71003112501057,198.7306048340106,198.97837599999912,198.97837599999912,199.225605833999,199.23186400000122,199.4726715840079,199.4726715840079,199.71004970899958,199.73258191700734,None,197.7467240840051,198.2355570840009,200.72030991700012,None,200.72030991700012,None,left,1.0153058750001946,200.72030991700012,None,200.72030991700012,None,,,,,,,,,,,,,,,,,,,,,,,or,2023_Jun_18_1544,working_memory,2021.2.3,None,
playground_240.jpg,playground_240.jpg,playground_2.jpg,left,bridge_204.jpg,highway_315.jpg,playground_240.jpg,mountain_40.jpg,golf_course_265.jpg,badlands_170.jpg,2,playground_2.jpg,0,playground,,,,,0,25,25,25,,,,,,,,,,,,,,,,,,,,,,,,,,,,,,,,,,,,,,,,,,,,,,,,,,,,,202.27503929199884,202.51289391700993,202.51939312501054,202.76379716700467,202.76988741700188,203.02183687500656,203.02183687500656,203.2624373340077,203.27605987500283,203.5231715000118,203.5231715000118,203.7692458340025,203.7692458340025,None,201.79556825000327,202.29231100001198,204.77217350000865,None,204.77217350000865,None,left,0.94835929099645,204.77217350000865,None,204.77217350000865,None,,,,,,,,,,,,,,,,,,,,,,,or,2023_Jun_18_1544,working_memory,2021.2.3,None,
bridge_202.jpg,bridge_202.jpg,bridge_31.jpg,left,playground_258.jpg,badlands_9.jpg,golf_course_120.jpg,mountain_19.jpg,bridge_202.jpg,highway_413.jpg,4,bridge_31.jpg,0,bridge,,,,,0,26,26,26,,,,,,,,,,,,,,,,,,,,,,,,,,,,,,,,,,,,,,,,,,,,,,,,,,,,,206.2806277500058,206.53115866699954,206.52578420900682,206.77130304199818,206.77130304199818,207.01040129200555,207.0290965840104,207.27102270899923,207.27102270899923,207.51059750000422,207.52973554200435,207.76984679199813,207.76984679199813,None,205.7930868340045,206.28485362500942,208.76348820900603,None,208.76348820900603,None,left,0.9979270829935558,208.76348820900603,None,208.76348820900603,None,,,,,,,,,,,,,,,,,,,,,,,or,2023_Jun_18_1544,working_memory,2021.2.3,None,
golf_course_331.jpg,golf_course_331.jpg,golf_course_26.jpg,left,mountain_33.jpg,golf_course_331.jpg,badlands_175.jpg,highway_178.jpg,playground_227.jpg,bridge_112.jpg,1,golf_course_26.jpg,1,golf,,,,,0,27,27,27,,,,,,,,,,,,,,,,,,,,,,,,,,,,,,,,,,,,,,,,,,,,,,,,,,,,,210.30654025000695,210.54418983400683,210.5569110840006,210.79347158400924,210.80815337500826,211.05589220899856,211.05589220899856,211.29876708400843,211.29876708400843,211.5454400000017,211.55905833400902,211.8041982499999,211.8041982499999,None,209.83080333399994,210.32708858400292,212.81494166700577,None,212.81494166700577,None,right,0.7053889579983661,212.81494166700577,None,212.81494166700577,None,,,,,,,,,,,,,,,,,,,,,,,or,2023_Jun_18_1544,working_memory,2021.2.3,None,
badlands_70.jpg,badlands_70.jpg,badlands_102.jpg,left,mountain_187.jpg,bridge_96.jpg,badlands_70.jpg,playground_110.jpg,highway_141.jpg,golf_course_127.jpg,2,badlands_102.jpg,0,badlands,,,,,0,28,28,28,,,,,,,,,,,,,,,,,,,,,,,,,,,,,,,,,,,,,,,,,,,,,,,,,,,,,214.06053812500613,214.30793591700785,214.30793591700785,214.5473609590117,214.565733542011,214.81420762500784,214.81420762500784,215.0554463340086,215.0613946250087,215.30419995900593,215.3180827920005,215.5633627089992,215.5633627089992,None,213.58503220901184,214.0765749590064,216.5638847920054,None,216.5638847920054,None,right,3.8232701669912785,216.5638847920054,None,216.5638847920054,None,,,,,,,,,,,,,,,,,,,,,,,or,2023_Jun_18_1544,working_memory,2021.2.3,None,
highway_156.jpg,highway_293.jpg,highway_156.jpg,right,playground_141.jpg,highway_156.jpg,mountain_135.jpg,bridge_118.jpg,badlands_36.jpg,golf_course_33.jpg,1,highway_293.jpg,1,highway,,,,,0,29,29,29,,,,,,,,,,,,,,,,,,,,,,,,,,,,,,,,,,,,,,,,,,,,,,,,,,,,,220.93934779200936,221.1791444170085,221.1791444170085,221.418807250011,221.43768329200975,221.68758066699957,221.68758066699957,221.92773720900004,221.92773720900004,222.16875312500633,222.1864101250103,222.4342265000014,222.44131720899895,None,220.45604770901264,220.94252416701056,223.42606233400875,None,223.42606233400875,None,right,1.3191388749983162,223.42606233400875,None,223.42606233400875,None,,,,,,,,,,,,,,,,,,,,,,,or,2023_Jun_18_1544,working_memory,2021.2.3,None,
golf_course_309.jpg,golf_course_209.jpg,golf_course_309.jpg,right,bridge_64.jpg,highway_265.jpg,golf_course_309.jpg,badlands_80.jpg,mountain_306.jpg,playground_165.jpg,2,golf_course_209.jpg,1,golf,,,,,0,30,30,30,,,,,,,,,,,,,,,,,,,,,,,,,,,,,,,,,,,,,,,,,,,,,,,,,,,,,225.2769901670108,225.52531275000365,225.53117408401158,225.76836341700982,225.78901220900298,226.0280602920102,226.0280602920102,226.2762792499998,226.28145845900872,226.52794258401264,226.52794258401264,226.77387533400906,226.78049162500247,None,224.80644933400617,225.29289200001222,227.78832300000067,None,227.78832300000067,None,right,1.133015958010219,227.78832300000067,None,227.78832300000067,None,,,,,,,,,,,,,,,,,,,,,,,or,2023_Jun_18_1544,working_memory,2021.2.3,None,
bridge_250.jpg,bridge_205.jpg,bridge_250.jpg,right,bridge_250.jpg,mountain_166.jpg,badlands_200.jpg,golf_course_23.jpg,highway_3.jpg,playground_74.jpg,0,bridge_205.jpg,1,bridge,,,,,0,31,31,31,,,,,,,,,,,,,,,,,,,,,,,,,,,,,,,,,,,,,,,,,,,,,,,,,,,,,229.4786282920104,229.71427145900088,229.7287319169991,229.96875679200457,229.96875679200457,230.20772874999966,230.2275062090048,230.46590333399945,230.47989395901095,230.72586450001108,230.72586450001108,230.96477541700006,230.97752183400735,None,228.99509895899973,229.4839122090052,231.97749229200417,None,231.97749229200417,None,left,1.0103867080033524,231.97749229200417,None,231.97749229200417,None,,,,,,,,,,,,,,,,,,,,,,,or,2023_Jun_18_1544,working_memory,2021.2.3,None,
golf_course_214.jpg,golf_course_317.jpg,golf_course_214.jpg,right,highway_17.jpg,golf_course_214.jpg,bridge_72.jpg,playground_124.jpg,mountain_226.jpg,badlands_174.jpg,1,golf_course_317.jpg,1,golf,,,,,0,32,32,32,,,,,,,,,,,,,,,,,,,,,,,,,,,,,,,,,,,,,,,,,,,,,,,,,,,,,233.51014729200688,233.75918029200693,233.7645715000108,234.00206199999957,234.0221437500004,234.26799454200955,234.27361350000137,234.51368400000501,234.51368400000501,234.75953858401044,234.76537566700426,235.00525787500374,235.0255247919995,None,233.0453219589981,233.54207091699936,236.02464887501264,None,236.02464887501264,None,left,1.6612685409927508,236.02464887501264,None,236.02464887501264,None,,,,,,,,,,,,,,,,,,,,,,,or,2023_Jun_18_1544,working_memory,2021.2.3,None,
playground_219.jpg,playground_219.jpg,playground_205.jpg,left,mountain_43.jpg,badlands_201.jpg,bridge_24.jpg,playground_219.jpg,highway_308.jpg,golf_course_342.jpg,3,playground_205.jpg,1,playground,,,,,0,33,33,33,,,,,,,,,,,,,,,,,,,,,,,,,,,,,,,,,,,,,,,,,,,,,,,,,,,,,238.24110108400055,238.48562437501096,238.48562437501096,238.7314972919994,238.7360990419984,238.98274025000865,238.98814337501244,239.22710062500846,239.24075475000427,239.48168637500203,239.48168637500203,239.72047833399847,239.74095500000112,None,237.75872404201073,238.2464904590015,240.74104250001255,None,240.74104250001255,None,left,1.3375543340080185,240.74104250001255,None,240.74104250001255,None,,,,,,,,,,,,,,,,,,,,,,,or,2023_Jun_18_1544,working_memory,2021.2.3,None,
bridge_128.jpg,bridge_128.jpg,bridge_244.jpg,left,golf_course_42.jpg,mountain_76.jpg,badlands_35.jpg,bridge_128.jpg,playground_84.jpg,highway_290.jpg,3,bridge_244.jpg,1,bridge,,,,,0,34,34,34,,,,,,,,,,,,,,,,,,,,,,,,,,,,,,,,,,,,,,,,,,,,,,,,,,,,,242.62402354201186,242.87139091700374,242.87139091700374,243.11896808400343,243.11896808400343,243.36633916701248,243.36633916701248,243.61372254200978,243.6193447090045,243.86711350000405,243.86711350000405,244.10637204200611,244.12639262501034,None,242.14233400000376,242.63925841700984,245.12326891699922,None,245.12326891699922,None,left,1.1042292920028558,245.12326891699922,None,245.12326891699922,None,,,,,,,,,,,,,,,,,,,,,,,or,2023_Jun_18_1544,working_memory,2021.2.3,None,
highway_209.jpg,highway_314.jpg,highway_209.jpg,right,playground_33.jpg,bridge_124.jpg,highway_209.jpg,badlands_105.jpg,mountain_91.jpg,golf_course_252.jpg,2,highway_314.jpg,0,highway,,,,,0,35,35,35,,,,,,,,,,,,,,,,,,,,,,,,,,,,,,,,,,,,,,,,,,,,,,,,,,,,,246.7711457090045,247.0172342500009,247.0172342500009,247.2596402920026,247.2596402920026,247.5085815420025,247.5141432090022,247.75480191700626,247.761046833999,248.00776404200587,248.0134715840104,248.25216262500908,248.27199812501203,None,246.2876496250101,246.78445916700002,249.26188229200488,None,249.26188229200488,None,right,0.9660534580034437,249.26188229200488,None,249.26188229200488,None,,,,,,,,,,,,,,,,,,,,,,,or,2023_Jun_18_1544,working_memory,2021.2.3,None,
playground_144.jpg,playground_144.jpg,playground_65.jpg,left,highway_101.jpg,golf_course_238.jpg,badlands_33.jpg,playground_144.jpg,bridge_179.jpg,mountain_120.jpg,3,playground_65.jpg,1,playground,,,,,0,36,36,36,,,,,,,,,,,,,,,,,,,,,,,,,,,,,,,,,,,,,,,,,,,,,,,,,,,,,250.76459700000123,251.00970999999845,251.0151128340076,251.25454466701194,251.2677673750004,251.51505562500097,251.51505562500097,251.75361454200174,251.76723191700876,252.015951917012,252.015951917012,252.264199000012,252.264199000012,None,250.28969116701046,250.7851981670101,253.27632670900493,None,253.27632670900493,None,left,5.38083591699251,253.27632670900493,None,253.27632670900493,None,,,,,,,,,,,,,,,,,,,,,,,or,2023_Jun_18_1544,working_memory,2021.2.3,None,
mountain_110.jpg,mountain_157.jpg,mountain_110.jpg,right,highway_15.jpg,bridge_143.jpg,mountain_110.jpg,golf_course_137.jpg,playground_39.jpg,badlands_152.jpg,2,mountain_157.jpg,0,mountain,,,,,0,37,37,37,,,,,,,,,,,,,,,,,,,,,,,,,,,,,,,,,,,,,,,,,,,,,,,,,,,,,259.1909159170027,259.4343317919993,259.4514885420067,259.6915695839998,259.6915695839998,259.9414585839986,259.9414585839986,260.1811746250023,260.20200250000926,260.4396509590006,260.4396509590006,260.68088933400577,260.7022057920112,None,258.7192820000055,259.20707675001177,261.6968558340013,None,261.6968558340013,None,left,5.541500624996843,261.6968558340013,None,261.6968558340013,None,,,,,,,,,,,,,,,,,,,,,,,or,2023_Jun_18_1544,working_memory,2021.2.3,None,
highway_394.jpg,highway_394.jpg,highway_204.jpg,left,highway_394.jpg,mountain_45.jpg,bridge_266.jpg,golf_course_59.jpg,badlands_219.jpg,playground_184.jpg,0,highway_204.jpg,0,highway,,,,,0,38,38,38,,,,,,,,,,,,,,,,,,,,,,,,,,,,,,,,,,,,,,,,,,,,,,,,,,,,,267.7734810000111,268.01586216701253,268.0351435000048,268.2827403750125,268.2827403750125,268.52485216700006,268.52485216700006,268.76331150000624,268.7844544170075,269.02843229200516,269.02843229200516,269.27699720900273,269.27699720900273,None,267.30314366699895,267.7888898750098,270.27567283400276,None,270.27567283400276,None,left,3.1842340829898603,270.27567283400276,None,270.27567283400276,None,,,,,,,,,,,,,,,,,,,,,,,or,2023_Jun_18_1544,working_memory,2021.2.3,None,
golf_course_87.jpg,golf_course_87.jpg,golf_course_130.jpg,left,playground_78.jpg,mountain_250.jpg,bridge_106.jpg,highway_42.jpg,golf_course_87.jpg,badlands_129.jpg,4,golf_course_130.jpg,0,golf,,,,,0,39,39,39,,,,,,,,,,,,,,,,,,,,,,,,,,,,,,,,,,,,,,,,,,,,,,,,,,,,,274.01200820899976,274.2581577920064,274.2642205420125,274.50600012500945,274.50600012500945,274.75192100000277,274.765865792011,275.0062825000059,275.0062825000059,275.24648466700455,275.2650382090069,275.50745037500747,275.50745037500747,None,273.532287250011,274.02850658399984,276.5038732920075,None,276.5038732920075,None,left,0.9035017080022953,276.5038732920075,None,276.5038732920075,None,,,,,,,,,,,,,,,,,,,,,,,or,2023_Jun_18_1544,working_memory,2021.2.3,None,
mountain_156.jpg,mountain_128.jpg,mountain_156.jpg,right,bridge_68.jpg,playground_15.jpg,highway_53.jpg,mountain_156.jpg,badlands_120.jpg,golf_course_176.jpg,3,mountain_128.jpg,0,mountain,,,,,0,40,40,40,,,,,,,,,,,,,,,,,,,,,,,,,,,,,,,,,,,,,,,,,,,,,,,,,,,,,277.9574329169991,278.2055689590052,278.21167054200487,278.4588334170112,278.4588334170112,278.70541237499856,278.7109167090093,278.9523144170089,278.9523144170089,279.1928912500007,279.21275204200356,279.4525839170092,279.4525839170092,None,277.47716016700724,277.9754321670043,280.4571588340041,None,280.4571588340041,None,left,0.9441050829918822,280.4571588340041,None,280.4571588340041,None,,,,,,,,,,,,,,,,,,,,,,,or,2023_Jun_18_1544,working_memory,2021.2.3,None,
badlands_137.jpg,badlands_137.jpg,badlands_194.jpg,left,mountain_39.jpg,playground_118.jpg,highway_269.jpg,badlands_137.jpg,golf_course_179.jpg,bridge_86.jpg,3,badlands_194.jpg,0,badlands,,,,,0,41,41,41,,,,,,,,,,,,,,,,,,,,,,,,,,,,,,,,,,,,,,,,,,,,,,,,,,,,,281.94411583400506,282.1813115420082,282.194140874999,282.4359423749993,282.4359423749993,282.6803261669993,282.6803261669993,282.9175211670081,282.9363993750012,283.17512595900916,283.1944268340012,283.4452713339997,283.4452713339997,None,281.4622755419987,281.9617784170114,284.44033445901005,None,284.44033445901005,None,left,0.7738566670013824,284.44033445901005,None,284.44033445901005,None,,,,,,,,,,,,,,,,,,,,,,,or,2023_Jun_18_1544,working_memory,2021.2.3,None,
golf_course_188.jpg,golf_course_188.jpg,golf_course_157.jpg,left,bridge_87.jpg,highway_313.jpg,badlands_88.jpg,mountain_198.jpg,golf_course_188.jpg,playground_248.jpg,4,golf_course_157.jpg,0,golf,,,,,0,42,42,42,,,,,,,,,,,,,,,,,,,,,,,,,,,,,,,,,,,,,,,,,,,,,,,,,,,,,285.7521895420068,285.99321508400317,285.9986141670088,286.24206566700013,286.24206566700013,286.4896066670044,286.5033897920075,286.74882758400054,286.74882758400054,286.9955804170022,287.00122225000814,287.24723254200944,287.2536187500082,None,285.2746068749984,285.7756178749987,288.2477885420085,None,288.2477885420085,None,left,0.9612160830001812,288.2477885420085,None,288.2477885420085,None,,,,,,,,,,,,,,,,,,,,,,,or,2023_Jun_18_1544,working_memory,2021.2.3,None,
badlands_184.jpg,badlands_184.jpg,badlands_228.jpg,left,playground_154.jpg,golf_course_171.jpg,badlands_184.jpg,highway_147.jpg,mountain_294.jpg,bridge_193.jpg,2,badlands_228.jpg,0,badlands,,,,,0,43,43,43,,,,,,,,,,,,,,,,,,,,,,,,,,,,,,,,,,,,,,,,,,,,,,,,,,,,,289.753970167003,289.9938390000025,290.0135938750027,290.2524508750066,290.2524508750066,290.4994881669991,290.5050999170053,290.74568841700966,290.75935729200137,291.00502162500925,291.00502162500925,291.24378345900914,291.26426291700045,None,289.28002145900973,289.7700826670043,292.2516504170053,None,292.2516504170053,None,left,0.9093158750038128,292.2516504170053,None,292.2516504170053,None,,,,,,,,,,,,,,,,,,,,,,,or,2023_Jun_18_1544,working_memory,2021.2.3,None,
mountain_232.jpg,mountain_3.jpg,mountain_232.jpg,right,mountain_232.jpg,bridge_190.jpg,highway_33.jpg,badlands_157.jpg,golf_course_181.jpg,playground_235.jpg,0,mountain_3.jpg,0,mountain,,,,,0,44,44,44,,,,,,,,,,,,,,,,,,,,,,,,,,,,,,,,,,,,,,,,,,,,,,,,,,,,,293.69413879200874,293.935576459,293.9550619590009,294.19362179200107,294.19362179200107,294.4359561250021,294.457300375012,294.70289654200315,294.70289654200315,294.946783959007,294.946783959007,295.18914591700013,295.1946035840083,None,293.22516795901174,293.72460525001225,296.19670895900344,None,296.19670895900344,None,right,1.2665202920034062,296.19670895900344,None,296.19670895900344,None,,,,,,,,,,,,,,,,,,,,,,,or,2023_Jun_18_1544,working_memory,2021.2.3,None,
highway_93.jpg,highway_369.jpg,highway_93.jpg,right,playground_176.jpg,highway_93.jpg,golf_course_194.jpg,bridge_155.jpg,mountain_62.jpg,badlands_27.jpg,1,highway_369.jpg,1,highway,,,,,0,45,45,45,,,,,,,,,,,,,,,,,,,,,,,,,,,,,,,,,,,,,,,,,,,,,,,,,,,,,298.01266983400274,298.25836308400903,298.25836308400903,298.5005008750013,298.5005008750013,298.7470296250103,298.75285058400186,299.0038552090118,299.0038552090118,299.2525397920108,299.2525397920108,299.50043666700367,299.50043666700367,None,297.5293870840105,298.0165161670011,300.5089461250027,None,300.5089461250027,None,left,1.2611722920119064,300.5089461250027,None,300.5089461250027,None,,,,,,,,,,,,,,,,,,,,,,,or,2023_Jun_18_1544,working_memory,2021.2.3,None,
highway_294.jpg,highway_203.jpg,highway_294.jpg,right,highway_294.jpg,golf_course_174.jpg,mountain_38.jpg,playground_54.jpg,badlands_106.jpg,bridge_52.jpg,0,highway_203.jpg,0,highway,,,,,0,46,46,46,,,,,,,,,,,,,,,,,,,,,,,,,,,,,,,,,,,,,,,,,,,,,,,,,,,,,302.3112017920066,302.5490077090071,302.562218667008,302.81159766700875,302.81159766700875,303.0584893339983,303.0584893339983,303.2986910840118,303.2986910840118,303.54525316700165,303.5632360000018,303.81022949999897,303.81022949999897,None,301.8317057920067,302.3296087089984,304.80789791700954,None,304.80789791700954,None,left,0.9376890409912448,304.80789791700954,None,304.80789791700954,None,,,,,,,,,,,,,,,,,,,,,,,or,2023_Jun_18_1544,working_memory,2021.2.3,None,
golf_course_195.jpg,golf_course_25.jpg,golf_course_195.jpg,right,golf_course_195.jpg,mountain_249.jpg,highway_383.jpg,badlands_215.jpg,playground_16.jpg,bridge_197.jpg,0,golf_course_25.jpg,0,golf,,,,,0,47,47,47,,,,,,,,,,,,,,,,,,,,,,,,,,,,,,,,,,,,,,,,,,,,,,,,,,,,,306.2899887090025,306.5326544170093,306.54681766701106,306.7933175000071,306.7933175000071,307.03126154201163,307.0450165420043,307.28263641700323,307.2963899590104,307.5393834590068,307.5393834590068,307.78640404200996,307.7932177090115,None,305.8130720420013,306.3065026250115,308.7823804170039,None,308.7823804170039,None,right,0.801115916998242,308.7823804170039,None,308.7823804170039,None,,,,,,,,,,,,,,,,,,,,,,,or,2023_Jun_18_1544,working_memory,2021.2.3,None,
mountain_57.jpg,mountain_57.jpg,mountain_193.jpg,left,badlands_166.jpg,mountain_57.jpg,bridge_22.jpg,playground_153.jpg,highway_31.jpg,golf_course_72.jpg,1,mountain_193.jpg,0,mountain,,,,,0,48,48,48,,,,,,,,,,,,,,,,,,,,,,,,,,,,,,,,,,,,,,,,,,,,,,,,,,,,,310.1160527920001,310.36234700000205,310.36794224999903,310.60853700000735,310.62246949999826,310.8674570840085,310.8674570840085,311.1100937919982,311.11541516700527,311.3631514590088,311.369231167002,311.60933375000604,311.61542991700117,None,309.6441552920005,310.13359604201105,312.6285652920051,None,312.6285652920051,None,left,0.6018485829990823,312.6285652920051,None,312.6285652920051,None,,,,,,,,,,,,,,,,,,,,,,,or,2023_Jun_18_1544,working_memory,2021.2.3,None,
bridge_108.jpg,bridge_108.jpg,bridge_116.jpg,left,highway_78.jpg,golf_course_221.jpg,bridge_108.jpg,mountain_169.jpg,badlands_104.jpg,playground_64.jpg,2,bridge_116.jpg,0,bridge,,,,,0,49,49,49,,,,,,,,,,,,,,,,,,,,,,,,,,,,,,,,,,,,,,,,,,,,,,,,,,,,,313.7653460420115,314.01251912501175,314.01251912501175,314.2587821670022,314.2643855839997,314.50076958400314,314.52175004201126,314.76010054200015,314.76010054200015,315.00786270901153,315.0133103750122,315.2522575000039,315.2650102500047,None,313.2896517090121,313.7881388340029,316.26374479199876,None,316.26374479199876,None,left,1.0205321670073317,316.26374479199876,None,316.26374479199876,None,,,,,,,,,,,,,,,,,,,,,,,or,2023_Jun_18_1544,working_memory,2021.2.3,None,
golf_course_193.jpg,golf_course_193.jpg,golf_course_123.jpg,left,golf_course_193.jpg,badlands_214.jpg,highway_30.jpg,bridge_120.jpg,mountain_41.jpg,playground_249.jpg,0,golf_course_123.jpg,1,golf,,,,,0,50,50,50,,,,,,,,,,,,,,,,,,,,,,,,,,,,,,,,,,,,,,,,,,,,,,,,,,,,,317.835412542001,318.0859794170101,318.08017541700974,318.3251001669996,318.3251001669996,318.5645524170104,318.5836632090068,318.8253321250086,318.8253321250086,319.0722657090082,319.0778895000112,319.31495141700725,319.3353199999983,None,317.35104179200425,317.83960895900964,320.3372170000075,None,320.3372170000075,None,left,0.6959596669912571,320.3372170000075,None,320.3372170000075,None,,,,,,,,,,,,,,,,,,,,,,,or,2023_Jun_18_1544,working_memory,2021.2.3,None,
bridge_65.jpg,bridge_65.jpg,bridge_60.jpg,left,highway_76.jpg,playground_47.jpg,bridge_65.jpg,mountain_204.jpg,badlands_46.jpg,golf_course_0.jpg,2,bridge_60.jpg,1,bridge,,,,,0,51,51,51,,,,,,,,,,,,,,,,,,,,,,,,,,,,,,,,,,,,,,,,,,,,,,,,,,,,,321.5806515000004,321.8225431669998,321.8225431669998,322.0594312920002,322.0761489590077,322.3187505000096,322.3324925839988,322.5818063340121,322.5818063340121,322.82914529200934,322.82914529200934,323.07631945901085,323.08302283400553,None,321.10024066700134,321.5979062500119,324.0814219590102,None,324.0814219590102,None,left,1.129592416997184,324.0814219590102,None,324.0814219590102,None,,,,,,,,,,,,,,,,,,,,,,,or,2023_Jun_18_1544,working_memory,2021.2.3,None,
playground_76.jpg,playground_22.jpg,playground_76.jpg,right,mountain_206.jpg,badlands_211.jpg,bridge_152.jpg,golf_course_3.jpg,playground_76.jpg,highway_404.jpg,4,playground_22.jpg,0,playground,,,,,0,52,52,52,,,,,,,,,,,,,,,,,,,,,,,,,,,,,,,,,,,,,,,,,,,,,,,,,,,,,325.7509997090092,326.0021594590071,326.0021594590071,326.24181625001074,326.24181625001074,326.49111337499926,326.49751370900776,326.7444634170097,326.7444634170097,326.9847929170064,327.0034435000125,327.2506291250029,327.2506291250029,None,325.274020249999,325.77235133400245,328.25360187501065,None,328.25360187501065,None,left,1.1856690000131493,328.25360187501065,None,328.25360187501065,None,,,,,,,,,,,,,,,,,,,,,,,or,2023_Jun_18_1544,working_memory,2021.2.3,None,
golf_course_15.jpg,golf_course_15.jpg,golf_course_97.jpg,left,bridge_147.jpg,mountain_268.jpg,playground_195.jpg,golf_course_15.jpg,highway_288.jpg,badlands_30.jpg,3,golf_course_97.jpg,1,golf,,,,,0,53,53,53,,,,,,,,,,,,,,,,,,,,,,,,,,,,,,,,,,,,,,,,,,,,,,,,,,,,,329.9720722089987,330.2105367920012,330.2277363750036,330.4689560840052,330.4689560840052,330.7092255840107,330.7292049170064,330.97316137500457,330.97316137500457,331.219704209012,331.219704209012,331.4603017090121,331.4813177920005,None,329.50182250000944,329.99533779200283,332.4812040000106,None,332.4812040000106,None,left,0.8695988330000546,332.4812040000106,None,332.4812040000106,None,,,,,,,,,,,,,,,,,,,,,,,or,2023_Jun_18_1544,working_memory,2021.2.3,None,
badlands_24.jpg,badlands_24.jpg,badlands_53.jpg,left,highway_50.jpg,playground_103.jpg,mountain_89.jpg,badlands_24.jpg,bridge_142.jpg,golf_course_288.jpg,3,badlands_53.jpg,1,badlands,,,,,0,54,54,54,,,,,,,,,,,,,,,,,,,,,,,,,,,,,,,,,,,,,,,,,,,,,,,,,,,,,333.9056693750026,334.14325383400137,334.14325383400137,334.38057475000096,334.40272191700933,334.6456266669993,334.6456266669993,334.89350450001075,334.8993832499982,335.1473815000063,335.1473815000063,335.38524387500365,335.4059760000091,None,333.4225996250025,333.9100907920074,336.39423625000927,None,336.39423625000927,None,left,0.8294033749989467,336.39423625000927,None,336.39423625000927,None,,,,,,,,,,,,,,,,,,,,,,,or,2023_Jun_18_1544,working_memory,2021.2.3,None,
mountain_123.jpg,mountain_123.jpg,mountain_189.jpg,left,mountain_123.jpg,bridge_156.jpg,badlands_97.jpg,golf_course_316.jpg,highway_335.jpg,playground_37.jpg,0,mountain_189.jpg,1,mountain,,,,,0,55,55,55,,,,,,,,,,,,,,,,,,,,,,,,,,,,,,,,,,,,,,,,,,,,,,,,,,,,,337.7696700420056,338.01718662500207,338.0227922500053,338.26399483400746,338.26399483400746,338.5050412499986,338.5236490420066,338.7599159590027,338.7599159590027,339.00177633400017,339.0222345420043,339.26346508400457,339.26346508400457,None,337.29108270900906,337.78722150000976,340.2715390000085,None,340.2715390000085,None,right,6.358788249999634,340.2715390000085,None,340.2715390000085,None,,,,,,,,,,,,,,,,,,,,,,,or,2023_Jun_18_1544,working_memory,2021.2.3,None,
bridge_191.jpg,bridge_184.jpg,bridge_191.jpg,right,badlands_20.jpg,highway_295.jpg,mountain_87.jpg,bridge_191.jpg,playground_191.jpg,golf_course_241.jpg,3,bridge_184.jpg,0,bridge,,,,,0,56,56,56,,,,,,,,,,,,,,,,,,,,,,,,,,,,,,,,,,,,,,,,,,,,,,,,,,,,,347.1751257920114,347.4170160420035,347.43030354200164,347.67732120900473,347.6801372090122,347.92558875000395,347.92558875000395,348.17116504200385,348.1768087500095,348.4184782920056,348.42364491699846,348.6642761670082,348.68222095900273,None,346.6966123750026,347.1939636669995,349.67414145900693,None,349.67414145900693,None,left,1.2247230420034612,349.67414145900693,None,349.67414145900693,None,,,,,,,,,,,,,,,,,,,,,,,or,2023_Jun_18_1544,working_memory,2021.2.3,None,
golf_course_78.jpg,golf_course_78.jpg,golf_course_134.jpg,left,mountain_146.jpg,playground_132.jpg,golf_course_78.jpg,highway_191.jpg,bridge_45.jpg,badlands_67.jpg,2,golf_course_134.jpg,0,golf,,,,,0,57,57,57,,,,,,,,,,,,,,,,,,,,,,,,,,,,,,,,,,,,,,,,,,,,,,,,,,,,,351.44910820900986,351.6988596670126,351.6988596670126,351.9471585840074,351.9471585840074,352.1858561250119,352.19930537500477,352.44616612500977,352.44616612500977,352.6856042920117,352.6988162500056,352.94000212500396,352.94000212500396,None,350.9658409590047,351.4518427090079,353.9371563750028,None,353.9371563750028,None,right,1.019191832994693,353.9371563750028,None,353.9371563750028,None,,,,,,,,,,,,,,,,,,,,,,,or,2023_Jun_18_1544,working_memory,2021.2.3,None,
playground_117.jpg,playground_127.jpg,playground_117.jpg,right,bridge_110.jpg,highway_29.jpg,mountain_34.jpg,playground_117.jpg,golf_course_71.jpg,badlands_183.jpg,3,playground_127.jpg,1,playground,,,,,0,58,58,58,,,,,,,,,,,,,,,,,,,,,,,,,,,,,,,,,,,,,,,,,,,,,,,,,,,,,355.5112340420019,355.75099100000807,355.7567137090082,356.0038881250075,356.0100151670049,356.25118558399845,356.25636979201226,356.5039990840014,356.5094429169985,356.7502613750112,356.75624554201204,357.0011937090021,357.0075523340056,None,355.0301900839986,355.5284765000106,358.0127219170099,None,358.0127219170099,None,right,1.0505162920017028,358.0127219170099,None,358.0127219170099,None,,,,,,,,,,,,,,,,,,,,,,,or,2023_Jun_18_1544,working_memory,2021.2.3,None,
highway_415.jpg,highway_174.jpg,highway_415.jpg,right,badlands_164.jpg,bridge_117.jpg,playground_14.jpg,highway_415.jpg,mountain_51.jpg,golf_course_105.jpg,3,highway_174.jpg,1,highway,,,,,0,59,59,59,,,,,,,,,,,,,,,,,,,,,,,,,,,,,,,,,,,,,,,,,,,,,,,,,,,,,359.6117341670033,359.8576936669997,359.8576936669997,360.0979636250122,360.1116620840039,360.35850133400527,360.35850133400527,360.59724358400854,360.6120380420034,360.86099766701227,360.86099766701227,361.0983054170065,361.11176591701224,None,359.1282132089982,359.6144833340077,362.1059446250001,None,362.1059446250001,None,right,1.2819242919940734,362.1059446250001,None,362.1059446250001,None,,,,,,,,,,,,,,,,,,,,,,,or,2023_Jun_18_1544,working_memory,2021.2.3,None,
,,,,,,,,,,,,,,,,,,,,,,,,,,,,,,,,,,,,,,,,,,,,,,,,,,,,,,,,,,,,,,,,,,,,,,,,,,,,,,,,,,,,,,,,,,,,,,,,,,,,363.3992924589984,None,space,5.569725541994558,363.3992924589984,None,,,,,,,,,,,,,,,,,or,2023_Jun_18_1544,working_memory,2021.2.3,None,
badlands_113.jpg,badlands_113.jpg,badlands_225.jpg,left,mountain_151.jpg,highway_76.jpg,badlands_113.jpg,golf_course_221.jpg,bridge_136.jpg,playground_153.jpg,2,badlands_225.jpg,0,badlands,,,,,,,,,0,0,0,0,,,,,,,,,,,,,,,,,,,,,,,,,,,,,,,,,,,,,,,,,,,,,,,,,,,,,,,,,,,,,,,,,,,,,,,,,,,,,,,,,369.04195650000474,None,369.04195650000474,None,4.942973523421589,10.425006499994197,369.04195650000474,None,369.04195650000474,None,,,,,,,or,2023_Jun_18_1544,working_memory,2021.2.3,None,
badlands_222.jpg,badlands_222.jpg,badlands_34.jpg,left,highway_247.jpg,badlands_222.jpg,mountain_43.jpg,golf_course_333.jpg,bridge_142.jpg,playground_126.jpg,1,badlands_34.jpg,0,badlands,,,,,,,,,0,1,1,1,,,,,,,,,,,,,,,,,,,,,,,,,,,,,,,,,,,,,,,,,,,,,,,,,,,,,,,,,,,,,,,,,,,,,,,,,,,,,,,,,379.47457316701184,None,379.47457316701184,None,4.177189409368635,4.203598874999443,379.47457316701184,None,379.47457316701184,None,,,,,,,or,2023_Jun_18_1544,working_memory,2021.2.3,None,
highway_359.jpg,highway_359.jpg,highway_379.jpg,left,mountain_268.jpg,badlands_180.jpg,bridge_96.jpg,highway_359.jpg,playground_191.jpg,golf_course_67.jpg,3,highway_379.jpg,1,highway,,,,,,,,,0,2,2,2,,,,,,,,,,,,,,,,,,,,,,,,,,,,,,,,,,,,,,,,,,,,,,,,,,,,,,,,,,,,,,,,,,,,,,,,,,,,,,,,,383.69922120901174,None,383.69922120901174,None,7.036659877800407,1.3702634170040255,383.69922120901174,None,383.69922120901174,None,,,,,,,or,2023_Jun_18_1544,working_memory,2021.2.3,None,
mountain_222.jpg,mountain_244.jpg,mountain_222.jpg,right,mountain_222.jpg,playground_181.jpg,bridge_266.jpg,golf_course_176.jpg,badlands_156.jpg,highway_268.jpg,0,mountain_244.jpg,0,mountain,,,,,,,,,0,3,3,3,,,,,,,,,,,,,,,,,,,,,,,,,,,,,,,,,,,,,,,,,,,,,,,,,,,,,,,,,,,,,,,,,,,,,,,,,,,,,,,,,385.08994512500067,None,385.08994512500067,None,3.5906313645621184,2.311922583001433,385.08994512500067,None,385.08994512500067,None,,,,,,,or,2023_Jun_18_1544,working_memory,2021.2.3,None,
bridge_172.jpg,bridge_172.jpg,bridge_17.jpg,left,golf_course_171.jpg,highway_404.jpg,bridge_172.jpg,playground_83.jpg,mountain_309.jpg,badlands_157.jpg,2,bridge_17.jpg,0,bridge,,,,,,,,,0,4,4,4,,,,,,,,,,,,,,,,,,,,,,,,,,,,,,,,,,,,,,,,,,,,,,,,,,,,,,,,,,,,,,,,,,,,,,,,,,,,,,,,,387.4249695420003,None,387.4249695420003,None,1.545824847250509,2.661689957996714,387.4249695420003,None,387.4249695420003,None,,,,,,,or,2023_Jun_18_1544,working_memory,2021.2.3,None,
playground_145.jpg,playground_242.jpg,playground_145.jpg,right,playground_145.jpg,highway_9.jpg,bridge_39.jpg,mountain_212.jpg,badlands_79.jpg,golf_course_241.jpg,0,playground_242.jpg,1,playground,,,,,,,,,0,5,5,5,,,,,,,,,,,,,,,,,,,,,,,,,,,,,,,,,,,,,,,,,,,,,,,,,,,,,,,,,,,,,,,,,,,,,,,,,,,,,,,,,390.10803916701116,None,390.10803916701116,None,4.054989816700611,1.3446537919953698,390.10803916701116,None,390.10803916701116,None,,,,,,,or,2023_Jun_18_1544,working_memory,2021.2.3,None,
highway_245.jpg,highway_245.jpg,highway_134.jpg,left,bridge_1.jpg,golf_course_338.jpg,playground_256.jpg,highway_245.jpg,badlands_46.jpg,mountain_166.jpg,3,highway_134.jpg,0,highway,,,,,,,,,0,6,6,6,,,,,,,,,,,,,,,,,,,,,,,,,,,,,,,,,,,,,,,,,,,,,,,,,,,,,,,,,,,,,,,,,,,,,,,,,,,,,,,,,391.47309179200965,None,391.47309179200965,None,3.2892057026476578,3.3872676670143846,391.47309179200965,None,391.47309179200965,None,,,,,,,or,2023_Jun_18_1544,working_memory,2021.2.3,None,
mountain_293.jpg,mountain_293.jpg,mountain_47.jpg,left,badlands_183.jpg,golf_course_181.jpg,mountain_293.jpg,playground_222.jpg,bridge_173.jpg,highway_83.jpg,2,mountain_47.jpg,1,mountain,,,,,,,,,0,7,7,7,,,,,,,,,,,,,,,,,,,,,,,,,,,,,,,,,,,,,,,,,,,,,,,,,,,,,,,,,,,,,,,,,,,,,,,,,,,,,,,,,394.88103987500654,None,394.88103987500654,None,4.625254582484725,1.3209206250030547,394.88103987500654,None,394.88103987500654,None,,,,,,,or,2023_Jun_18_1544,working_memory,2021.2.3,None,
bridge_146.jpg,bridge_27.jpg,bridge_146.jpg,right,highway_269.jpg,bridge_146.jpg,golf_course_291.jpg,mountain_35.jpg,badlands_55.jpg,playground_195.jpg,1,bridge_27.jpg,0,bridge,,,,,,,,,0,8,8,8,,,,,,,,,,,,,,,,,,,,,,,,,,,,,,,,,,,,,,,,,,,,,,,,,,,,,,,,,,,,,,,,,,,,,,,,,,,,,,,,,396.22293699999864,None,396.22293699999864,None,4.380855397148676,1.054892459011171,396.22293699999864,None,396.22293699999864,None,,,,,,,or,2023_Jun_18_1544,working_memory,2021.2.3,None,
playground_257.jpg,playground_257.jpg,playground_215.jpg,left,mountain_198.jpg,highway_15.jpg,badlands_80.jpg,golf_course_282.jpg,playground_257.jpg,bridge_62.jpg,4,playground_215.jpg,1,playground,,,,,,,,,0,9,9,9,,,,,,,,,,,,,,,,,,,,,,,,,,,,,,,,,,,,,,,,,,,,,,,,,,,,,,,,,,,,,,,,,,,,,,,,,,,,,,,,,397.2993962920009,None,397.2993962920009,None,3.753564154786151,1.4108994169946527,397.2993962920009,None,397.2993962920009,None,,,,,,,or,2023_Jun_18_1544,working_memory,2021.2.3,None,
mountain_230.jpg,mountain_230.jpg,mountain_97.jpg,left,golf_course_253.jpg,mountain_230.jpg,highway_81.jpg,playground_47.jpg,badlands_9.jpg,bridge_4.jpg,1,mountain_97.jpg,1,mountain,,,,,,,,,0,10,10,10,,,,,,,,,,,,,,,,,,,,,,,,,,,,,,,,,,,,,,,,,,,,,,,,,,,,,,,,,,,,,,,,,,,,,,,,,,,,,,,,,398.7315595000109,None,398.7315595000109,None,3.8024439918533606,0.9205541669944068,398.7315595000109,None,398.7315595000109,None,,,,,,,or,2023_Jun_18_1544,working_memory,2021.2.3,None,
playground_10.jpg,playground_10.jpg,playground_122.jpg,left,highway_226.jpg,golf_course_33.jpg,mountain_38.jpg,playground_10.jpg,bridge_102.jpg,badlands_10.jpg,3,playground_122.jpg,0,playground,,,,,,,,,0,11,11,11,,,,,,,,,,,,,,,,,,,,,,,,,,,,,,,,,,,,,,,,,,,,,,,,,,,,,,,,,,,,,,,,,,,,,,,,,,,,,,,,,399.67452545900596,None,399.67452545900596,None,3.859470468431772,1.4689325420040404,399.67452545900596,None,399.67452545900596,None,,,,,,,or,2023_Jun_18_1544,working_memory,2021.2.3,None,
highway_177.jpg,highway_177.jpg,highway_278.jpg,left,golf_course_202.jpg,playground_14.jpg,highway_177.jpg,bridge_152.jpg,badlands_227.jpg,mountain_192.jpg,2,highway_278.jpg,1,highway,,,,,,,,,0,12,12,12,,,,,,,,,,,,,,,,,,,,,,,,,,,,,,,,,,,,,,,,,,,,,,,,,,,,,,,,,,,,,,,,,,,,,,,,,,,,,,,,,401.1645557919983,None,401.1645557919983,None,6.482688391038696,2.722225999998045,401.1645557919983,None,401.1645557919983,None,,,,,,,or,2023_Jun_18_1544,working_memory,2021.2.3,None,
badlands_21.jpg,badlands_1.jpg,badlands_21.jpg,right,bridge_72.jpg,badlands_21.jpg,playground_74.jpg,golf_course_56.jpg,mountain_228.jpg,highway_251.jpg,1,badlands_1.jpg,0,badlands,,,,,,,,,0,13,13,13,,,,,,,,,,,,,,,,,,,,,,,,,,,,,,,,,,,,,,,,,,,,,,,,,,,,,,,,,,,,,,,,,,,,,,,,,,,,,,,,,403.9101628339995,None,403.9101628339995,None,3.810590631364562,1.1761605420033447,403.9101628339995,None,403.9101628339995,None,,,,,,,or,2023_Jun_18_1544,working_memory,2021.2.3,None,
playground_131.jpg,playground_164.jpg,playground_131.jpg,right,highway_101.jpg,golf_course_166.jpg,bridge_117.jpg,mountain_180.jpg,playground_131.jpg,badlands_27.jpg,4,playground_164.jpg,1,playground,,,,,,,,,0,14,14,14,,,,,,,,,,,,,,,,,,,,,,,,,,,,,,,,,,,,,,,,,,,,,,,,,,,,,,,,,,,,,,,,,,,,,,,,,,,,,,,,,405.10896545900323,None,405.10896545900323,None,4.934826883910387,0.5684409590030555,405.10896545900323,None,405.10896545900323,None,,,,,,,or,2023_Jun_18_1544,working_memory,2021.2.3,None,
bridge_256.jpg,bridge_256.jpg,bridge_211.jpg,left,highway_53.jpg,mountain_250.jpg,bridge_256.jpg,playground_165.jpg,golf_course_300.jpg,badlands_128.jpg,2,bridge_211.jpg,1,bridge,,,,,,,,,0,15,15,15,,,,,,,,,,,,,,,,,,,,,,,,,,,,,,,,,,,,,,,,,,,,,,,,,,,,,,,,,,,,,,,,,,,,,,,,,,,,,,,,,405.69821966699965,None,405.69821966699965,None,4.690427698574338,0.6222160410106881,405.69821966699965,None,405.69821966699965,None,,,,,,,or,2023_Jun_18_1544,working_memory,2021.2.3,None,
badlands_52.jpg,badlands_94.jpg,badlands_52.jpg,right,highway_399.jpg,golf_course_174.jpg,mountain_91.jpg,badlands_52.jpg,bridge_140.jpg,playground_154.jpg,3,badlands_94.jpg,0,badlands,,,,,,,,,0,16,16,16,,,,,,,,,,,,,,,,,,,,,,,,,,,,,,,,,,,,,,,,,,,,,,,,,,,,,,,,,,,,,,,,,,,,,,,,,,,,,,,,,406.3414052500011,None,406.3414052500011,None,4.690427698574338,0.5358606670051813,406.3414052500011,None,406.3414052500011,None,,,,,,,or,2023_Jun_18_1544,working_memory,2021.2.3,None,
badlands_23.jpg,badlands_114.jpg,badlands_23.jpg,right,highway_257.jpg,badlands_23.jpg,golf_course_194.jpg,mountain_251.jpg,playground_140.jpg,bridge_144.jpg,1,badlands_114.jpg,0,badlands,,,,,,,,,0,17,17,17,,,,,,,,,,,,,,,,,,,,,,,,,,,,,,,,,,,,,,,,,,,,,,,,,,,,,,,,,,,,,,,,,,,,,,,,,,,,,,,,,406.8983631250012,None,406.8983631250012,None,4.690427698574338,0.4221344169927761,406.8983631250012,None,406.8983631250012,None,,,,,,,or,2023_Jun_18_1544,working_memory,2021.2.3,None,
mountain_101.jpg,mountain_221.jpg,mountain_101.jpg,right,bridge_155.jpg,playground_33.jpg,highway_287.jpg,mountain_101.jpg,badlands_44.jpg,golf_course_127.jpg,3,mountain_221.jpg,1,mountain,,,,,,,,,0,18,18,18,,,,,,,,,,,,,,,,,,,,,,,,,,,,,,,,,,,,,,,,,,,,,,,,,,,,,,,,,,,,,,,,,,,,,,,,,,,,,,,,,407.3424602919986,None,407.3424602919986,None,4.690427698574338,0.47763158300949726,407.3424602919986,None,407.3424602919986,None,,,,,,,or,2023_Jun_18_1544,working_memory,2021.2.3,None,
badlands_221.jpg,badlands_207.jpg,badlands_221.jpg,right,golf_course_328.jpg,playground_36.jpg,highway_78.jpg,badlands_221.jpg,mountain_152.jpg,bridge_87.jpg,3,badlands_207.jpg,1,badlands,,,,,,,,,0,19,19,19,,,,,,,,,,,,,,,,,,,,,,,,,,,,,,,,,,,,,,,,,,,,,,,,,,,,,,,,,,,,,,,,,,,,,,,,,,,,,,,,,407.8400967089983,None,407.8400967089983,None,4.690427698574338,0.19565558299655095,407.8400967089983,None,407.8400967089983,None,,,,,,,or,2023_Jun_18_1544,working_memory,2021.2.3,None,
mountain_154.jpg,mountain_154.jpg,mountain_95.jpg,left,golf_course_305.jpg,playground_204.jpg,bridge_74.jpg,mountain_154.jpg,badlands_166.jpg,highway_288.jpg,3,mountain_95.jpg,1,mountain,,,,,,,,,0,20,20,20,,,,,,,,,,,,,,,,,,,,,,,,,,,,,,,,,,,,,,,,,,,,,,,,,,,,,,,,,,,,,,,,,,,,,,,,,,,,,,,,,408.0567461669998,None,408.0567461669998,None,4.690427698574338,0.16200820800440852,408.0567461669998,None,408.0567461669998,None,,,,,,,or,2023_Jun_18_1544,working_memory,2021.2.3,None,
bridge_91.jpg,bridge_253.jpg,bridge_91.jpg,right,golf_course_55.jpg,playground_98.jpg,bridge_91.jpg,highway_295.jpg,mountain_41.jpg,badlands_33.jpg,2,bridge_253.jpg,0,bridge,,,,,,,,,0,21,21,21,,,,,,,,,,,,,,,,,,,,,,,,,,,,,,,,,,,,,,,,,,,,,,,,,,,,,,,,,,,,,,,,,,,,,,,,,,,,,,,,,408.2414440420107,None,408.2414440420107,None,4.690427698574338,0.14462474999891128,408.2414440420107,None,408.2414440420107,None,,,,,,,or,2023_Jun_18_1544,working_memory,2021.2.3,None,
highway_273.jpg,highway_273.jpg,highway_384.jpg,left,bridge_22.jpg,mountain_146.jpg,badlands_217.jpg,highway_273.jpg,golf_course_116.jpg,playground_55.jpg,3,highway_384.jpg,0,highway,,,,,,,,,0,22,22,22,,,,,,,,,,,,,,,,,,,,,,,,,,,,,,,,,,,,,,,,,,,,,,,,,,,,,,,,,,,,,,,,,,,,,,,,,,,,,,,,,408.40604108400294,None,408.40604108400294,None,4.690427698574338,0.13850025000283495,408.40604108400294,None,408.40604108400294,None,,,,,,,or,2023_Jun_18_1544,working_memory,2021.2.3,None,
playground_60.jpg,playground_60.jpg,playground_244.jpg,left,playground_60.jpg,highway_178.jpg,badlands_121.jpg,mountain_126.jpg,golf_course_179.jpg,bridge_118.jpg,0,playground_244.jpg,1,playground,,,,,,,,,0,23,23,23,,,,,,,,,,,,,,,,,,,,,,,,,,,,,,,,,,,,,,,,,,,,,,,,,,,,,,,,,,,,,,,,,,,,,,,,,,,,,,,,,408.5658352090104,None,408.5658352090104,None,4.690427698574338,0.15316754201194271,408.5658352090104,None,408.5658352090104,None,,,,,,,or,2023_Jun_18_1544,working_memory,2021.2.3,None,
golf_course_217.jpg,golf_course_35.jpg,golf_course_217.jpg,right,playground_37.jpg,mountain_199.jpg,bridge_193.jpg,golf_course_217.jpg,highway_17.jpg,badlands_174.jpg,3,golf_course_35.jpg,0,golf,,,,,,,,,0,24,24,24,,,,,,,,,,,,,,,,,,,,,,,,,,,,,,,,,,,,,,,,,,,,,,,,,,,,,,,,,,,,,,,,,,,,,,,,,,,,,,,,,408.7412417919986,None,408.7412417919986,None,4.690427698574338,0.12773450001259334,408.7412417919986,None,408.7412417919986,None,,,,,,,or,2023_Jun_18_1544,working_memory,2021.2.3,None,
playground_240.jpg,playground_40.jpg,playground_240.jpg,right,mountain_226.jpg,highway_265.jpg,playground_240.jpg,golf_course_313.jpg,badlands_104.jpg,bridge_79.jpg,2,playground_40.jpg,1,playground,,,,,,,,,0,25,25,25,,,,,,,,,,,,,,,,,,,,,,,,,,,,,,,,,,,,,,,,,,,,,,,,,,,,,,,,,,,,,,,,,,,,,,,,,,,,,,,,,408.8899738750042,None,408.8899738750042,None,4.690427698574338,0.13752829100121744,408.8899738750042,None,408.8899738750042,None,,,,,,,or,2023_Jun_18_1544,working_memory,2021.2.3,None,
bridge_202.jpg,bridge_202.jpg,bridge_38.jpg,left,highway_138.jpg,bridge_202.jpg,mountain_29.jpg,badlands_16.jpg,golf_course_105.jpg,playground_246.jpg,1,bridge_38.jpg,1,bridge,,,,,,,,,0,26,26,26,,,,,,,,,,,,,,,,,,,,,,,,,,,,,,,,,,,,,,,,,,,,,,,,,,,,,,,,,,,,,,,,,,,,,,,,,,,,,,,,,409.04872474999866,None,409.04872474999866,None,4.690427698574338,0.1460142080031801,409.04872474999866,None,409.04872474999866,None,,,,,,,or,2023_Jun_18_1544,working_memory,2021.2.3,None,
golf_course_331.jpg,golf_course_331.jpg,golf_course_26.jpg,left,mountain_169.jpg,golf_course_331.jpg,playground_258.jpg,bridge_234.jpg,highway_148.jpg,badlands_122.jpg,1,golf_course_26.jpg,1,golf,,,,,,,,,0,27,27,27,,,,,,,,,,,,,,,,,,,,,,,,,,,,,,,,,,,,,,,,,,,,,,,,,,,,,,,,,,,,,,,,,,,,,,,,,,,,,,,,,409.2147982919996,None,409.2147982919996,None,4.690427698574338,1.17896158300573,409.2147982919996,None,409.2147982919996,None,,,,,,,or,2023_Jun_18_1544,working_memory,2021.2.3,None,
badlands_70.jpg,badlands_70.jpg,badlands_119.jpg,left,bridge_112.jpg,mountain_307.jpg,golf_course_238.jpg,badlands_70.jpg,highway_383.jpg,playground_233.jpg,3,badlands_119.jpg,1,badlands,,,,,,,,,0,28,28,28,,,,,,,,,,,,,,,,,,,,,,,,,,,,,,,,,,,,,,,,,,,,,,,,,,,,,,,,,,,,,,,,,,,,,,,,,,,,,,,,,410.4161098340119,None,410.4161098340119,None,4.690427698574338,0.12818758300272748,410.4161098340119,None,410.4161098340119,None,,,,,,,or,2023_Jun_18_1544,working_memory,2021.2.3,None,
highway_156.jpg,highway_156.jpg,highway_293.jpg,left,playground_6.jpg,highway_156.jpg,badlands_6.jpg,bridge_45.jpg,golf_course_120.jpg,mountain_102.jpg,1,highway_293.jpg,1,highway,,,,,,,,,0,29,29,29,,,,,,,,,,,,,,,,,,,,,,,,,,,,,,,,,,,,,,,,,,,,,,,,,,,,,,,,,,,,,,,,,,,,,,,,,,,,,,,,,410.5650627499999,None,410.5650627499999,None,4.690427698574338,0.15437779200146906,410.5650627499999,None,410.5650627499999,None,,,,,,,or,2023_Jun_18_1544,working_memory,2021.2.3,None,
golf_course_309.jpg,golf_course_209.jpg,golf_course_309.jpg,right,highway_354.jpg,playground_15.jpg,mountain_187.jpg,badlands_216.jpg,golf_course_309.jpg,bridge_133.jpg,4,golf_course_209.jpg,1,golf,,,,,,,,,0,30,30,30,,,,,,,,,,,,,,,,,,,,,,,,,,,,,,,,,,,,,,,,,,,,,,,,,,,,,,,,,,,,,,,,,,,,,,,,,,,,,,,,,410.740265542001,None,410.740265542001,None,4.690427698574338,0.12927145899448078,410.740265542001,None,410.740265542001,None,,,,,,,or,2023_Jun_18_1544,working_memory,2021.2.3,None,
bridge_250.jpg,bridge_250.jpg,bridge_134.jpg,left,golf_course_196.jpg,highway_30.jpg,bridge_250.jpg,mountain_40.jpg,playground_249.jpg,badlands_97.jpg,2,bridge_134.jpg,0,bridge,,,,,,,,,0,31,31,31,,,,,,,,,,,,,,,,,,,,,,,,,,,,,,,,,,,,,,,,,,,,,,,,,,,,,,,,,,,,,,,,,,,,,,,,,,,,,,,,,410.88973437499953,None,410.88973437499953,None,4.690427698574338,0.1466452080057934,410.88973437499953,None,410.88973437499953,None,,,,,,,or,2023_Jun_18_1544,working_memory,2021.2.3,None,
golf_course_214.jpg,golf_course_312.jpg,golf_course_214.jpg,right,highway_102.jpg,golf_course_214.jpg,playground_176.jpg,bridge_164.jpg,badlands_171.jpg,mountain_253.jpg,1,golf_course_312.jpg,0,golf,,,,,,,,,0,32,32,32,,,,,,,,,,,,,,,,,,,,,,,,,,,,,,,,,,,,,,,,,,,,,,,,,,,,,,,,,,,,,,,,,,,,,,,,,,,,,,,,,411.05656570900464,None,411.05656570900464,None,4.690427698574338,0.14572816700092517,411.05656570900464,None,411.05656570900464,None,,,,,,,or,2023_Jun_18_1544,working_memory,2021.2.3,None,
playground_219.jpg,playground_21.jpg,playground_219.jpg,right,golf_course_252.jpg,badlands_120.jpg,bridge_158.jpg,playground_219.jpg,highway_33.jpg,mountain_202.jpg,3,playground_21.jpg,0,playground,,,,,,,,,0,33,33,33,,,,,,,,,,,,,,,,,,,,,,,,,,,,,,,,,,,,,,,,,,,,,,,,,,,,,,,,,,,,,,,,,,,,,,,,,,,,,,,,,411.2241544999997,None,411.2241544999997,None,4.690427698574338,0.13641512500180397,411.2241544999997,None,411.2241544999997,None,,,,,,,or,2023_Jun_18_1544,working_memory,2021.2.3,None,
bridge_128.jpg,bridge_61.jpg,bridge_128.jpg,right,bridge_128.jpg,highway_154.jpg,badlands_35.jpg,golf_course_137.jpg,mountain_39.jpg,playground_162.jpg,0,bridge_61.jpg,0,bridge,,,,,,,,,0,34,34,34,,,,,,,,,,,,,,,,,,,,,,,,,,,,,,,,,,,,,,,,,,,,,,,,,,,,,,,,,,,,,,,,,,,,,,,,,,,,,,,,,411.38216579200525,None,411.38216579200525,None,4.690427698574338,0.12922999999136664,411.38216579200525,None,411.38216579200525,None,,,,,,,or,2023_Jun_18_1544,working_memory,2021.2.3,None,
highway_209.jpg,highway_209.jpg,highway_122.jpg,left,bridge_52.jpg,playground_78.jpg,golf_course_41.jpg,badlands_47.jpg,highway_209.jpg,mountain_33.jpg,4,highway_122.jpg,1,highway,,,,,,,,,0,35,35,35,,,,,,,,,,,,,,,,,,,,,,,,,,,,,,,,,,,,,,,,,,,,,,,,,,,,,,,,,,,,,,,,,,,,,,,,,,,,,,,,,411.53074891700817,None,411.53074891700817,None,4.690427698574338,0.13840212499781046,411.53074891700817,None,411.53074891700817,None,,,,,,,or,2023_Jun_18_1544,working_memory,2021.2.3,None,
playground_144.jpg,playground_144.jpg,playground_65.jpg,left,badlands_215.jpg,mountain_88.jpg,golf_course_102.jpg,playground_144.jpg,bridge_238.jpg,highway_274.jpg,3,playground_65.jpg,1,playground,,,,,,,,,0,36,36,36,,,,,,,,,,,,,,,,,,,,,,,,,,,,,,,,,,,,,,,,,,,,,,,,,,,,,,,,,,,,,,,,,,,,,,,,,,,,,,,,,411.6915216250054,None,411.6915216250054,None,4.690427698574338,0.12756274999992456,411.6915216250054,None,411.6915216250054,None,,,,,,,or,2023_Jun_18_1544,working_memory,2021.2.3,None,
mountain_110.jpg,mountain_157.jpg,mountain_110.jpg,right,golf_course_42.jpg,playground_103.jpg,mountain_110.jpg,bridge_86.jpg,badlands_60.jpg,highway_342.jpg,2,mountain_157.jpg,0,mountain,,,,,,,,,0,37,37,37,,,,,,,,,,,,,,,,,,,,,,,,,,,,,,,,,,,,,,,,,,,,,,,,,,,,,,,,,,,,,,,,,,,,,,,,,,,,,,,,,411.8402554589993,None,411.8402554589993,None,4.690427698574338,0.15378154200152494,411.8402554589993,None,411.8402554589993,None,,,,,,,or,2023_Jun_18_1544,working_memory,2021.2.3,None,
highway_394.jpg,highway_204.jpg,highway_394.jpg,right,highway_394.jpg,golf_course_144.jpg,playground_68.jpg,badlands_26.jpg,bridge_218.jpg,mountain_32.jpg,0,highway_204.jpg,0,highway,,,,,,,,,0,38,38,38,,,,,,,,,,,,,,,,,,,,,,,,,,,,,,,,,,,,,,,,,,,,,,,,,,,,,,,,,,,,,,,,,,,,,,,,,,,,,,,,,412.0139573339984,None,412.0139573339984,None,4.690427698574338,0.14017483399948105,412.0139573339984,None,412.0139573339984,None,,,,,,,or,2023_Jun_18_1544,working_memory,2021.2.3,None,
golf_course_87.jpg,golf_course_87.jpg,golf_course_161.jpg,left,golf_course_87.jpg,mountain_190.jpg,bridge_124.jpg,highway_58.jpg,badlands_152.jpg,playground_237.jpg,0,golf_course_161.jpg,1,golf,,,,,,,,,0,39,39,39,,,,,,,,,,,,,,,,,,,,,,,,,,,,,,,,,,,,,,,,,,,,,,,,,,,,,,,,,,,,,,,,,,,,,,,,,,,,,,,,,412.1752875420061,None,412.1752875420061,None,4.690427698574338,0.1527782499906607,412.1752875420061,None,412.1752875420061,None,,,,,,,or,2023_Jun_18_1544,working_memory,2021.2.3,None,
mountain_156.jpg,mountain_128.jpg,mountain_156.jpg,right,playground_64.jpg,bridge_180.jpg,badlands_72.jpg,mountain_156.jpg,highway_319.jpg,golf_course_23.jpg,3,mountain_128.jpg,0,mountain,,,,,,,,,0,40,40,40,,,,,,,,,,,,,,,,,,,,,,,,,,,,,,,,,,,,,,,,,,,,,,,,,,,,,,,,,,,,,,,,,,,,,,,,,,,,,,,,,412.3485733340058,None,412.3485733340058,None,4.690427698574338,0.145659333007643,412.3485733340058,None,412.3485733340058,None,,,,,,,or,2023_Jun_18_1544,working_memory,2021.2.3,None,
badlands_137.jpg,badlands_194.jpg,badlands_137.jpg,right,highway_107.jpg,bridge_212.jpg,mountain_206.jpg,badlands_137.jpg,playground_63.jpg,golf_course_265.jpg,3,badlands_194.jpg,0,badlands,,,,,,,,,0,41,41,41,,,,,,,,,,,,,,,,,,,,,,,,,,,,,,,,,,,,,,,,,,,,,,,,,,,,,,,,,,,,,,,,,,,,,,,,,,,,,,,,,412.5146267090022,None,412.5146267090022,None,4.690427698574338,0.1459187500004191,412.5146267090022,None,412.5146267090022,None,,,,,,,or,2023_Jun_18_1544,working_memory,2021.2.3,None,
golf_course_188.jpg,golf_course_157.jpg,golf_course_188.jpg,right,highway_199.jpg,playground_227.jpg,badlands_54.jpg,bridge_228.jpg,golf_course_188.jpg,mountain_62.jpg,4,golf_course_157.jpg,0,golf,,,,,,,,,0,42,42,42,,,,,,,,,,,,,,,,,,,,,,,,,,,,,,,,,,,,,,,,,,,,,,,,,,,,,,,,,,,,,,,,,,,,,,,,,,,,,,,,,412.68013729200175,None,412.68013729200175,None,4.690427698574338,0.13950516599288676,412.68013729200175,None,412.68013729200175,None,,,,,,,or,2023_Jun_18_1544,working_memory,2021.2.3,None,
badlands_184.jpg,badlands_184.jpg,badlands_103.jpg,left,playground_235.jpg,golf_course_342.jpg,bridge_197.jpg,mountain_294.jpg,badlands_184.jpg,highway_308.jpg,4,badlands_103.jpg,1,badlands,,,,,,,,,0,43,43,43,,,,,,,,,,,,,,,,,,,,,,,,,,,,,,,,,,,,,,,,,,,,,,,,,,,,,,,,,,,,,,,,,,,,,,,,,,,,,,,,,412.8397478750121,None,412.8397478750121,None,4.690427698574338,0.12959666599635966,412.8397478750121,None,412.8397478750121,None,,,,,,,or,2023_Jun_18_1544,working_memory,2021.2.3,None,
mountain_232.jpg,mountain_232.jpg,mountain_3.jpg,left,golf_course_128.jpg,playground_124.jpg,badlands_170.jpg,mountain_232.jpg,bridge_147.jpg,highway_305.jpg,3,mountain_3.jpg,0,mountain,,,,,,,,,0,44,44,44,,,,,,,,,,,,,,,,,,,,,,,,,,,,,,,,,,,,,,,,,,,,,,,,,,,,,,,,,,,,,,,,,,,,,,,,,,,,,,,,,412.9899246670102,None,412.9899246670102,None,4.690427698574338,0.14622833399334922,412.9899246670102,None,412.9899246670102,None,,,,,,,or,2023_Jun_18_1544,working_memory,2021.2.3,None,
highway_93.jpg,highway_85.jpg,highway_93.jpg,right,golf_course_307.jpg,highway_93.jpg,badlands_164.jpg,playground_184.jpg,mountain_76.jpg,bridge_190.jpg,1,highway_85.jpg,0,highway,,,,,,,,,0,45,45,45,,,,,,,,,,,,,,,,,,,,,,,,,,,,,,,,,,,,,,,,,,,,,,,,,,,,,,,,,,,,,,,,,,,,,,,,,,,,,,,,,413.1557619590021,None,413.1557619590021,None,4.690427698574338,0.15440374999889173,413.1557619590021,None,413.1557619590021,None,,,,,,,or,2023_Jun_18_1544,working_memory,2021.2.3,None,
highway_294.jpg,highway_203.jpg,highway_294.jpg,right,highway_294.jpg,mountain_176.jpg,playground_196.jpg,badlands_106.jpg,bridge_120.jpg,golf_course_269.jpg,0,highway_203.jpg,0,highway,,,,,,,,,0,46,46,46,,,,,,,,,,,,,,,,,,,,,,,,,,,,,,,,,,,,,,,,,,,,,,,,,,,,,,,,,,,,,,,,,,,,,,,,,,,,,,,,,413.33011429200997,None,413.33011429200997,None,4.690427698574338,0.15533208299893886,413.33011429200997,None,413.33011429200997,None,,,,,,,or,2023_Jun_18_1544,working_memory,2021.2.3,None,
golf_course_195.jpg,golf_course_2.jpg,golf_course_195.jpg,right,golf_course_195.jpg,playground_54.jpg,badlands_211.jpg,mountain_92.jpg,highway_28.jpg,bridge_63.jpg,0,golf_course_2.jpg,1,golf,,,,,,,,,0,47,47,47,,,,,,,,,,,,,,,,,,,,,,,,,,,,,,,,,,,,,,,,,,,,,,,,,,,,,,,,,,,,,,,,,,,,,,,,,,,,,,,,,413.5074365420005,None,413.5074365420005,None,4.690427698574338,0.15375554100319277,413.5074365420005,None,413.5074365420005,None,,,,,,,or,2023_Jun_18_1544,working_memory,2021.2.3,None,
mountain_57.jpg,mountain_57.jpg,mountain_138.jpg,left,playground_241.jpg,golf_course_71.jpg,badlands_125.jpg,mountain_57.jpg,highway_37.jpg,bridge_68.jpg,3,mountain_138.jpg,1,mountain,,,,,,,,,0,48,48,48,,,,,,,,,,,,,,,,,,,,,,,,,,,,,,,,,,,,,,,,,,,,,,,,,,,,,,,,,,,,,,,,,,,,,,,,,,,,,,,,,413.68202512500284,None,413.68202512500284,None,4.690427698574338,0.14594837500771973,413.68202512500284,None,413.68202512500284,None,,,,,,,or,2023_Jun_18_1544,working_memory,2021.2.3,None,
bridge_108.jpg,bridge_108.jpg,bridge_116.jpg,left,golf_course_297.jpg,highway_90.jpg,badlands_81.jpg,mountain_135.jpg,bridge_108.jpg,playground_118.jpg,4,bridge_116.jpg,0,bridge,,,,,,,,,0,49,49,49,,,,,,,,,,,,,,,,,,,,,,,,,,,,,,,,,,,,,,,,,,,,,,,,,,,,,,,,,,,,,,,,,,,,,,,,,,,,,,,,,413.8478642500122,None,413.8478642500122,None,4.690427698574338,0.15397829200082924,413.8478642500122,None,413.8478642500122,None,,,,,,,or,2023_Jun_18_1544,working_memory,2021.2.3,None,
golf_course_193.jpg,golf_course_193.jpg,golf_course_235.jpg,left,mountain_306.jpg,badlands_138.jpg,golf_course_193.jpg,bridge_204.jpg,playground_132.jpg,highway_3.jpg,2,golf_course_235.jpg,0,golf,,,,,,,,,0,50,50,50,,,,,,,,,,,,,,,,,,,,,,,,,,,,,,,,,,,,,,,,,,,,,,,,,,,,,,,,,,,,,,,,,,,,,,,,,,,,,,,,,414.02334945900657,None,414.02334945900657,None,4.690427698574338,0.13799883400497492,414.02334945900657,None,414.02334945900657,None,,,,,,,or,2023_Jun_18_1544,working_memory,2021.2.3,None,
bridge_65.jpg,bridge_65.jpg,bridge_60.jpg,left,highway_31.jpg,golf_course_226.jpg,badlands_201.jpg,mountain_120.jpg,bridge_65.jpg,playground_141.jpg,4,bridge_60.jpg,1,bridge,,,,,,,,,0,51,51,51,,,,,,,,,,,,,,,,,,,,,,,,,,,,,,,,,,,,,,,,,,,,,,,,,,,,,,,,,,,,,,,,,,,,,,,,,,,,,,,,,414.18154454200703,None,414.18154454200703,None,4.690427698574338,0.14661916600016411,414.18154454200703,None,414.18154454200703,None,,,,,,,or,2023_Jun_18_1544,working_memory,2021.2.3,None,
playground_76.jpg,playground_22.jpg,playground_76.jpg,right,highway_50.jpg,playground_76.jpg,bridge_126.jpg,mountain_277.jpg,badlands_213.jpg,golf_course_288.jpg,1,playground_22.jpg,0,playground,,,,,,,,,0,52,52,52,,,,,,,,,,,,,,,,,,,,,,,,,,,,,,,,,,,,,,,,,,,,,,,,,,,,,,,,,,,,,,,,,,,,,,,,,,,,,,,,,414.34894470901054,None,414.34894470901054,None,4.690427698574338,0.15311866700358223,414.34894470901054,None,414.34894470901054,None,,,,,,,or,2023_Jun_18_1544,working_memory,2021.2.3,None,
golf_course_15.jpg,golf_course_113.jpg,golf_course_15.jpg,right,highway_18.jpg,badlands_173.jpg,bridge_24.jpg,playground_251.jpg,golf_course_15.jpg,mountain_137.jpg,4,golf_course_113.jpg,0,golf,,,,,,,,,0,53,53,53,,,,,,,,,,,,,,,,,,,,,,,,,,,,,,,,,,,,,,,,,,,,,,,,,,,,,,,,,,,,,,,,,,,,,,,,,,,,,,,,,414.525691584,None,414.525691584,None,4.690427698574338,0.1443362080026418,414.525691584,None,414.525691584,None,,,,,,,or,2023_Jun_18_1544,working_memory,2021.2.3,None,
badlands_24.jpg,badlands_53.jpg,badlands_24.jpg,right,playground_50.jpg,golf_course_72.jpg,badlands_24.jpg,highway_29.jpg,mountain_51.jpg,bridge_66.jpg,2,badlands_53.jpg,1,badlands,,,,,,,,,0,54,54,54,,,,,,,,,,,,,,,,,,,,,,,,,,,,,,,,,,,,,,,,,,,,,,,,,,,,,,,,,,,,,,,,,,,,,,,,,,,,,,,,,414.690419999999,None,414.690419999999,None,4.690427698574338,0.15371041699836496,414.690419999999,None,414.690419999999,None,,,,,,,or,2023_Jun_18_1544,working_memory,2021.2.3,None,
mountain_123.jpg,mountain_123.jpg,mountain_94.jpg,left,badlands_105.jpg,bridge_110.jpg,playground_85.jpg,highway_172.jpg,mountain_123.jpg,golf_course_162.jpg,4,mountain_94.jpg,0,mountain,,,,,,,,,0,55,55,55,,,,,,,,,,,,,,,,,,,,,,,,,,,,,,,,,,,,,,,,,,,,,,,,,,,,,,,,,,,,,,,,,,,,,,,,,,,,,,,,,414.8650238340051,None,414.8650238340051,None,4.690427698574338,0.3135360000014771,414.8650238340051,None,414.8650238340051,None,,,,,,,or,2023_Jun_18_1544,working_memory,2021.2.3,None,
bridge_191.jpg,bridge_191.jpg,bridge_184.jpg,left,playground_49.jpg,bridge_191.jpg,golf_course_3.jpg,mountain_233.jpg,highway_191.jpg,badlands_200.jpg,1,bridge_184.jpg,0,bridge,,,,,,,,,0,56,56,56,,,,,,,,,,,,,,,,,,,,,,,,,,,,,,,,,,,,,,,,,,,,,,,,,,,,,,,,,,,,,,,,,,,,,,,,,,,,,,,,,415.19824000001245,None,415.19824000001245,None,4.690427698574338,0.12964170800114516,415.19824000001245,None,415.19824000001245,None,,,,,,,or,2023_Jun_18_1544,working_memory,2021.2.3,None,
golf_course_78.jpg,golf_course_134.jpg,golf_course_78.jpg,right,playground_16.jpg,golf_course_78.jpg,bridge_254.jpg,highway_193.jpg,mountain_290.jpg,badlands_214.jpg,1,golf_course_134.jpg,0,golf,,,,,,,,,0,57,57,57,,,,,,,,,,,,,,,,,,,,,,,,,,,,,,,,,,,,,,,,,,,,,,,,,,,,,,,,,,,,,,,,,,,,,,,,,,,,,,,,,415.3464223750052,None,415.3464223750052,None,4.690427698574338,0.16450895799789578,415.3464223750052,None,415.3464223750052,None,,,,,,,or,2023_Jun_18_1544,working_memory,2021.2.3,None,
playground_117.jpg,playground_127.jpg,playground_117.jpg,right,highway_36.jpg,badlands_30.jpg,playground_117.jpg,golf_course_219.jpg,bridge_106.jpg,mountain_302.jpg,2,playground_127.jpg,1,playground,,,,,,,,,0,58,58,58,,,,,,,,,,,,,,,,,,,,,,,,,,,,,,,,,,,,,,,,,,,,,,,,,,,,,,,,,,,,,,,,,,,,,,,,,,,,,,,,,415.53158450000046,None,415.53158450000046,None,4.690427698574338,0.13683570799184963,415.53158450000046,None,415.53158450000046,None,,,,,,,or,2023_Jun_18_1544,working_memory,2021.2.3,None,
highway_415.jpg,highway_415.jpg,highway_174.jpg,left,playground_173.jpg,bridge_20.jpg,golf_course_59.jpg,highway_415.jpg,mountain_87.jpg,badlands_150.jpg,3,highway_174.jpg,1,highway,,,,,,,,,0,59,59,59,,,,,,,,,,,,,,,,,,,,,,,,,,,,,,,,,,,,,,,,,,,,,,,,,,,,,,,,,,,,,,,,,,,,,,,,,,,,,,,,,415.6883282500057,None,415.6883282500057,None,4.690427698574338,0.1475090000021737,415.6883282500057,None,415.6883282500057,None,,,,,,,or,2023_Jun_18_1544,working_memory,2021.2.3,None,
,,,,,,,,,,,,,,,,,,,,,,,,,,,,,,,,,,,,,,,,,,,,,,,,,,,,,,,,,,,,,,,,,,,,,,,,,,,,,,,,,,,,,,,,,,,,,,,,,,,,,,,,,,,,,,,,,,,,space,5.678443457989488,415.84272158400563,None,,,or,2023_Jun_18_1544,working_memory,2021.2.3,None,
,,,,,,,,,,,,,,,,,,,,,,,,,,,,,,,,,,,,,,,,,,,,,,,,,,,,,,,,,,,,,,,,,,,,,,,,,,,,,,,,,,,,,,,,,,,,,,,,,,,,,,,,,,,,,,,,,,,,,,,,415.84272158400563,None,,,,,,
