target,image1,image2,correct,background_0,background_1,background_2,background_3,background_4,background_5,target_index,selected_dist,distractor_level,category,demo_loops.thisRepN,demo_loops.thisTrialN,demo_loops.thisN,demo_loops.thisIndex,exp_loops.thisRepN,exp_loops.thisTrialN,exp_loops.thisN,exp_loops.thisIndex,exp_loops_part2.thisRepN,exp_loops_part2.thisTrialN,exp_loops_part2.thisN,exp_loops_part2.thisIndex,key_resp.keys,key_resp.started,key_resp.stopped,text_consent_form.started,text_consent_form.stopped,button.started,button.stopped,button.numClicks,button.timesOn,button.timesOff,key_resp_2.keys,key_resp_2.rt,key_resp_2.started,key_resp_2.stopped,text_instructions_first_slide.started,text_instructions_first_slide.stopped,image_0_demo.started,image_0_demo.stopped,image_1_demo.started,image_1_demo.stopped,image_2_demo.started,image_2_demo.stopped,image_3_demo.started,image_3_demo.stopped,image_4_demo.started,image_4_demo.stopped,image_5_demo.started,image_5_demo.stopped,blank_screen_demo.started,blank_screen_demo.stopped,fixation_demo.started,fixation_demo.stopped,image_left_demo.started,image_left_demo.stopped,image_right_demo.started,image_right_demo.stopped,demo_test_key_resp.keys,demo_test_key_resp.rt,demo_test_key_resp.started,demo_test_key_resp.stopped,text_4.started,text_4.stopped,key_resp_after_demo.keys,key_resp_after_demo.rt,key_resp_after_demo.started,key_resp_after_demo.stopped,text_after_demo_instr.started,text_after_demo_instr.stopped,image_0.started,image_0.stopped,image_1.started,image_1.stopped,image_2.started,image_2.stopped,image_3.started,image_3.stopped,image_4.started,image_4.stopped,image_5.started,image_5.stopped,blank_screen.started,blank_screen.stopped,fixation_encoding.started,fixation_encoding.stopped,image_left.started,image_left.stopped,image_right.started,image_right.stopped,test_key_resp.keys,test_key_resp.rt,test_key_resp.started,test_key_resp.stopped,text_6.started,text_6.stopped,text_2.started,text_2.stopped,key_resp_4.keys,key_resp_4.rt,key_resp_4.started,key_resp_4.stopped,image_left_part2.started,image_left_part2.stopped,image_right_part2.started,image_right_part2.stopped,slider_part2.response,slider_part2.rt,slider_part2.started,slider_part2.stopped,text_5.started,text_5.stopped,key_resp_last_slide.keys,key_resp_last_slide.rt,key_resp_last_slide.started,key_resp_last_slide.stopped,text_last_slide.started,text_last_slide.stopped,ID,date,expName,psychopyVersion,frameRate,
,,,,,,,,,,,,,,,,,,,,,,,,,,None,12.23298316700675,None,,,,,,,,,,,,,,,,,,,,,,,,,,,,,,,,,,,,,,,,,,,,,,,,,,,,,,,,,,,,,,,,,,,,,,,,,,,,,,,,,,,,,,,,,,,,,,roi,2023_Jun_18_1553,working_memory,2021.2.3,None,
,,,,,,,,,,,,,,,,,,,,,,,,,,,,,12.23298316700675,None,12.23298316700675,None,1,[11.633163250007783],[11.633169125008862],space,19.183394209001563,23.858690792010748,None,,,,,,,,,,,,,,,,,,,,,,,,,,,,,,,,,,,,,,,,,,,,,,,,,,,,,,,,,,,,,,,,,,,,,,,,,,,,,,,,,,,roi,2023_Jun_18_1553,working_memory,2021.2.3,None,
flower1.jpg,flower1.jpg,flower1_pair.jpg,left,leaf3.jpg,trail1.jpg,flower1.jpg,bird1.jpg,tree3.jpg,fence4.jpg,2,,,,0,0,0,0,,,,,,,,,,,,,,,,,,,,,,,23.858690792010748,None,43.63311512500513,43.832300750000286,43.83814579200407,44.0288704590057,44.0288704590057,44.2299867499969,44.2299867499969,44.42946479200327,44.43370183400111,44.62421183400147,44.637854625005275,44.83807629199873,44.83807629199873,None,43.15559637499973,43.64082245899772,45.78902791700966,None,45.78902791700966,None,left,9.5352670840075,45.78902791700966,None,45.78902791700966,None,,,,,,,,,,,,,,,,,,,,,,,,,,,,,,,,,,,,,,,,,,,,,,,,,,,,,,,roi,2023_Jun_18_1553,working_memory,2021.2.3,None,
leaf2.jpg,leaf1.jpg,leaf2.jpg,right,trail2.jpg,leaf2.jpg,bird2.jpg,tree2.jpg,fence3.jpg,flower2.jpg,1,,,,0,1,1,1,,,,,,,,,,,,,,,,,,,,,,,,,55.85422212500998,56.04450012500456,56.05020241699822,56.24067120900145,56.26089795900043,56.46108983400336,56.46108983400336,56.66067337500863,56.66067337500863,56.859162209002534,56.859162209002534,57.05602462500974,57.05602462500974,None,55.42400020900823,55.917961209008354,58.071337875007885,None,58.071337875007885,None,left,1.2005987919983454,58.071337875007885,None,58.071337875007885,None,,,,,,,,,,,,,,,,,,,,,,,,,,,,,,,,,,,,,,,,,,,,,,,,,,,,,,,roi,2023_Jun_18_1553,working_memory,2021.2.3,None,
fence1.jpg,fence1.jpg,fence2.jpg,left,tree1.jpg,bird3.jpg,trail3.jpg,fence1.jpg,leaf4.jpg,flower3.jpg,3,,,,0,2,2,2,,,,,,,,,,,,,,,,,,,,,,,,,59.80826345901005,60.00321583400364,60.00321583400364,60.1998378749995,60.1998378749995,60.39469120900321,60.407696542009944,60.60466650000308,60.60466650000308,60.80630108399782,60.80630108399782,60.99455020899768,61.00069254200207,None,59.324033124998095,59.82198733399855,62.00227024999913,None,62.00227024999913,None,left,2.70030566699279,62.00227024999913,None,62.00227024999913,None,,,,,,,,,,,,,,,,,,,,,,,,,,,,,,,,,,,,,,,,,,,,,,,,,,,,,,,roi,2023_Jun_18_1553,working_memory,2021.2.3,None,
,,,,,,,,,,,,,,,,,,,,,,,,,,,,,,,,,,,,,,,,,,,,,,,,,,,,,,,,,,,,,,,,,,,,space,8.47501591600303,64.71304929199687,None,,,,,,,,,,,,,,,,,,,,,,,,,,,,,,,,,,,,,,,,,,,,,,,,,,,roi,2023_Jun_18_1553,working_memory,2021.2.3,None,
badlands_113.jpg,badlands_113.jpg,badlands_225.jpg,left,badlands_113.jpg,mountain_62.jpg,golf_course_241.jpg,playground_195.jpg,bridge_35.jpg,highway_29.jpg,0,badlands_225.jpg,0,badlands,,,,,0,0,0,0,,,,,,,,,,,,,,,,,,,,,,,,,,,,,,,,,,,,,,,,,,,,,,,,,,,64.71304929199687,None,73.75993349999771,73.99920345901046,74.01425812501111,74.26369387500745,74.26369387500745,74.5135900840105,74.5135900840105,74.76136525000038,74.76136525000038,75.00222804200894,75.00912487501046,75.2565240420081,75.26293912500842,None,73.28485745900252,73.77447283400397,76.239610042001,None,76.239610042001,None,left,2.923745374995633,76.239610042001,None,76.239610042001,None,,,,,,,,,,,,,,,,,,,,,,,roi,2023_Jun_18_1553,working_memory,2021.2.3,None,
badlands_222.jpg,badlands_34.jpg,badlands_222.jpg,right,playground_55.jpg,mountain_143.jpg,golf_course_308.jpg,badlands_222.jpg,highway_274.jpg,bridge_74.jpg,3,badlands_34.jpg,0,badlands,,,,,0,1,1,1,,,,,,,,,,,,,,,,,,,,,,,,,,,,,,,,,,,,,,,,,,,,,,,,,,,,,79.70844558400859,79.95671104200301,79.95671104200301,80.19745945899922,80.21117362500809,80.46056954200321,80.46056954200321,80.70740208400821,80.70740208400821,80.95365725000738,80.95365725000738,81.19738154200604,81.20393170900934,None,79.22611925000092,79.72554416699859,82.19950070900086,None,82.19950070900086,None,right,3.2240999579953495,82.19950070900086,None,82.19950070900086,None,,,,,,,,,,,,,,,,,,,,,,,roi,2023_Jun_18_1553,working_memory,2021.2.3,None,
highway_359.jpg,highway_389.jpg,highway_359.jpg,right,golf_course_128.jpg,badlands_80.jpg,bridge_68.jpg,highway_359.jpg,playground_191.jpg,mountain_51.jpg,3,highway_389.jpg,0,highway,,,,,0,2,2,2,,,,,,,,,,,,,,,,,,,,,,,,,,,,,,,,,,,,,,,,,,,,,,,,,,,,,85.97101066700998,86.21971991700411,86.22561112500262,86.46727666699735,86.46727666699735,86.70807670900831,86.72582837499795,86.96745241701137,86.96745241701137,87.21708445900003,87.21708445900003,87.45398208400002,87.47357287500927,None,85.4920248749986,85.98685820899846,88.46905779199733,None,88.46905779199733,None,right,1.6821707500057528,88.46905779199733,None,88.46905779199733,None,,,,,,,,,,,,,,,,,,,,,,,roi,2023_Jun_18_1553,working_memory,2021.2.3,None,
mountain_222.jpg,mountain_222.jpg,mountain_93.jpg,left,bridge_164.jpg,golf_course_102.jpg,mountain_222.jpg,badlands_121.jpg,playground_16.jpg,highway_78.jpg,2,mountain_93.jpg,1,mountain,,,,,0,3,3,3,,,,,,,,,,,,,,,,,,,,,,,,,,,,,,,,,,,,,,,,,,,,,,,,,,,,,90.7109206669993,90.9568995419977,90.9568995419977,91.1963797089993,91.20982333400752,91.45123279200925,91.45123279200925,91.69018095900537,91.70902862500225,91.955748709006,91.955748709006,92.20676129200729,92.20676129200729,None,90.22566970900516,90.71622020901123,93.1944584169978,None,93.1944584169978,None,left,1.2800422919972334,93.1944584169978,None,93.1944584169978,None,,,,,,,,,,,,,,,,,,,,,,,roi,2023_Jun_18_1553,working_memory,2021.2.3,None,
bridge_172.jpg,bridge_172.jpg,bridge_163.jpg,left,golf_course_313.jpg,mountain_120.jpg,badlands_36.jpg,highway_342.jpg,bridge_172.jpg,playground_39.jpg,4,bridge_163.jpg,1,bridge,,,,,0,4,4,4,,,,,,,,,,,,,,,,,,,,,,,,,,,,,,,,,,,,,,,,,,,,,,,,,,,,,95.00763050001115,95.2579785840062,95.2579785840062,95.49582637500134,95.51630579199991,95.7576954170072,95.7576954170072,96.00915420900856,96.00915420900856,96.2488099589973,96.2687716250075,96.51855491699826,96.51855491699826,None,94.53529816700029,95.02858579200984,97.511748334,None,97.511748334,None,left,4.040059165999992,97.511748334,None,97.511748334,None,,,,,,,,,,,,,,,,,,,,,,,roi,2023_Jun_18_1553,working_memory,2021.2.3,None,
playground_145.jpg,playground_145.jpg,playground_229.jpg,left,golf_course_269.jpg,highway_288.jpg,badlands_180.jpg,playground_145.jpg,bridge_234.jpg,mountain_92.jpg,3,playground_229.jpg,0,playground,,,,,0,5,5,5,,,,,,,,,,,,,,,,,,,,,,,,,,,,,,,,,,,,,,,,,,,,,,,,,,,,,102.1115521669999,102.35517904200242,102.35517904200242,102.60255883399805,102.60255883399805,102.84017624999979,102.85879645899695,103.10430979200464,103.10430979200464,103.35370904199954,103.35370904199954,103.59405291700386,103.6140854999976,None,101.62463162500353,102.11698708400945,104.59415145900857,None,104.59415145900857,None,left,1.3058757079998031,104.59415145900857,None,104.59415145900857,None,,,,,,,,,,,,,,,,,,,,,,,roi,2023_Jun_18_1553,working_memory,2021.2.3,None,
highway_245.jpg,highway_245.jpg,highway_134.jpg,left,mountain_137.jpg,golf_course_56.jpg,playground_54.jpg,bridge_63.jpg,highway_245.jpg,badlands_10.jpg,4,highway_134.jpg,0,highway,,,,,0,6,6,6,,,,,,,,,,,,,,,,,,,,,,,,,,,,,,,,,,,,,,,,,,,,,,,,,,,,,106.45395229200949,106.69669583400537,106.69669583400537,106.93614791700384,106.95498779200716,107.20060137500695,107.20060137500695,107.44683595901006,107.45157891701092,107.69390895900142,107.69390895900142,107.94650175000424,107.94650175000424,None,105.97246266700677,106.47120575000008,108.95659741701093,None,108.95659741701093,None,left,1.2983562089939369,108.95659741701093,None,108.95659741701093,None,,,,,,,,,,,,,,,,,,,,,,,roi,2023_Jun_18_1553,working_memory,2021.2.3,None,
mountain_293.jpg,mountain_293.jpg,mountain_47.jpg,left,highway_76.jpg,badlands_171.jpg,playground_26.jpg,golf_course_42.jpg,mountain_293.jpg,bridge_224.jpg,4,mountain_47.jpg,1,mountain,,,,,0,7,7,7,,,,,,,,,,,,,,,,,,,,,,,,,,,,,,,,,,,,,,,,,,,,,,,,,,,,,110.79577545900247,111.03791250000359,111.05081516700739,111.29549458400288,111.29549458400288,111.54303929200978,111.54844808400958,111.78650395901059,111.80015245900722,112.0408890000108,112.0408890000108,112.27839116699761,112.29987783399702,None,110.31833208400349,110.81213183399814,113.3008811250038,None,113.3008811250038,None,left,0.9936098329926608,113.3008811250038,None,113.3008811250038,None,,,,,,,,,,,,,,,,,,,,,,,roi,2023_Jun_18_1553,working_memory,2021.2.3,None,
bridge_146.jpg,bridge_146.jpg,bridge_27.jpg,left,bridge_146.jpg,badlands_174.jpg,playground_256.jpg,highway_399.jpg,golf_course_226.jpg,mountain_76.jpg,0,bridge_27.jpg,0,bridge,,,,,0,8,8,8,,,,,,,,,,,,,,,,,,,,,,,,,,,,,,,,,,,,,,,,,,,,,,,,,,,,,114.83801120900898,115.08082866700715,115.09717720899789,115.33830954199948,115.33830954199948,115.58489216701128,115.59051245900628,115.82922745900578,115.84881058400788,116.10068554199825,116.10068554199825,116.3417189590109,116.3417189590109,None,114.36589716700837,114.85396229200705,117.34679820900783,None,117.34679820900783,None,left,1.138611000002129,117.34679820900783,None,117.34679820900783,None,,,,,,,,,,,,,,,,,,,,,,,roi,2023_Jun_18_1553,working_memory,2021.2.3,None,
playground_257.jpg,playground_214.jpg,playground_257.jpg,right,badlands_219.jpg,playground_257.jpg,golf_course_71.jpg,mountain_89.jpg,bridge_20.jpg,highway_199.jpg,1,playground_214.jpg,0,playground,,,,,0,9,9,9,,,,,,,,,,,,,,,,,,,,,,,,,,,,,,,,,,,,,,,,,,,,,,,,,,,,,119.03672604200256,119.27737991700997,119.27737991700997,119.5179836669995,119.53713220900681,119.77872100000968,119.77872100000968,120.0160412920086,120.03651329199784,120.27511600000435,120.27511600000435,120.51824437500909,120.53850295901066,None,118.55334108399984,119.04738029200234,121.53653470899735,None,121.53653470899735,None,left,1.2592234589974396,121.53653470899735,None,121.53653470899735,None,,,,,,,,,,,,,,,,,,,,,,,roi,2023_Jun_18_1553,working_memory,2021.2.3,None,
mountain_230.jpg,mountain_97.jpg,mountain_230.jpg,right,mountain_230.jpg,highway_58.jpg,bridge_117.jpg,playground_124.jpg,golf_course_288.jpg,badlands_213.jpg,0,mountain_97.jpg,1,mountain,,,,,0,10,10,10,,,,,,,,,,,,,,,,,,,,,,,,,,,,,,,,,,,,,,,,,,,,,,,,,,,,,123.3501814170013,123.59936937500606,123.60522729200602,123.85032612500072,123.85032612500072,124.0933908750012,124.0933908750012,124.34054783399915,124.34616670900141,124.58720879199973,124.60494095900503,124.84658050000144,124.84658050000144,None,122.86664354200184,123.36200666699733,125.84256587500568,None,125.84256587500568,None,right,1.2361987499898532,125.84256587500568,None,125.84256587500568,None,,,,,,,,,,,,,,,,,,,,,,,roi,2023_Jun_18_1553,working_memory,2021.2.3,None,
playground_10.jpg,playground_10.jpg,playground_122.jpg,left,playground_10.jpg,highway_251.jpg,bridge_45.jpg,mountain_91.jpg,golf_course_176.jpg,badlands_27.jpg,0,playground_122.jpg,0,playground,,,,,0,11,11,11,,,,,,,,,,,,,,,,,,,,,,,,,,,,,,,,,,,,,,,,,,,,,,,,,,,,,127.62566683400655,127.8658414590027,127.8794543749973,128.11510966700735,128.1324053749995,128.36739279200265,128.38286995900853,128.62878125000861,128.62878125000861,128.8720386250061,128.8720386250061,129.11662812500435,129.13151804200606,None,127.14722833399719,127.64323304200661,130.1277005419979,None,130.1277005419979,None,left,1.1591474999877391,130.1277005419979,None,130.1277005419979,None,,,,,,,,,,,,,,,,,,,,,,,roi,2023_Jun_18_1553,working_memory,2021.2.3,None,
highway_177.jpg,highway_177.jpg,highway_278.jpg,left,badlands_214.jpg,bridge_238.jpg,highway_177.jpg,playground_37.jpg,golf_course_265.jpg,mountain_251.jpg,2,highway_278.jpg,1,highway,,,,,0,12,12,12,,,,,,,,,,,,,,,,,,,,,,,,,,,,,,,,,,,,,,,,,,,,,,,,,,,,,131.82520308400854,132.07334641700436,132.07894995900278,132.31669387500733,132.33449833400664,132.5754462920013,132.5754462920013,132.823603249999,132.8292331249977,133.07911116699688,133.07911116699688,133.31946199999948,133.32591787500132,None,131.3551876249985,131.85390962500242,134.33538604200294,None,134.33538604200294,None,left,2.1623585829947842,134.33538604200294,None,134.33538604200294,None,,,,,,,,,,,,,,,,,,,,,,,roi,2023_Jun_18_1553,working_memory,2021.2.3,None,
badlands_21.jpg,badlands_98.jpg,badlands_21.jpg,right,mountain_253.jpg,playground_84.jpg,bridge_96.jpg,golf_course_162.jpg,badlands_21.jpg,highway_31.jpg,4,badlands_98.jpg,1,badlands,,,,,0,13,13,13,,,,,,,,,,,,,,,,,,,,,,,,,,,,,,,,,,,,,,,,,,,,,,,,,,,,,137.0335916250042,137.28246495900385,137.28810070900363,137.53624475000834,137.53624475000834,137.77597770901048,137.79028887501045,138.0334508750093,138.0334508750093,138.27498304200708,138.28785600000992,138.52947212501022,138.52947212501022,None,136.55978595900524,137.04997354200168,139.53533162501117,None,139.53533162501117,None,right,0.7458597919903696,139.53533162501117,None,139.53533162501117,None,,,,,,,,,,,,,,,,,,,,,,,roi,2023_Jun_18_1553,working_memory,2021.2.3,None,
playground_131.jpg,playground_43.jpg,playground_131.jpg,right,playground_131.jpg,mountain_102.jpg,bridge_152.jpg,badlands_97.jpg,highway_33.jpg,golf_course_333.jpg,0,playground_43.jpg,0,playground,,,,,0,14,14,14,,,,,,,,,,,,,,,,,,,,,,,,,,,,,,,,,,,,,,,,,,,,,,,,,,,,,140.82924166700104,141.07088458399812,141.08362304201,141.3242942920042,141.3242942920042,141.56562866699824,141.58331400000316,141.8208845420013,141.8208845420013,142.06556504200853,142.08459729200695,142.33245558400813,142.33245558400813,None,140.35021933401003,140.845762500001,143.33246950000466,None,143.33246950000466,None,right,1.1722259999951348,143.33246950000466,None,143.33246950000466,None,,,,,,,,,,,,,,,,,,,,,,,roi,2023_Jun_18_1553,working_memory,2021.2.3,None,
bridge_256.jpg,bridge_54.jpg,bridge_256.jpg,right,mountain_192.jpg,bridge_256.jpg,golf_course_55.jpg,playground_61.jpg,badlands_129.jpg,highway_81.jpg,1,bridge_54.jpg,0,bridge,,,,,0,15,15,15,,,,,,,,,,,,,,,,,,,,,,,,,,,,,,,,,,,,,,,,,,,,,,,,,,,,,145.04668616699928,145.28670625000086,145.28670625000086,145.5280017920013,145.54777129201102,145.79420825000852,145.79420825000852,146.03776491701137,146.03776491701137,146.2821541250014,146.2969237500074,146.54517612500058,146.54517612500058,None,144.5668137090106,145.0633541670104,147.54975808400195,None,147.54975808400195,None,right,1.353909332989133,147.54975808400195,None,147.54975808400195,None,,,,,,,,,,,,,,,,,,,,,,,roi,2023_Jun_18_1553,working_memory,2021.2.3,None,
badlands_52.jpg,badlands_52.jpg,badlands_94.jpg,left,badlands_52.jpg,playground_140.jpg,bridge_204.jpg,golf_course_120.jpg,mountain_152.jpg,highway_290.jpg,0,badlands_94.jpg,0,badlands,,,,,0,16,16,16,,,,,,,,,,,,,,,,,,,,,,,,,,,,,,,,,,,,,,,,,,,,,,,,,,,,,149.44231658399804,149.69027462499798,149.69633000000613,149.94229045900283,149.94229045900283,150.18327879199933,150.20373341700179,150.44612341700122,150.44612341700122,150.6862403749983,150.6917745420069,150.9338177919999,150.95412062499963,None,148.97206841700245,149.458775667008,151.95232983400638,None,151.95232983400638,None,left,1.1546572910010582,151.95232983400638,None,151.95232983400638,None,,,,,,,,,,,,,,,,,,,,,,,roi,2023_Jun_18_1553,working_memory,2021.2.3,None,
badlands_23.jpg,badlands_23.jpg,badlands_101.jpg,left,bridge_136.jpg,mountain_166.jpg,playground_49.jpg,highway_257.jpg,badlands_23.jpg,golf_course_127.jpg,4,badlands_101.jpg,1,badlands,,,,,0,17,17,17,,,,,,,,,,,,,,,,,,,,,,,,,,,,,,,,,,,,,,,,,,,,,,,,,,,,,153.65004308400967,153.89473912501126,153.90048070900957,154.14832229200692,154.15417841701128,154.39358179199917,154.41286604201014,154.66226633400947,154.65096458399785,154.89871954200498,154.90415466700506,155.1507093340042,155.1507093340042,None,153.1745755419979,153.668298375007,156.14091579199885,None,156.14091579199885,None,left,1.1847830420010723,156.14091579199885,None,156.14091579199885,None,,,,,,,,,,,,,,,,,,,,,,,roi,2023_Jun_18_1553,working_memory,2021.2.3,None,
mountain_101.jpg,mountain_171.jpg,mountain_101.jpg,right,golf_course_133.jpg,badlands_150.jpg,mountain_101.jpg,bridge_144.jpg,highway_154.jpg,playground_173.jpg,2,mountain_171.jpg,0,mountain,,,,,0,18,18,18,,,,,,,,,,,,,,,,,,,,,,,,,,,,,,,,,,,,,,,,,,,,,,,,,,,,,157.88147137500346,158.12175695900805,158.12175695900805,158.3687919590011,158.37436108400289,158.6151909170003,158.62861975000123,158.87569470900053,158.87569470900053,159.12143533400376,159.12143533400376,159.3623932920018,159.38407683400146,None,157.39888775000873,157.8924470839993,160.38117820900516,None,160.38117820900516,None,right,3.6296383340086322,160.38117820900516,None,160.38117820900516,None,,,,,,,,,,,,,,,,,,,,,,,roi,2023_Jun_18_1553,working_memory,2021.2.3,None,
badlands_221.jpg,badlands_221.jpg,badlands_207.jpg,left,mountain_268.jpg,playground_33.jpg,bridge_106.jpg,highway_354.jpg,badlands_221.jpg,golf_course_238.jpg,4,badlands_207.jpg,1,badlands,,,,,0,19,19,19,,,,,,,,,,,,,,,,,,,,,,,,,,,,,,,,,,,,,,,,,,,,,,,,,,,,,164.56228312500753,164.80032929200388,164.80032929200388,165.0416820840037,165.06241016701097,165.30390295899997,165.30390295899997,165.54493475001073,165.5637785840081,165.8091978750017,165.8091978750017,166.0500660000107,166.0630934590008,None,164.07994041701022,164.56541245900735,167.05043970899715,None,167.05043970899715,None,left,0.9368663749919506,167.05043970899715,None,167.05043970899715,None,,,,,,,,,,,,,,,,,,,,,,,roi,2023_Jun_18_1553,working_memory,2021.2.3,None,
mountain_154.jpg,mountain_154.jpg,mountain_95.jpg,left,badlands_88.jpg,golf_course_181.jpg,mountain_154.jpg,playground_110.jpg,highway_90.jpg,bridge_180.jpg,2,mountain_95.jpg,1,mountain,,,,,0,20,20,20,,,,,,,,,,,,,,,,,,,,,,,,,,,,,,,,,,,,,,,,,,,,,,,,,,,,,168.5292639590043,168.7784346670087,168.7784346670087,169.01691929200024,169.03038304200163,169.2708769590099,169.2708769590099,169.5081088750012,169.52870500000427,169.76810066700273,169.7816137089976,170.026167834003,170.026167834003,None,168.05304887500824,168.55250591700315,171.0295148340083,None,171.0295148340083,None,right,1.867759417000343,171.0295148340083,None,171.0295148340083,None,,,,,,,,,,,,,,,,,,,,,,,roi,2023_Jun_18_1553,working_memory,2021.2.3,None,
bridge_91.jpg,bridge_253.jpg,bridge_91.jpg,right,playground_15.jpg,mountain_199.jpg,golf_course_171.jpg,badlands_46.jpg,bridge_91.jpg,highway_147.jpg,4,bridge_253.jpg,0,bridge,,,,,0,21,21,21,,,,,,,,,,,,,,,,,,,,,,,,,,,,,,,,,,,,,,,,,,,,,,,,,,,,,173.44610408401059,173.6922961250093,173.69706745899748,173.94062054200913,173.94062054200913,174.18227037500765,174.2015440420073,174.44935812499898,174.44935812499898,174.69212454200897,174.69212454200897,174.94155404200137,174.94155404200137,None,172.96800545899896,173.46291283400205,175.93924975000846,None,175.93924975000846,None,right,2.238287833999493,175.93924975000846,None,175.93924975000846,None,,,,,,,,,,,,,,,,,,,,,,,roi,2023_Jun_18_1553,working_memory,2021.2.3,None,
highway_273.jpg,highway_273.jpg,highway_171.jpg,left,highway_273.jpg,golf_course_212.jpg,mountain_294.jpg,bridge_102.jpg,badlands_227.jpg,playground_132.jpg,0,highway_171.jpg,1,highway,,,,,0,22,22,22,,,,,,,,,,,,,,,,,,,,,,,,,,,,,,,,,,,,,,,,,,,,,,,,,,,,,178.72396445900085,178.9702827919973,178.9759625840088,179.2246549170086,179.2246549170086,179.4703515840083,179.4703515840083,179.7197167090053,179.72657754200918,179.9709446670022,179.9709446670022,180.21338479200494,180.21338479200494,None,178.24278533400502,178.74061283400806,181.22142995899776,None,181.22142995899776,None,left,1.0446029589948012,181.22142995899776,None,181.22142995899776,None,,,,,,,,,,,,,,,,,,,,,,,roi,2023_Jun_18_1553,working_memory,2021.2.3,None,
playground_60.jpg,playground_244.jpg,playground_60.jpg,right,golf_course_166.jpg,playground_60.jpg,highway_148.jpg,badlands_9.jpg,bridge_173.jpg,mountain_233.jpg,1,playground_244.jpg,1,playground,,,,,0,23,23,23,,,,,,,,,,,,,,,,,,,,,,,,,,,,,,,,,,,,,,,,,,,,,,,,,,,,,182.80155129201012,183.04101079200336,183.0576192090084,183.3065762920014,183.3121668340027,183.55201670899987,183.55201670899987,183.7918865840038,183.81187791700359,184.05449650000082,184.05449650000082,184.3053280000022,184.3053280000022,None,182.32853358400462,182.81814970899723,185.30919850000646,None,185.30919850000646,None,right,3.374846249993425,185.30919850000646,None,185.30919850000646,None,,,,,,,,,,,,,,,,,,,,,,,roi,2023_Jun_18_1553,working_memory,2021.2.3,None,
golf_course_217.jpg,golf_course_262.jpg,golf_course_217.jpg,right,highway_413.jpg,playground_64.jpg,mountain_202.jpg,badlands_54.jpg,golf_course_217.jpg,bridge_1.jpg,4,golf_course_262.jpg,1,golf,,,,,0,24,24,24,,,,,,,,,,,,,,,,,,,,,,,,,,,,,,,,,,,,,,,,,,,,,,,,,,,,,189.22984850000648,189.46984470900497,189.46984470900497,189.7111485839996,189.71654037499684,189.96139754200703,189.96709616700537,190.21988379200047,190.21988379200047,190.4583536249993,190.47570791700855,190.71732991700992,190.71732991700992,None,188.74609225000313,189.23263783400762,191.71852304200002,None,191.71852304200002,None,right,1.5462355829949956,191.71852304200002,None,191.71852304200002,None,,,,,,,,,,,,,,,,,,,,,,,roi,2023_Jun_18_1553,working_memory,2021.2.3,None,
playground_240.jpg,playground_240.jpg,playground_2.jpg,left,mountain_306.jpg,playground_240.jpg,badlands_164.jpg,bridge_212.jpg,golf_course_196.jpg,highway_15.jpg,1,playground_2.jpg,0,playground,,,,,0,25,25,25,,,,,,,,,,,,,,,,,,,,,,,,,,,,,,,,,,,,,,,,,,,,,,,,,,,,,193.80988820899802,194.06077399999776,194.06077399999776,194.30245149999973,194.30245149999973,194.54050554199785,194.5580299590074,194.8065250840009,194.81241695900098,195.06089483400865,195.06089483400865,195.31148187500366,195.31148187500366,None,193.3303875420097,193.8271273749997,196.31276595901,None,196.31276595901,None,left,1.2578760000033071,196.31276595901,None,196.31276595901,None,,,,,,,,,,,,,,,,,,,,,,,roi,2023_Jun_18_1553,working_memory,2021.2.3,None,
bridge_202.jpg,bridge_38.jpg,bridge_202.jpg,right,badlands_20.jpg,bridge_202.jpg,golf_course_164.jpg,highway_247.jpg,mountain_187.jpg,playground_184.jpg,1,bridge_38.jpg,1,bridge,,,,,0,26,26,26,,,,,,,,,,,,,,,,,,,,,,,,,,,,,,,,,,,,,,,,,,,,,,,,,,,,,198.10413333401084,198.35188941699744,198.3590407090087,198.60735766700236,198.60735766700236,198.84592341700045,198.86515941700782,199.11303600000974,199.1322561249981,199.37218683400715,199.35448987499694,199.60229391700705,199.60882049999782,None,197.6348094999994,198.13409904199943,200.6161839999986,None,200.6161839999986,None,left,2.1301009160088142,200.6161839999986,None,200.6161839999986,None,,,,,,,,,,,,,,,,,,,,,,,roi,2023_Jun_18_1553,working_memory,2021.2.3,None,
golf_course_331.jpg,golf_course_26.jpg,golf_course_331.jpg,right,playground_103.jpg,bridge_197.jpg,badlands_60.jpg,golf_course_331.jpg,highway_28.jpg,mountain_226.jpg,3,golf_course_26.jpg,1,golf,,,,,0,27,27,27,,,,,,,,,,,,,,,,,,,,,,,,,,,,,,,,,,,,,,,,,,,,,,,,,,,,,203.28904966700065,203.544895250001,203.544895250001,203.79495841699827,203.79495841699827,204.04483083399828,204.04483083399828,204.295171167003,204.295171167003,204.5379214590066,204.53271949999908,204.77070979200653,204.79075358400587,None,202.81424312500167,203.30636416700145,205.79623191700375,None,205.79623191700375,None,left,3.194492083013756,205.79623191700375,None,205.79623191700375,None,,,,,,,,,,,,,,,,,,,,,,,roi,2023_Jun_18_1553,working_memory,2021.2.3,None,
badlands_70.jpg,badlands_70.jpg,badlands_119.jpg,left,bridge_126.jpg,badlands_70.jpg,golf_course_338.jpg,playground_36.jpg,mountain_87.jpg,highway_42.jpg,1,badlands_119.jpg,1,badlands,,,,,0,28,28,28,,,,,,,,,,,,,,,,,,,,,,,,,,,,,,,,,,,,,,,,,,,,,,,,,,,,,209.53750570899865,209.77941387500323,209.77941387500323,210.02766854201036,210.04068070900394,210.2896700840065,210.2896700840065,210.5388450419996,210.5388450419996,210.78542087500682,210.78542087500682,211.0299174170068,211.0299174170068,None,209.0553739169991,209.55457820900483,212.0313465000072,None,212.0313465000072,None,left,2.925900415997603,212.0313465000072,None,212.0313465000072,None,,,,,,,,,,,,,,,,,,,,,,,roi,2023_Jun_18_1553,working_memory,2021.2.3,None,
highway_156.jpg,highway_160.jpg,highway_156.jpg,right,badlands_85.jpg,mountain_146.jpg,golf_course_199.jpg,playground_258.jpg,highway_156.jpg,bridge_179.jpg,4,highway_160.jpg,0,highway,,,,,0,29,29,29,,,,,,,,,,,,,,,,,,,,,,,,,,,,,,,,,,,,,,,,,,,,,,,,,,,,,215.5001561250101,215.7515712500026,215.7515712500026,215.99193454200577,215.99193454200577,216.24231075000716,216.24758708399895,216.49249099999724,216.49249099999724,216.73478341700684,216.75794883399794,217.0030384999991,217.0030384999991,None,215.02005633400404,215.51614849999896,217.98960283400083,None,217.98960283400083,None,right,1.3236124999966705,217.98960283400083,None,217.98960283400083,None,,,,,,,,,,,,,,,,,,,,,,,roi,2023_Jun_18_1553,working_memory,2021.2.3,None,
golf_course_309.jpg,golf_course_309.jpg,golf_course_16.jpg,left,mountain_33.jpg,highway_365.jpg,playground_83.jpg,golf_course_309.jpg,bridge_254.jpg,badlands_122.jpg,3,golf_course_16.jpg,0,golf,,,,,0,30,30,30,,,,,,,,,,,,,,,,,,,,,,,,,,,,,,,,,,,,,,,,,,,,,,,,,,,,,219.86205587499717,220.10648554199724,220.10648554199724,220.34619095899689,220.36738679200062,220.6081183750066,220.6081183750066,220.84931033400062,220.85427529200388,221.09143883400247,221.1151659169991,221.3642993750109,221.3642993750109,None,219.38140108399966,219.8705963340035,222.35645429200667,None,222.35645429200667,None,left,1.7829131249891361,222.35645429200667,None,222.35645429200667,None,,,,,,,,,,,,,,,,,,,,,,,roi,2023_Jun_18_1553,working_memory,2021.2.3,None,
bridge_250.jpg,bridge_250.jpg,bridge_134.jpg,left,mountain_34.jpg,golf_course_221.jpg,playground_233.jpg,highway_404.jpg,bridge_250.jpg,badlands_16.jpg,4,bridge_134.jpg,0,bridge,,,,,0,31,31,31,,,,,,,,,,,,,,,,,,,,,,,,,,,,,,,,,,,,,,,,,,,,,,,,,,,,,224.68458195900894,224.92304875000264,224.92941604201042,225.17359429200587,225.17977037500532,225.42713399999775,225.43340100000205,225.67440433400043,225.67969466700742,225.92635179200443,225.92914945899975,226.17192016700574,226.19257145900337,None,224.2075971669983,224.70605624999735,227.17997070901038,None,227.17997070901038,None,left,0.8998652080044849,227.17997070901038,None,227.17997070901038,None,,,,,,,,,,,,,,,,,,,,,,,roi,2023_Jun_18_1553,working_memory,2021.2.3,None,
golf_course_214.jpg,golf_course_317.jpg,golf_course_214.jpg,right,bridge_228.jpg,badlands_183.jpg,highway_53.jpg,playground_246.jpg,golf_course_214.jpg,mountain_198.jpg,4,golf_course_317.jpg,1,golf,,,,,0,32,32,32,,,,,,,,,,,,,,,,,,,,,,,,,,,,,,,,,,,,,,,,,,,,,,,,,,,,,228.6168411670078,228.85983229200065,228.8754270000063,229.12438537500566,229.1295993340027,229.36674304200278,229.36674304200278,229.6154797920026,229.62133929200354,229.8609863340098,229.88008337499923,230.1276673750108,230.1276673750108,None,228.1457445420092,228.63335499999812,231.11634979200608,None,231.11634979200608,None,right,8.117376374997548,231.11634979200608,None,231.11634979200608,None,,,,,,,,,,,,,,,,,,,,,,,roi,2023_Jun_18_1553,working_memory,2021.2.3,None,
playground_219.jpg,playground_219.jpg,playground_205.jpg,left,playground_219.jpg,badlands_72.jpg,mountain_38.jpg,bridge_66.jpg,golf_course_59.jpg,highway_268.jpg,0,playground_205.jpg,1,playground,,,,,0,33,33,33,,,,,,,,,,,,,,,,,,,,,,,,,,,,,,,,,,,,,,,,,,,,,,,,,,,,,239.78805287501018,240.02698870901077,240.02698870901077,240.26581562501087,240.28581125001074,240.52899800000887,240.52899800000887,240.77486575000512,240.77486575000512,241.01666387500882,241.03754458400363,241.2800170420087,241.2800170420087,None,239.30570137500763,239.7908714590012,242.288069000002,None,242.288069000002,None,left,1.435757333994843,242.288069000002,None,242.288069000002,None,,,,,,,,,,,,,,,,,,,,,,,roi,2023_Jun_18_1553,working_memory,2021.2.3,None,
bridge_128.jpg,bridge_244.jpg,bridge_128.jpg,right,bridge_128.jpg,highway_335.jpg,badlands_185.jpg,playground_63.jpg,mountain_206.jpg,golf_course_297.jpg,0,bridge_244.jpg,1,bridge,,,,,0,34,34,34,,,,,,,,,,,,,,,,,,,,,,,,,,,,,,,,,,,,,,,,,,,,,,,,,,,,,244.26728766701126,244.5073332920001,244.5073332920001,244.75659133400768,244.7620424170018,244.99889541701123,245.01711645899923,245.26194695899903,245.26194695899903,245.50183287500113,245.51527600000554,245.7614480839984,245.7614480839984,None,243.78585012500116,244.2823032919987,246.7683405840071,None,246.7683405840071,None,left,4.0320772910054075,246.7683405840071,None,246.7683405840071,None,,,,,,,,,,,,,,,,,,,,,,,roi,2023_Jun_18_1553,working_memory,2021.2.3,None,
highway_209.jpg,highway_209.jpg,highway_122.jpg,left,mountain_302.jpg,badlands_217.jpg,golf_course_23.jpg,highway_209.jpg,bridge_76.jpg,playground_7.jpg,3,highway_122.jpg,1,highway,,,,,0,35,35,35,,,,,,,,,,,,,,,,,,,,,,,,,,,,,,,,,,,,,,,,,,,,,,,,,,,,,251.34178320900537,251.5864031670062,251.5864031670062,251.834405667003,251.834405667003,252.07722520901007,252.0965229170106,252.3426572090102,252.3426572090102,252.5823431250028,252.5823431250028,252.8246849999996,252.84659487500903,None,250.8638961250108,251.3597193750029,253.84125045900873,None,253.84125045900873,None,right,3.502494790998753,253.84125045900873,None,253.84125045900873,None,,,,,,,,,,,,,,,,,,,,,,,roi,2023_Jun_18_1553,working_memory,2021.2.3,None,
playground_144.jpg,playground_144.jpg,playground_65.jpg,left,badlands_166.jpg,highway_246.jpg,playground_144.jpg,bridge_133.jpg,mountain_176.jpg,golf_course_174.jpg,2,playground_65.jpg,1,playground,,,,,0,36,36,36,,,,,,,,,,,,,,,,,,,,,,,,,,,,,,,,,,,,,,,,,,,,,,,,,,,,,257.88309516700974,258.1245380420005,258.14451800000097,258.3855121670058,258.3855121670058,258.62769458400726,258.634006917011,258.8812204590067,258.8881285840034,259.13733412500005,259.13733412500005,259.37770137500775,259.3842672500032,None,257.4132238750026,257.8999378340086,260.3903415000095,None,260.3903415000095,None,right,2.1658897919987794,260.3903415000095,None,260.3903415000095,None,,,,,,,,,,,,,,,,,,,,,,,roi,2023_Jun_18_1553,working_memory,2021.2.3,None,
mountain_110.jpg,mountain_110.jpg,mountain_157.jpg,left,badlands_26.jpg,golf_course_305.jpg,highway_308.jpg,mountain_110.jpg,playground_222.jpg,bridge_142.jpg,3,mountain_157.jpg,0,mountain,,,,,0,37,37,37,,,,,,,,,,,,,,,,,,,,,,,,,,,,,,,,,,,,,,,,,,,,,,,,,,,,,263.09357887500664,263.33457154200005,263.3485151670029,263.59679587499704,263.60244933400827,263.8457070000004,263.8457070000004,264.08603500000027,264.091685959007,264.34024166699965,264.34318387501116,264.5831828340015,264.5996853340039,None,262.61921950000396,263.11239595900406,265.5914957920031,None,265.5914957920031,None,left,1.2868878330045845,265.5914957920031,None,265.5914957920031,None,,,,,,,,,,,,,,,,,,,,,,,roi,2023_Jun_18_1553,working_memory,2021.2.3,None,
highway_394.jpg,highway_204.jpg,highway_394.jpg,right,playground_14.jpg,highway_394.jpg,badlands_211.jpg,golf_course_307.jpg,mountain_135.jpg,bridge_124.jpg,1,highway_204.jpg,0,highway,,,,,0,38,38,38,,,,,,,,,,,,,,,,,,,,,,,,,,,,,,,,,,,,,,,,,,,,,,,,,,,,,267.4242578340054,267.6667667090078,267.6667667090078,267.90674008399947,267.92648562500835,268.17476454201096,268.17476454201096,268.41329912500805,268.41329912500805,268.6535790420021,268.6725932499976,268.9193470419996,268.92661775001034,None,266.94099062500754,267.4306476250058,269.91070658400713,None,269.91070658400713,None,right,1.9668138330016518,269.91070658400713,None,269.91070658400713,None,,,,,,,,,,,,,,,,,,,,,,,roi,2023_Jun_18_1553,working_memory,2021.2.3,None,
golf_course_87.jpg,golf_course_87.jpg,golf_course_161.jpg,left,mountain_256.jpg,bridge_155.jpg,badlands_200.jpg,highway_315.jpg,golf_course_87.jpg,playground_204.jpg,4,golf_course_161.jpg,1,golf,,,,,0,39,39,39,,,,,,,,,,,,,,,,,,,,,,,,,,,,,,,,,,,,,,,,,,,,,,,,,,,,,272.4141196249984,272.65439058400807,272.6732757090067,272.91316966700833,272.91316966700833,273.1534946250031,273.17365762499685,273.41326183400815,273.41326183400815,273.6615870000096,273.6670002500032,273.9146371250099,273.9146371250099,None,271.94056233399897,272.43826829201134,274.9226093340112,None,274.9226093340112,None,right,1.8565309999976307,274.9226093340112,None,274.9226093340112,None,,,,,,,,,,,,,,,,,,,,,,,roi,2023_Jun_18_1553,working_memory,2021.2.3,None,
mountain_156.jpg,mountain_128.jpg,mountain_156.jpg,right,badlands_152.jpg,mountain_156.jpg,playground_42.jpg,highway_141.jpg,bridge_140.jpg,golf_course_202.jpg,1,mountain_128.jpg,0,mountain,,,,,0,40,40,40,,,,,,,,,,,,,,,,,,,,,,,,,,,,,,,,,,,,,,,,,,,,,,,,,,,,,277.32946887500293,277.56653695899877,277.5814826249989,277.8266839590069,277.8266839590069,278.0658610840037,278.08072287500545,278.32666379200236,278.32666379200236,278.5659287090093,278.57948162499815,278.8282430840045,278.8282430840045,None,276.8469448750111,277.3324600420019,279.8302966670017,None,279.8302966670017,None,right,0.9972035409882665,279.8302966670017,None,279.8302966670017,None,,,,,,,,,,,,,,,,,,,,,,,roi,2023_Jun_18_1553,working_memory,2021.2.3,None,
badlands_137.jpg,badlands_137.jpg,badlands_139.jpg,left,bridge_218.jpg,golf_course_282.jpg,badlands_137.jpg,highway_101.jpg,playground_165.jpg,mountain_249.jpg,2,badlands_139.jpg,1,badlands,,,,,0,41,41,41,,,,,,,,,,,,,,,,,,,,,,,,,,,,,,,,,,,,,,,,,,,,,,,,,,,,,281.3756437920092,281.6219637500035,281.62758779199794,281.8683362090087,281.8683362090087,282.107504708998,282.12431666700286,282.37328537499707,282.3789599590091,282.6164910840016,282.6164910840016,282.86619075000635,282.87281866700505,None,280.895395583997,281.392959417004,283.86649683400174,None,283.86649683400174,None,left,1.255999624991091,283.86649683400174,None,283.86649683400174,None,,,,,,,,,,,,,,,,,,,,,,,roi,2023_Jun_18_1553,working_memory,2021.2.3,None,
golf_course_188.jpg,golf_course_188.jpg,golf_course_160.jpg,left,golf_course_188.jpg,mountain_290.jpg,badlands_157.jpg,bridge_110.jpg,playground_141.jpg,highway_107.jpg,0,golf_course_160.jpg,1,golf,,,,,0,42,42,42,,,,,,,,,,,,,,,,,,,,,,,,,,,,,,,,,,,,,,,,,,,,,,,,,,,,,285.664265667001,285.9108070420043,285.9108070420043,286.1502541670052,286.16373104200466,286.41059262500494,286.41059262500494,286.649918916999,286.6695143750112,286.9211185000022,286.91555125000014,287.16067179200763,287.16067179200763,None,285.1854422920005,285.68249729200033,288.1561656249978,None,288.1561656249978,None,left,3.9221407919976627,288.1561656249978,None,288.1561656249978,None,,,,,,,,,,,,,,,,,,,,,,,roi,2023_Jun_18_1553,working_memory,2021.2.3,None,
badlands_184.jpg,badlands_184.jpg,badlands_103.jpg,left,mountain_307.jpg,badlands_184.jpg,highway_50.jpg,playground_74.jpg,golf_course_316.jpg,bridge_64.jpg,1,badlands_103.jpg,1,badlands,,,,,0,43,43,43,,,,,,,,,,,,,,,,,,,,,,,,,,,,,,,,,,,,,,,,,,,,,,,,,,,,,292.61647087500023,292.8570468750113,292.87649154200335,293.12195487500867,293.12195487500867,293.3626894589979,293.3626894589979,293.6043397500034,293.62318595900433,293.8690493340109,293.87528354200185,294.1176999169984,294.1176999169984,None,292.14122066700656,292.63921533399844,295.1125493340078,None,295.1125493340078,None,right,2.103804417012725,295.1125493340078,None,295.1125493340078,None,,,,,,,,,,,,,,,,,,,,,,,roi,2023_Jun_18_1553,working_memory,2021.2.3,None,
mountain_232.jpg,mountain_54.jpg,mountain_232.jpg,right,mountain_232.jpg,bridge_79.jpg,golf_course_33.jpg,badlands_170.jpg,playground_176.jpg,highway_287.jpg,0,mountain_54.jpg,1,mountain,,,,,0,44,44,44,,,,,,,,,,,,,,,,,,,,,,,,,,,,,,,,,,,,,,,,,,,,,,,,,,,,,297.7460415420064,297.98703154199757,298.00585816700186,298.24579891700705,298.24579891700705,298.4929026250029,298.4982931249979,298.73912687500706,298.75752416699834,298.99599887500517,298.99599887500517,299.2422055000061,299.2486007090047,None,297.2786477500049,297.7768314999994,300.2559296670079,None,300.2559296670079,None,right,1.4194734580087243,300.2559296670079,None,300.2559296670079,None,,,,,,,,,,,,,,,,,,,,,,,roi,2023_Jun_18_1553,working_memory,2021.2.3,None,
highway_93.jpg,highway_369.jpg,highway_93.jpg,right,highway_93.jpg,playground_248.jpg,bridge_22.jpg,badlands_33.jpg,mountain_180.jpg,golf_course_67.jpg,0,highway_369.jpg,1,highway,,,,,0,45,45,45,,,,,,,,,,,,,,,,,,,,,,,,,,,,,,,,,,,,,,,,,,,,,,,,,,,,,302.2076701670012,302.4573065000004,302.4573065000004,302.69702762500674,302.7169835000095,302.95385262501077,302.9688915000006,303.20916245901026,303.20916245901026,303.4474955839978,303.46673020900926,303.7129209170089,303.7129209170089,None,301.73908470899914,302.2285879590054,304.7199186670041,None,304.7199186670041,None,left,1.8480065829935484,304.7199186670041,None,304.7199186670041,None,,,,,,,,,,,,,,,,,,,,,,,roi,2023_Jun_18_1553,working_memory,2021.2.3,None,
highway_294.jpg,highway_368.jpg,highway_294.jpg,right,bridge_62.jpg,playground_47.jpg,mountain_40.jpg,badlands_35.jpg,highway_294.jpg,golf_course_116.jpg,4,highway_368.jpg,1,highway,,,,,0,46,46,46,,,,,,,,,,,,,,,,,,,,,,,,,,,,,,,,,,,,,,,,,,,,,,,,,,,,,307.1106513340055,307.35691479200614,307.36315420900064,307.6112096249999,307.6112096249999,307.8498687500105,307.86885708400223,308.1191906250024,308.1191906250024,308.3605514590017,308.3605514590017,308.5997863340017,308.61979895900004,None,306.63234454199846,307.12447812499886,309.60149962500145,None,309.60149962500145,None,right,0.7479468340025051,309.60149962500145,None,309.60149962500145,None,,,,,,,,,,,,,,,,,,,,,,,roi,2023_Jun_18_1553,working_memory,2021.2.3,None,
golf_course_195.jpg,golf_course_2.jpg,golf_course_195.jpg,right,bridge_112.jpg,highway_83.jpg,golf_course_195.jpg,playground_98.jpg,badlands_59.jpg,mountain_277.jpg,2,golf_course_2.jpg,1,golf,,,,,0,47,47,47,,,,,,,,,,,,,,,,,,,,,,,,,,,,,,,,,,,,,,,,,,,,,,,,,,,,,310.8968405839987,311.14582266700745,311.14582266700745,311.38795137499983,311.38795137499983,311.6362497500086,311.6362497500086,311.874969417011,311.8933538340061,312.13328575000924,312.13328575000924,312.3749337920017,312.39267737499904,None,310.4118079589971,310.8996009170078,313.3932093339972,None,313.3932093339972,None,right,1.77428058400983,313.3932093339972,None,313.3932093339972,None,,,,,,,,,,,,,,,,,,,,,,,roi,2023_Jun_18_1553,working_memory,2021.2.3,None,
mountain_57.jpg,mountain_57.jpg,mountain_138.jpg,left,mountain_57.jpg,badlands_55.jpg,playground_249.jpg,highway_193.jpg,golf_course_144.jpg,bridge_4.jpg,0,mountain_138.jpg,1,mountain,,,,,0,48,48,48,,,,,,,,,,,,,,,,,,,,,,,,,,,,,,,,,,,,,,,,,,,,,,,,,,,,,315.71658045900404,315.95602062500257,315.96738245899905,316.207175500007,316.207175500007,316.44578841699695,316.46635324999806,316.71641287500097,316.71641287500097,316.9631092920026,316.9631092920026,317.21072204200027,317.2152745420026,None,315.2346158750006,315.7338591669977,318.21124966700154,None,318.21124966700154,None,left,1.82915762499033,318.21124966700154,None,318.21124966700154,None,,,,,,,,,,,,,,,,,,,,,,,roi,2023_Jun_18_1553,working_memory,2021.2.3,None,
bridge_108.jpg,bridge_108.jpg,bridge_116.jpg,left,playground_237.jpg,highway_37.jpg,mountain_45.jpg,badlands_216.jpg,bridge_108.jpg,golf_course_300.jpg,4,bridge_116.jpg,0,bridge,,,,,0,49,49,49,,,,,,,,,,,,,,,,,,,,,,,,,,,,,,,,,,,,,,,,,,,,,,,,,,,,,320.5789352090069,320.8183795000077,320.83211137499893,321.08006158399803,321.08006158399803,321.324217166999,321.324217166999,321.561761792007,321.5793713340099,321.8266190840077,321.8266190840077,322.0705930420081,322.0705930420081,None,320.1011312920018,320.6013591670053,323.0742785839975,None,323.0742785839975,None,left,2.0753375420026714,323.0742785839975,None,323.0742785839975,None,,,,,,,,,,,,,,,,,,,,,,,roi,2023_Jun_18_1553,working_memory,2021.2.3,None,
golf_course_193.jpg,golf_course_235.jpg,golf_course_193.jpg,right,mountain_35.jpg,bridge_156.jpg,golf_course_193.jpg,badlands_215.jpg,playground_235.jpg,highway_178.jpg,2,golf_course_235.jpg,0,golf,,,,,0,50,50,50,,,,,,,,,,,,,,,,,,,,,,,,,,,,,,,,,,,,,,,,,,,,,,,,,,,,,325.691583250009,325.93860683401,325.93860683401,326.18321062500763,326.18321062500763,326.4244756249973,326.44162725000933,326.6837746250094,326.6837746250094,326.92440304200863,326.9450114170031,327.1874415420025,327.1874415420025,None,325.21203083400906,325.708024749998,328.1890548750089,None,328.1890548750089,None,right,1.8199696670053527,328.1890548750089,None,328.1890548750089,None,,,,,,,,,,,,,,,,,,,,,,,roi,2023_Jun_18_1553,working_memory,2021.2.3,None,
bridge_65.jpg,bridge_60.jpg,bridge_65.jpg,right,bridge_65.jpg,badlands_138.jpg,playground_120.jpg,mountain_29.jpg,highway_295.jpg,golf_course_3.jpg,0,bridge_60.jpg,1,bridge,,,,,0,51,51,51,,,,,,,,,,,,,,,,,,,,,,,,,,,,,,,,,,,,,,,,,,,,,,,,,,,,,330.5465888750041,330.7947780000104,330.7947780000104,331.0344710000063,331.0541958750109,331.2956566250068,331.2956566250068,331.5366725000058,331.5418559170066,331.78837983400445,331.79359583400947,332.03982679201,332.04640995900263,None,330.07153537499835,330.5668459590088,333.0485386670043,None,333.0485386670043,None,right,2.8150385829940205,333.0485386670043,None,333.0485386670043,None,,,,,,,,,,,,,,,,,,,,,,,roi,2023_Jun_18_1553,working_memory,2021.2.3,None,
playground_76.jpg,playground_22.jpg,playground_76.jpg,right,badlands_30.jpg,bridge_169.jpg,highway_138.jpg,mountain_43.jpg,playground_76.jpg,golf_course_179.jpg,4,playground_22.jpg,0,playground,,,,,0,52,52,52,,,,,,,,,,,,,,,,,,,,,,,,,,,,,,,,,,,,,,,,,,,,,,,,,,,,,336.4001607920072,336.6460002090025,336.650231874999,336.89091375000135,336.90596762500354,337.1495730000024,337.1495730000024,337.39900150000176,337.40460837499995,337.64089766700636,337.65450504201,337.8957554170047,337.8957554170047,None,335.92621420900105,336.4161046250083,338.90081204200396,None,338.90081204200396,None,right,1.5088479999976698,338.90081204200396,None,338.90081204200396,None,,,,,,,,,,,,,,,,,,,,,,,roi,2023_Jun_18_1553,working_memory,2021.2.3,None,
golf_course_15.jpg,golf_course_97.jpg,golf_course_15.jpg,right,golf_course_15.jpg,badlands_67.jpg,playground_251.jpg,bridge_167.jpg,highway_102.jpg,mountain_32.jpg,0,golf_course_97.jpg,1,golf,,,,,0,53,53,53,,,,,,,,,,,,,,,,,,,,,,,,,,,,,,,,,,,,,,,,,,,,,,,,,,,,,340.9584289589984,341.1996014590113,341.1996014590113,341.44155587500427,341.4582247500075,341.70315058399865,341.70315058399865,341.9407416670001,341.9598505000031,342.2135396250087,342.2135396250087,342.4620549590036,342.45064020900463,None,340.47853533399757,340.9745281670039,343.4539860000077,None,343.4539860000077,None,right,2.434804374992382,343.4539860000077,None,343.4539860000077,None,,,,,,,,,,,,,,,,,,,,,,,roi,2023_Jun_18_1553,working_memory,2021.2.3,None,
badlands_24.jpg,badlands_24.jpg,badlands_3.jpg,left,golf_course_219.jpg,mountain_190.jpg,highway_226.jpg,badlands_24.jpg,playground_162.jpg,bridge_143.jpg,3,badlands_3.jpg,0,badlands,,,,,0,54,54,54,,,,,,,,,,,,,,,,,,,,,,,,,,,,,,,,,,,,,,,,,,,,,,,,,,,,,346.4260599170084,346.6663237920002,346.6663237920002,346.90832041700196,346.92540495900903,347.1679549170076,347.1679549170076,347.41027529200073,347.42914020900207,347.6710596670018,347.6710596670018,347.9181916670059,347.9181916670059,None,345.95070549999946,346.44402366700524,348.92687520899926,None,348.92687520899926,None,left,1.2319425409950782,348.92687520899926,None,348.92687520899926,None,,,,,,,,,,,,,,,,,,,,,,,roi,2023_Jun_18_1553,working_memory,2021.2.3,None,
mountain_123.jpg,mountain_94.jpg,mountain_123.jpg,right,highway_17.jpg,mountain_123.jpg,bridge_158.jpg,golf_course_137.jpg,badlands_173.jpg,playground_50.jpg,1,mountain_94.jpg,0,mountain,,,,,0,55,55,55,,,,,,,,,,,,,,,,,,,,,,,,,,,,,,,,,,,,,,,,,,,,,,,,,,,,,350.7166586250096,350.95827737500076,350.95827737500076,351.1988904590107,351.21860779200506,351.46413074999873,351.46413074999873,351.71132408399717,351.71744137500355,351.95797508400574,351.95797508400574,352.2087460000039,352.2087460000039,None,350.2324762500066,350.72067891700135,353.20246583400876,None,353.20246583400876,None,right,1.046886958007235,353.20246583400876,None,353.20246583400876,None,,,,,,,,,,,,,,,,,,,,,,,roi,2023_Jun_18_1553,working_memory,2021.2.3,None,
bridge_191.jpg,bridge_191.jpg,bridge_184.jpg,left,golf_course_328.jpg,badlands_81.jpg,bridge_191.jpg,playground_118.jpg,mountain_151.jpg,highway_269.jpg,2,bridge_184.jpg,0,bridge,,,,,0,56,56,56,,,,,,,,,,,,,,,,,,,,,,,,,,,,,,,,,,,,,,,,,,,,,,,,,,,,,354.7903360420023,355.02908570900036,355.04294041699904,355.2882941249991,355.2882941249991,355.53641304200573,355.54285179200815,355.78849908401025,355.78849908401025,356.03666833401076,356.04233912500786,356.28948837499775,356.28948837499775,None,354.31490241699794,354.8118520420103,357.28982687499956,None,357.28982687499956,None,left,1.3448877920018276,357.28982687499956,None,357.28982687499956,None,,,,,,,,,,,,,,,,,,,,,,,roi,2023_Jun_18_1553,working_memory,2021.2.3,None,
golf_course_78.jpg,golf_course_134.jpg,golf_course_78.jpg,right,golf_course_78.jpg,mountain_19.jpg,highway_3.jpg,bridge_190.jpg,badlands_47.jpg,playground_85.jpg,0,golf_course_134.jpg,0,golf,,,,,0,57,57,57,,,,,,,,,,,,,,,,,,,,,,,,,,,,,,,,,,,,,,,,,,,,,,,,,,,,,359.1721824999986,359.4124516669981,359.4265744590084,359.6677372090053,359.6677372090053,359.9124321249983,359.9272452090081,360.169956459009,360.169956459009,360.40690058399923,360.4267308749986,360.673389625008,360.673389625008,None,358.696358125002,359.1874031670013,361.67821512500814,None,361.67821512500814,None,right,1.1472473750036443,361.67821512500814,None,361.67821512500814,None,,,,,,,,,,,,,,,,,,,,,,,roi,2023_Jun_18_1553,working_memory,2021.2.3,None,
playground_117.jpg,playground_117.jpg,playground_127.jpg,left,mountain_22.jpg,badlands_128.jpg,highway_36.jpg,golf_course_105.jpg,playground_117.jpg,bridge_52.jpg,4,playground_127.jpg,1,playground,,,,,0,58,58,58,,,,,,,,,,,,,,,,,,,,,,,,,,,,,,,,,,,,,,,,,,,,,,,,,,,,,363.3705029999983,363.60788991700974,363.6285451250005,363.8739583340066,363.8797920420038,364.1248661670106,364.1248661670106,364.3706471250043,364.3706471250043,364.61817070899997,364.61817070899997,364.85689037499833,364.878114792009,None,362.89523775001,363.39165179200063,365.8773385420063,None,365.8773385420063,None,left,1.26822420899407,365.8773385420063,None,365.8773385420063,None,,,,,,,,,,,,,,,,,,,,,,,roi,2023_Jun_18_1553,working_memory,2021.2.3,None,
highway_415.jpg,highway_415.jpg,highway_174.jpg,left,highway_415.jpg,playground_227.jpg,golf_course_253.jpg,mountain_250.jpg,badlands_79.jpg,bridge_266.jpg,0,highway_174.jpg,1,highway,,,,,0,59,59,59,,,,,,,,,,,,,,,,,,,,,,,,,,,,,,,,,,,,,,,,,,,,,,,,,,,,,367.69245950000186,367.94032866699854,367.94601866700395,368.188071209006,368.188071209006,368.4275410840055,368.44681379200483,368.69244137500937,368.69244137500937,368.9329286249995,368.9470626250113,369.19578545900004,369.19578545900004,None,367.21489645900147,367.7107073750085,370.18672841700027,None,370.18672841700027,None,left,1.7772892089997185,370.18672841700027,None,370.18672841700027,None,,,,,,,,,,,,,,,,,,,,,,,roi,2023_Jun_18_1553,working_memory,2021.2.3,None,
,,,,,,,,,,,,,,,,,,,,,,,,,,,,,,,,,,,,,,,,,,,,,,,,,,,,,,,,,,,,,,,,,,,,,,,,,,,,,,,,,,,,,,,,,,,,,,,,,,,,371.97481358400546,None,space,7.629006750008557,371.97481358400546,None,,,,,,,,,,,,,,,,,roi,2023_Jun_18_1553,working_memory,2021.2.3,None,
badlands_113.jpg,badlands_113.jpg,badlands_225.jpg,left,mountain_151.jpg,highway_76.jpg,badlands_113.jpg,golf_course_221.jpg,bridge_136.jpg,playground_153.jpg,2,badlands_225.jpg,0,badlands,,,,,,,,,0,0,0,0,,,,,,,,,,,,,,,,,,,,,,,,,,,,,,,,,,,,,,,,,,,,,,,,,,,,,,,,,,,,,,,,,,,,,,,,,,,,,,,,,379.6685647090053,None,379.6685647090053,None,5.089613034623218,8.073219624988269,379.6685647090053,None,379.6685647090053,None,,,,,,,roi,2023_Jun_18_1553,working_memory,2021.2.3,None,
badlands_222.jpg,badlands_222.jpg,badlands_34.jpg,left,highway_247.jpg,badlands_222.jpg,mountain_43.jpg,golf_course_333.jpg,bridge_142.jpg,playground_126.jpg,1,badlands_34.jpg,0,badlands,,,,,,,,,0,1,1,1,,,,,,,,,,,,,,,,,,,,,,,,,,,,,,,,,,,,,,,,,,,,,,,,,,,,,,,,,,,,,,,,,,,,,,,,,,,,,,,,,387.7515862919972,None,387.7515862919972,None,3.9572301425661918,3.785404833004577,387.7515862919972,None,387.7515862919972,None,,,,,,,roi,2023_Jun_18_1553,working_memory,2021.2.3,None,
highway_359.jpg,highway_359.jpg,highway_379.jpg,left,mountain_268.jpg,badlands_180.jpg,bridge_96.jpg,highway_359.jpg,playground_191.jpg,golf_course_67.jpg,3,highway_379.jpg,1,highway,,,,,,,,,0,2,2,2,,,,,,,,,,,,,,,,,,,,,,,,,,,,,,,,,,,,,,,,,,,,,,,,,,,,,,,,,,,,,,,,,,,,,,,,,,,,,,,,,391.55841279200104,None,391.55841279200104,None,7.362525458248473,2.31224241599557,391.55841279200104,None,391.55841279200104,None,,,,,,,roi,2023_Jun_18_1553,working_memory,2021.2.3,None,
mountain_222.jpg,mountain_244.jpg,mountain_222.jpg,right,mountain_222.jpg,playground_181.jpg,bridge_266.jpg,golf_course_176.jpg,badlands_156.jpg,highway_268.jpg,0,mountain_244.jpg,0,mountain,,,,,,,,,0,3,3,3,,,,,,,,,,,,,,,,,,,,,,,,,,,,,,,,,,,,,,,,,,,,,,,,,,,,,,,,,,,,,,,,,,,,,,,,,,,,,,,,,393.89256758400006,None,393.89256758400006,None,4.014256619144603,2.203565957999672,393.89256758400006,None,393.89256758400006,None,,,,,,,roi,2023_Jun_18_1553,working_memory,2021.2.3,None,
bridge_172.jpg,bridge_172.jpg,bridge_17.jpg,left,golf_course_171.jpg,highway_404.jpg,bridge_172.jpg,playground_83.jpg,mountain_309.jpg,badlands_157.jpg,2,bridge_17.jpg,0,bridge,,,,,,,,,0,4,4,4,,,,,,,,,,,,,,,,,,,,,,,,,,,,,,,,,,,,,,,,,,,,,,,,,,,,,,,,,,,,,,,,,,,,,,,,,,,,,,,,,396.1181425840041,None,396.1181425840041,None,2.539714867617108,3.6957116660050815,396.1181425840041,None,396.1181425840041,None,,,,,,,roi,2023_Jun_18_1553,working_memory,2021.2.3,None,
playground_145.jpg,playground_242.jpg,playground_145.jpg,right,playground_145.jpg,highway_9.jpg,bridge_39.jpg,mountain_212.jpg,badlands_79.jpg,golf_course_241.jpg,0,playground_242.jpg,1,playground,,,,,,,,,0,5,5,5,,,,,,,,,,,,,,,,,,,,,,,,,,,,,,,,,,,,,,,,,,,,,,,,,,,,,,,,,,,,,,,,,,,,,,,,,,,,,,,,,399.8348791250028,None,399.8348791250028,None,7.362525458248473,2.519793458006461,399.8348791250028,None,399.8348791250028,None,,,,,,,roi,2023_Jun_18_1553,working_memory,2021.2.3,None,
highway_245.jpg,highway_245.jpg,highway_134.jpg,left,bridge_1.jpg,golf_course_338.jpg,playground_256.jpg,highway_245.jpg,badlands_46.jpg,mountain_166.jpg,3,highway_134.jpg,0,highway,,,,,,,,,0,6,6,6,,,,,,,,,,,,,,,,,,,,,,,,,,,,,,,,,,,,,,,,,,,,,,,,,,,,,,,,,,,,,,,,,,,,,,,,,,,,,,,,,402.37562516699836,None,402.37562516699836,None,5.537678207739307,1.9624350420053815,402.37562516699836,None,402.37562516699836,None,,,,,,,roi,2023_Jun_18_1553,working_memory,2021.2.3,None,
mountain_293.jpg,mountain_293.jpg,mountain_47.jpg,left,badlands_183.jpg,golf_course_181.jpg,mountain_293.jpg,playground_222.jpg,bridge_173.jpg,highway_83.jpg,2,mountain_47.jpg,1,mountain,,,,,,,,,0,7,7,7,,,,,,,,,,,,,,,,,,,,,,,,,,,,,,,,,,,,,,,,,,,,,,,,,,,,,,,,,,,,,,,,,,,,,,,,,,,,,,,,,404.3585832920071,None,404.3585832920071,None,5.505091649694501,1.6725248750008177,404.3585832920071,None,404.3585832920071,None,,,,,,,roi,2023_Jun_18_1553,working_memory,2021.2.3,None,
bridge_146.jpg,bridge_27.jpg,bridge_146.jpg,right,highway_269.jpg,bridge_146.jpg,golf_course_291.jpg,mountain_35.jpg,badlands_55.jpg,playground_195.jpg,1,bridge_27.jpg,0,bridge,,,,,,,,,0,8,8,8,,,,,,,,,,,,,,,,,,,,,,,,,,,,,,,,,,,,,,,,,,,,,,,,,,,,,,,,,,,,,,,,,,,,,,,,,,,,,,,,,406.0511940840079,None,406.0511940840079,None,4.894093686354379,1.4867765410017455,406.0511940840079,None,406.0511940840079,None,,,,,,,roi,2023_Jun_18_1553,working_memory,2021.2.3,None,
playground_257.jpg,playground_257.jpg,playground_215.jpg,left,mountain_198.jpg,highway_15.jpg,badlands_80.jpg,golf_course_282.jpg,playground_257.jpg,bridge_62.jpg,4,playground_215.jpg,1,playground,,,,,,,,,0,9,9,9,,,,,,,,,,,,,,,,,,,,,,,,,,,,,,,,,,,,,,,,,,,,,,,,,,,,,,,,,,,,,,,,,,,,,,,,,,,,,,,,,407.5605857089977,None,407.5605857089977,None,3.9979633401221997,1.6950327920058044,407.5605857089977,None,407.5605857089977,None,,,,,,,roi,2023_Jun_18_1553,working_memory,2021.2.3,None,
mountain_230.jpg,mountain_230.jpg,mountain_97.jpg,left,golf_course_253.jpg,mountain_230.jpg,highway_81.jpg,playground_47.jpg,badlands_9.jpg,bridge_4.jpg,1,mountain_97.jpg,1,mountain,,,,,,,,,0,10,10,10,,,,,,,,,,,,,,,,,,,,,,,,,,,,,,,,,,,,,,,,,,,,,,,,,,,,,,,,,,,,,,,,,,,,,,,,,,,,,,,,,409.27603583400196,None,409.27603583400196,None,5.122199592668024,1.6204606669925852,409.27603583400196,None,409.27603583400196,None,,,,,,,roi,2023_Jun_18_1553,working_memory,2021.2.3,None,
playground_10.jpg,playground_10.jpg,playground_122.jpg,left,highway_226.jpg,golf_course_33.jpg,mountain_38.jpg,playground_10.jpg,bridge_102.jpg,badlands_10.jpg,3,playground_122.jpg,0,playground,,,,,,,,,0,11,11,11,,,,,,,,,,,,,,,,,,,,,,,,,,,,,,,,,,,,,,,,,,,,,,,,,,,,,,,,,,,,,,,,,,,,,,,,,,,,,,,,,410.91897337500995,None,410.91897337500995,None,6.067209775967413,2.1523122920043534,410.91897337500995,None,410.91897337500995,None,,,,,,,roi,2023_Jun_18_1553,working_memory,2021.2.3,None,
highway_177.jpg,highway_177.jpg,highway_278.jpg,left,golf_course_202.jpg,playground_14.jpg,highway_177.jpg,bridge_152.jpg,badlands_227.jpg,mountain_192.jpg,2,highway_278.jpg,1,highway,,,,,,,,,0,12,12,12,,,,,,,,,,,,,,,,,,,,,,,,,,,,,,,,,,,,,,,,,,,,,,,,,,,,,,,,,,,,,,,,,,,,,,,,,,,,,,,,,413.0920105420082,None,413.0920105420082,None,8.714867617107943,1.8464901249972172,413.0920105420082,None,413.0920105420082,None,,,,,,,roi,2023_Jun_18_1553,working_memory,2021.2.3,None,
badlands_21.jpg,badlands_1.jpg,badlands_21.jpg,right,bridge_72.jpg,badlands_21.jpg,playground_74.jpg,golf_course_56.jpg,mountain_228.jpg,highway_251.jpg,1,badlands_1.jpg,0,badlands,,,,,,,,,0,13,13,13,,,,,,,,,,,,,,,,,,,,,,,,,,,,,,,,,,,,,,,,,,,,,,,,,,,,,,,,,,,,,,,,,,,,,,,,,,,,,,,,,414.9616174170078,None,414.9616174170078,None,5.464358452138493,1.8100401670089923,414.9616174170078,None,414.9616174170078,None,,,,,,,roi,2023_Jun_18_1553,working_memory,2021.2.3,None,
playground_131.jpg,playground_164.jpg,playground_131.jpg,right,highway_101.jpg,golf_course_166.jpg,bridge_117.jpg,mountain_180.jpg,playground_131.jpg,badlands_27.jpg,4,playground_164.jpg,1,playground,,,,,,,,,0,14,14,14,,,,,,,,,,,,,,,,,,,,,,,,,,,,,,,,,,,,,,,,,,,,,,,,,,,,,,,,,,,,,,,,,,,,,,,,,,,,,,,,,416.7939891670103,None,416.7939891670103,None,7.281059063136456,1.5946642080089077,416.7939891670103,None,416.7939891670103,None,,,,,,,roi,2023_Jun_18_1553,working_memory,2021.2.3,None,
bridge_256.jpg,bridge_256.jpg,bridge_211.jpg,left,highway_53.jpg,mountain_250.jpg,bridge_256.jpg,playground_165.jpg,golf_course_300.jpg,badlands_128.jpg,2,bridge_211.jpg,1,bridge,,,,,,,,,0,15,15,15,,,,,,,,,,,,,,,,,,,,,,,,,,,,,,,,,,,,,,,,,,,,,,,,,,,,,,,,,,,,,,,,,,,,,,,,,,,,,,,,,418.4087222500093,None,418.4087222500093,None,4.560081466395112,1.6043462910020025,418.4087222500093,None,418.4087222500093,None,,,,,,,roi,2023_Jun_18_1553,working_memory,2021.2.3,None,
badlands_52.jpg,badlands_94.jpg,badlands_52.jpg,right,highway_399.jpg,golf_course_174.jpg,mountain_91.jpg,badlands_52.jpg,bridge_140.jpg,playground_154.jpg,3,badlands_94.jpg,0,badlands,,,,,,,,,0,16,16,16,,,,,,,,,,,,,,,,,,,,,,,,,,,,,,,,,,,,,,,,,,,,,,,,,,,,,,,,,,,,,,,,,,,,,,,,,,,,,,,,,420.03559991699876,None,420.03559991699876,None,3.8920570264765786,1.670073000001139,420.03559991699876,None,420.03559991699876,None,,,,,,,roi,2023_Jun_18_1553,working_memory,2021.2.3,None,
badlands_23.jpg,badlands_114.jpg,badlands_23.jpg,right,highway_257.jpg,badlands_23.jpg,golf_course_194.jpg,mountain_251.jpg,playground_140.jpg,bridge_144.jpg,1,badlands_114.jpg,0,badlands,,,,,,,,,0,17,17,17,,,,,,,,,,,,,,,,,,,,,,,,,,,,,,,,,,,,,,,,,,,,,,,,,,,,,,,,,,,,,,,,,,,,,,,,,,,,,,,,,421.726008209007,None,421.726008209007,None,6.637474541751527,1.6048598339984892,421.726008209007,None,421.726008209007,None,,,,,,,roi,2023_Jun_18_1553,working_memory,2021.2.3,None,
mountain_101.jpg,mountain_221.jpg,mountain_101.jpg,right,bridge_155.jpg,playground_33.jpg,highway_287.jpg,mountain_101.jpg,badlands_44.jpg,golf_course_127.jpg,3,mountain_221.jpg,1,mountain,,,,,,,,,0,18,18,18,,,,,,,,,,,,,,,,,,,,,,,,,,,,,,,,,,,,,,,,,,,,,,,,,,,,,,,,,,,,,,,,,,,,,,,,,,,,,,,,,423.35173187500914,None,423.35173187500914,None,5.74949083503055,1.4778898340009619,423.35173187500914,None,423.35173187500914,None,,,,,,,roi,2023_Jun_18_1553,working_memory,2021.2.3,None,
badlands_221.jpg,badlands_207.jpg,badlands_221.jpg,right,golf_course_328.jpg,playground_36.jpg,highway_78.jpg,badlands_221.jpg,mountain_152.jpg,bridge_87.jpg,3,badlands_207.jpg,1,badlands,,,,,,,,,0,19,19,19,,,,,,,,,,,,,,,,,,,,,,,,,,,,,,,,,,,,,,,,,,,,,,,,,,,,,,,,,,,,,,,,,,,,,,,,,,,,,,,,,424.85061029200733,None,424.85061029200733,None,3.9979633401221997,1.213829333006288,424.85061029200733,None,424.85061029200733,None,,,,,,,roi,2023_Jun_18_1553,working_memory,2021.2.3,None,
mountain_154.jpg,mountain_154.jpg,mountain_95.jpg,left,golf_course_305.jpg,playground_204.jpg,bridge_74.jpg,mountain_154.jpg,badlands_166.jpg,highway_288.jpg,3,mountain_95.jpg,1,mountain,,,,,,,,,0,20,20,20,,,,,,,,,,,,,,,,,,,,,,,,,,,,,,,,,,,,,,,,,,,,,,,,,,,,,,,,,,,,,,,,,,,,,,,,,,,,,,,,,426.0851091250079,None,426.0851091250079,None,6.393075356415478,1.1291119170055026,426.0851091250079,None,426.0851091250079,None,,,,,,,roi,2023_Jun_18_1553,working_memory,2021.2.3,None,
bridge_91.jpg,bridge_253.jpg,bridge_91.jpg,right,golf_course_55.jpg,playground_98.jpg,bridge_91.jpg,highway_295.jpg,mountain_41.jpg,badlands_33.jpg,2,bridge_253.jpg,0,bridge,,,,,,,,,0,21,21,21,,,,,,,,,,,,,,,,,,,,,,,,,,,,,,,,,,,,,,,,,,,,,,,,,,,,,,,,,,,,,,,,,,,,,,,,,,,,,,,,,427.23612470900116,None,427.23612470900116,None,3.720977596741344,1.8938677080004709,427.23612470900116,None,427.23612470900116,None,,,,,,,roi,2023_Jun_18_1553,working_memory,2021.2.3,None,
highway_273.jpg,highway_273.jpg,highway_384.jpg,left,bridge_22.jpg,mountain_146.jpg,badlands_217.jpg,highway_273.jpg,golf_course_116.jpg,playground_55.jpg,3,highway_384.jpg,0,highway,,,,,,,,,0,22,22,22,,,,,,,,,,,,,,,,,,,,,,,,,,,,,,,,,,,,,,,,,,,,,,,,,,,,,,,,,,,,,,,,,,,,,,,,,,,,,,,,,429.1500139999989,None,429.1500139999989,None,8.217922606924644,1.5793522919993848,429.1500139999989,None,429.1500139999989,None,,,,,,,roi,2023_Jun_18_1553,working_memory,2021.2.3,None,
playground_60.jpg,playground_60.jpg,playground_244.jpg,left,playground_60.jpg,highway_178.jpg,badlands_121.jpg,mountain_126.jpg,golf_course_179.jpg,bridge_118.jpg,0,playground_244.jpg,1,playground,,,,,,,,,0,23,23,23,,,,,,,,,,,,,,,,,,,,,,,,,,,,,,,,,,,,,,,,,,,,,,,,,,,,,,,,,,,,,,,,,,,,,,,,,,,,,,,,,430.7511495840008,None,430.7511495840008,None,7.867617107942973,1.337626458000159,430.7511495840008,None,430.7511495840008,None,,,,,,,roi,2023_Jun_18_1553,working_memory,2021.2.3,None,
golf_course_217.jpg,golf_course_35.jpg,golf_course_217.jpg,right,playground_37.jpg,mountain_199.jpg,bridge_193.jpg,golf_course_217.jpg,highway_17.jpg,badlands_174.jpg,3,golf_course_35.jpg,0,golf,,,,,,,,,0,24,24,24,,,,,,,,,,,,,,,,,,,,,,,,,,,,,,,,,,,,,,,,,,,,,,,,,,,,,,,,,,,,,,,,,,,,,,,,,,,,,,,,,432.1108307500108,None,432.1108307500108,None,7.052953156822811,1.3027474999980768,432.1108307500108,None,432.1108307500108,None,,,,,,,roi,2023_Jun_18_1553,working_memory,2021.2.3,None,
playground_240.jpg,playground_40.jpg,playground_240.jpg,right,mountain_226.jpg,highway_265.jpg,playground_240.jpg,golf_course_313.jpg,badlands_104.jpg,bridge_79.jpg,2,playground_40.jpg,1,playground,,,,,,,,,0,25,25,25,,,,,,,,,,,,,,,,,,,,,,,,,,,,,,,,,,,,,,,,,,,,,,,,,,,,,,,,,,,,,,,,,,,,,,,,,,,,,,,,,433.43561687500915,None,433.43561687500915,None,7.997963340122199,1.2693973749992438,433.43561687500915,None,433.43561687500915,None,,,,,,,roi,2023_Jun_18_1553,working_memory,2021.2.3,None,
bridge_202.jpg,bridge_202.jpg,bridge_38.jpg,left,highway_138.jpg,bridge_202.jpg,mountain_29.jpg,badlands_16.jpg,golf_course_105.jpg,playground_246.jpg,1,bridge_38.jpg,1,bridge,,,,,,,,,0,26,26,26,,,,,,,,,,,,,,,,,,,,,,,,,,,,,,,,,,,,,,,,,,,,,,,,,,,,,,,,,,,,,,,,,,,,,,,,,,,,,,,,,434.7268927920086,None,434.7268927920086,None,5.953156822810591,1.45217941699957,434.7268927920086,None,434.7268927920086,None,,,,,,,roi,2023_Jun_18_1553,working_memory,2021.2.3,None,
golf_course_331.jpg,golf_course_331.jpg,golf_course_26.jpg,left,mountain_169.jpg,golf_course_331.jpg,playground_258.jpg,bridge_234.jpg,highway_148.jpg,badlands_122.jpg,1,golf_course_26.jpg,1,golf,,,,,,,,,0,27,27,27,,,,,,,,,,,,,,,,,,,,,,,,,,,,,,,,,,,,,,,,,,,,,,,,,,,,,,,,,,,,,,,,,,,,,,,,,,,,,,,,,436.2003939999995,None,436.2003939999995,None,8.087576374745417,1.103903666997212,436.2003939999995,None,436.2003939999995,None,,,,,,,roi,2023_Jun_18_1553,working_memory,2021.2.3,None,
badlands_70.jpg,badlands_70.jpg,badlands_119.jpg,left,bridge_112.jpg,mountain_307.jpg,golf_course_238.jpg,badlands_70.jpg,highway_383.jpg,playground_233.jpg,3,badlands_119.jpg,1,badlands,,,,,,,,,0,28,28,28,,,,,,,,,,,,,,,,,,,,,,,,,,,,,,,,,,,,,,,,,,,,,,,,,,,,,,,,,,,,,,,,,,,,,,,,,,,,,,,,,437.3254952499992,None,437.3254952499992,None,6.002036659877801,1.444961457993486,437.3254952499992,None,437.3254952499992,None,,,,,,,roi,2023_Jun_18_1553,working_memory,2021.2.3,None,
highway_156.jpg,highway_156.jpg,highway_293.jpg,left,playground_6.jpg,highway_156.jpg,badlands_6.jpg,bridge_45.jpg,golf_course_120.jpg,mountain_102.jpg,1,highway_293.jpg,1,highway,,,,,,,,,0,29,29,29,,,,,,,,,,,,,,,,,,,,,,,,,,,,,,,,,,,,,,,,,,,,,,,,,,,,,,,,,,,,,,,,,,,,,,,,,,,,,,,,,438.7916039999982,None,438.7916039999982,None,8.690427698574338,2.171354790989426,438.7916039999982,None,438.7916039999982,None,,,,,,,roi,2023_Jun_18_1553,working_memory,2021.2.3,None,
golf_course_309.jpg,golf_course_209.jpg,golf_course_309.jpg,right,highway_354.jpg,playground_15.jpg,mountain_187.jpg,badlands_216.jpg,golf_course_309.jpg,bridge_133.jpg,4,golf_course_209.jpg,1,golf,,,,,,,,,0,30,30,30,,,,,,,,,,,,,,,,,,,,,,,,,,,,,,,,,,,,,,,,,,,,,,,,,,,,,,,,,,,,,,,,,,,,,,,,,,,,,,,,,440.9837208340032,None,440.9837208340032,None,7.0855397148676165,1.595790292005404,440.9837208340032,None,440.9837208340032,None,,,,,,,roi,2023_Jun_18_1553,working_memory,2021.2.3,None,
bridge_250.jpg,bridge_250.jpg,bridge_134.jpg,left,golf_course_196.jpg,highway_30.jpg,bridge_250.jpg,mountain_40.jpg,playground_249.jpg,badlands_97.jpg,2,bridge_134.jpg,0,bridge,,,,,,,,,0,31,31,31,,,,,,,,,,,,,,,,,,,,,,,,,,,,,,,,,,,,,,,,,,,,,,,,,,,,,,,,,,,,,,,,,,,,,,,,,,,,,,,,,442.59986425000534,None,442.59986425000534,None,6.026476578411406,1.4218290830031037,442.59986425000534,None,442.59986425000534,None,,,,,,,roi,2023_Jun_18_1553,working_memory,2021.2.3,None,
golf_course_214.jpg,golf_course_312.jpg,golf_course_214.jpg,right,highway_102.jpg,golf_course_214.jpg,playground_176.jpg,bridge_164.jpg,badlands_171.jpg,mountain_253.jpg,1,golf_course_312.jpg,0,golf,,,,,,,,,0,32,32,32,,,,,,,,,,,,,,,,,,,,,,,,,,,,,,,,,,,,,,,,,,,,,,,,,,,,,,,,,,,,,,,,,,,,,,,,,,,,,,,,,444.04257429200516,None,444.04257429200516,None,6.393075356415478,1.2866992089984706,444.04257429200516,None,444.04257429200516,None,,,,,,,roi,2023_Jun_18_1553,working_memory,2021.2.3,None,
playground_219.jpg,playground_21.jpg,playground_219.jpg,right,golf_course_252.jpg,badlands_120.jpg,bridge_158.jpg,playground_219.jpg,highway_33.jpg,mountain_202.jpg,3,playground_21.jpg,0,playground,,,,,,,,,0,33,33,33,,,,,,,,,,,,,,,,,,,,,,,,,,,,,,,,,,,,,,,,,,,,,,,,,,,,,,,,,,,,,,,,,,,,,,,,,,,,,,,,,445.3511087500083,None,445.3511087500083,None,7.4439918533604885,1.25311024999246,445.3511087500083,None,445.3511087500083,None,,,,,,,roi,2023_Jun_18_1553,working_memory,2021.2.3,None,
bridge_128.jpg,bridge_61.jpg,bridge_128.jpg,right,bridge_128.jpg,highway_154.jpg,badlands_35.jpg,golf_course_137.jpg,mountain_39.jpg,playground_162.jpg,0,bridge_61.jpg,0,bridge,,,,,,,,,0,34,34,34,,,,,,,,,,,,,,,,,,,,,,,,,,,,,,,,,,,,,,,,,,,,,,,,,,,,,,,,,,,,,,,,,,,,,,,,,,,,,,,,,446.6264516670053,None,446.6264516670053,None,3.8676171079429738,1.7618318339955295,446.6264516670053,None,446.6264516670053,None,,,,,,,roi,2023_Jun_18_1553,working_memory,2021.2.3,None,
highway_209.jpg,highway_209.jpg,highway_122.jpg,left,bridge_52.jpg,playground_78.jpg,golf_course_41.jpg,badlands_47.jpg,highway_209.jpg,mountain_33.jpg,4,highway_122.jpg,1,highway,,,,,,,,,0,35,35,35,,,,,,,,,,,,,,,,,,,,,,,,,,,,,,,,,,,,,,,,,,,,,,,,,,,,,,,,,,,,,,,,,,,,,,,,,,,,,,,,,448.4081053340051,None,448.4081053340051,None,8.674134419551935,1.4137907089898363,448.4081053340051,None,448.4081053340051,None,,,,,,,roi,2023_Jun_18_1553,working_memory,2021.2.3,None,
playground_144.jpg,playground_144.jpg,playground_65.jpg,left,badlands_215.jpg,mountain_88.jpg,golf_course_102.jpg,playground_144.jpg,bridge_238.jpg,highway_274.jpg,3,playground_65.jpg,1,playground,,,,,,,,,0,36,36,36,,,,,,,,,,,,,,,,,,,,,,,,,,,,,,,,,,,,,,,,,,,,,,,,,,,,,,,,,,,,,,,,,,,,,,,,,,,,,,,,,449.843548208999,None,449.843548208999,None,8.771894093686354,1.1624497919983696,449.843548208999,None,449.843548208999,None,,,,,,,roi,2023_Jun_18_1553,working_memory,2021.2.3,None,
mountain_110.jpg,mountain_157.jpg,mountain_110.jpg,right,golf_course_42.jpg,playground_103.jpg,mountain_110.jpg,bridge_86.jpg,badlands_60.jpg,highway_342.jpg,2,mountain_157.jpg,0,mountain,,,,,,,,,0,37,37,37,,,,,,,,,,,,,,,,,,,,,,,,,,,,,,,,,,,,,,,,,,,,,,,,,,,,,,,,,,,,,,,,,,,,,,,,,,,,,,,,,451.02551154200046,None,451.02551154200046,None,6.743380855397149,1.8626801670034183,451.02551154200046,None,451.02551154200046,None,,,,,,,roi,2023_Jun_18_1553,working_memory,2021.2.3,None,
highway_394.jpg,highway_204.jpg,highway_394.jpg,right,highway_394.jpg,golf_course_144.jpg,playground_68.jpg,badlands_26.jpg,bridge_218.jpg,mountain_32.jpg,0,highway_204.jpg,0,highway,,,,,,,,,0,38,38,38,,,,,,,,,,,,,,,,,,,,,,,,,,,,,,,,,,,,,,,,,,,,,,,,,,,,,,,,,,,,,,,,,,,,,,,,,,,,,,,,,452.9082254170062,None,452.9082254170062,None,5.928716904276985,1.5383484999911161,452.9082254170062,None,452.9082254170062,None,,,,,,,roi,2023_Jun_18_1553,working_memory,2021.2.3,None,
golf_course_87.jpg,golf_course_87.jpg,golf_course_161.jpg,left,golf_course_87.jpg,mountain_190.jpg,bridge_124.jpg,highway_58.jpg,badlands_152.jpg,playground_237.jpg,0,golf_course_161.jpg,1,golf,,,,,,,,,0,39,39,39,,,,,,,,,,,,,,,,,,,,,,,,,,,,,,,,,,,,,,,,,,,,,,,,,,,,,,,,,,,,,,,,,,,,,,,,,,,,,,,,,454.46764066700416,None,454.46764066700416,None,5.236252545824847,1.0620363330090186,454.46764066700416,None,454.46764066700416,None,,,,,,,roi,2023_Jun_18_1553,working_memory,2021.2.3,None,
mountain_156.jpg,mountain_128.jpg,mountain_156.jpg,right,playground_64.jpg,bridge_180.jpg,badlands_72.jpg,mountain_156.jpg,highway_319.jpg,golf_course_23.jpg,3,mountain_128.jpg,0,mountain,,,,,,,,,0,40,40,40,,,,,,,,,,,,,,,,,,,,,,,,,,,,,,,,,,,,,,,,,,,,,,,,,,,,,,,,,,,,,,,,,,,,,,,,,,,,,,,,,455.54988295900694,None,455.54988295900694,None,7.908350305498981,1.2973637500108453,455.54988295900694,None,455.54988295900694,None,,,,,,,roi,2023_Jun_18_1553,working_memory,2021.2.3,None,
badlands_137.jpg,badlands_194.jpg,badlands_137.jpg,right,highway_107.jpg,bridge_212.jpg,mountain_206.jpg,badlands_137.jpg,playground_63.jpg,golf_course_265.jpg,3,badlands_194.jpg,0,badlands,,,,,,,,,0,41,41,41,,,,,,,,,,,,,,,,,,,,,,,,,,,,,,,,,,,,,,,,,,,,,,,,,,,,,,,,,,,,,,,,,,,,,,,,,,,,,,,,,456.8665941250074,None,456.8665941250074,None,4.55193482688391,2.1544517089932924,456.8665941250074,None,456.8665941250074,None,,,,,,,roi,2023_Jun_18_1553,working_memory,2021.2.3,None,
golf_course_188.jpg,golf_course_157.jpg,golf_course_188.jpg,right,highway_199.jpg,playground_227.jpg,badlands_54.jpg,bridge_228.jpg,golf_course_188.jpg,mountain_62.jpg,4,golf_course_157.jpg,0,golf,,,,,,,,,0,42,42,42,,,,,,,,,,,,,,,,,,,,,,,,,,,,,,,,,,,,,,,,,,,,,,,,,,,,,,,,,,,,,,,,,,,,,,,,,,,,,,,,,459.0409372920112,None,459.0409372920112,None,4.674134419551935,1.346185707996483,459.0409372920112,None,459.0409372920112,None,,,,,,,roi,2023_Jun_18_1553,working_memory,2021.2.3,None,
badlands_184.jpg,badlands_184.jpg,badlands_103.jpg,left,playground_235.jpg,golf_course_342.jpg,bridge_197.jpg,mountain_294.jpg,badlands_184.jpg,highway_308.jpg,4,badlands_103.jpg,1,badlands,,,,,,,,,0,43,43,43,,,,,,,,,,,,,,,,,,,,,,,,,,,,,,,,,,,,,,,,,,,,,,,,,,,,,,,,,,,,,,,,,,,,,,,,,,,,,,,,,460.4078654170007,None,460.4078654170007,None,6.588594704684318,1.1880681670008926,460.4078654170007,None,460.4078654170007,None,,,,,,,roi,2023_Jun_18_1553,working_memory,2021.2.3,None,
mountain_232.jpg,mountain_232.jpg,mountain_3.jpg,left,golf_course_128.jpg,playground_124.jpg,badlands_170.jpg,mountain_232.jpg,bridge_147.jpg,highway_305.jpg,3,mountain_3.jpg,0,mountain,,,,,,,,,0,44,44,44,,,,,,,,,,,,,,,,,,,,,,,,,,,,,,,,,,,,,,,,,,,,,,,,,,,,,,,,,,,,,,,,,,,,,,,,,,,,,,,,,461.6170665840036,None,461.6170665840036,None,5.562118126272912,1.4879404169914778,461.6170665840036,None,461.6170665840036,None,,,,,,,roi,2023_Jun_18_1553,working_memory,2021.2.3,None,
highway_93.jpg,highway_85.jpg,highway_93.jpg,right,golf_course_307.jpg,highway_93.jpg,badlands_164.jpg,playground_184.jpg,mountain_76.jpg,bridge_190.jpg,1,highway_85.jpg,0,highway,,,,,,,,,0,45,45,45,,,,,,,,,,,,,,,,,,,,,,,,,,,,,,,,,,,,,,,,,,,,,,,,,,,,,,,,,,,,,,,,,,,,,,,,,,,,,,,,,463.1246792090096,None,463.1246792090096,None,6.164969450101833,1.7474853330058977,463.1246792090096,None,463.1246792090096,None,,,,,,,roi,2023_Jun_18_1553,working_memory,2021.2.3,None,
highway_294.jpg,highway_203.jpg,highway_294.jpg,right,highway_294.jpg,mountain_176.jpg,playground_196.jpg,badlands_106.jpg,bridge_120.jpg,golf_course_269.jpg,0,highway_203.jpg,0,highway,,,,,,,,,0,46,46,46,,,,,,,,,,,,,,,,,,,,,,,,,,,,,,,,,,,,,,,,,,,,,,,,,,,,,,,,,,,,,,,,,,,,,,,,,,,,,,,,,464.89136316700024,None,464.89136316700024,None,6.816700610997963,1.0713566250051372,464.89136316700024,None,464.89136316700024,None,,,,,,,roi,2023_Jun_18_1553,working_memory,2021.2.3,None,
golf_course_195.jpg,golf_course_2.jpg,golf_course_195.jpg,right,golf_course_195.jpg,playground_54.jpg,badlands_211.jpg,mountain_92.jpg,highway_28.jpg,bridge_63.jpg,0,golf_course_2.jpg,1,golf,,,,,,,,,0,47,47,47,,,,,,,,,,,,,,,,,,,,,,,,,,,,,,,,,,,,,,,,,,,,,,,,,,,,,,,,,,,,,,,,,,,,,,,,,,,,,,,,,465.9832689590112,None,465.9832689590112,None,7.101832993890021,1.020999665997806,465.9832689590112,None,465.9832689590112,None,,,,,,,roi,2023_Jun_18_1553,working_memory,2021.2.3,None,
mountain_57.jpg,mountain_57.jpg,mountain_138.jpg,left,playground_241.jpg,golf_course_71.jpg,badlands_125.jpg,mountain_57.jpg,highway_37.jpg,bridge_68.jpg,3,mountain_138.jpg,1,mountain,,,,,,,,,0,48,48,48,,,,,,,,,,,,,,,,,,,,,,,,,,,,,,,,,,,,,,,,,,,,,,,,,,,,,,,,,,,,,,,,,,,,,,,,,,,,,,,,,467.0249530840083,None,467.0249530840083,None,4.519348268839104,1.3964999169984367,467.0249530840083,None,467.0249530840083,None,,,,,,,roi,2023_Jun_18_1553,working_memory,2021.2.3,None,
bridge_108.jpg,bridge_108.jpg,bridge_116.jpg,left,golf_course_297.jpg,highway_90.jpg,badlands_81.jpg,mountain_135.jpg,bridge_108.jpg,playground_118.jpg,4,bridge_116.jpg,0,bridge,,,,,,,,,0,49,49,49,,,,,,,,,,,,,,,,,,,,,,,,,,,,,,,,,,,,,,,,,,,,,,,,,,,,,,,,,,,,,,,,,,,,,,,,,,,,,,,,,468.44275704200845,None,468.44275704200845,None,5.521384928716905,1.8705923330126097,468.44275704200845,None,468.44275704200845,None,,,,,,,roi,2023_Jun_18_1553,working_memory,2021.2.3,None,
golf_course_193.jpg,golf_course_193.jpg,golf_course_235.jpg,left,mountain_306.jpg,badlands_138.jpg,golf_course_193.jpg,bridge_204.jpg,playground_132.jpg,highway_3.jpg,2,golf_course_235.jpg,0,golf,,,,,,,,,0,50,50,50,,,,,,,,,,,,,,,,,,,,,,,,,,,,,,,,,,,,,,,,,,,,,,,,,,,,,,,,,,,,,,,,,,,,,,,,,,,,,,,,,470.3349013340048,None,470.3349013340048,None,4.95112016293279,2.588018207999994,470.3349013340048,None,470.3349013340048,None,,,,,,,roi,2023_Jun_18_1553,working_memory,2021.2.3,None,
bridge_65.jpg,bridge_65.jpg,bridge_60.jpg,left,highway_31.jpg,golf_course_226.jpg,badlands_201.jpg,mountain_120.jpg,bridge_65.jpg,playground_141.jpg,4,bridge_60.jpg,1,bridge,,,,,,,,,0,51,51,51,,,,,,,,,,,,,,,,,,,,,,,,,,,,,,,,,,,,,,,,,,,,,,,,,,,,,,,,,,,,,,,,,,,,,,,,,,,,,,,,,472.94309479200456,None,472.94309479200456,None,3.4032586558044806,1.6371379160118522,472.94309479200456,None,472.94309479200456,None,,,,,,,roi,2023_Jun_18_1553,working_memory,2021.2.3,None,
playground_76.jpg,playground_22.jpg,playground_76.jpg,right,highway_50.jpg,playground_76.jpg,bridge_126.jpg,mountain_277.jpg,badlands_213.jpg,golf_course_288.jpg,1,playground_22.jpg,0,playground,,,,,,,,,0,52,52,52,,,,,,,,,,,,,,,,,,,,,,,,,,,,,,,,,,,,,,,,,,,,,,,,,,,,,,,,,,,,,,,,,,,,,,,,,,,,,,,,,474.60058983400813,None,474.60058983400813,None,7.663951120162933,2.6129443749960046,474.60058983400813,None,474.60058983400813,None,,,,,,,roi,2023_Jun_18_1553,working_memory,2021.2.3,None,
golf_course_15.jpg,golf_course_113.jpg,golf_course_15.jpg,right,highway_18.jpg,badlands_173.jpg,bridge_24.jpg,playground_251.jpg,golf_course_15.jpg,mountain_137.jpg,4,golf_course_113.jpg,0,golf,,,,,,,,,0,53,53,53,,,,,,,,,,,,,,,,,,,,,,,,,,,,,,,,,,,,,,,,,,,,,,,,,,,,,,,,,,,,,,,,,,,,,,,,,,,,,,,,,477.23463395900035,None,477.23463395900035,None,6.8492871690427695,1.3203425410029013,477.23463395900035,None,477.23463395900035,None,,,,,,,roi,2023_Jun_18_1553,working_memory,2021.2.3,None,
badlands_24.jpg,badlands_53.jpg,badlands_24.jpg,right,playground_50.jpg,golf_course_72.jpg,badlands_24.jpg,highway_29.jpg,mountain_51.jpg,bridge_66.jpg,2,badlands_53.jpg,1,badlands,,,,,,,,,0,54,54,54,,,,,,,,,,,,,,,,,,,,,,,,,,,,,,,,,,,,,,,,,,,,,,,,,,,,,,,,,,,,,,,,,,,,,,,,,,,,,,,,,478.5761493750033,None,478.5761493750033,None,8.283095723014256,1.2627875000034692,478.5761493750033,None,478.5761493750033,None,,,,,,,roi,2023_Jun_18_1553,working_memory,2021.2.3,None,
mountain_123.jpg,mountain_123.jpg,mountain_94.jpg,left,badlands_105.jpg,bridge_110.jpg,playground_85.jpg,highway_172.jpg,mountain_123.jpg,golf_course_162.jpg,4,mountain_94.jpg,0,mountain,,,,,,,,,0,55,55,55,,,,,,,,,,,,,,,,,,,,,,,,,,,,,,,,,,,,,,,,,,,,,,,,,,,,,,,,,,,,,,,,,,,,,,,,,,,,,,,,,479.85936583401053,None,479.85936583401053,None,5.74949083503055,1.3538451659987913,479.85936583401053,None,479.85936583401053,None,,,,,,,roi,2023_Jun_18_1553,working_memory,2021.2.3,None,
bridge_191.jpg,bridge_191.jpg,bridge_184.jpg,left,playground_49.jpg,bridge_191.jpg,golf_course_3.jpg,mountain_233.jpg,highway_191.jpg,badlands_200.jpg,1,bridge_184.jpg,0,bridge,,,,,,,,,0,56,56,56,,,,,,,,,,,,,,,,,,,,,,,,,,,,,,,,,,,,,,,,,,,,,,,,,,,,,,,,,,,,,,,,,,,,,,,,,,,,,,,,,481.23270220900304,None,481.23270220900304,None,4.274949083503055,1.5646594999998342,481.23270220900304,None,481.23270220900304,None,,,,,,,roi,2023_Jun_18_1553,working_memory,2021.2.3,None,
golf_course_78.jpg,golf_course_134.jpg,golf_course_78.jpg,right,playground_16.jpg,golf_course_78.jpg,bridge_254.jpg,highway_193.jpg,mountain_290.jpg,badlands_214.jpg,1,golf_course_134.jpg,0,golf,,,,,,,,,0,57,57,57,,,,,,,,,,,,,,,,,,,,,,,,,,,,,,,,,,,,,,,,,,,,,,,,,,,,,,,,,,,,,,,,,,,,,,,,,,,,,,,,,482.81662233400857,None,482.81662233400857,None,7.712830957230143,1.387706708002952,482.81662233400857,None,482.81662233400857,None,,,,,,,roi,2023_Jun_18_1553,working_memory,2021.2.3,None,
playground_117.jpg,playground_127.jpg,playground_117.jpg,right,highway_36.jpg,badlands_30.jpg,playground_117.jpg,golf_course_219.jpg,bridge_106.jpg,mountain_302.jpg,2,playground_127.jpg,1,playground,,,,,,,,,0,58,58,58,,,,,,,,,,,,,,,,,,,,,,,,,,,,,,,,,,,,,,,,,,,,,,,,,,,,,,,,,,,,,,,,,,,,,,,,,,,,,,,,,484.22605754200777,None,484.22605754200777,None,6.091649694501019,1.2371676660113735,484.22605754200777,None,484.22605754200777,None,,,,,,,roi,2023_Jun_18_1553,working_memory,2021.2.3,None,
highway_415.jpg,highway_415.jpg,highway_174.jpg,left,playground_173.jpg,bridge_20.jpg,golf_course_59.jpg,highway_415.jpg,mountain_87.jpg,badlands_150.jpg,3,highway_174.jpg,1,highway,,,,,,,,,0,59,59,59,,,,,,,,,,,,,,,,,,,,,,,,,,,,,,,,,,,,,,,,,,,,,,,,,,,,,,,,,,,,,,,,,,,,,,,,,,,,,,,,,485.4818575840036,None,485.4818575840036,None,8.739307535641547,1.9056405830051517,485.4818575840036,None,485.4818575840036,None,,,,,,,roi,2023_Jun_18_1553,working_memory,2021.2.3,None,
,,,,,,,,,,,,,,,,,,,,,,,,,,,,,,,,,,,,,,,,,,,,,,,,,,,,,,,,,,,,,,,,,,,,,,,,,,,,,,,,,,,,,,,,,,,,,,,,,,,,,,,,,,,,,,,,,,,,space,13.936356916994555,487.3944857500028,None,,,roi,2023_Jun_18_1553,working_memory,2021.2.3,None,
,,,,,,,,,,,,,,,,,,,,,,,,,,,,,,,,,,,,,,,,,,,,,,,,,,,,,,,,,,,,,,,,,,,,,,,,,,,,,,,,,,,,,,,,,,,,,,,,,,,,,,,,,,,,,,,,,,,,,,,,487.3944857500028,None,,,,,,
