target,image1,image2,correct,background_0,background_1,background_2,background_3,background_4,background_5,target_index,selected_dist,distractor_level,category,demo_loops.thisRepN,demo_loops.thisTrialN,demo_loops.thisN,demo_loops.thisIndex,exp_loops.thisRepN,exp_loops.thisTrialN,exp_loops.thisN,exp_loops.thisIndex,exp_loops_part2.thisRepN,exp_loops_part2.thisTrialN,exp_loops_part2.thisN,exp_loops_part2.thisIndex,key_resp.keys,key_resp.started,key_resp.stopped,text_consent_form.started,text_consent_form.stopped,button.started,button.stopped,button.numClicks,button.timesOn,button.timesOff,key_resp_2.keys,key_resp_2.rt,key_resp_2.started,key_resp_2.stopped,text_instructions_first_slide.started,text_instructions_first_slide.stopped,image_0_demo.started,image_0_demo.stopped,image_1_demo.started,image_1_demo.stopped,image_2_demo.started,image_2_demo.stopped,image_3_demo.started,image_3_demo.stopped,image_4_demo.started,image_4_demo.stopped,image_5_demo.started,image_5_demo.stopped,blank_screen_demo.started,blank_screen_demo.stopped,fixation_demo.started,fixation_demo.stopped,image_left_demo.started,image_left_demo.stopped,image_right_demo.started,image_right_demo.stopped,demo_test_key_resp.keys,demo_test_key_resp.rt,demo_test_key_resp.started,demo_test_key_resp.stopped,text_4.started,text_4.stopped,key_resp_after_demo.keys,key_resp_after_demo.rt,key_resp_after_demo.started,key_resp_after_demo.stopped,text_after_demo_instr.started,text_after_demo_instr.stopped,image_0.started,image_0.stopped,image_1.started,image_1.stopped,image_2.started,image_2.stopped,image_3.started,image_3.stopped,image_4.started,image_4.stopped,image_5.started,image_5.stopped,blank_screen.started,blank_screen.stopped,fixation_encoding.started,fixation_encoding.stopped,image_left.started,image_left.stopped,image_right.started,image_right.stopped,test_key_resp.keys,test_key_resp.rt,test_key_resp.started,test_key_resp.stopped,text_6.started,text_6.stopped,text_2.started,text_2.stopped,key_resp_4.keys,key_resp_4.rt,key_resp_4.started,key_resp_4.stopped,image_left_part2.started,image_left_part2.stopped,image_right_part2.started,image_right_part2.stopped,slider_part2.response,slider_part2.rt,slider_part2.started,slider_part2.stopped,text_5.started,text_5.stopped,key_resp_last_slide.keys,key_resp_last_slide.rt,key_resp_last_slide.started,key_resp_last_slide.stopped,text_last_slide.started,text_last_slide.stopped,ID,date,expName,psychopyVersion,frameRate,
,,,,,,,,,,,,,,,,,,,,,,,,,,None,11.142459458002122,None,,,,,,,,,,,,,,,,,,,,,,,,,,,,,,,,,,,,,,,,,,,,,,,,,,,,,,,,,,,,,,,,,,,,,,,,,,,,,,,,,,,,,,,,,,,,,,yasmin,2023_Jun_18_1605,working_memory,2021.2.3,None,
,,,,,,,,,,,,,,,,,,,,,,,,,,,,,11.142459458002122,None,11.142459458002122,None,1,[16.43029375000333],[16.430296332997386],space,20.63514720799867,27.56622762499319,None,,,,,,,,,,,,,,,,,,,,,,,,,,,,,,,,,,,,,,,,,,,,,,,,,,,,,,,,,,,,,,,,,,,,,,,,,,,,,,,,,,,yasmin,2023_Jun_18_1605,working_memory,2021.2.3,None,
flower1.jpg,flower1.jpg,flower1_pair.jpg,left,leaf3.jpg,trail1.jpg,flower1.jpg,bird1.jpg,tree3.jpg,fence4.jpg,2,,,,0,0,0,0,,,,,,,,,,,,,,,,,,,,,,,27.56622762499319,None,48.78985320799984,48.988457957995706,48.99408391700126,49.18021924998902,49.20007474999875,49.39437604199338,49.39437604199338,49.59257791699201,49.59257791699201,49.793706917000236,49.793706917000236,49.98083291699004,50.001521332989796,None,48.31315316699329,48.805788041994674,50.94928908300062,None,50.94928908300062,None,left,4.318376958995941,50.94928908300062,None,50.94928908300062,None,,,,,,,,,,,,,,,,,,,,,,,,,,,,,,,,,,,,,,,,,,,,,,,,,,,,,,,yasmin,2023_Jun_18_1605,working_memory,2021.2.3,None,
leaf2.jpg,leaf1.jpg,leaf2.jpg,right,trail2.jpg,leaf2.jpg,bird2.jpg,tree2.jpg,fence3.jpg,flower2.jpg,1,,,,0,1,1,1,,,,,,,,,,,,,,,,,,,,,,,,,55.8061235829955,56.005168082992896,56.01095429199631,56.21033950000128,56.21033950000128,56.39775037499203,56.41090158298903,56.61021733300004,56.61021733300004,56.80951841699425,56.80951841699425,56.99818533299549,57.01162533299066,None,55.360048332993756,55.85947287498857,58.01188233299763,None,58.01188233299763,None,left,3.586614207990351,58.01188233299763,None,58.01188233299763,None,,,,,,,,,,,,,,,,,,,,,,,,,,,,,,,,,,,,,,,,,,,,,,,,,,,,,,,yasmin,2023_Jun_18_1605,working_memory,2021.2.3,None,
fence1.jpg,fence1.jpg,fence2.jpg,left,tree1.jpg,bird3.jpg,trail3.jpg,fence1.jpg,leaf4.jpg,flower3.jpg,3,,,,0,2,2,2,,,,,,,,,,,,,,,,,,,,,,,,,62.14341333298944,62.34249408300093,62.34249408300093,62.53803229199548,62.544109124995884,62.743222457997035,62.743222457997035,62.93114849999256,62.94419416699384,63.14373362499464,63.14373362499464,63.34470908300136,63.34470908300136,None,61.66489904199261,62.16056804198888,64.3401518749888,None,64.3401518749888,None,left,9.614313708996633,64.3401518749888,None,64.3401518749888,None,,,,,,,,,,,,,,,,,,,,,,,,,,,,,,,,,,,,,,,,,,,,,,,,,,,,,,,yasmin,2023_Jun_18_1605,working_memory,2021.2.3,None,
,,,,,,,,,,,,,,,,,,,,,,,,,,,,,,,,,,,,,,,,,,,,,,,,,,,,,,,,,,,,,,,,,,,,space,6.388335790994461,73.96677687499323,None,,,,,,,,,,,,,,,,,,,,,,,,,,,,,,,,,,,,,,,,,,,,,,,,,,,yasmin,2023_Jun_18_1605,working_memory,2021.2.3,None,
badlands_113.jpg,badlands_203.jpg,badlands_113.jpg,right,golf_course_166.jpg,badlands_113.jpg,bridge_39.jpg,highway_354.jpg,mountain_226.jpg,playground_84.jpg,1,badlands_203.jpg,1,badlands,,,,,0,0,0,0,,,,,,,,,,,,,,,,,,,,,,,,,,,,,,,,,,,,,,,,,,,,,,,,,,,73.96677687499323,None,80.92327483299596,81.16866462500184,81.17285833299684,81.42147912499786,81.42758637499355,81.66751437498897,81.6866212499881,81.93049958298798,81.93049958298798,82.17931883299025,82.18581358299707,82.43735504199867,82.43735504199867,None,80.4441879169899,80.93932066699199,83.4141982079891,None,83.4141982079891,None,left,3.6214956250041723,83.4141982079891,None,83.4141982079891,None,,,,,,,,,,,,,,,,,,,,,,,yasmin,2023_Jun_18_1605,working_memory,2021.2.3,None,
badlands_222.jpg,badlands_222.jpg,badlands_62.jpg,left,golf_course_212.jpg,mountain_206.jpg,bridge_224.jpg,badlands_222.jpg,highway_28.jpg,playground_181.jpg,3,badlands_62.jpg,1,badlands,,,,,0,1,1,1,,,,,,,,,,,,,,,,,,,,,,,,,,,,,,,,,,,,,,,,,,,,,,,,,,,,,87.58301770799153,87.82886983299977,87.83417033299338,88.07982862499193,88.08602854199125,88.33192233298905,88.33192233298905,88.57791737499065,88.58353750000242,88.82303345800028,88.82303345800028,89.06446112498816,89.08374308299972,None,87.10176929199952,87.60010333299579,90.07997745799366,None,90.07997745799366,None,left,1.3570479580084793,90.07997745799366,None,90.07997745799366,None,,,,,,,,,,,,,,,,,,,,,,,yasmin,2023_Jun_18_1605,working_memory,2021.2.3,None,
highway_359.jpg,highway_359.jpg,highway_379.jpg,left,highway_359.jpg,mountain_91.jpg,golf_course_23.jpg,badlands_166.jpg,bridge_234.jpg,playground_173.jpg,0,highway_379.jpg,1,highway,,,,,0,2,2,2,,,,,,,,,,,,,,,,,,,,,,,,,,,,,,,,,,,,,,,,,,,,,,,,,,,,,91.9813468749926,92.2285824999999,92.23398854199331,92.47592941699259,92.48213658299937,92.72463287498977,92.73808337499213,92.98465991699777,92.98465991699777,93.22231445799116,93.23684787499951,93.4846636250004,93.4846636250004,None,91.50306658299814,91.99740162499074,94.4798919169989,None,94.4798919169989,None,left,5.949798917004955,94.4798919169989,None,94.4798919169989,None,,,,,,,,,,,,,,,,,,,,,,,yasmin,2023_Jun_18_1605,working_memory,2021.2.3,None,
mountain_222.jpg,mountain_244.jpg,mountain_222.jpg,right,badlands_150.jpg,bridge_158.jpg,mountain_222.jpg,golf_course_127.jpg,highway_78.jpg,playground_153.jpg,2,mountain_244.jpg,0,mountain,,,,,0,3,3,3,,,,,,,,,,,,,,,,,,,,,,,,,,,,,,,,,,,,,,,,,,,,,,,,,,,,,100.98764524998842,101.23606033300166,101.23606033300166,101.48322120799276,101.48322120799276,101.72274949999701,101.74262529199768,101.98182616700069,101.98182616700069,102.22269862498797,102.24035529200046,102.48106933299277,102.48106933299277,None,100.50503104199015,100.99126520799473,103.47554629200022,None,103.47554629200022,None,right,3.5086116249876795,103.47554629200022,None,103.47554629200022,None,,,,,,,,,,,,,,,,,,,,,,,yasmin,2023_Jun_18_1605,working_memory,2021.2.3,None,
bridge_172.jpg,bridge_172.jpg,bridge_163.jpg,left,highway_315.jpg,golf_course_269.jpg,bridge_172.jpg,badlands_217.jpg,mountain_290.jpg,playground_110.jpg,2,bridge_163.jpg,1,bridge,,,,,0,4,4,4,,,,,,,,,,,,,,,,,,,,,,,,,,,,,,,,,,,,,,,,,,,,,,,,,,,,,107.53349304199219,107.7694566249993,107.7694566249993,108.01431245799176,108.03209891699953,108.27788308299205,108.27788308299205,108.53103774999909,108.53103774999909,108.7786426669918,108.7786426669918,109.02603074999934,109.03266633299063,None,107.049558624989,107.53725774999475,110.01903374999529,None,110.01903374999529,None,right,4.195105709004565,110.01903374999529,None,110.01903374999529,None,,,,,,,,,,,,,,,,,,,,,,,yasmin,2023_Jun_18_1605,working_memory,2021.2.3,None,
playground_145.jpg,playground_145.jpg,playground_242.jpg,left,playground_145.jpg,highway_3.jpg,mountain_102.jpg,golf_course_194.jpg,badlands_60.jpg,bridge_118.jpg,0,playground_242.jpg,1,playground,,,,,0,5,5,5,,,,,,,,,,,,,,,,,,,,,,,,,,,,,,,,,,,,,,,,,,,,,,,,,,,,,114.75969970799633,114.99987308299751,115.02004699999816,115.26744145799603,115.26744145799603,115.50748558298801,115.50748558298801,115.74767599999905,115.76690724999935,116.00678133299516,116.00678133299516,116.2541559169913,116.26115262499661,None,114.2853227500018,114.78046408299997,117.25898895799764,None,117.25898895799764,None,right,2.56635241600452,117.25898895799764,None,117.25898895799764,None,,,,,,,,,,,,,,,,,,,,,,,yasmin,2023_Jun_18_1605,working_memory,2021.2.3,None,
highway_245.jpg,highway_206.jpg,highway_245.jpg,right,playground_227.jpg,highway_245.jpg,golf_course_333.jpg,bridge_179.jpg,badlands_44.jpg,mountain_228.jpg,1,highway_206.jpg,1,highway,,,,,0,6,6,6,,,,,,,,,,,,,,,,,,,,,,,,,,,,,,,,,,,,,,,,,,,,,,,,,,,,,120.36852258299768,120.6158957919979,120.61865337500058,120.85912449999887,120.87305045800167,121.11177029200189,121.12544387498929,121.37076624999463,121.37076624999463,121.60877370799426,121.62375345799956,121.87176304199966,121.87176304199966,None,119.89092420799716,120.38645045799785,122.87137412499578,None,122.87137412499578,None,right,1.8840364170027897,122.87137412499578,None,122.87137412499578,None,,,,,,,,,,,,,,,,,,,,,,,yasmin,2023_Jun_18_1605,working_memory,2021.2.3,None,
mountain_293.jpg,mountain_293.jpg,mountain_72.jpg,left,mountain_293.jpg,badlands_175.jpg,golf_course_328.jpg,bridge_110.jpg,playground_54.jpg,highway_83.jpg,0,mountain_72.jpg,0,mountain,,,,,0,7,7,7,,,,,,,,,,,,,,,,,,,,,,,,,,,,,,,,,,,,,,,,,,,,,,,,,,,,,125.3035443330009,125.5519801670016,125.5519801670016,125.79001212499861,125.79001212499861,126.04021641699364,126.04551154198998,126.28477079200093,126.30250820799847,126.54189770799712,126.54189770799712,126.79339299999992,126.79339299999992,None,124.81865308299894,125.30637895799009,127.7930522079987,None,127.7930522079987,None,right,3.2343467500031693,127.7930522079987,None,127.7930522079987,None,,,,,,,,,,,,,,,,,,,,,,,yasmin,2023_Jun_18_1605,working_memory,2021.2.3,None,
bridge_146.jpg,bridge_146.jpg,bridge_27.jpg,left,badlands_104.jpg,bridge_146.jpg,mountain_88.jpg,playground_204.jpg,golf_course_288.jpg,highway_147.jpg,1,bridge_27.jpg,0,bridge,,,,,0,8,8,8,,,,,,,,,,,,,,,,,,,,,,,,,,,,,,,,,,,,,,,,,,,,,,,,,,,,,131.56534162499884,131.80503762498847,131.8107026249927,132.0594873749942,132.0653560419887,132.31232108299446,132.31232108299446,132.55095537500165,132.57127908300026,132.81079691699415,132.81079691699415,133.05931045798934,133.06569699999818,None,131.0884774169972,131.584795207993,134.06966850000026,None,134.06966850000026,None,left,2.933311374988989,134.06966850000026,None,134.06966850000026,None,,,,,,,,,,,,,,,,,,,,,,,yasmin,2023_Jun_18_1605,working_memory,2021.2.3,None,
playground_257.jpg,playground_214.jpg,playground_257.jpg,right,badlands_46.jpg,highway_319.jpg,playground_257.jpg,golf_course_133.jpg,bridge_96.jpg,mountain_137.jpg,2,playground_214.jpg,0,playground,,,,,0,9,9,9,,,,,,,,,,,,,,,,,,,,,,,,,,,,,,,,,,,,,,,,,,,,,,,,,,,,,137.56849520799005,137.80968508298974,137.80968508298974,138.04937112500193,138.06867987499572,138.3108340829931,138.3108340829931,138.5486709169927,138.568397791998,138.80644895799924,138.80644895799924,139.05472512499546,139.0604348749912,None,137.08115787499992,137.57261604200175,140.05113912498928,None,140.05113912498928,None,left,2.5699694999930216,140.05113912498928,None,140.05113912498928,None,,,,,,,,,,,,,,,,,,,,,,,yasmin,2023_Jun_18_1605,working_memory,2021.2.3,None,
mountain_230.jpg,mountain_97.jpg,mountain_230.jpg,right,badlands_105.jpg,golf_course_128.jpg,highway_31.jpg,playground_191.jpg,mountain_230.jpg,bridge_156.jpg,4,mountain_97.jpg,1,mountain,,,,,0,10,10,10,,,,,,,,,,,,,,,,,,,,,,,,,,,,,,,,,,,,,,,,,,,,,,,,,,,,,143.18204712499573,143.42667633299425,143.42667633299425,143.66427616699366,143.68340370799706,143.92591404198902,143.92591404198902,144.17480924999109,144.17480924999109,144.42145883299236,144.42750637499557,144.66619862499647,144.68647291699017,None,142.6958435419947,143.19443408299412,145.67220870799792,None,145.67220870799792,None,right,2.392654291994404,145.67220870799792,None,145.67220870799792,None,,,,,,,,,,,,,,,,,,,,,,,yasmin,2023_Jun_18_1605,working_memory,2021.2.3,None,
playground_10.jpg,playground_122.jpg,playground_10.jpg,right,badlands_171.jpg,golf_course_72.jpg,bridge_173.jpg,playground_10.jpg,highway_107.jpg,mountain_40.jpg,3,playground_122.jpg,0,playground,,,,,0,11,11,11,,,,,,,,,,,,,,,,,,,,,,,,,,,,,,,,,,,,,,,,,,,,,,,,,,,,,148.61845379199076,148.86750279199623,148.87415662499552,149.1233970829926,149.1233970829926,149.37073004199192,149.37073004199192,149.61142116699193,149.6253480000014,149.87199225000222,149.87199225000222,150.11143620799703,150.12532583299617,None,148.14106933299627,148.63483804199495,151.11538066698995,None,151.11538066698995,None,left,1.9643365000083577,151.11538066698995,None,151.11538066698995,None,,,,,,,,,,,,,,,,,,,,,,,yasmin,2023_Jun_18_1605,working_memory,2021.2.3,None,
highway_177.jpg,highway_87.jpg,highway_177.jpg,right,mountain_62.jpg,golf_course_162.jpg,bridge_133.jpg,highway_177.jpg,playground_74.jpg,badlands_55.jpg,3,highway_87.jpg,0,highway,,,,,0,12,12,12,,,,,,,,,,,,,,,,,,,,,,,,,,,,,,,,,,,,,,,,,,,,,,,,,,,,,153.6384587079956,153.87879387498833,153.87879387498833,154.1170284999971,154.13726612499158,154.37741333300073,154.37741333300073,154.62228287498874,154.62719429199933,154.87475766699936,154.87746558299114,155.11832070798846,155.13862083299318,None,153.1511123329983,153.6499269999913,156.1301947920001,None,156.1301947920001,None,right,1.6403379170078551,156.1301947920001,None,156.1301947920001,None,,,,,,,,,,,,,,,,,,,,,,,yasmin,2023_Jun_18_1605,working_memory,2021.2.3,None,
badlands_21.jpg,badlands_98.jpg,badlands_21.jpg,right,bridge_136.jpg,golf_course_338.jpg,highway_191.jpg,mountain_198.jpg,badlands_21.jpg,playground_55.jpg,4,badlands_98.jpg,1,badlands,,,,,0,13,13,13,,,,,,,,,,,,,,,,,,,,,,,,,,,,,,,,,,,,,,,,,,,,,,,,,,,,,158.32503987499513,158.56940808299987,158.56940808299987,158.81840945799195,158.81840945799195,159.0623182499985,159.07572100000107,159.32217879199015,159.32217879199015,159.56565983299515,159.56565983299515,159.81506137498945,159.8205635829945,None,157.8399124169955,158.33024149999255,160.80830070799857,None,160.80830070799857,None,right,2.3502770839986624,160.80830070799857,None,160.80830070799857,None,,,,,,,,,,,,,,,,,,,,,,,yasmin,2023_Jun_18_1605,working_memory,2021.2.3,None,
playground_131.jpg,playground_164.jpg,playground_131.jpg,right,mountain_306.jpg,playground_131.jpg,bridge_124.jpg,golf_course_102.jpg,badlands_216.jpg,highway_335.jpg,1,playground_164.jpg,1,playground,,,,,0,14,14,14,,,,,,,,,,,,,,,,,,,,,,,,,,,,,,,,,,,,,,,,,,,,,,,,,,,,,163.69363729198813,163.9406439579907,163.94585258299776,164.1923398749932,164.19841783300217,164.44813916699786,164.45281999999133,164.69388287499896,164.69388287499896,164.9341290829907,164.95325700000103,165.20062129199505,165.20722212499822,None,163.22269999999844,163.71239083299588,166.207284374992,None,166.207284374992,None,right,1.5207406660047127,166.207284374992,None,166.207284374992,None,,,,,,,,,,,,,,,,,,,,,,,yasmin,2023_Jun_18_1605,working_memory,2021.2.3,None,
bridge_256.jpg,bridge_211.jpg,bridge_256.jpg,right,golf_course_196.jpg,mountain_151.jpg,bridge_256.jpg,playground_26.jpg,badlands_97.jpg,highway_265.jpg,2,bridge_211.jpg,1,bridge,,,,,0,15,15,15,,,,,,,,,,,,,,,,,,,,,,,,,,,,,,,,,,,,,,,,,,,,,,,,,,,,,168.26853545798804,168.50617224999587,168.52073620799638,168.76685329199245,168.76685329199245,169.01290104199143,169.0185060419899,169.2644836249965,169.2644836249965,169.51077070800238,169.51361904200166,169.76314258298953,169.76933004199236,None,167.7902388329967,168.28943408299529,170.7630008749984,None,170.7630008749984,None,right,0.7175761670077918,170.7630008749984,None,170.7630008749984,None,,,,,,,,,,,,,,,,,,,,,,,yasmin,2023_Jun_18_1605,working_memory,2021.2.3,None,
badlands_52.jpg,badlands_63.jpg,badlands_52.jpg,right,badlands_52.jpg,bridge_79.jpg,golf_course_41.jpg,highway_18.jpg,mountain_233.jpg,playground_85.jpg,0,badlands_63.jpg,1,badlands,,,,,0,16,16,16,,,,,,,,,,,,,,,,,,,,,,,,,,,,,,,,,,,,,,,,,,,,,,,,,,,,,172.01419599998917,172.2607681669906,172.26591612499033,172.51106608299597,172.51637287499034,172.76300004198856,172.76904516699142,173.00989429200126,173.01405108299514,173.26230195799144,173.26902349999,173.51527387498936,173.51527387498936,None,171.54420424999262,172.02968558299472,174.5207719579921,None,174.5207719579921,None,right,2.050330541009316,174.5207719579921,None,174.5207719579921,None,,,,,,,,,,,,,,,,,,,,,,,yasmin,2023_Jun_18_1605,working_memory,2021.2.3,None,
badlands_23.jpg,badlands_114.jpg,badlands_23.jpg,right,badlands_23.jpg,golf_course_67.jpg,bridge_117.jpg,mountain_187.jpg,playground_184.jpg,highway_399.jpg,0,badlands_114.jpg,0,badlands,,,,,0,17,17,17,,,,,,,,,,,,,,,,,,,,,,,,,,,,,,,,,,,,,,,,,,,,,,,,,,,,,177.11401395799476,177.35434349998832,177.35434349998832,177.5919770420005,177.61021216699737,177.85253224999178,177.85253224999178,178.0923295829998,178.10929495799064,178.35859824999352,178.36400445799518,178.6045788749907,178.6045788749907,None,176.63234695799474,177.1306866669911,179.6059644999914,None,179.6059644999914,None,right,1.4907473750063218,179.6059644999914,None,179.6059644999914,None,,,,,,,,,,,,,,,,,,,,,,,yasmin,2023_Jun_18_1605,working_memory,2021.2.3,None,
mountain_101.jpg,mountain_171.jpg,mountain_101.jpg,right,golf_course_313.jpg,mountain_101.jpg,badlands_26.jpg,bridge_142.jpg,playground_98.jpg,highway_9.jpg,1,mountain_171.jpg,0,mountain,,,,,0,18,18,18,,,,,,,,,,,,,,,,,,,,,,,,,,,,,,,,,,,,,,,,,,,,,,,,,,,,,181.63167620799504,181.8711689579941,181.89040737500181,182.13686383300228,182.13686383300228,182.38055641698884,182.38055641698884,182.62183058299706,182.63933570799418,182.88170983298915,182.88170983298915,183.12154799999553,183.14272799999162,None,181.15841879199434,181.6546614580002,184.13572208299593,None,184.13572208299593,None,right,2.106182332994649,184.13572208299593,None,184.13572208299593,None,,,,,,,,,,,,,,,,,,,,,,,yasmin,2023_Jun_18_1605,working_memory,2021.2.3,None,
badlands_221.jpg,badlands_115.jpg,badlands_221.jpg,right,highway_81.jpg,bridge_86.jpg,golf_course_291.jpg,playground_16.jpg,badlands_221.jpg,mountain_45.jpg,4,badlands_115.jpg,0,badlands,,,,,0,19,19,19,,,,,,,,,,,,,,,,,,,,,,,,,,,,,,,,,,,,,,,,,,,,,,,,,,,,,186.78836641699309,187.03158612499828,187.03158612499828,187.27009662499768,187.28939491699566,187.5288180829957,187.5288180829957,187.77575575000083,187.7813484169892,188.0178432919929,188.03803891700227,188.27952779199404,188.27952779199404,None,186.30754612499732,186.80542629199044,189.2811638330022,None,189.2811638330022,None,left,1.778714415995637,189.2811638330022,None,189.2811638330022,None,,,,,,,,,,,,,,,,,,,,,,,yasmin,2023_Jun_18_1605,working_memory,2021.2.3,None,
mountain_154.jpg,mountain_95.jpg,mountain_154.jpg,right,playground_6.jpg,mountain_154.jpg,golf_course_342.jpg,highway_101.jpg,bridge_164.jpg,badlands_72.jpg,1,mountain_95.jpg,1,mountain,,,,,0,20,20,20,,,,,,,,,,,,,,,,,,,,,,,,,,,,,,,,,,,,,,,,,,,,,,,,,,,,,191.6017532919941,191.84944454199285,191.85505433299113,192.0960542919929,192.0960542919929,192.3354580419982,192.35590029199375,192.59589583300112,192.59589583300112,192.84610812499886,192.84610812499886,193.084970625001,193.10417958299513,None,191.1246414999914,191.617332875001,194.10109012499743,None,194.10109012499743,None,right,3.3587906250031665,194.10109012499743,None,194.10109012499743,None,,,,,,,,,,,,,,,,,,,,,,,yasmin,2023_Jun_18_1605,working_memory,2021.2.3,None,
bridge_91.jpg,bridge_253.jpg,bridge_91.jpg,right,highway_15.jpg,badlands_121.jpg,bridge_91.jpg,golf_course_171.jpg,playground_162.jpg,mountain_38.jpg,2,bridge_253.jpg,0,bridge,,,,,0,21,21,21,,,,,,,,,,,,,,,,,,,,,,,,,,,,,,,,,,,,,,,,,,,,,,,,,,,,,197.99767391699424,198.2329527499969,198.2546155829914,198.49922225000046,198.49922225000046,198.74462679200224,198.75003949999518,199.00330266699893,199.00330266699893,199.24975941699813,199.24975941699813,199.49605579199851,199.50346445800096,None,197.52373662499303,198.01572724999278,200.4974381249922,None,200.4974381249922,None,right,3.2409907920082333,200.4974381249922,None,200.4974381249922,None,,,,,,,,,,,,,,,,,,,,,,,yasmin,2023_Jun_18_1605,working_memory,2021.2.3,None,
highway_273.jpg,highway_171.jpg,highway_273.jpg,right,bridge_63.jpg,golf_course_252.jpg,highway_273.jpg,playground_30.jpg,badlands_47.jpg,mountain_34.jpg,2,highway_171.jpg,1,highway,,,,,0,22,22,22,,,,,,,,,,,,,,,,,,,,,,,,,,,,,,,,,,,,,,,,,,,,,,,,,,,,,204.28585224998824,204.5267729999905,204.53962158299692,204.77664604199526,204.79144641698804,205.03502033300174,205.03502033300174,205.27803395799128,205.29231537500164,205.53986733299098,205.53986733299098,205.78198262499063,205.78198262499063,None,203.8072729169944,204.30368974999874,206.7772925419995,None,206.7772925419995,None,left,26.03059774999565,206.7772925419995,None,206.7772925419995,None,,,,,,,,,,,,,,,,,,,,,,,yasmin,2023_Jun_18_1605,working_memory,2021.2.3,None,
playground_60.jpg,playground_60.jpg,playground_268.jpg,left,badlands_79.jpg,playground_60.jpg,golf_course_56.jpg,bridge_212.jpg,highway_226.jpg,mountain_190.jpg,1,playground_268.jpg,0,playground,,,,,0,23,23,23,,,,,,,,,,,,,,,,,,,,,,,,,,,,,,,,,,,,,,,,,,,,,,,,,,,,,233.3559019999957,233.6019313329889,233.6019313329889,233.84296770799847,233.84750529199664,234.08923287499056,234.10943108299398,234.35072579199914,234.35072579199914,234.5894939169957,234.60755287499342,234.85450720800145,234.86130525000044,None,232.8750492919935,233.37240941698838,235.8451944999979,None,235.8451944999979,None,right,2.528105334000429,235.8451944999979,None,235.8451944999979,None,,,,,,,,,,,,,,,,,,,,,,,yasmin,2023_Jun_18_1605,working_memory,2021.2.3,None,
golf_course_217.jpg,golf_course_262.jpg,golf_course_217.jpg,right,playground_14.jpg,mountain_87.jpg,bridge_167.jpg,highway_193.jpg,golf_course_217.jpg,badlands_16.jpg,4,golf_course_262.jpg,1,golf,,,,,0,24,24,24,,,,,,,,,,,,,,,,,,,,,,,,,,,,,,,,,,,,,,,,,,,,,,,,,,,,,238.92103554199275,239.15917595798965,239.17292808298953,239.4098653330002,239.42295512498822,239.66981262499758,239.66981262499758,239.91690250000102,239.92259362500045,240.16302908299258,240.16302908299258,240.4145972499973,240.4145972499973,None,238.43917483299447,238.937673249995,241.4132522919972,None,241.4132522919972,None,right,0.7554805830004625,241.4132522919972,None,241.4132522919972,None,,,,,,,,,,,,,,,,,,,,,,,yasmin,2023_Jun_18_1605,working_memory,2021.2.3,None,
playground_240.jpg,playground_240.jpg,playground_40.jpg,left,highway_269.jpg,badlands_129.jpg,mountain_176.jpg,golf_course_300.jpg,playground_240.jpg,bridge_20.jpg,4,playground_40.jpg,1,playground,,,,,0,25,25,25,,,,,,,,,,,,,,,,,,,,,,,,,,,,,,,,,,,,,,,,,,,,,,,,,,,,,242.70216812498984,242.94772195800033,242.95179108298908,243.1930829579942,243.21277291700244,243.45172054199793,243.45172054199793,243.69944812500034,243.7049454999942,243.94197408299078,243.96261958299146,244.2026661669952,244.2026661669952,None,242.22999820800032,242.71797770800185,245.20913712499896,None,245.20913712499896,None,left,0.8924902500002645,245.20913712499896,None,245.20913712499896,None,,,,,,,,,,,,,,,,,,,,,,,yasmin,2023_Jun_18_1605,working_memory,2021.2.3,None,
bridge_202.jpg,bridge_202.jpg,bridge_31.jpg,left,bridge_202.jpg,mountain_249.jpg,golf_course_181.jpg,highway_90.jpg,playground_248.jpg,badlands_106.jpg,0,bridge_31.jpg,0,bridge,,,,,0,26,26,26,,,,,,,,,,,,,,,,,,,,,,,,,,,,,,,,,,,,,,,,,,,,,,,,,,,,,246.64483929199923,246.892367249995,246.892367249995,247.13099454199255,247.14722708299814,247.3913762919983,247.3913762919983,247.63812487499672,247.644403667,247.88894699999946,247.90321041698917,248.1482734579913,248.1482734579913,None,246.17103808298998,246.66818770799728,249.14765720799915,None,249.14765720799915,None,left,1.4559536250017118,249.14765720799915,None,249.14765720799915,None,,,,,,,,,,,,,,,,,,,,,,,yasmin,2023_Jun_18_1605,working_memory,2021.2.3,None,
golf_course_331.jpg,golf_course_331.jpg,golf_course_26.jpg,left,playground_47.jpg,golf_course_331.jpg,mountain_180.jpg,badlands_200.jpg,highway_17.jpg,bridge_144.jpg,1,golf_course_26.jpg,1,golf,,,,,0,27,27,27,,,,,,,,,,,,,,,,,,,,,,,,,,,,,,,,,,,,,,,,,,,,,,,,,,,,,251.14990324999962,251.39646387498942,251.40276695799548,251.64815216699208,251.64815216699208,251.89498104200175,251.90061425000022,252.14095158300188,252.15464129199972,252.3994214580016,252.3994214580016,252.64548437499616,252.65203404199565,None,250.67116091700154,251.16631841698836,253.6514666669973,None,253.6514666669973,None,left,1.5740944999997737,253.6514666669973,None,253.6514666669973,None,,,,,,,,,,,,,,,,,,,,,,,yasmin,2023_Jun_18_1605,working_memory,2021.2.3,None,
badlands_70.jpg,badlands_70.jpg,badlands_102.jpg,left,golf_course_316.jpg,playground_7.jpg,badlands_70.jpg,bridge_228.jpg,highway_178.jpg,mountain_22.jpg,2,badlands_102.jpg,0,badlands,,,,,0,28,28,28,,,,,,,,,,,,,,,,,,,,,,,,,,,,,,,,,,,,,,,,,,,,,,,,,,,,,255.76031866700214,256.0051282919885,256.01103237499774,256.25970591699297,256.2655540419946,256.5006386669993,256.51872774999356,256.76075829198817,256.76075829198817,257.0017411669978,257.0212770419894,257.2659938750003,257.2659938750003,None,255.29035749999457,255.79070312499243,258.27622187499946,None,258.27622187499946,None,right,1.051721333002206,258.27622187499946,None,258.27622187499946,None,,,,,,,,,,,,,,,,,,,,,,,yasmin,2023_Jun_18_1605,working_memory,2021.2.3,None,
highway_156.jpg,highway_293.jpg,highway_156.jpg,right,highway_156.jpg,mountain_250.jpg,golf_course_61.jpg,playground_42.jpg,bridge_64.jpg,badlands_214.jpg,0,highway_293.jpg,1,highway,,,,,0,29,29,29,,,,,,,,,,,,,,,,,,,,,,,,,,,,,,,,,,,,,,,,,,,,,,,,,,,,,259.87102658300137,260.1185899169941,260.1185899169941,260.35753729200223,260.3714041669882,260.6193830419943,260.6193830419943,260.85927362499933,260.8647270419897,261.1133114169934,261.1192257919902,261.3588531669957,261.3644587079907,None,259.3914483749977,259.88830187499116,262.3726344579918,None,262.3726344579918,None,right,1.569282791999285,262.3726344579918,None,262.3726344579918,None,,,,,,,,,,,,,,,,,,,,,,,yasmin,2023_Jun_18_1605,working_memory,2021.2.3,None,
golf_course_309.jpg,golf_course_16.jpg,golf_course_309.jpg,right,playground_36.jpg,bridge_169.jpg,golf_course_309.jpg,badlands_10.jpg,mountain_204.jpg,highway_37.jpg,2,golf_course_16.jpg,0,golf,,,,,0,30,30,30,,,,,,,,,,,,,,,,,,,,,,,,,,,,,,,,,,,,,,,,,,,,,,,,,,,,,264.4896441669989,264.72673908299475,264.7461212079943,264.98775600000226,264.98775600000226,265.2285461249994,265.24223829199036,265.48448287499195,265.48448287499195,265.734432207988,265.74053620798804,265.97909274999984,265.9853589999984,None,264.00736470799893,264.5068553329911,266.9814092500019,None,266.9814092500019,None,left,0.8580304579954827,266.9814092500019,None,266.9814092500019,None,,,,,,,,,,,,,,,,,,,,,,,yasmin,2023_Jun_18_1605,working_memory,2021.2.3,None,
bridge_250.jpg,bridge_134.jpg,bridge_250.jpg,right,highway_313.jpg,badlands_128.jpg,bridge_250.jpg,playground_154.jpg,mountain_135.jpg,golf_course_0.jpg,2,bridge_134.jpg,0,bridge,,,,,0,31,31,31,,,,,,,,,,,,,,,,,,,,,,,,,,,,,,,,,,,,,,,,,,,,,,,,,,,,,268.3806573749898,268.618237082992,268.63772945800156,268.87875091699243,268.87875091699243,269.118156749988,269.13862283299386,269.3805088329973,269.3805088329973,269.61840758299513,269.63883445799,269.87690762498823,269.87690762498823,None,267.9058187920018,268.40109487499285,270.8805832499929,None,270.8805832499929,None,left,3.273482500007958,270.8805832499929,None,270.8805832499929,None,,,,,,,,,,,,,,,,,,,,,,,yasmin,2023_Jun_18_1605,working_memory,2021.2.3,None,
golf_course_214.jpg,golf_course_312.jpg,golf_course_214.jpg,right,mountain_43.jpg,bridge_52.jpg,playground_126.jpg,golf_course_214.jpg,badlands_120.jpg,highway_274.jpg,3,golf_course_312.jpg,0,golf,,,,,0,32,32,32,,,,,,,,,,,,,,,,,,,,,,,,,,,,,,,,,,,,,,,,,,,,,,,,,,,,,274.6923886250006,274.92959804199927,274.949233249994,275.19150504199206,275.19150504199206,275.4383818329952,275.44372316700174,275.68387820800126,275.6898804999946,275.9341873329977,275.93938174999494,276.1858213749947,276.19131670799106,None,274.21569250000175,274.71368833299493,277.18886733299587,None,277.18886733299587,None,right,1.5388643339974806,277.18886733299587,None,277.18886733299587,None,,,,,,,,,,,,,,,,,,,,,,,yasmin,2023_Jun_18_1605,working_memory,2021.2.3,None,
playground_219.jpg,playground_219.jpg,playground_205.jpg,left,playground_219.jpg,mountain_146.jpg,badlands_174.jpg,golf_course_116.jpg,highway_287.jpg,bridge_68.jpg,0,playground_205.jpg,1,playground,,,,,0,33,33,33,,,,,,,,,,,,,,,,,,,,,,,,,,,,,,,,,,,,,,,,,,,,,,,,,,,,,279.2673396249884,279.50552312500076,279.51977333299874,279.7644203749951,279.7644203749951,280.0049449169892,280.0199258329958,280.26742858299986,280.26742858299986,280.5184442919999,280.5184442919999,280.76456916698953,280.76456916698953,None,278.7906744579959,279.2910355419881,281.7686599169974,None,281.7686599169974,None,left,2.5929250000044703,281.7686599169974,None,281.7686599169974,None,,,,,,,,,,,,,,,,,,,,,,,yasmin,2023_Jun_18_1605,working_memory,2021.2.3,None,
bridge_128.jpg,bridge_128.jpg,bridge_244.jpg,left,highway_102.jpg,playground_233.jpg,bridge_128.jpg,mountain_160.jpg,badlands_20.jpg,golf_course_238.jpg,2,bridge_244.jpg,1,bridge,,,,,0,34,34,34,,,,,,,,,,,,,,,,,,,,,,,,,,,,,,,,,,,,,,,,,,,,,,,,,,,,,284.90181658299116,285.14923212499707,285.1549416670023,285.39377212499676,285.4142739169911,285.65438479199656,285.65438479199656,285.89358179199917,285.9151669580024,286.1552129999909,286.1552129999909,286.3953472919966,286.40168533299584,None,284.43134287498833,284.9202999580011,287.4074864169961,None,287.4074864169961,None,right,1.8657444169948576,287.4074864169961,None,287.4074864169961,None,,,,,,,,,,,,,,,,,,,,,,,yasmin,2023_Jun_18_1605,working_memory,2021.2.3,None,
highway_209.jpg,highway_209.jpg,highway_122.jpg,left,bridge_218.jpg,badlands_9.jpg,mountain_307.jpg,highway_209.jpg,golf_course_199.jpg,playground_124.jpg,3,highway_122.jpg,1,highway,,,,,0,35,35,35,,,,,,,,,,,,,,,,,,,,,,,,,,,,,,,,,,,,,,,,,,,,,,,,,,,,,289.81436912500067,290.0512809579959,290.06442233300186,290.3056641250005,290.3056641250005,290.5464555419894,290.56523274999927,290.80557712499285,290.80557712499285,291.04314054199494,291.0627138330019,291.30165812499763,291.3144087499968,None,289.33653983299155,289.83414249999623,292.3122235829942,None,292.3122235829942,None,left,1.5414121249923483,292.3122235829942,None,292.3122235829942,None,,,,,,,,,,,,,,,,,,,,,,,yasmin,2023_Jun_18_1605,working_memory,2021.2.3,None,
playground_144.jpg,playground_137.jpg,playground_144.jpg,right,playground_144.jpg,badlands_164.jpg,mountain_166.jpg,highway_305.jpg,bridge_193.jpg,golf_course_3.jpg,0,playground_137.jpg,0,playground,,,,,0,36,36,36,,,,,,,,,,,,,,,,,,,,,,,,,,,,,,,,,,,,,,,,,,,,,,,,,,,,,294.3976944999886,294.6384751250007,294.6591752079985,294.89997129199037,294.89997129199037,295.1387592499959,295.1588743329921,295.3994639579905,295.3994639579905,295.6396546670003,295.657099249991,295.9017077499884,295.9017077499884,None,293.92543354199734,294.41296716699435,296.91223458299646,None,296.91223458299646,None,right,2.0252816249994794,296.91223458299646,None,296.91223458299646,None,,,,,,,,,,,,,,,,,,,,,,,yasmin,2023_Jun_18_1605,working_memory,2021.2.3,None,
mountain_110.jpg,mountain_157.jpg,mountain_110.jpg,right,bridge_24.jpg,badlands_80.jpg,golf_course_282.jpg,highway_246.jpg,mountain_110.jpg,playground_241.jpg,4,mountain_157.jpg,0,mountain,,,,,0,37,37,37,,,,,,,,,,,,,,,,,,,,,,,,,,,,,,,,,,,,,,,,,,,,,,,,,,,,,299.4858984169987,299.73396954199416,299.73396954199416,299.9767515829881,299.9767515829881,300.22440791699046,300.23001120799745,300.4715130830009,300.4776450419886,300.72837099999015,300.72837099999015,300.9755582499929,300.98309891700046,None,299.00516454198805,299.50187300000107,301.9804011249944,None,301.9804011249944,None,right,0.9686096249934053,301.9804011249944,None,301.9804011249944,None,,,,,,,,,,,,,,,,,,,,,,,yasmin,2023_Jun_18_1605,working_memory,2021.2.3,None,
highway_394.jpg,highway_204.jpg,highway_394.jpg,right,mountain_29.jpg,playground_118.jpg,highway_394.jpg,badlands_81.jpg,golf_course_71.jpg,bridge_180.jpg,2,highway_204.jpg,0,highway,,,,,0,38,38,38,,,,,,,,,,,,,,,,,,,,,,,,,,,,,,,,,,,,,,,,,,,,,,,,,,,,,303.4897519579972,303.7287377920002,303.7477647499909,303.9922096669907,303.9922096669907,304.2370809580025,304.2468802499934,304.4851202079881,304.4989879999921,304.7396974579897,304.7396974579897,304.9839567079907,304.9986759579915,None,303.01667312499194,303.509779,305.99740658298833,None,305.99740658298833,None,left,1.286155833004159,305.99740658298833,None,305.99740658298833,None,,,,,,,,,,,,,,,,,,,,,,,yasmin,2023_Jun_18_1605,working_memory,2021.2.3,None,
golf_course_87.jpg,golf_course_161.jpg,golf_course_87.jpg,right,golf_course_87.jpg,bridge_238.jpg,mountain_89.jpg,playground_176.jpg,highway_138.jpg,badlands_213.jpg,0,golf_course_161.jpg,1,golf,,,,,0,39,39,39,,,,,,,,,,,,,,,,,,,,,,,,,,,,,,,,,,,,,,,,,,,,,,,,,,,,,307.83010074999765,308.07736316700175,308.07736316700175,308.3179915419896,308.33483241699287,308.5827132080012,308.5881540830014,308.8283885419951,308.8283885419951,309.07562591700116,309.0809672079922,309.326846291995,309.326846291995,None,307.3557498329901,307.8533749999915,310.3262197919976,None,310.3262197919976,None,right,0.701878250009031,310.3262197919976,None,310.3262197919976,None,,,,,,,,,,,,,,,,,,,,,,,yasmin,2023_Jun_18_1605,working_memory,2021.2.3,None,
mountain_156.jpg,mountain_156.jpg,mountain_128.jpg,left,bridge_87.jpg,highway_308.jpg,playground_78.jpg,mountain_156.jpg,badlands_183.jpg,golf_course_219.jpg,3,mountain_128.jpg,0,mountain,,,,,0,40,40,40,,,,,,,,,,,,,,,,,,,,,,,,,,,,,,,,,,,,,,,,,,,,,,,,,,,,,311.56571129200165,311.8067857499991,311.8067857499991,312.0434472920024,312.0640158329916,312.3052579579962,312.31075074999535,312.55557687499095,312.5599302079936,312.7977229579992,312.81545424999786,313.0526005829888,313.06529908299854,None,311.08789479199913,311.5839319999941,314.0636961249984,None,314.0636961249984,None,left,0.716318291000789,314.0636961249984,None,314.0636961249984,None,,,,,,,,,,,,,,,,,,,,,,,yasmin,2023_Jun_18_1605,working_memory,2021.2.3,None,
badlands_137.jpg,badlands_137.jpg,badlands_194.jpg,left,bridge_197.jpg,playground_235.jpg,golf_course_179.jpg,badlands_137.jpg,mountain_277.jpg,highway_53.jpg,3,badlands_194.jpg,0,badlands,,,,,0,41,41,41,,,,,,,,,,,,,,,,,,,,,,,,,,,,,,,,,,,,,,,,,,,,,,,,,,,,,315.3189766669966,315.5654818329931,315.57065012499515,315.81024179200176,315.82936354199774,316.078802249991,316.078802249991,316.32183791699936,316.32183791699936,316.5588507499924,316.57872491699527,316.82475454200176,316.82475454200176,None,314.84940241699223,315.3479449169972,317.82289591699373,None,317.82289591699373,None,left,1.6793355830013752,317.82289591699373,None,317.82289591699373,None,,,,,,,,,,,,,,,,,,,,,,,yasmin,2023_Jun_18_1605,working_memory,2021.2.3,None,
golf_course_188.jpg,golf_course_160.jpg,golf_course_188.jpg,right,playground_49.jpg,mountain_120.jpg,highway_290.jpg,golf_course_188.jpg,bridge_4.jpg,badlands_211.jpg,3,golf_course_160.jpg,1,golf,,,,,0,42,42,42,,,,,,,,,,,,,,,,,,,,,,,,,,,,,,,,,,,,,,,,,,,,,,,,,,,,,320.0529776249896,320.29908799999976,320.29908799999976,320.54461712499324,320.5499029579951,320.79056687498814,320.79056687498814,321.039327749997,321.0442449999973,321.2895626669924,321.2895626669924,321.53221599999233,321.5524563749932,None,319.5693575829937,320.0585165419907,322.5395605829981,None,322.5395605829981,None,right,1.0861942500050645,322.5395605829981,None,322.5395605829981,None,,,,,,,,,,,,,,,,,,,,,,,yasmin,2023_Jun_18_1605,working_memory,2021.2.3,None,
badlands_184.jpg,badlands_184.jpg,badlands_228.jpg,left,playground_141.jpg,golf_course_138.jpg,badlands_184.jpg,highway_36.jpg,bridge_62.jpg,mountain_169.jpg,2,badlands_228.jpg,0,badlands,,,,,0,43,43,43,,,,,,,,,,,,,,,,,,,,,,,,,,,,,,,,,,,,,,,,,,,,,,,,,,,,,324.18144379199657,324.42102895799326,324.42102895799326,324.66664879200107,324.67265249999764,324.91818058300123,324.91818058300123,325.16719504199864,325.17286562499066,325.41907904199616,325.41907904199616,325.6623643329949,325.66887108299125,None,323.6960704999947,324.18444383300084,326.6707863749907,None,326.6707863749907,None,left,2.5612653339921962,326.6707863749907,None,326.6707863749907,None,,,,,,,,,,,,,,,,,,,,,,,yasmin,2023_Jun_18_1605,working_memory,2021.2.3,None,
mountain_232.jpg,mountain_3.jpg,mountain_232.jpg,right,highway_148.jpg,golf_course_202.jpg,playground_165.jpg,badlands_138.jpg,mountain_232.jpg,bridge_155.jpg,4,mountain_3.jpg,0,mountain,,,,,0,44,44,44,,,,,,,,,,,,,,,,,,,,,,,,,,,,,,,,,,,,,,,,,,,,,,,,,,,,,329.76838362499257,330.01003387499077,330.0227482499904,330.26349516698974,330.26349516698974,330.51307308299874,330.51307308299874,330.751875499991,330.7718462079938,331.01190970800235,331.01190970800235,331.25298270799976,331.27323145799164,None,329.29368691699347,329.7853150419978,332.2760369579919,None,332.2760369579919,None,right,1.5060135829990031,332.2760369579919,None,332.2760369579919,None,,,,,,,,,,,,,,,,,,,,,,,yasmin,2023_Jun_18_1605,working_memory,2021.2.3,None,
highway_93.jpg,highway_93.jpg,highway_85.jpg,left,bridge_225.jpg,mountain_152.jpg,playground_120.jpg,highway_93.jpg,golf_course_297.jpg,badlands_156.jpg,3,highway_85.jpg,0,highway,,,,,0,45,45,45,,,,,,,,,,,,,,,,,,,,,,,,,,,,,,,,,,,,,,,,,,,,,,,,,,,,,334.33150162499805,334.5729434169916,334.58588800000143,334.82620099998894,334.82620099998894,335.06453099999635,335.08241341699613,335.32243720800034,335.33739054200123,335.5851274579909,335.5851274579909,335.8224573329935,335.83751199999824,None,333.8535098329885,334.3474434999953,336.8236571669986,None,336.8236571669986,None,left,3.9701277499989374,336.8236571669986,None,336.8236571669986,None,,,,,,,,,,,,,,,,,,,,,,,yasmin,2023_Jun_18_1605,working_memory,2021.2.3,None,
highway_294.jpg,highway_294.jpg,highway_203.jpg,left,mountain_126.jpg,highway_294.jpg,golf_course_221.jpg,badlands_201.jpg,playground_196.jpg,bridge_74.jpg,1,highway_203.jpg,0,highway,,,,,0,46,46,46,,,,,,,,,,,,,,,,,,,,,,,,,,,,,,,,,,,,,,,,,,,,,,,,,,,,,341.3491539579991,341.59708066699386,341.59708066699386,341.8363175419945,341.85017424999387,342.09590295799717,342.09590295799717,342.3347342079942,342.3476771249989,342.59525437498814,342.59525437498814,342.848744124989,342.848744124989,None,340.86558291700203,341.35185574999196,343.83463537499483,None,343.83463537499483,None,right,3.572232292004628,343.83463537499483,None,343.83463537499483,None,,,,,,,,,,,,,,,,,,,,,,,yasmin,2023_Jun_18_1605,working_memory,2021.2.3,None,
golf_course_195.jpg,golf_course_25.jpg,golf_course_195.jpg,right,playground_237.jpg,highway_50.jpg,bridge_204.jpg,badlands_180.jpg,golf_course_195.jpg,mountain_302.jpg,4,golf_course_25.jpg,0,golf,,,,,0,47,47,47,,,,,,,,,,,,,,,,,,,,,,,,,,,,,,,,,,,,,,,,,,,,,,,,,,,,,347.95178829198994,348.19346233300166,348.19346233300166,348.43515979198855,348.45218045799993,348.6940827919898,348.6940827919898,348.9360683749983,348.9499236249976,349.198711457997,349.198711457997,349.44623445799516,349.44623445799516,None,347.47056908300146,347.9685036250012,350.4442207079992,None,350.4442207079992,None,right,1.7780021670041606,350.4442207079992,None,350.4442207079992,None,,,,,,,,,,,,,,,,,,,,,,,yasmin,2023_Jun_18_1605,working_memory,2021.2.3,None,
mountain_57.jpg,mountain_138.jpg,mountain_57.jpg,right,mountain_57.jpg,golf_course_176.jpg,badlands_152.jpg,bridge_126.jpg,playground_33.jpg,highway_33.jpg,0,mountain_138.jpg,1,mountain,,,,,0,48,48,48,,,,,,,,,,,,,,,,,,,,,,,,,,,,,,,,,,,,,,,,,,,,,,,,,,,,,352.7686889579927,353.00791079198825,353.02155837499595,353.2595864999894,353.26503620800213,353.51287037499424,353.51851691699994,353.7667583750008,353.7667583750008,354.00606991699897,354.0259769580007,354.2679094579944,354.2679094579944,None,352.29165004199604,352.7880489169911,355.26368175000243,None,355.26368175000243,None,right,1.2226664159970824,355.26368175000243,None,355.26368175000243,None,,,,,,,,,,,,,,,,,,,,,,,yasmin,2023_Jun_18_1605,working_memory,2021.2.3,None,
bridge_108.jpg,bridge_108.jpg,bridge_148.jpg,left,golf_course_226.jpg,badlands_125.jpg,highway_383.jpg,mountain_35.jpg,bridge_108.jpg,playground_63.jpg,4,bridge_148.jpg,1,bridge,,,,,0,49,49,49,,,,,,,,,,,,,,,,,,,,,,,,,,,,,,,,,,,,,,,,,,,,,,,,,,,,,357.02267991699046,357.2688468330016,357.2734463749948,357.5148079999926,357.5321660829941,357.77564249999705,357.77564249999705,358.0143403749971,358.0327267919929,358.27995479200035,358.28606179199414,358.53364604199305,358.53364604199305,None,356.5530729579914,357.0534567919967,359.5301103749953,None,359.5301103749953,None,left,1.373827750008786,359.5301103749953,None,359.5301103749953,None,,,,,,,,,,,,,,,,,,,,,,,yasmin,2023_Jun_18_1605,working_memory,2021.2.3,None,
golf_course_193.jpg,golf_course_193.jpg,golf_course_235.jpg,left,golf_course_193.jpg,mountain_268.jpg,badlands_185.jpg,bridge_106.jpg,playground_140.jpg,highway_172.jpg,0,golf_course_235.jpg,0,golf,,,,,0,50,50,50,,,,,,,,,,,,,,,,,,,,,,,,,,,,,,,,,,,,,,,,,,,,,,,,,,,,,361.4520607919985,361.68780354199407,361.7035484169901,361.94969937499263,361.94969937499263,362.196438916988,362.202713916995,362.4496148749895,362.4496148749895,362.69086295799934,362.7043491249933,362.9518482499989,362.9518482499989,None,360.9691823329922,361.4547852079995,363.95442504200037,None,363.95442504200037,None,right,1.7237931249983376,363.95442504200037,None,363.95442504200037,None,,,,,,,,,,,,,,,,,,,,,,,yasmin,2023_Jun_18_1605,working_memory,2021.2.3,None,
bridge_65.jpg,bridge_181.jpg,bridge_65.jpg,right,mountain_192.jpg,golf_course_241.jpg,playground_195.jpg,bridge_65.jpg,badlands_215.jpg,highway_288.jpg,3,bridge_181.jpg,0,bridge,,,,,0,51,51,51,,,,,,,,,,,,,,,,,,,,,,,,,,,,,,,,,,,,,,,,,,,,,,,,,,,,,366.2229174999957,366.47236583298945,366.47236583298945,366.71720937499776,366.72491945799266,366.9756862919894,366.9756862919894,367.21941858300124,367.21941858300124,367.4588584579906,367.4648310420016,367.71162591699976,367.71821833300055,None,365.74191074998816,366.24180720798904,368.71332145799533,None,368.71332145799533,None,right,1.6883548329933546,368.71332145799533,None,368.71332145799533,None,,,,,,,,,,,,,,,,,,,,,,,yasmin,2023_Jun_18_1605,working_memory,2021.2.3,None,
playground_76.jpg,playground_72.jpg,playground_76.jpg,right,bridge_35.jpg,playground_76.jpg,golf_course_59.jpg,highway_141.jpg,badlands_35.jpg,mountain_143.jpg,1,playground_72.jpg,1,playground,,,,,0,52,52,52,,,,,,,,,,,,,,,,,,,,,,,,,,,,,,,,,,,,,,,,,,,,,,,,,,,,,370.9394954169984,371.1864466249972,371.1918172079895,371.44430295799975,371.44430295799975,371.68065712499083,371.7006168329972,371.93958329199813,371.93958329199813,372.18446458299877,372.18990949999716,372.431398249988,372.45117337499687,None,370.4694504579966,370.9545564579894,373.4453445419931,None,373.4453445419931,None,right,1.1780100420000963,373.4453445419931,None,373.4453445419931,None,,,,,,,,,,,,,,,,,,,,,,,yasmin,2023_Jun_18_1605,working_memory,2021.2.3,None,
golf_course_15.jpg,golf_course_15.jpg,golf_course_97.jpg,left,bridge_120.jpg,mountain_39.jpg,badlands_85.jpg,golf_course_15.jpg,highway_247.jpg,playground_246.jpg,3,golf_course_97.jpg,1,golf,,,,,0,53,53,53,,,,,,,,,,,,,,,,,,,,,,,,,,,,,,,,,,,,,,,,,,,,,,,,,,,,,375.16308995799045,375.4139202919905,375.4139202919905,375.65376016699884,375.6674462499941,375.9122334999993,375.9122334999993,376.1541965829965,376.16067495799507,376.40407516699634,376.41748274999554,376.66478999999526,376.66478999999526,None,374.68892241700087,375.1865847079898,377.6719602919911,None,377.6719602919911,None,left,2.072436957998434,377.6719602919911,None,377.6719602919911,None,,,,,,,,,,,,,,,,,,,,,,,yasmin,2023_Jun_18_1605,working_memory,2021.2.3,None,
badlands_24.jpg,badlands_3.jpg,badlands_24.jpg,right,golf_course_42.jpg,badlands_24.jpg,highway_365.jpg,bridge_112.jpg,playground_258.jpg,mountain_33.jpg,1,badlands_3.jpg,0,badlands,,,,,0,54,54,54,,,,,,,,,,,,,,,,,,,,,,,,,,,,,,,,,,,,,,,,,,,,,,,,,,,,,380.2810147499986,380.52961425000103,380.53521799999,380.772225541994,380.79189616699296,381.03386420800234,381.03386420800234,381.27230391699413,381.2889339999965,381.5368336669926,381.5424437499896,381.7816489169927,381.7816489169927,None,379.80841945800057,380.2967389580008,382.78060366699356,None,382.78060366699356,None,right,1.5991431250004098,382.78060366699356,None,382.78060366699356,None,,,,,,,,,,,,,,,,,,,,,,,yasmin,2023_Jun_18_1605,working_memory,2021.2.3,None,
mountain_123.jpg,mountain_189.jpg,mountain_123.jpg,right,golf_course_137.jpg,badlands_122.jpg,bridge_22.jpg,mountain_123.jpg,playground_103.jpg,highway_29.jpg,3,mountain_189.jpg,1,mountain,,,,,0,55,55,55,,,,,,,,,,,,,,,,,,,,,,,,,,,,,,,,,,,,,,,,,,,,,,,,,,,,,384.9141873329936,385.1557813749969,385.1750943329971,385.41789487499045,385.41789487499045,385.6576087919966,385.6712227919925,385.91581304199644,385.91581304199644,386.15599141699204,386.17590870799904,386.41919454198796,386.41919454198796,None,384.44153662498866,384.9304954580002,387.4163629169925,None,387.4163629169925,None,right,1.0855131249991246,387.4163629169925,None,387.4163629169925,None,,,,,,,,,,,,,,,,,,,,,,,yasmin,2023_Jun_18_1605,working_memory,2021.2.3,None,
bridge_191.jpg,bridge_75.jpg,bridge_191.jpg,right,mountain_294.jpg,golf_course_105.jpg,bridge_191.jpg,badlands_6.jpg,highway_404.jpg,playground_222.jpg,2,bridge_75.jpg,1,bridge,,,,,0,56,56,56,,,,,,,,,,,,,,,,,,,,,,,,,,,,,,,,,,,,,,,,,,,,,,,,,,,,,389.05104541699984,389.2897927079903,389.2897927079903,389.5379176669958,389.5435089169914,389.7807884579961,389.8008827500016,390.04667141698883,390.04667141698883,390.2923584999953,390.2923584999953,390.52991199999815,390.5509711249906,None,388.5698732919991,389.06771308300085,391.5414547919936,None,391.5414547919936,None,right,0.8828463749960065,391.5414547919936,None,391.5414547919936,None,,,,,,,,,,,,,,,,,,,,,,,yasmin,2023_Jun_18_1605,working_memory,2021.2.3,None,
golf_course_78.jpg,golf_course_134.jpg,golf_course_78.jpg,right,golf_course_78.jpg,playground_61.jpg,badlands_173.jpg,highway_154.jpg,bridge_190.jpg,mountain_41.jpg,0,golf_course_134.jpg,0,golf,,,,,0,57,57,57,,,,,,,,,,,,,,,,,,,,,,,,,,,,,,,,,,,,,,,,,,,,,,,,,,,,,392.96137224999256,393.2063625419978,393.2063625419978,393.4543214169971,393.45991383299406,393.69963695800107,393.7130853749986,393.95133370799886,393.95662670799356,394.20468924999295,394.21007737499895,394.4565149580012,394.4565149580012,None,392.4844791249925,392.98505441698944,395.4569009580009,None,395.4569009580009,None,left,2.106873791999533,395.4569009580009,None,395.4569009580009,None,,,,,,,,,,,,,,,,,,,,,,,yasmin,2023_Jun_18_1605,working_memory,2021.2.3,None,
playground_117.jpg,playground_167.jpg,playground_117.jpg,right,golf_course_218.jpg,bridge_1.jpg,playground_117.jpg,mountain_76.jpg,highway_251.jpg,badlands_219.jpg,2,playground_167.jpg,0,playground,,,,,0,58,58,58,,,,,,,,,,,,,,,,,,,,,,,,,,,,,,,,,,,,,,,,,,,,,,,,,,,,,398.1107810419926,398.3585131250002,398.3585131250002,398.59817066699907,398.59817066699907,398.839176124995,398.8594509999966,399.09697829200013,399.09697829200013,399.3345547919889,399.3569650829886,399.5983142920013,399.5983142920013,None,397.62517908299924,398.11428137499024,400.59979687500163,None,400.59979687500163,None,left,2.9661204169970006,400.59979687500163,None,400.59979687500163,None,,,,,,,,,,,,,,,,,,,,,,,yasmin,2023_Jun_18_1605,working_memory,2021.2.3,None,
highway_415.jpg,highway_174.jpg,highway_415.jpg,right,highway_415.jpg,mountain_309.jpg,playground_256.jpg,bridge_266.jpg,badlands_67.jpg,golf_course_120.jpg,0,highway_174.jpg,1,highway,,,,,0,59,59,59,,,,,,,,,,,,,,,,,,,,,,,,,,,,,,,,,,,,,,,,,,,,,,,,,,,,,404.1114083749999,404.35211733299366,404.35211733299366,404.59675716698985,404.59675716698985,404.84582170798967,404.85205062499153,405.0901528749964,405.108964250001,405.35024154199346,405.35980224999366,405.60780929199245,405.60780929199245,None,403.6287810829963,404.1141735419951,406.6063771670015,None,406.6063771670015,None,right,0.9580339159874711,406.6063771670015,None,406.6063771670015,None,,,,,,,,,,,,,,,,,,,,,,,yasmin,2023_Jun_18_1605,working_memory,2021.2.3,None,
,,,,,,,,,,,,,,,,,,,,,,,,,,,,,,,,,,,,,,,,,,,,,,,,,,,,,,,,,,,,,,,,,,,,,,,,,,,,,,,,,,,,,,,,,,,,,,,,,,,,407.57681229199807,None,space,10.819796208001208,407.57681229199807,None,,,,,,,,,,,,,,,,,yasmin,2023_Jun_18_1605,working_memory,2021.2.3,None,
badlands_113.jpg,badlands_113.jpg,badlands_225.jpg,left,mountain_151.jpg,highway_76.jpg,badlands_113.jpg,golf_course_221.jpg,bridge_136.jpg,playground_153.jpg,2,badlands_225.jpg,0,badlands,,,,,,,,,0,0,0,0,,,,,,,,,,,,,,,,,,,,,,,,,,,,,,,,,,,,,,,,,,,,,,,,,,,,,,,,,,,,,,,,,,,,,,,,,,,,,,,,,418.4679401249887,None,418.4679401249887,None,5.040733197556008,1.339603000000352,418.4679401249887,None,418.4679401249887,None,,,,,,,yasmin,2023_Jun_18_1605,working_memory,2021.2.3,None,
badlands_222.jpg,badlands_222.jpg,badlands_34.jpg,left,highway_247.jpg,badlands_222.jpg,mountain_43.jpg,golf_course_333.jpg,bridge_142.jpg,playground_126.jpg,1,badlands_34.jpg,0,badlands,,,,,,,,,0,1,1,1,,,,,,,,,,,,,,,,,,,,,,,,,,,,,,,,,,,,,,,,,,,,,,,,,,,,,,,,,,,,,,,,,,,,,,,,,,,,,,,,,419.8165493330016,None,419.8165493330016,None,5.040733197556008,0.1770127079944359,419.8165493330016,None,419.8165493330016,None,,,,,,,yasmin,2023_Jun_18_1605,working_memory,2021.2.3,None,
highway_359.jpg,highway_359.jpg,highway_379.jpg,left,mountain_268.jpg,badlands_180.jpg,bridge_96.jpg,highway_359.jpg,playground_191.jpg,golf_course_67.jpg,3,highway_379.jpg,1,highway,,,,,,,,,0,2,2,2,,,,,,,,,,,,,,,,,,,,,,,,,,,,,,,,,,,,,,,,,,,,,,,,,,,,,,,,,,,,,,,,,,,,,,,,,,,,,,,,,420.0146476249938,None,420.0146476249938,None,5.040733197556008,0.12074504198972136,420.0146476249938,None,420.0146476249938,None,,,,,,,yasmin,2023_Jun_18_1605,working_memory,2021.2.3,None,
mountain_222.jpg,mountain_244.jpg,mountain_222.jpg,right,mountain_222.jpg,playground_181.jpg,bridge_266.jpg,golf_course_176.jpg,badlands_156.jpg,highway_268.jpg,0,mountain_244.jpg,0,mountain,,,,,,,,,0,3,3,3,,,,,,,,,,,,,,,,,,,,,,,,,,,,,,,,,,,,,,,,,,,,,,,,,,,,,,,,,,,,,,,,,,,,,,,,,,,,,,,,,420.1569620829978,None,420.1569620829978,None,5.040733197556008,0.08730829200067092,420.1569620829978,None,420.1569620829978,None,,,,,,,yasmin,2023_Jun_18_1605,working_memory,2021.2.3,None,
bridge_172.jpg,bridge_172.jpg,bridge_17.jpg,left,golf_course_171.jpg,highway_404.jpg,bridge_172.jpg,playground_83.jpg,mountain_309.jpg,badlands_157.jpg,2,bridge_17.jpg,0,bridge,,,,,,,,,0,4,4,4,,,,,,,,,,,,,,,,,,,,,,,,,,,,,,,,,,,,,,,,,,,,,,,,,,,,,,,,,,,,,,,,,,,,,,,,,,,,,,,,,420.2649940830015,None,420.2649940830015,None,5.040733197556008,0.09575116699852515,420.2649940830015,None,420.2649940830015,None,,,,,,,yasmin,2023_Jun_18_1605,working_memory,2021.2.3,None,
playground_145.jpg,playground_242.jpg,playground_145.jpg,right,playground_145.jpg,highway_9.jpg,bridge_39.jpg,mountain_212.jpg,badlands_79.jpg,golf_course_241.jpg,0,playground_242.jpg,1,playground,,,,,,,,,0,5,5,5,,,,,,,,,,,,,,,,,,,,,,,,,,,,,,,,,,,,,,,,,,,,,,,,,,,,,,,,,,,,,,,,,,,,,,,,,,,,,,,,,420.3815905419906,None,420.3815905419906,None,5.040733197556008,0.0951312919933116,420.3815905419906,None,420.3815905419906,None,,,,,,,yasmin,2023_Jun_18_1605,working_memory,2021.2.3,None,
highway_245.jpg,highway_245.jpg,highway_134.jpg,left,bridge_1.jpg,golf_course_338.jpg,playground_256.jpg,highway_245.jpg,badlands_46.jpg,mountain_166.jpg,3,highway_134.jpg,0,highway,,,,,,,,,0,6,6,6,,,,,,,,,,,,,,,,,,,,,,,,,,,,,,,,,,,,,,,,,,,,,,,,,,,,,,,,,,,,,,,,,,,,,,,,,,,,,,,,,420.49680008299765,None,420.49680008299765,None,5.040733197556008,0.11356991599313915,420.49680008299765,None,420.49680008299765,None,,,,,,,yasmin,2023_Jun_18_1605,working_memory,2021.2.3,None,
mountain_293.jpg,mountain_293.jpg,mountain_47.jpg,left,badlands_183.jpg,golf_course_181.jpg,mountain_293.jpg,playground_222.jpg,bridge_173.jpg,highway_83.jpg,2,mountain_47.jpg,1,mountain,,,,,,,,,0,7,7,7,,,,,,,,,,,,,,,,,,,,,,,,,,,,,,,,,,,,,,,,,,,,,,,,,,,,,,,,,,,,,,,,,,,,,,,,,,,,,,,,,420.63148358299804,None,420.63148358299804,None,5.040733197556008,0.0976821249932982,420.63148358299804,None,420.63148358299804,None,,,,,,,yasmin,2023_Jun_18_1605,working_memory,2021.2.3,None,
bridge_146.jpg,bridge_27.jpg,bridge_146.jpg,right,highway_269.jpg,bridge_146.jpg,golf_course_291.jpg,mountain_35.jpg,badlands_55.jpg,playground_195.jpg,1,bridge_27.jpg,0,bridge,,,,,,,,,0,8,8,8,,,,,,,,,,,,,,,,,,,,,,,,,,,,,,,,,,,,,,,,,,,,,,,,,,,,,,,,,,,,,,,,,,,,,,,,,,,,,,,,,420.7488963749929,None,420.7488963749929,None,5.040733197556008,0.0957475840114057,420.7488963749929,None,420.7488963749929,None,,,,,,,yasmin,2023_Jun_18_1605,working_memory,2021.2.3,None,
playground_257.jpg,playground_257.jpg,playground_215.jpg,left,mountain_198.jpg,highway_15.jpg,badlands_80.jpg,golf_course_282.jpg,playground_257.jpg,bridge_62.jpg,4,playground_215.jpg,1,playground,,,,,,,,,0,9,9,9,,,,,,,,,,,,,,,,,,,,,,,,,,,,,,,,,,,,,,,,,,,,,,,,,,,,,,,,,,,,,,,,,,,,,,,,,,,,,,,,,420.8661025420006,None,420.8661025420006,None,5.040733197556008,0.11126025000703521,420.8661025420006,None,420.8661025420006,None,,,,,,,yasmin,2023_Jun_18_1605,working_memory,2021.2.3,None,
mountain_230.jpg,mountain_230.jpg,mountain_97.jpg,left,golf_course_253.jpg,mountain_230.jpg,highway_81.jpg,playground_47.jpg,badlands_9.jpg,bridge_4.jpg,1,mountain_97.jpg,1,mountain,,,,,,,,,0,10,10,10,,,,,,,,,,,,,,,,,,,,,,,,,,,,,,,,,,,,,,,,,,,,,,,,,,,,,,,,,,,,,,,,,,,,,,,,,,,,,,,,,420.99809045800066,None,420.99809045800066,None,5.040733197556008,0.29627845900540706,420.99809045800066,None,420.99809045800066,None,,,,,,,yasmin,2023_Jun_18_1605,working_memory,2021.2.3,None,
playground_10.jpg,playground_10.jpg,playground_122.jpg,left,highway_226.jpg,golf_course_33.jpg,mountain_38.jpg,playground_10.jpg,bridge_102.jpg,badlands_10.jpg,3,playground_122.jpg,0,playground,,,,,,,,,0,11,11,11,,,,,,,,,,,,,,,,,,,,,,,,,,,,,,,,,,,,,,,,,,,,,,,,,,,,,,,,,,,,,,,,,,,,,,,,,,,,,,,,,421.31581000000006,None,421.31581000000006,None,5.040733197556008,0.10210916699725203,421.31581000000006,None,421.31581000000006,None,,,,,,,yasmin,2023_Jun_18_1605,working_memory,2021.2.3,None,
highway_177.jpg,highway_177.jpg,highway_278.jpg,left,golf_course_202.jpg,playground_14.jpg,highway_177.jpg,bridge_152.jpg,badlands_227.jpg,mountain_192.jpg,2,highway_278.jpg,1,highway,,,,,,,,,0,12,12,12,,,,,,,,,,,,,,,,,,,,,,,,,,,,,,,,,,,,,,,,,,,,,,,,,,,,,,,,,,,,,,,,,,,,,,,,,,,,,,,,,421.4387054169929,None,421.4387054169929,None,5.040733197556008,0.10478424999746494,421.4387054169929,None,421.4387054169929,None,,,,,,,yasmin,2023_Jun_18_1605,working_memory,2021.2.3,None,
badlands_21.jpg,badlands_1.jpg,badlands_21.jpg,right,bridge_72.jpg,badlands_21.jpg,playground_74.jpg,golf_course_56.jpg,mountain_228.jpg,highway_251.jpg,1,badlands_1.jpg,0,badlands,,,,,,,,,0,13,13,13,,,,,,,,,,,,,,,,,,,,,,,,,,,,,,,,,,,,,,,,,,,,,,,,,,,,,,,,,,,,,,,,,,,,,,,,,,,,,,,,,421.56681508300244,None,421.56681508300244,None,5.040733197556008,0.335710833009216,421.56681508300244,None,421.56681508300244,None,,,,,,,yasmin,2023_Jun_18_1605,working_memory,2021.2.3,None,
playground_131.jpg,playground_164.jpg,playground_131.jpg,right,highway_101.jpg,golf_course_166.jpg,bridge_117.jpg,mountain_180.jpg,playground_131.jpg,badlands_27.jpg,4,playground_164.jpg,1,playground,,,,,,,,,0,14,14,14,,,,,,,,,,,,,,,,,,,,,,,,,,,,,,,,,,,,,,,,,,,,,,,,,,,,,,,,,,,,,,,,,,,,,,,,,,,,,,,,,421.9242693749984,None,421.9242693749984,None,5.040733197556008,0.10213345800002571,421.9242693749984,None,421.9242693749984,None,,,,,,,yasmin,2023_Jun_18_1605,working_memory,2021.2.3,None,
bridge_256.jpg,bridge_256.jpg,bridge_211.jpg,left,highway_53.jpg,mountain_250.jpg,bridge_256.jpg,playground_165.jpg,golf_course_300.jpg,badlands_128.jpg,2,bridge_211.jpg,1,bridge,,,,,,,,,0,15,15,15,,,,,,,,,,,,,,,,,,,,,,,,,,,,,,,,,,,,,,,,,,,,,,,,,,,,,,,,,,,,,,,,,,,,,,,,,,,,,,,,,422.0467876249895,None,422.0467876249895,None,5.040733197556008,0.13912408400210552,422.0467876249895,None,422.0467876249895,None,,,,,,,yasmin,2023_Jun_18_1605,working_memory,2021.2.3,None,
badlands_52.jpg,badlands_94.jpg,badlands_52.jpg,right,highway_399.jpg,golf_course_174.jpg,mountain_91.jpg,badlands_52.jpg,bridge_140.jpg,playground_154.jpg,3,badlands_94.jpg,0,badlands,,,,,,,,,0,16,16,16,,,,,,,,,,,,,,,,,,,,,,,,,,,,,,,,,,,,,,,,,,,,,,,,,,,,,,,,,,,,,,,,,,,,,,,,,,,,,,,,,422.20801933298935,None,422.20801933298935,None,5.040733197556008,0.09513924999919254,422.20801933298935,None,422.20801933298935,None,,,,,,,yasmin,2023_Jun_18_1605,working_memory,2021.2.3,None,
badlands_23.jpg,badlands_114.jpg,badlands_23.jpg,right,highway_257.jpg,badlands_23.jpg,golf_course_194.jpg,mountain_251.jpg,playground_140.jpg,bridge_144.jpg,1,badlands_114.jpg,0,badlands,,,,,,,,,0,17,17,17,,,,,,,,,,,,,,,,,,,,,,,,,,,,,,,,,,,,,,,,,,,,,,,,,,,,,,,,,,,,,,,,,,,,,,,,,,,,,,,,,422.3231941249978,None,422.3231941249978,None,5.040733197556008,0.1044997080025496,422.3231941249978,None,422.3231941249978,None,,,,,,,yasmin,2023_Jun_18_1605,working_memory,2021.2.3,None,
mountain_101.jpg,mountain_221.jpg,mountain_101.jpg,right,bridge_155.jpg,playground_33.jpg,highway_287.jpg,mountain_101.jpg,badlands_44.jpg,golf_course_127.jpg,3,mountain_221.jpg,1,mountain,,,,,,,,,0,18,18,18,,,,,,,,,,,,,,,,,,,,,,,,,,,,,,,,,,,,,,,,,,,,,,,,,,,,,,,,,,,,,,,,,,,,,,,,,,,,,,,,,422.4476963749912,None,422.4476963749912,None,5.040733197556008,0.10577333300898317,422.4476963749912,None,422.4476963749912,None,,,,,,,yasmin,2023_Jun_18_1605,working_memory,2021.2.3,None,
badlands_221.jpg,badlands_207.jpg,badlands_221.jpg,right,golf_course_328.jpg,playground_36.jpg,highway_78.jpg,badlands_221.jpg,mountain_152.jpg,bridge_87.jpg,3,badlands_207.jpg,1,badlands,,,,,,,,,0,19,19,19,,,,,,,,,,,,,,,,,,,,,,,,,,,,,,,,,,,,,,,,,,,,,,,,,,,,,,,,,,,,,,,,,,,,,,,,,,,,,,,,,422.5726883749885,None,422.5726883749885,None,5.040733197556008,0.22030379199713934,422.5726883749885,None,422.5726883749885,None,,,,,,,yasmin,2023_Jun_18_1605,working_memory,2021.2.3,None,
mountain_154.jpg,mountain_154.jpg,mountain_95.jpg,left,golf_course_305.jpg,playground_204.jpg,bridge_74.jpg,mountain_154.jpg,badlands_166.jpg,highway_288.jpg,3,mountain_95.jpg,1,mountain,,,,,,,,,0,20,20,20,,,,,,,,,,,,,,,,,,,,,,,,,,,,,,,,,,,,,,,,,,,,,,,,,,,,,,,,,,,,,,,,,,,,,,,,,,,,,,,,,422.8147653749911,None,422.8147653749911,None,5.040733197556008,0.33011166600044817,422.8147653749911,None,422.8147653749911,None,,,,,,,yasmin,2023_Jun_18_1605,working_memory,2021.2.3,None,
bridge_91.jpg,bridge_253.jpg,bridge_91.jpg,right,golf_course_55.jpg,playground_98.jpg,bridge_91.jpg,highway_295.jpg,mountain_41.jpg,badlands_33.jpg,2,bridge_253.jpg,0,bridge,,,,,,,,,0,21,21,21,,,,,,,,,,,,,,,,,,,,,,,,,,,,,,,,,,,,,,,,,,,,,,,,,,,,,,,,,,,,,,,,,,,,,,,,,,,,,,,,,423.16710816699197,None,423.16710816699197,None,5.040733197556008,0.13448166599846445,423.16710816699197,None,423.16710816699197,None,,,,,,,yasmin,2023_Jun_18_1605,working_memory,2021.2.3,None,
highway_273.jpg,highway_273.jpg,highway_384.jpg,left,bridge_22.jpg,mountain_146.jpg,badlands_217.jpg,highway_273.jpg,golf_course_116.jpg,playground_55.jpg,3,highway_384.jpg,0,highway,,,,,,,,,0,22,22,22,,,,,,,,,,,,,,,,,,,,,,,,,,,,,,,,,,,,,,,,,,,,,,,,,,,,,,,,,,,,,,,,,,,,,,,,,,,,,,,,,423.3221634579968,None,423.3221634579968,None,5.040733197556008,0.23032799999054987,423.3221634579968,None,423.3221634579968,None,,,,,,,yasmin,2023_Jun_18_1605,working_memory,2021.2.3,None,
playground_60.jpg,playground_60.jpg,playground_244.jpg,left,playground_60.jpg,highway_178.jpg,badlands_121.jpg,mountain_126.jpg,golf_course_179.jpg,bridge_118.jpg,0,playground_244.jpg,1,playground,,,,,,,,,0,23,23,23,,,,,,,,,,,,,,,,,,,,,,,,,,,,,,,,,,,,,,,,,,,,,,,,,,,,,,,,,,,,,,,,,,,,,,,,,,,,,,,,,423.57351545798883,None,423.57351545798883,None,5.040733197556008,0.09132366700214334,423.57351545798883,None,423.57351545798883,None,,,,,,,yasmin,2023_Jun_18_1605,working_memory,2021.2.3,None,
golf_course_217.jpg,golf_course_35.jpg,golf_course_217.jpg,right,playground_37.jpg,mountain_199.jpg,bridge_193.jpg,golf_course_217.jpg,highway_17.jpg,badlands_174.jpg,3,golf_course_35.jpg,0,golf,,,,,,,,,0,24,24,24,,,,,,,,,,,,,,,,,,,,,,,,,,,,,,,,,,,,,,,,,,,,,,,,,,,,,,,,,,,,,,,,,,,,,,,,,,,,,,,,,423.68702262498846,None,423.68702262498846,None,5.040733197556008,0.10305179099668749,423.68702262498846,None,423.68702262498846,None,,,,,,,yasmin,2023_Jun_18_1605,working_memory,2021.2.3,None,
playground_240.jpg,playground_40.jpg,playground_240.jpg,right,mountain_226.jpg,highway_265.jpg,playground_240.jpg,golf_course_313.jpg,badlands_104.jpg,bridge_79.jpg,2,playground_40.jpg,1,playground,,,,,,,,,0,25,25,25,,,,,,,,,,,,,,,,,,,,,,,,,,,,,,,,,,,,,,,,,,,,,,,,,,,,,,,,,,,,,,,,,,,,,,,,,,,,,,,,,423.81060691698804,None,423.81060691698804,None,5.040733197556008,0.09009174999664538,423.81060691698804,None,423.81060691698804,None,,,,,,,yasmin,2023_Jun_18_1605,working_memory,2021.2.3,None,
bridge_202.jpg,bridge_202.jpg,bridge_38.jpg,left,highway_138.jpg,bridge_202.jpg,mountain_29.jpg,badlands_16.jpg,golf_course_105.jpg,playground_246.jpg,1,bridge_38.jpg,1,bridge,,,,,,,,,0,26,26,26,,,,,,,,,,,,,,,,,,,,,,,,,,,,,,,,,,,,,,,,,,,,,,,,,,,,,,,,,,,,,,,,,,,,,,,,,,,,,,,,,423.92149745799543,None,423.92149745799543,None,5.040733197556008,0.1225117499998305,423.92149745799543,None,423.92149745799543,None,,,,,,,yasmin,2023_Jun_18_1605,working_memory,2021.2.3,None,
golf_course_331.jpg,golf_course_331.jpg,golf_course_26.jpg,left,mountain_169.jpg,golf_course_331.jpg,playground_258.jpg,bridge_234.jpg,highway_148.jpg,badlands_122.jpg,1,golf_course_26.jpg,1,golf,,,,,,,,,0,27,27,27,,,,,,,,,,,,,,,,,,,,,,,,,,,,,,,,,,,,,,,,,,,,,,,,,,,,,,,,,,,,,,,,,,,,,,,,,,,,,,,,,424.0639559580013,None,424.0639559580013,None,5.040733197556008,0.21258266699442174,424.0639559580013,None,424.0639559580013,None,,,,,,,yasmin,2023_Jun_18_1605,working_memory,2021.2.3,None,
badlands_70.jpg,badlands_70.jpg,badlands_119.jpg,left,bridge_112.jpg,mountain_307.jpg,golf_course_238.jpg,badlands_70.jpg,highway_383.jpg,playground_233.jpg,3,badlands_119.jpg,1,badlands,,,,,,,,,0,28,28,28,,,,,,,,,,,,,,,,,,,,,,,,,,,,,,,,,,,,,,,,,,,,,,,,,,,,,,,,,,,,,,,,,,,,,,,,,,,,,,,,,424.2972429169895,None,424.2972429169895,None,5.040733197556008,0.15450779200182296,424.2972429169895,None,424.2972429169895,None,,,,,,,yasmin,2023_Jun_18_1605,working_memory,2021.2.3,None,
highway_156.jpg,highway_156.jpg,highway_293.jpg,left,playground_6.jpg,highway_156.jpg,badlands_6.jpg,bridge_45.jpg,golf_course_120.jpg,mountain_102.jpg,1,highway_293.jpg,1,highway,,,,,,,,,0,29,29,29,,,,,,,,,,,,,,,,,,,,,,,,,,,,,,,,,,,,,,,,,,,,,,,,,,,,,,,,,,,,,,,,,,,,,,,,,,,,,,,,,424.47099683299894,None,424.47099683299894,None,5.040733197556008,0.13056174998928327,424.47099683299894,None,424.47099683299894,None,,,,,,,yasmin,2023_Jun_18_1605,working_memory,2021.2.3,None,
golf_course_309.jpg,golf_course_209.jpg,golf_course_309.jpg,right,highway_354.jpg,playground_15.jpg,mountain_187.jpg,badlands_216.jpg,golf_course_309.jpg,bridge_133.jpg,4,golf_course_209.jpg,1,golf,,,,,,,,,0,30,30,30,,,,,,,,,,,,,,,,,,,,,,,,,,,,,,,,,,,,,,,,,,,,,,,,,,,,,,,,,,,,,,,,,,,,,,,,,,,,,,,,,424.62153395799396,None,424.62153395799396,None,5.040733197556008,0.1214451249979902,424.62153395799396,None,424.62153395799396,None,,,,,,,yasmin,2023_Jun_18_1605,working_memory,2021.2.3,None,
bridge_250.jpg,bridge_250.jpg,bridge_134.jpg,left,golf_course_196.jpg,highway_30.jpg,bridge_250.jpg,mountain_40.jpg,playground_249.jpg,badlands_97.jpg,2,bridge_134.jpg,0,bridge,,,,,,,,,0,31,31,31,,,,,,,,,,,,,,,,,,,,,,,,,,,,,,,,,,,,,,,,,,,,,,,,,,,,,,,,,,,,,,,,,,,,,,,,,,,,,,,,,424.76199816699955,None,424.76199816699955,None,5.024439918533605,0.3828300000022864,424.76199816699955,None,424.76199816699955,None,,,,,,,yasmin,2023_Jun_18_1605,working_memory,2021.2.3,None,
golf_course_214.jpg,golf_course_312.jpg,golf_course_214.jpg,right,highway_102.jpg,golf_course_214.jpg,playground_176.jpg,bridge_164.jpg,badlands_171.jpg,mountain_253.jpg,1,golf_course_312.jpg,0,golf,,,,,,,,,0,32,32,32,,,,,,,,,,,,,,,,,,,,,,,,,,,,,,,,,,,,,,,,,,,,,,,,,,,,,,,,,,,,,,,,,,,,,,,,,,,,,,,,,425.16344916699745,None,425.16344916699745,None,5.024439918533605,0.14653245799127035,425.16344916699745,None,425.16344916699745,None,,,,,,,yasmin,2023_Jun_18_1605,working_memory,2021.2.3,None,
playground_219.jpg,playground_21.jpg,playground_219.jpg,right,golf_course_252.jpg,badlands_120.jpg,bridge_158.jpg,playground_219.jpg,highway_33.jpg,mountain_202.jpg,3,playground_21.jpg,0,playground,,,,,,,,,0,33,33,33,,,,,,,,,,,,,,,,,,,,,,,,,,,,,,,,,,,,,,,,,,,,,,,,,,,,,,,,,,,,,,,,,,,,,,,,,,,,,,,,,425.3313517499919,None,425.3313517499919,None,5.032586558044806,0.18683754200174008,425.3313517499919,None,425.3313517499919,None,,,,,,,yasmin,2023_Jun_18_1605,working_memory,2021.2.3,None,
bridge_128.jpg,bridge_61.jpg,bridge_128.jpg,right,bridge_128.jpg,highway_154.jpg,badlands_35.jpg,golf_course_137.jpg,mountain_39.jpg,playground_162.jpg,0,bridge_61.jpg,0,bridge,,,,,,,,,0,34,34,34,,,,,,,,,,,,,,,,,,,,,,,,,,,,,,,,,,,,,,,,,,,,,,,,,,,,,,,,,,,,,,,,,,,,,,,,,,,,,,,,,425.5394902919943,None,425.5394902919943,None,5.032586558044806,0.1291624160076026,425.5394902919943,None,425.5394902919943,None,,,,,,,yasmin,2023_Jun_18_1605,working_memory,2021.2.3,None,
highway_209.jpg,highway_209.jpg,highway_122.jpg,left,bridge_52.jpg,playground_78.jpg,golf_course_41.jpg,badlands_47.jpg,highway_209.jpg,mountain_33.jpg,4,highway_122.jpg,1,highway,,,,,,,,,0,35,35,35,,,,,,,,,,,,,,,,,,,,,,,,,,,,,,,,,,,,,,,,,,,,,,,,,,,,,,,,,,,,,,,,,,,,,,,,,,,,,,,,,425.6873523329996,None,425.6873523329996,None,5.032586558044806,0.13070629200956319,425.6873523329996,None,425.6873523329996,None,,,,,,,yasmin,2023_Jun_18_1605,working_memory,2021.2.3,None,
playground_144.jpg,playground_144.jpg,playground_65.jpg,left,badlands_215.jpg,mountain_88.jpg,golf_course_102.jpg,playground_144.jpg,bridge_238.jpg,highway_274.jpg,3,playground_65.jpg,1,playground,,,,,,,,,0,36,36,36,,,,,,,,,,,,,,,,,,,,,,,,,,,,,,,,,,,,,,,,,,,,,,,,,,,,,,,,,,,,,,,,,,,,,,,,,,,,,,,,,425.8401321669953,None,425.8401321669953,None,5.032586558044806,0.20298133300093468,425.8401321669953,None,425.8401321669953,None,,,,,,,yasmin,2023_Jun_18_1605,working_memory,2021.2.3,None,
mountain_110.jpg,mountain_157.jpg,mountain_110.jpg,right,golf_course_42.jpg,playground_103.jpg,mountain_110.jpg,bridge_86.jpg,badlands_60.jpg,highway_342.jpg,2,mountain_157.jpg,0,mountain,,,,,,,,,0,37,37,37,,,,,,,,,,,,,,,,,,,,,,,,,,,,,,,,,,,,,,,,,,,,,,,,,,,,,,,,,,,,,,,,,,,,,,,,,,,,,,,,,426.0620079999935,None,426.0620079999935,None,5.032586558044806,0.12239170799148269,426.0620079999935,None,426.0620079999935,None,,,,,,,yasmin,2023_Jun_18_1605,working_memory,2021.2.3,None,
highway_394.jpg,highway_204.jpg,highway_394.jpg,right,highway_394.jpg,golf_course_144.jpg,playground_68.jpg,badlands_26.jpg,bridge_218.jpg,mountain_32.jpg,0,highway_204.jpg,0,highway,,,,,,,,,0,38,38,38,,,,,,,,,,,,,,,,,,,,,,,,,,,,,,,,,,,,,,,,,,,,,,,,,,,,,,,,,,,,,,,,,,,,,,,,,,,,,,,,,426.2037986249925,None,426.2037986249925,None,5.032586558044806,0.28180620800412726,426.2037986249925,None,426.2037986249925,None,,,,,,,yasmin,2023_Jun_18_1605,working_memory,2021.2.3,None,
golf_course_87.jpg,golf_course_87.jpg,golf_course_161.jpg,left,golf_course_87.jpg,mountain_190.jpg,bridge_124.jpg,highway_58.jpg,badlands_152.jpg,playground_237.jpg,0,golf_course_161.jpg,1,golf,,,,,,,,,0,39,39,39,,,,,,,,,,,,,,,,,,,,,,,,,,,,,,,,,,,,,,,,,,,,,,,,,,,,,,,,,,,,,,,,,,,,,,,,,,,,,,,,,426.5061716249911,None,426.5061716249911,None,5.032586558044806,0.146628917005728,426.5061716249911,None,426.5061716249911,None,,,,,,,yasmin,2023_Jun_18_1605,working_memory,2021.2.3,None,
mountain_156.jpg,mountain_128.jpg,mountain_156.jpg,right,playground_64.jpg,bridge_180.jpg,badlands_72.jpg,mountain_156.jpg,highway_319.jpg,golf_course_23.jpg,3,mountain_128.jpg,0,mountain,,,,,,,,,0,40,40,40,,,,,,,,,,,,,,,,,,,,,,,,,,,,,,,,,,,,,,,,,,,,,,,,,,,,,,,,,,,,,,,,,,,,,,,,,,,,,,,,,426.6708607920009,None,426.6708607920009,None,5.032586558044806,0.1322738750022836,426.6708607920009,None,426.6708607920009,None,,,,,,,yasmin,2023_Jun_18_1605,working_memory,2021.2.3,None,
badlands_137.jpg,badlands_194.jpg,badlands_137.jpg,right,highway_107.jpg,bridge_212.jpg,mountain_206.jpg,badlands_137.jpg,playground_63.jpg,golf_course_265.jpg,3,badlands_194.jpg,0,badlands,,,,,,,,,0,41,41,41,,,,,,,,,,,,,,,,,,,,,,,,,,,,,,,,,,,,,,,,,,,,,,,,,,,,,,,,,,,,,,,,,,,,,,,,,,,,,,,,,426.82129920799343,None,426.82129920799343,None,5.032586558044806,0.0975661249976838,426.82129920799343,None,426.82129920799343,None,,,,,,,yasmin,2023_Jun_18_1605,working_memory,2021.2.3,None,
golf_course_188.jpg,golf_course_157.jpg,golf_course_188.jpg,right,highway_199.jpg,playground_227.jpg,badlands_54.jpg,bridge_228.jpg,golf_course_188.jpg,mountain_62.jpg,4,golf_course_157.jpg,0,golf,,,,,,,,,0,42,42,42,,,,,,,,,,,,,,,,,,,,,,,,,,,,,,,,,,,,,,,,,,,,,,,,,,,,,,,,,,,,,,,,,,,,,,,,,,,,,,,,,426.9387887079938,None,426.9387887079938,None,5.032586558044806,0.12135016699903645,426.9387887079938,None,426.9387887079938,None,,,,,,,yasmin,2023_Jun_18_1605,working_memory,2021.2.3,None,
badlands_184.jpg,badlands_184.jpg,badlands_103.jpg,left,playground_235.jpg,golf_course_342.jpg,bridge_197.jpg,mountain_294.jpg,badlands_184.jpg,highway_308.jpg,4,badlands_103.jpg,1,badlands,,,,,,,,,0,43,43,43,,,,,,,,,,,,,,,,,,,,,,,,,,,,,,,,,,,,,,,,,,,,,,,,,,,,,,,,,,,,,,,,,,,,,,,,,,,,,,,,,427.0796930829965,None,427.0796930829965,None,5.032586558044806,0.13004579200060107,427.0796930829965,None,427.0796930829965,None,,,,,,,yasmin,2023_Jun_18_1605,working_memory,2021.2.3,None,
mountain_232.jpg,mountain_232.jpg,mountain_3.jpg,left,golf_course_128.jpg,playground_124.jpg,badlands_170.jpg,mountain_232.jpg,bridge_147.jpg,highway_305.jpg,3,mountain_3.jpg,0,mountain,,,,,,,,,0,44,44,44,,,,,,,,,,,,,,,,,,,,,,,,,,,,,,,,,,,,,,,,,,,,,,,,,,,,,,,,,,,,,,,,,,,,,,,,,,,,,,,,,427.2290679169964,None,427.2290679169964,None,5.032586558044806,0.1311873340018792,427.2290679169964,None,427.2290679169964,None,,,,,,,yasmin,2023_Jun_18_1605,working_memory,2021.2.3,None,
highway_93.jpg,highway_85.jpg,highway_93.jpg,right,golf_course_307.jpg,highway_93.jpg,badlands_164.jpg,playground_184.jpg,mountain_76.jpg,bridge_190.jpg,1,highway_85.jpg,0,highway,,,,,,,,,0,45,45,45,,,,,,,,,,,,,,,,,,,,,,,,,,,,,,,,,,,,,,,,,,,,,,,,,,,,,,,,,,,,,,,,,,,,,,,,,,,,,,,,,427.37856133299647,None,427.37856133299647,None,5.032586558044806,0.2655318329925649,427.37856133299647,None,427.37856133299647,None,,,,,,,yasmin,2023_Jun_18_1605,working_memory,2021.2.3,None,
highway_294.jpg,highway_203.jpg,highway_294.jpg,right,highway_294.jpg,mountain_176.jpg,playground_196.jpg,badlands_106.jpg,bridge_120.jpg,golf_course_269.jpg,0,highway_203.jpg,0,highway,,,,,,,,,0,46,46,46,,,,,,,,,,,,,,,,,,,,,,,,,,,,,,,,,,,,,,,,,,,,,,,,,,,,,,,,,,,,,,,,,,,,,,,,,,,,,,,,,427.6621099999902,None,427.6621099999902,None,5.032586558044806,0.12266599999566097,427.6621099999902,None,427.6621099999902,None,,,,,,,yasmin,2023_Jun_18_1605,working_memory,2021.2.3,None,
golf_course_195.jpg,golf_course_2.jpg,golf_course_195.jpg,right,golf_course_195.jpg,playground_54.jpg,badlands_211.jpg,mountain_92.jpg,highway_28.jpg,bridge_63.jpg,0,golf_course_2.jpg,1,golf,,,,,,,,,0,47,47,47,,,,,,,,,,,,,,,,,,,,,,,,,,,,,,,,,,,,,,,,,,,,,,,,,,,,,,,,,,,,,,,,,,,,,,,,,,,,,,,,,427.80564579198835,None,427.80564579198835,None,5.032586558044806,0.10415512499457691,427.80564579198835,None,427.80564579198835,None,,,,,,,yasmin,2023_Jun_18_1605,working_memory,2021.2.3,None,
mountain_57.jpg,mountain_57.jpg,mountain_138.jpg,left,playground_241.jpg,golf_course_71.jpg,badlands_125.jpg,mountain_57.jpg,highway_37.jpg,bridge_68.jpg,3,mountain_138.jpg,1,mountain,,,,,,,,,0,48,48,48,,,,,,,,,,,,,,,,,,,,,,,,,,,,,,,,,,,,,,,,,,,,,,,,,,,,,,,,,,,,,,,,,,,,,,,,,,,,,,,,,427.9289382499992,None,427.9289382499992,None,5.032586558044806,0.10624733299482614,427.9289382499992,None,427.9289382499992,None,,,,,,,yasmin,2023_Jun_18_1605,working_memory,2021.2.3,None,
bridge_108.jpg,bridge_108.jpg,bridge_116.jpg,left,golf_course_297.jpg,highway_90.jpg,badlands_81.jpg,mountain_135.jpg,bridge_108.jpg,playground_118.jpg,4,bridge_116.jpg,0,bridge,,,,,,,,,0,49,49,49,,,,,,,,,,,,,,,,,,,,,,,,,,,,,,,,,,,,,,,,,,,,,,,,,,,,,,,,,,,,,,,,,,,,,,,,,,,,,,,,,428.0559815829911,None,428.0559815829911,None,5.032586558044806,0.10457887500524521,428.0559815829911,None,428.0559815829911,None,,,,,,,yasmin,2023_Jun_18_1605,working_memory,2021.2.3,None,
golf_course_193.jpg,golf_course_193.jpg,golf_course_235.jpg,left,mountain_306.jpg,badlands_138.jpg,golf_course_193.jpg,bridge_204.jpg,playground_132.jpg,highway_3.jpg,2,golf_course_235.jpg,0,golf,,,,,,,,,0,50,50,50,,,,,,,,,,,,,,,,,,,,,,,,,,,,,,,,,,,,,,,,,,,,,,,,,,,,,,,,,,,,,,,,,,,,,,,,,,,,,,,,,428.1800989579933,None,428.1800989579933,None,5.032586558044806,0.23009962499781977,428.1800989579933,None,428.1800989579933,None,,,,,,,yasmin,2023_Jun_18_1605,working_memory,2021.2.3,None,
bridge_65.jpg,bridge_65.jpg,bridge_60.jpg,left,highway_31.jpg,golf_course_226.jpg,badlands_201.jpg,mountain_120.jpg,bridge_65.jpg,playground_141.jpg,4,bridge_60.jpg,1,bridge,,,,,,,,,0,51,51,51,,,,,,,,,,,,,,,,,,,,,,,,,,,,,,,,,,,,,,,,,,,,,,,,,,,,,,,,,,,,,,,,,,,,,,,,,,,,,,,,,428.4301667499967,None,428.4301667499967,None,5.032586558044806,0.1142928750050487,428.4301667499967,None,428.4301667499967,None,,,,,,,yasmin,2023_Jun_18_1605,working_memory,2021.2.3,None,
playground_76.jpg,playground_22.jpg,playground_76.jpg,right,highway_50.jpg,playground_76.jpg,bridge_126.jpg,mountain_277.jpg,badlands_213.jpg,golf_course_288.jpg,1,playground_22.jpg,0,playground,,,,,,,,,0,52,52,52,,,,,,,,,,,,,,,,,,,,,,,,,,,,,,,,,,,,,,,,,,,,,,,,,,,,,,,,,,,,,,,,,,,,,,,,,,,,,,,,,428.56475687499915,None,428.56475687499915,None,5.032586558044806,0.10417104201042093,428.56475687499915,None,428.56475687499915,None,,,,,,,yasmin,2023_Jun_18_1605,working_memory,2021.2.3,None,
golf_course_15.jpg,golf_course_113.jpg,golf_course_15.jpg,right,highway_18.jpg,badlands_173.jpg,bridge_24.jpg,playground_251.jpg,golf_course_15.jpg,mountain_137.jpg,4,golf_course_113.jpg,0,golf,,,,,,,,,0,53,53,53,,,,,,,,,,,,,,,,,,,,,,,,,,,,,,,,,,,,,,,,,,,,,,,,,,,,,,,,,,,,,,,,,,,,,,,,,,,,,,,,,428.68989095799043,None,428.68989095799043,None,5.032586558044806,0.21190754199051298,428.68989095799043,None,428.68989095799043,None,,,,,,,yasmin,2023_Jun_18_1605,working_memory,2021.2.3,None,
badlands_24.jpg,badlands_53.jpg,badlands_24.jpg,right,playground_50.jpg,golf_course_72.jpg,badlands_24.jpg,highway_29.jpg,mountain_51.jpg,bridge_66.jpg,2,badlands_53.jpg,1,badlands,,,,,,,,,0,54,54,54,,,,,,,,,,,,,,,,,,,,,,,,,,,,,,,,,,,,,,,,,,,,,,,,,,,,,,,,,,,,,,,,,,,,,,,,,,,,,,,,,428.9231347499881,None,428.9231347499881,None,5.032586558044806,0.14616041599947494,428.9231347499881,None,428.9231347499881,None,,,,,,,yasmin,2023_Jun_18_1605,working_memory,2021.2.3,None,
mountain_123.jpg,mountain_123.jpg,mountain_94.jpg,left,badlands_105.jpg,bridge_110.jpg,playground_85.jpg,highway_172.jpg,mountain_123.jpg,golf_course_162.jpg,4,mountain_94.jpg,0,mountain,,,,,,,,,0,55,55,55,,,,,,,,,,,,,,,,,,,,,,,,,,,,,,,,,,,,,,,,,,,,,,,,,,,,,,,,,,,,,,,,,,,,,,,,,,,,,,,,,429.0902328329976,None,429.0902328329976,None,5.032586558044806,0.16331133400672115,429.0902328329976,None,429.0902328329976,None,,,,,,,yasmin,2023_Jun_18_1605,working_memory,2021.2.3,None,
bridge_191.jpg,bridge_191.jpg,bridge_184.jpg,left,playground_49.jpg,bridge_191.jpg,golf_course_3.jpg,mountain_233.jpg,highway_191.jpg,badlands_200.jpg,1,bridge_184.jpg,0,bridge,,,,,,,,,0,56,56,56,,,,,,,,,,,,,,,,,,,,,,,,,,,,,,,,,,,,,,,,,,,,,,,,,,,,,,,,,,,,,,,,,,,,,,,,,,,,,,,,,429.27381966699613,None,429.27381966699613,None,5.032586558044806,0.15338524999970105,429.27381966699613,None,429.27381966699613,None,,,,,,,yasmin,2023_Jun_18_1605,working_memory,2021.2.3,None,
golf_course_78.jpg,golf_course_134.jpg,golf_course_78.jpg,right,playground_16.jpg,golf_course_78.jpg,bridge_254.jpg,highway_193.jpg,mountain_290.jpg,badlands_214.jpg,1,golf_course_134.jpg,0,golf,,,,,,,,,0,57,57,57,,,,,,,,,,,,,,,,,,,,,,,,,,,,,,,,,,,,,,,,,,,,,,,,,,,,,,,,,,,,,,,,,,,,,,,,,,,,,,,,,429.44620516699797,None,429.44620516699797,None,5.032586558044806,0.11401024999213405,429.44620516699797,None,429.44620516699797,None,,,,,,,yasmin,2023_Jun_18_1605,working_memory,2021.2.3,None,
playground_117.jpg,playground_127.jpg,playground_117.jpg,right,highway_36.jpg,badlands_30.jpg,playground_117.jpg,golf_course_219.jpg,bridge_106.jpg,mountain_302.jpg,2,playground_127.jpg,1,playground,,,,,,,,,0,58,58,58,,,,,,,,,,,,,,,,,,,,,,,,,,,,,,,,,,,,,,,,,,,,,,,,,,,,,,,,,,,,,,,,,,,,,,,,,,,,,,,,,429.58193124999525,None,429.58193124999525,None,5.032586558044806,0.11173533300461713,429.58193124999525,None,429.58193124999525,None,,,,,,,yasmin,2023_Jun_18_1605,working_memory,2021.2.3,None,
highway_415.jpg,highway_415.jpg,highway_174.jpg,left,playground_173.jpg,bridge_20.jpg,golf_course_59.jpg,highway_415.jpg,mountain_87.jpg,badlands_150.jpg,3,highway_174.jpg,1,highway,,,,,,,,,0,59,59,59,,,,,,,,,,,,,,,,,,,,,,,,,,,,,,,,,,,,,,,,,,,,,,,,,,,,,,,,,,,,,,,,,,,,,,,,,,,,,,,,,429.71240666699305,None,429.71240666699305,None,5.032586558044806,0.1060880840086611,429.71240666699305,None,429.71240666699305,None,,,,,,,yasmin,2023_Jun_18_1605,working_memory,2021.2.3,None,
,,,,,,,,,,,,,,,,,,,,,,,,,,,,,,,,,,,,,,,,,,,,,,,,,,,,,,,,,,,,,,,,,,,,,,,,,,,,,,,,,,,,,,,,,,,,,,,,,,,,,,,,,,,,,,,,,,,,space,1.2413735830050427,429.82552425000176,None,,,yasmin,2023_Jun_18_1605,working_memory,2021.2.3,None,
,,,,,,,,,,,,,,,,,,,,,,,,,,,,,,,,,,,,,,,,,,,,,,,,,,,,,,,,,,,,,,,,,,,,,,,,,,,,,,,,,,,,,,,,,,,,,,,,,,,,,,,,,,,,,,,,,,,,,,,,429.82552425000176,None,,,,,,
