,workID,Age,Gender,target,image1,image2,correct,background_0,background_1,background_2,background_3,background_4,background_5,target_index,test_key_resp.keys,test_key_resp.rt,distractor_level,category,selected_dist,slider_part2.response,slider_part2.rt,subject
0,A2O5WL7H36CRIL,25,Female,highway_294.jpg,highway_203.jpg,highway_294.jpg,right,highway_294.jpg,playground_198.jpg,mountain_38.jpg,golf_course_37.jpg,badlands_104.jpg,badlands_104.jpg,0.0,left,3.214,0.0,highway,highway_203.jpg,7.9765625,4.1136,A2O5WL7H36CRIL
1,A2O5WL7H36CRIL,25,Female,bridge_256.jpg,bridge_256.jpg,bridge_54.jpg,left,golf_course_244.jpg,bridge_256.jpg,highway_141.jpg,mountain_103.jpg,playground_172.jpg,playground_172.jpg,1.0,right,2.1774,0.0,bridge,bridge_54.jpg,8.0078125,2.4268,A2O5WL7H36CRIL
2,A2O5WL7H36CRIL,25,Female,badlands_24.jpg,badlands_24.jpg,badlands_3.jpg,left,golf_course_336.jpg,highway_99.jpg,bridge_198.jpg,badlands_24.jpg,mountain_163.jpg,mountain_163.jpg,3.0,left,1.6888,0.0,badlands,badlands_3.jpg,6.9296875,0.7236,A2O5WL7H36CRIL
3,A2O5WL7H36CRIL,25,Female,golf_course_87.jpg,golf_course_161.jpg,golf_course_87.jpg,right,badlands_147.jpg,bridge_175.jpg,highway_69.jpg,golf_course_87.jpg,mountain_126.jpg,mountain_126.jpg,3.0,right,4.3098,1.0,golf,golf_course_161.jpg,7.0390625,0.911,A2O5WL7H36CRIL
4,A2O5WL7H36CRIL,25,Female,highway_394.jpg,highway_394.jpg,highway_204.jpg,left,highway_394.jpg,bridge_161.jpg,mountain_294.jpg,badlands_211.jpg,playground_165.jpg,playground_165.jpg,0.0,right,3.179,0.0,highway,highway_204.jpg,7.9296875,1.1542,A2O5WL7H36CRIL
5,A2O5WL7H36CRIL,25,Female,golf_course_309.jpg,golf_course_209.jpg,golf_course_309.jpg,right,playground_13.jpg,golf_course_309.jpg,mountain_210.jpg,highway_365.jpg,badlands_155.jpg,badlands_155.jpg,1.0,right,1.6094,1.0,golf,golf_course_209.jpg,6.9765625,1.4131,A2O5WL7H36CRIL
6,A2O5WL7H36CRIL,25,Female,bridge_65.jpg,bridge_60.jpg,bridge_65.jpg,right,mountain_11.jpg,bridge_65.jpg,playground_105.jpg,badlands_223.jpg,golf_course_279.jpg,golf_course_279.jpg,1.0,right,1.8136,1.0,bridge,bridge_60.jpg,8.0,1.6954,A2O5WL7H36CRIL
7,A2O5WL7H36CRIL,25,Female,mountain_230.jpg,mountain_97.jpg,mountain_230.jpg,right,highway_200.jpg,bridge_15.jpg,mountain_230.jpg,playground_155.jpg,golf_course_207.jpg,golf_course_207.jpg,2.0,left,1.7374,1.0,mountain,mountain_97.jpg,6.9609375,1.0366,A2O5WL7H36CRIL
8,A2O5WL7H36CRIL,25,Female,mountain_232.jpg,mountain_232.jpg,mountain_3.jpg,left,playground_160.jpg,mountain_232.jpg,highway_388.jpg,bridge_90.jpg,golf_course_93.jpg,golf_course_93.jpg,1.0,left,1.318,0.0,mountain,mountain_3.jpg,6.9609375,0.3818,A2O5WL7H36CRIL
9,A2O5WL7H36CRIL,25,Female,highway_177.jpg,highway_177.jpg,highway_278.jpg,left,mountain_139.jpg,golf_course_333.jpg,highway_177.jpg,playground_8.jpg,badlands_109.jpg,badlands_109.jpg,2.0,left,2.392,1.0,highway,highway_278.jpg,6.8828125,0.3916,A2O5WL7H36CRIL
10,A2O5WL7H36CRIL,25,Female,golf_course_193.jpg,golf_course_235.jpg,golf_course_193.jpg,right,golf_course_193.jpg,highway_12.jpg,badlands_81.jpg,playground_153.jpg,mountain_190.jpg,mountain_190.jpg,0.0,right,2.1382,0.0,golf,golf_course_235.jpg,6.0,0.7751,A2O5WL7H36CRIL
11,A2O5WL7H36CRIL,25,Female,badlands_52.jpg,badlands_52.jpg,badlands_63.jpg,left,playground_39.jpg,badlands_52.jpg,golf_course_119.jpg,highway_117.jpg,bridge_166.jpg,bridge_166.jpg,1.0,left,1.7756,1.0,badlands,badlands_63.jpg,8.0390625,0.8669,A2O5WL7H36CRIL
12,A2O5WL7H36CRIL,25,Female,bridge_108.jpg,bridge_108.jpg,bridge_116.jpg,left,bridge_108.jpg,highway_58.jpg,golf_course_73.jpg,mountain_181.jpg,playground_181.jpg,playground_181.jpg,0.0,right,3.0805,0.0,bridge,bridge_116.jpg,8.0390625,0.2466,A2O5WL7H36CRIL
13,A2O5WL7H36CRIL,25,Female,playground_257.jpg,playground_257.jpg,playground_214.jpg,left,golf_course_1.jpg,playground_257.jpg,badlands_36.jpg,bridge_120.jpg,highway_284.jpg,highway_284.jpg,1.0,right,2.527,0.0,playground,playground_214.jpg,7.9140625,2.689,A2O5WL7H36CRIL
14,A2O5WL7H36CRIL,25,Female,golf_course_214.jpg,golf_course_312.jpg,golf_course_214.jpg,right,golf_course_214.jpg,highway_340.jpg,playground_252.jpg,bridge_1.jpg,badlands_229.jpg,badlands_229.jpg,0.0,right,1.7584,0.0,golf,golf_course_312.jpg,7.9765625,0.6556,A2O5WL7H36CRIL
15,A2O5WL7H36CRIL,25,Female,golf_course_195.jpg,golf_course_195.jpg,golf_course_25.jpg,left,playground_18.jpg,highway_243.jpg,badlands_185.jpg,golf_course_195.jpg,mountain_214.jpg,mountain_214.jpg,3.0,left,2.0816,0.0,golf,golf_course_25.jpg,7.9765625,0.431,A2O5WL7H36CRIL
16,A2O5WL7H36CRIL,25,Female,golf_course_188.jpg,golf_course_188.jpg,golf_course_160.jpg,left,bridge_103.jpg,golf_course_188.jpg,mountain_251.jpg,playground_207.jpg,highway_323.jpg,highway_323.jpg,1.0,right,1.8108,1.0,golf,golf_course_160.jpg,7.015625,1.7603,A2O5WL7H36CRIL
17,A2O5WL7H36CRIL,25,Female,mountain_101.jpg,mountain_221.jpg,mountain_101.jpg,right,highway_86.jpg,golf_course_126.jpg,mountain_101.jpg,badlands_142.jpg,bridge_136.jpg,bridge_136.jpg,2.0,right,51.0056,1.0,mountain,mountain_221.jpg,8.96875,1.1446,A2O5WL7H36CRIL
18,A2O5WL7H36CRIL,25,Female,badlands_70.jpg,badlands_119.jpg,badlands_70.jpg,right,mountain_280.jpg,playground_100.jpg,badlands_70.jpg,bridge_245.jpg,golf_course_165.jpg,golf_course_165.jpg,2.0,right,1.2286,1.0,badlands,badlands_119.jpg,8.96875,0.3549,A2O5WL7H36CRIL
19,A2O5WL7H36CRIL,25,Female,playground_219.jpg,playground_21.jpg,playground_219.jpg,right,playground_219.jpg,highway_256.jpg,bridge_12.jpg,badlands_206.jpg,golf_course_125.jpg,golf_course_125.jpg,0.0,right,1.4494,0.0,playground,playground_21.jpg,7.0234375,1.7553,A2O5WL7H36CRIL
20,A2O5WL7H36CRIL,25,Female,badlands_222.jpg,badlands_62.jpg,badlands_222.jpg,right,badlands_222.jpg,mountain_135.jpg,playground_116.jpg,highway_210.jpg,bridge_76.jpg,bridge_76.jpg,0.0,right,2.9039,1.0,badlands,badlands_62.jpg,7.9453125,0.9998,A2O5WL7H36CRIL
21,A2O5WL7H36CRIL,25,Female,highway_93.jpg,highway_93.jpg,highway_85.jpg,left,playground_41.jpg,golf_course_98.jpg,highway_93.jpg,mountain_265.jpg,badlands_40.jpg,badlands_40.jpg,2.0,left,1.5277,0.0,highway,highway_85.jpg,7.015625,3.2502,A2O5WL7H36CRIL
22,A2O5WL7H36CRIL,25,Female,mountain_154.jpg,mountain_131.jpg,mountain_154.jpg,right,mountain_154.jpg,badlands_168.jpg,highway_38.jpg,playground_114.jpg,bridge_252.jpg,bridge_252.jpg,0.0,right,2.2591,0.0,mountain,mountain_131.jpg,5.984375,1.3286,A2O5WL7H36CRIL
23,A2O5WL7H36CRIL,25,Female,bridge_191.jpg,bridge_191.jpg,bridge_184.jpg,left,mountain_225.jpg,highway_295.jpg,golf_course_20.jpg,bridge_191.jpg,badlands_86.jpg,badlands_86.jpg,3.0,right,2.3531,0.0,bridge,bridge_184.jpg,6.984375,1.7406,A2O5WL7H36CRIL
24,A2O5WL7H36CRIL,25,Female,mountain_156.jpg,mountain_295.jpg,mountain_156.jpg,right,mountain_156.jpg,bridge_23.jpg,badlands_197.jpg,playground_88.jpg,golf_course_205.jpg,golf_course_205.jpg,0.0,right,2.0369,1.0,mountain,mountain_295.jpg,7.96875,1.241,A2O5WL7H36CRIL
25,A2O5WL7H36CRIL,25,Female,badlands_113.jpg,badlands_113.jpg,badlands_225.jpg,left,golf_course_274.jpg,playground_61.jpg,badlands_113.jpg,bridge_239.jpg,mountain_159.jpg,mountain_159.jpg,2.0,left,1.3649,0.0,badlands,badlands_225.jpg,7.96875,0.2645,A2O5WL7H36CRIL
26,A2O5WL7H36CRIL,25,Female,golf_course_331.jpg,golf_course_114.jpg,golf_course_331.jpg,right,bridge_249.jpg,golf_course_331.jpg,badlands_165.jpg,mountain_102.jpg,playground_255.jpg,playground_255.jpg,1.0,right,1.7332,0.0,golf,golf_course_114.jpg,7.96875,0.6728,A2O5WL7H36CRIL
27,A2O5WL7H36CRIL,25,Female,playground_10.jpg,playground_122.jpg,playground_10.jpg,right,mountain_112.jpg,badlands_149.jpg,bridge_190.jpg,playground_10.jpg,golf_course_152.jpg,golf_course_152.jpg,3.0,right,1.8,0.0,playground,playground_122.jpg,7.96875,0.2164,A2O5WL7H36CRIL
28,A2O5WL7H36CRIL,25,Female,badlands_221.jpg,badlands_221.jpg,badlands_207.jpg,left,badlands_221.jpg,golf_course_322.jpg,bridge_176.jpg,highway_112.jpg,mountain_257.jpg,mountain_257.jpg,0.0,left,1.816,1.0,badlands,badlands_207.jpg,7.96875,0.4898,A2O5WL7H36CRIL
29,A2O5WL7H36CRIL,25,Female,mountain_110.jpg,mountain_157.jpg,mountain_110.jpg,right,playground_169.jpg,mountain_110.jpg,bridge_89.jpg,badlands_88.jpg,golf_course_11.jpg,golf_course_11.jpg,1.0,left,1.8903,0.0,mountain,mountain_157.jpg,8.9296875,1.8016,A2O5WL7H36CRIL
30,A2O5WL7H36CRIL,25,Female,playground_131.jpg,playground_164.jpg,playground_131.jpg,right,bridge_119.jpg,playground_131.jpg,badlands_173.jpg,mountain_289.jpg,highway_220.jpg,highway_220.jpg,1.0,left,1.7675,1.0,playground,playground_164.jpg,8.9296875,0.4761,A2O5WL7H36CRIL
31,A2O5WL7H36CRIL,25,Female,bridge_146.jpg,bridge_146.jpg,bridge_121.jpg,left,playground_150.jpg,bridge_146.jpg,golf_course_196.jpg,badlands_179.jpg,mountain_301.jpg,mountain_301.jpg,1.0,left,1.9163,1.0,bridge,bridge_121.jpg,8.9296875,0.582,A2O5WL7H36CRIL
32,A2O5WL7H36CRIL,25,Female,playground_60.jpg,playground_60.jpg,playground_244.jpg,left,badlands_58.jpg,mountain_204.jpg,bridge_150.jpg,playground_60.jpg,golf_course_148.jpg,golf_course_148.jpg,3.0,right,2.3183,1.0,playground,playground_244.jpg,8.9609375,0.2812,A2O5WL7H36CRIL
33,A2O5WL7H36CRIL,25,Female,highway_273.jpg,highway_273.jpg,highway_384.jpg,left,highway_273.jpg,playground_54.jpg,golf_course_337.jpg,bridge_170.jpg,mountain_65.jpg,mountain_65.jpg,0.0,right,23.0893,0.0,highway,highway_384.jpg,8.96875,0.2909,A2O5WL7H36CRIL
34,A2O5WL7H36CRIL,25,Female,mountain_57.jpg,mountain_138.jpg,mountain_57.jpg,right,mountain_57.jpg,golf_course_221.jpg,badlands_65.jpg,highway_114.jpg,playground_168.jpg,playground_168.jpg,0.0,right,2.284,1.0,mountain,mountain_138.jpg,8.96875,0.3919,A2O5WL7H36CRIL
35,A2O5WL7H36CRIL,25,Female,playground_145.jpg,playground_145.jpg,playground_242.jpg,left,bridge_2.jpg,badlands_205.jpg,playground_145.jpg,highway_286.jpg,golf_course_88.jpg,golf_course_88.jpg,2.0,left,2.8138,1.0,playground,playground_242.jpg,8.96875,0.3084,A2O5WL7H36CRIL
36,A2O5WL7H36CRIL,25,Female,playground_240.jpg,playground_240.jpg,playground_40.jpg,left,mountain_213.jpg,playground_240.jpg,golf_course_267.jpg,highway_247.jpg,badlands_152.jpg,badlands_152.jpg,1.0,right,1.8339,1.0,playground,playground_40.jpg,8.96875,0.4229,A2O5WL7H36CRIL
37,A2O5WL7H36CRIL,25,Female,mountain_293.jpg,mountain_293.jpg,mountain_72.jpg,left,bridge_43.jpg,mountain_293.jpg,highway_100.jpg,playground_0.jpg,badlands_32.jpg,badlands_32.jpg,1.0,left,3.3813,0.0,mountain,mountain_72.jpg,8.96875,0.2764,A2O5WL7H36CRIL
38,A2O5WL7H36CRIL,25,Female,playground_117.jpg,playground_167.jpg,playground_117.jpg,right,mountain_195.jpg,playground_117.jpg,golf_course_135.jpg,highway_326.jpg,bridge_137.jpg,bridge_137.jpg,1.0,right,2.0427,0.0,playground,playground_167.jpg,7.015625,1.946,A2O5WL7H36CRIL
39,A2O5WL7H36CRIL,25,Female,highway_359.jpg,highway_359.jpg,highway_379.jpg,left,playground_96.jpg,highway_359.jpg,bridge_87.jpg,mountain_243.jpg,badlands_183.jpg,badlands_183.jpg,1.0,right,1.9773,1.0,highway,highway_379.jpg,7.015625,0.3329,A2O5WL7H36CRIL
40,A2O5WL7H36CRIL,25,Female,badlands_23.jpg,badlands_23.jpg,badlands_101.jpg,left,mountain_233.jpg,highway_241.jpg,golf_course_163.jpg,badlands_23.jpg,bridge_6.jpg,bridge_6.jpg,3.0,left,2.1237,1.0,badlands,badlands_101.jpg,7.015625,0.4562,A2O5WL7H36CRIL
41,A2O5WL7H36CRIL,25,Female,golf_course_217.jpg,golf_course_262.jpg,golf_course_217.jpg,right,golf_course_217.jpg,highway_88.jpg,bridge_104.jpg,badlands_50.jpg,mountain_304.jpg,mountain_304.jpg,0.0,right,1.3557,1.0,golf,golf_course_262.jpg,7.015625,0.5594,A2O5WL7H36CRIL
42,A2O5WL7H36CRIL,25,Female,badlands_137.jpg,badlands_194.jpg,badlands_137.jpg,right,golf_course_127.jpg,badlands_137.jpg,bridge_203.jpg,playground_111.jpg,mountain_84.jpg,mountain_84.jpg,1.0,left,1.7401,0.0,badlands,badlands_194.jpg,7.015625,0.4159,A2O5WL7H36CRIL
43,A2O5WL7H36CRIL,25,Female,playground_76.jpg,playground_76.jpg,playground_72.jpg,left,playground_76.jpg,mountain_302.jpg,highway_302.jpg,badlands_140.jpg,golf_course_8.jpg,golf_course_8.jpg,0.0,right,2.2374,1.0,playground,playground_72.jpg,7.9296875,1.2594,A2O5WL7H36CRIL
44,A2O5WL7H36CRIL,25,Female,badlands_21.jpg,badlands_1.jpg,badlands_21.jpg,right,mountain_255.jpg,badlands_21.jpg,highway_361.jpg,playground_78.jpg,golf_course_146.jpg,golf_course_146.jpg,1.0,left,2.6458,0.0,badlands,badlands_1.jpg,7.9296875,0.3234,A2O5WL7H36CRIL
45,A2O5WL7H36CRIL,25,Female,mountain_123.jpg,mountain_189.jpg,mountain_123.jpg,right,mountain_123.jpg,badlands_132.jpg,bridge_189.jpg,highway_239.jpg,golf_course_233.jpg,golf_course_233.jpg,0.0,left,1.6674,1.0,mountain,mountain_189.jpg,7.9296875,0.3422,A2O5WL7H36CRIL
46,A2O5WL7H36CRIL,25,Female,bridge_172.jpg,bridge_172.jpg,bridge_163.jpg,left,highway_397.jpg,bridge_172.jpg,mountain_143.jpg,playground_157.jpg,golf_course_210.jpg,golf_course_210.jpg,1.0,right,3.5716,1.0,bridge,bridge_163.jpg,7.9296875,0.2978,A2O5WL7H36CRIL
47,A2O5WL7H36CRIL,25,Female,mountain_222.jpg,mountain_222.jpg,mountain_93.jpg,left,bridge_235.jpg,highway_14.jpg,badlands_209.jpg,mountain_222.jpg,playground_152.jpg,playground_152.jpg,3.0,right,1.9369,1.0,mountain,mountain_93.jpg,7.9296875,0.4631,A2O5WL7H36CRIL
48,A2O5WL7H36CRIL,25,Female,badlands_184.jpg,badlands_184.jpg,badlands_103.jpg,left,golf_course_240.jpg,badlands_184.jpg,mountain_90.jpg,bridge_178.jpg,playground_126.jpg,playground_126.jpg,1.0,left,1.683,1.0,badlands,badlands_103.jpg,7.9296875,0.4998,A2O5WL7H36CRIL
49,A2O5WL7H36CRIL,25,Female,highway_156.jpg,highway_293.jpg,highway_156.jpg,right,badlands_71.jpg,mountain_10.jpg,highway_156.jpg,playground_89.jpg,bridge_180.jpg,bridge_180.jpg,2.0,right,5.1179,1.0,highway,highway_293.jpg,7.9296875,0.3294,A2O5WL7H36CRIL
50,A2O5WL7H36CRIL,25,Female,golf_course_78.jpg,golf_course_101.jpg,golf_course_78.jpg,right,golf_course_78.jpg,playground_218.jpg,badlands_226.jpg,highway_146.jpg,bridge_233.jpg,bridge_233.jpg,0.0,right,8.648,1.0,golf,golf_course_101.jpg,7.9296875,0.4944,A2O5WL7H36CRIL
51,A2O5WL7H36CRIL,25,Female,highway_245.jpg,highway_206.jpg,highway_245.jpg,right,mountain_245.jpg,golf_course_122.jpg,highway_245.jpg,playground_121.jpg,bridge_21.jpg,bridge_21.jpg,2.0,left,2.2358,1.0,highway,highway_206.jpg,7.9296875,0.3389,A2O5WL7H36CRIL
52,A2O5WL7H36CRIL,25,Female,highway_415.jpg,highway_60.jpg,highway_415.jpg,right,badlands_201.jpg,playground_45.jpg,mountain_96.jpg,highway_415.jpg,golf_course_324.jpg,golf_course_324.jpg,3.0,right,1.6462,0.0,highway,highway_60.jpg,7.9296875,0.3982,A2O5WL7H36CRIL
53,A2O5WL7H36CRIL,25,Female,bridge_128.jpg,bridge_61.jpg,bridge_128.jpg,right,bridge_128.jpg,mountain_59.jpg,highway_17.jpg,badlands_166.jpg,playground_190.jpg,playground_190.jpg,0.0,right,1.6739,0.0,bridge,bridge_61.jpg,7.9296875,0.4897,A2O5WL7H36CRIL
54,A2O5WL7H36CRIL,25,Female,bridge_91.jpg,bridge_91.jpg,bridge_253.jpg,left,bridge_91.jpg,playground_1.jpg,mountain_296.jpg,badlands_64.jpg,highway_259.jpg,highway_259.jpg,0.0,left,13.1512,0.0,bridge,bridge_253.jpg,7.015625,0.8985,A2O5WL7H36CRIL
55,A2O5WL7H36CRIL,25,Female,highway_209.jpg,highway_209.jpg,highway_314.jpg,left,bridge_49.jpg,golf_course_55.jpg,highway_209.jpg,mountain_196.jpg,playground_243.jpg,playground_243.jpg,2.0,right,1.6135,0.0,highway,highway_314.jpg,7.015625,0.3078,A2O5WL7H36CRIL
56,A2O5WL7H36CRIL,25,Female,playground_144.jpg,playground_137.jpg,playground_144.jpg,right,badlands_25.jpg,golf_course_294.jpg,bridge_138.jpg,playground_144.jpg,highway_382.jpg,highway_382.jpg,3.0,right,1.72,0.0,playground,playground_137.jpg,7.015625,0.3162,A2O5WL7H36CRIL
57,A2O5WL7H36CRIL,25,Female,golf_course_15.jpg,golf_course_15.jpg,golf_course_113.jpg,left,badlands_215.jpg,mountain_70.jpg,bridge_55.jpg,golf_course_15.jpg,highway_2.jpg,highway_2.jpg,3.0,right,1.5418,0.0,golf,golf_course_113.jpg,7.015625,0.2432,A2O5WL7H36CRIL
58,A2O5WL7H36CRIL,25,Female,bridge_202.jpg,bridge_202.jpg,bridge_38.jpg,left,mountain_249.jpg,highway_303.jpg,bridge_202.jpg,playground_134.jpg,badlands_56.jpg,badlands_56.jpg,2.0,left,2.971,1.0,bridge,bridge_38.jpg,7.015625,0.4952,A2O5WL7H36CRIL
59,A2O5WL7H36CRIL,25,Female,bridge_250.jpg,bridge_134.jpg,bridge_250.jpg,right,highway_158.jpg,golf_course_92.jpg,badlands_4.jpg,bridge_250.jpg,mountain_306.jpg,mountain_306.jpg,3.0,right,1.6807,0.0,bridge,bridge_134.jpg,7.015625,0.2871,A2O5WL7H36CRIL
60,A3CGQOJC28OVGN,32,female,highway_209.jpg,highway_209.jpg,highway_314.jpg,left,highway_209.jpg,playground_54.jpg,bridge_252.jpg,mountain_158.jpg,golf_course_196.jpg,golf_course_196.jpg,0.0,left,1.2109,0.0,highway,highway_314.jpg,2.0,4.6096,A3CGQOJC28OVGN
61,A3CGQOJC28OVGN,32,female,badlands_222.jpg,badlands_62.jpg,badlands_222.jpg,right,highway_340.jpg,bridge_15.jpg,golf_course_324.jpg,badlands_222.jpg,mountain_38.jpg,mountain_38.jpg,3.0,right,3.1658,1.0,badlands,badlands_62.jpg,7.074074074,2.2658,A3CGQOJC28OVGN
62,A3CGQOJC28OVGN,32,female,bridge_172.jpg,bridge_163.jpg,bridge_172.jpg,right,bridge_172.jpg,mountain_102.jpg,playground_153.jpg,golf_course_336.jpg,badlands_109.jpg,badlands_109.jpg,0.0,left,1.6267,1.0,bridge,bridge_163.jpg,4.94074108,2.7388,A3CGQOJC28OVGN
63,A3CGQOJC28OVGN,32,female,mountain_230.jpg,mountain_230.jpg,mountain_97.jpg,left,mountain_230.jpg,golf_course_8.jpg,playground_190.jpg,highway_256.jpg,badlands_173.jpg,badlands_173.jpg,0.0,right,3.8351,1.0,mountain,mountain_97.jpg,6.044444331,1.8377,A3CGQOJC28OVGN
64,A3CGQOJC28OVGN,32,female,playground_60.jpg,playground_244.jpg,playground_60.jpg,right,badlands_44.jpg,playground_60.jpg,bridge_55.jpg,highway_239.jpg,mountain_65.jpg,mountain_65.jpg,1.0,left,1.5155,1.0,playground,playground_244.jpg,4.903704043,2.2402,A3CGQOJC28OVGN
65,A3CGQOJC28OVGN,32,female,bridge_191.jpg,bridge_75.jpg,bridge_191.jpg,right,badlands_201.jpg,mountain_255.jpg,bridge_191.jpg,highway_229.jpg,golf_course_163.jpg,golf_course_163.jpg,2.0,right,1.2193,1.0,bridge,bridge_75.jpg,3.94074108,2.0504,A3CGQOJC28OVGN
66,A3CGQOJC28OVGN,32,female,highway_245.jpg,highway_245.jpg,highway_134.jpg,left,highway_245.jpg,playground_168.jpg,golf_course_1.jpg,bridge_43.jpg,badlands_166.jpg,badlands_166.jpg,0.0,left,1.0131,0.0,highway,highway_134.jpg,1.0,2.3057,A3CGQOJC28OVGN
67,A3CGQOJC28OVGN,32,female,highway_294.jpg,highway_203.jpg,highway_294.jpg,right,playground_199.jpg,highway_294.jpg,mountain_226.jpg,bridge_161.jpg,golf_course_322.jpg,golf_course_322.jpg,1.0,left,1.7496,0.0,highway,highway_203.jpg,1.837036981,2.1165,A3CGQOJC28OVGN
68,A3CGQOJC28OVGN,32,female,mountain_57.jpg,mountain_138.jpg,mountain_57.jpg,right,golf_course_152.jpg,highway_220.jpg,playground_152.jpg,mountain_57.jpg,bridge_12.jpg,bridge_12.jpg,3.0,right,1.0298,1.0,mountain,mountain_138.jpg,2.992592706,2.4111,A3CGQOJC28OVGN
69,A3CGQOJC28OVGN,32,female,mountain_123.jpg,mountain_123.jpg,mountain_189.jpg,left,bridge_21.jpg,highway_117.jpg,mountain_123.jpg,golf_course_40.jpg,badlands_58.jpg,badlands_58.jpg,2.0,right,1.7451,1.0,mountain,mountain_189.jpg,7.970370822,1.8876,A3CGQOJC28OVGN
70,A3CGQOJC28OVGN,32,female,golf_course_309.jpg,golf_course_309.jpg,golf_course_16.jpg,left,badlands_36.jpg,golf_course_309.jpg,playground_218.jpg,mountain_10.jpg,bridge_2.jpg,bridge_2.jpg,1.0,left,1.4478,0.0,golf,golf_course_16.jpg,5.896296183,2.671,A3CGQOJC28OVGN
71,A3CGQOJC28OVGN,32,female,golf_course_15.jpg,golf_course_113.jpg,golf_course_15.jpg,right,badlands_50.jpg,mountain_302.jpg,playground_111.jpg,golf_course_15.jpg,highway_100.jpg,highway_100.jpg,3.0,right,1.7614,0.0,golf,golf_course_113.jpg,4.022222448,2.2573,A3CGQOJC28OVGN
72,A3CGQOJC28OVGN,32,female,bridge_65.jpg,bridge_65.jpg,bridge_181.jpg,left,mountain_306.jpg,bridge_65.jpg,playground_165.jpg,highway_2.jpg,badlands_132.jpg,badlands_132.jpg,1.0,left,0.9788,0.0,bridge,bridge_181.jpg,7.059259485,2.1784,A3CGQOJC28OVGN
73,A3CGQOJC28OVGN,32,female,highway_273.jpg,highway_273.jpg,highway_384.jpg,left,playground_78.jpg,golf_course_92.jpg,highway_273.jpg,bridge_249.jpg,mountain_163.jpg,mountain_163.jpg,2.0,right,3.1679,0.0,highway,highway_384.jpg,3.93333322,2.6227,A3CGQOJC28OVGN
74,A3CGQOJC28OVGN,32,female,highway_359.jpg,highway_389.jpg,highway_359.jpg,right,golf_course_20.jpg,bridge_170.jpg,highway_359.jpg,playground_13.jpg,badlands_147.jpg,badlands_147.jpg,2.0,right,0.6918,0.0,highway,highway_389.jpg,1.088888945,2.8225,A3CGQOJC28OVGN
75,A3CGQOJC28OVGN,32,female,badlands_21.jpg,badlands_1.jpg,badlands_21.jpg,right,playground_150.jpg,mountain_233.jpg,highway_99.jpg,badlands_21.jpg,golf_course_244.jpg,golf_course_244.jpg,3.0,right,2.0113,0.0,badlands,badlands_1.jpg,6.955555669,2.7038,A3CGQOJC28OVGN
76,A3CGQOJC28OVGN,32,female,badlands_52.jpg,badlands_52.jpg,badlands_63.jpg,left,badlands_52.jpg,golf_course_29.jpg,highway_361.jpg,mountain_257.jpg,bridge_190.jpg,bridge_190.jpg,0.0,left,1.4522,1.0,badlands,badlands_63.jpg,5.059259485,3.021,A3CGQOJC28OVGN
77,A3CGQOJC28OVGN,32,female,badlands_23.jpg,badlands_23.jpg,badlands_114.jpg,left,mountain_159.jpg,bridge_183.jpg,playground_100.jpg,badlands_23.jpg,highway_284.jpg,highway_284.jpg,3.0,right,2.3529,0.0,badlands,badlands_114.jpg,6.007407294,2.0022,A3CGQOJC28OVGN
78,A3CGQOJC28OVGN,32,female,highway_177.jpg,highway_177.jpg,highway_278.jpg,left,golf_course_122.jpg,highway_177.jpg,bridge_136.jpg,badlands_30.jpg,playground_207.jpg,playground_207.jpg,1.0,left,1.9181,1.0,highway,highway_278.jpg,8.88148216,1.6573,A3CGQOJC28OVGN
79,A3CGQOJC28OVGN,32,female,playground_257.jpg,playground_214.jpg,playground_257.jpg,right,golf_course_333.jpg,playground_257.jpg,highway_71.jpg,mountain_214.jpg,bridge_178.jpg,bridge_178.jpg,1.0,left,1.2545,0.0,playground,playground_214.jpg,5.059259485,3.6604,A3CGQOJC28OVGN
80,A3CGQOJC28OVGN,32,female,mountain_154.jpg,mountain_154.jpg,mountain_131.jpg,left,bridge_59.jpg,golf_course_119.jpg,playground_181.jpg,mountain_154.jpg,highway_388.jpg,highway_388.jpg,3.0,right,1.1463,0.0,mountain,mountain_131.jpg,3.007407294,1.8223,A3CGQOJC28OVGN
81,A3CGQOJC28OVGN,32,female,playground_144.jpg,playground_65.jpg,playground_144.jpg,right,highway_326.jpg,playground_144.jpg,mountain_196.jpg,badlands_133.jpg,golf_course_210.jpg,golf_course_210.jpg,1.0,right,0.8451,1.0,playground,playground_65.jpg,5.985185411,2.3236,A3CGQOJC28OVGN
82,A3CGQOJC28OVGN,32,female,playground_219.jpg,playground_205.jpg,playground_219.jpg,right,highway_86.jpg,mountain_103.jpg,playground_219.jpg,bridge_1.jpg,badlands_206.jpg,badlands_206.jpg,2.0,right,1.5629,1.0,playground,playground_205.jpg,8.096296522,1.4697,A3CGQOJC28OVGN
83,A3CGQOJC28OVGN,32,female,badlands_113.jpg,badlands_203.jpg,badlands_113.jpg,right,highway_146.jpg,badlands_113.jpg,bridge_103.jpg,playground_159.jpg,golf_course_148.jpg,golf_course_148.jpg,1.0,left,1.5425,1.0,badlands,badlands_203.jpg,8.888888889,1.8087,A3CGQOJC28OVGN
84,A3CGQOJC28OVGN,32,female,bridge_146.jpg,bridge_121.jpg,bridge_146.jpg,right,bridge_146.jpg,mountain_294.jpg,badlands_32.jpg,playground_45.jpg,golf_course_292.jpg,golf_course_292.jpg,0.0,right,1.0187,1.0,bridge,bridge_121.jpg,1.97037054,2.1069,A3CGQOJC28OVGN
85,A3CGQOJC28OVGN,32,female,playground_131.jpg,playground_164.jpg,playground_131.jpg,right,golf_course_233.jpg,playground_131.jpg,mountain_251.jpg,highway_323.jpg,badlands_65.jpg,badlands_65.jpg,1.0,right,1.0697,1.0,playground,playground_164.jpg,6.962962963,2.3861,A3CGQOJC28OVGN
86,A3CGQOJC28OVGN,32,female,bridge_91.jpg,bridge_82.jpg,bridge_91.jpg,right,golf_course_297.jpg,bridge_91.jpg,highway_38.jpg,mountain_298.jpg,badlands_45.jpg,badlands_45.jpg,1.0,right,1.4196,1.0,bridge,bridge_82.jpg,4.785185072,1.7662,A3CGQOJC28OVGN
87,A3CGQOJC28OVGN,32,female,playground_76.jpg,playground_76.jpg,playground_22.jpg,left,bridge_89.jpg,mountain_213.jpg,badlands_197.jpg,playground_76.jpg,highway_112.jpg,highway_112.jpg,3.0,left,2.6564,0.0,playground,playground_22.jpg,6.888888889,2.7813,A3CGQOJC28OVGN
88,A3CGQOJC28OVGN,32,female,playground_145.jpg,playground_145.jpg,playground_229.jpg,left,highway_103.jpg,mountain_304.jpg,bridge_245.jpg,playground_145.jpg,golf_course_294.jpg,golf_course_294.jpg,3.0,left,1.2311,0.0,playground,playground_229.jpg,7.37777823,2.5097,A3CGQOJC28OVGN
89,A3CGQOJC28OVGN,32,female,mountain_293.jpg,mountain_47.jpg,mountain_293.jpg,right,playground_116.jpg,mountain_293.jpg,bridge_23.jpg,golf_course_213.jpg,highway_57.jpg,highway_57.jpg,1.0,left,0.961,1.0,mountain,mountain_47.jpg,7.985185411,2.0879,A3CGQOJC28OVGN
90,A3CGQOJC28OVGN,32,female,golf_course_331.jpg,golf_course_114.jpg,golf_course_331.jpg,right,highway_141.jpg,playground_160.jpg,golf_course_331.jpg,badlands_183.jpg,bridge_175.jpg,bridge_175.jpg,2.0,right,1.0687,0.0,golf,golf_course_114.jpg,2.051851908,2.366,A3CGQOJC28OVGN
91,A3CGQOJC28OVGN,32,female,golf_course_188.jpg,golf_course_188.jpg,golf_course_157.jpg,left,golf_course_188.jpg,badlands_209.jpg,bridge_125.jpg,mountain_96.jpg,highway_12.jpg,highway_12.jpg,0.0,left,2.1982,0.0,golf,golf_course_157.jpg,3.096296522,1.8728,A3CGQOJC28OVGN
92,A3CGQOJC28OVGN,32,female,highway_415.jpg,highway_415.jpg,highway_174.jpg,left,mountain_245.jpg,highway_415.jpg,bridge_49.jpg,badlands_16.jpg,playground_134.jpg,playground_134.jpg,1.0,left,1.6131,1.0,highway,highway_174.jpg,6.992592706,2.4329,A3CGQOJC28OVGN
93,A3CGQOJC28OVGN,32,female,mountain_101.jpg,mountain_221.jpg,mountain_101.jpg,right,highway_295.jpg,badlands_142.jpg,mountain_101.jpg,golf_course_88.jpg,bridge_90.jpg,bridge_90.jpg,2.0,right,1.3849,1.0,mountain,mountain_221.jpg,4.022222448,2.3408,A3CGQOJC28OVGN
94,A3CGQOJC28OVGN,32,female,bridge_250.jpg,bridge_250.jpg,bridge_205.jpg,left,bridge_250.jpg,badlands_140.jpg,playground_11.jpg,mountain_112.jpg,highway_342.jpg,highway_342.jpg,0.0,left,0.9335,1.0,bridge,bridge_205.jpg,5.955555669,2.179,A3CGQOJC28OVGN
95,A3CGQOJC28OVGN,32,female,golf_course_78.jpg,golf_course_78.jpg,golf_course_101.jpg,left,bridge_104.jpg,highway_303.jpg,golf_course_78.jpg,mountain_190.jpg,playground_114.jpg,playground_114.jpg,2.0,right,1.1682,1.0,golf,golf_course_101.jpg,4.985185411,1.861,A3CGQOJC28OVGN
96,A3CGQOJC28OVGN,32,female,badlands_184.jpg,badlands_184.jpg,badlands_228.jpg,left,badlands_184.jpg,mountain_181.jpg,playground_225.jpg,highway_195.jpg,golf_course_226.jpg,golf_course_226.jpg,0.0,left,1.288,0.0,badlands,badlands_228.jpg,6.94074108,1.6458,A3CGQOJC28OVGN
97,A3CGQOJC28OVGN,32,female,bridge_256.jpg,bridge_54.jpg,bridge_256.jpg,right,badlands_179.jpg,bridge_256.jpg,highway_88.jpg,mountain_23.jpg,playground_243.jpg,playground_243.jpg,1.0,right,1.1284,0.0,bridge,bridge_54.jpg,6.140740854,1.7322,A3CGQOJC28OVGN
98,A3CGQOJC28OVGN,32,female,golf_course_87.jpg,golf_course_130.jpg,golf_course_87.jpg,right,mountain_301.jpg,golf_course_87.jpg,highway_286.jpg,playground_113.jpg,badlands_227.jpg,badlands_227.jpg,1.0,right,3.1788,0.0,golf,golf_course_130.jpg,7.444444444,2.012,A3CGQOJC28OVGN
99,A3CGQOJC28OVGN,32,female,mountain_232.jpg,mountain_232.jpg,mountain_54.jpg,left,bridge_233.jpg,playground_172.jpg,mountain_232.jpg,golf_course_126.jpg,badlands_229.jpg,badlands_229.jpg,2.0,right,3.6198,1.0,mountain,mountain_54.jpg,5.340740628,3.2119,A3CGQOJC28OVGN
100,A3CGQOJC28OVGN,32,female,badlands_24.jpg,badlands_24.jpg,badlands_3.jpg,left,mountain_135.jpg,badlands_24.jpg,bridge_150.jpg,golf_course_37.jpg,highway_259.jpg,highway_259.jpg,1.0,left,0.9955,0.0,badlands,badlands_3.jpg,3.414814702,1.7521,A3CGQOJC28OVGN
101,A3CGQOJC28OVGN,32,female,playground_117.jpg,playground_127.jpg,playground_117.jpg,right,playground_117.jpg,bridge_4.jpg,mountain_249.jpg,highway_348.jpg,badlands_226.jpg,badlands_226.jpg,0.0,right,1.2454,1.0,playground,playground_127.jpg,6.666666667,2.2003,A3CGQOJC28OVGN
102,A3CGQOJC28OVGN,32,female,highway_156.jpg,highway_156.jpg,highway_293.jpg,left,bridge_239.jpg,highway_156.jpg,badlands_86.jpg,mountain_11.jpg,playground_121.jpg,playground_121.jpg,1.0,left,1.8318,1.0,highway,highway_293.jpg,8.829629404,2.2234,A3CGQOJC28OVGN
103,A3CGQOJC28OVGN,32,female,badlands_70.jpg,badlands_70.jpg,badlands_119.jpg,left,golf_course_205.jpg,bridge_68.jpg,badlands_70.jpg,playground_0.jpg,mountain_197.jpg,mountain_197.jpg,2.0,left,1.4978,1.0,badlands,badlands_119.jpg,4.377777665,2.4286,A3CGQOJC28OVGN
104,A3CGQOJC28OVGN,32,female,highway_93.jpg,highway_85.jpg,highway_93.jpg,right,bridge_166.jpg,playground_255.jpg,badlands_81.jpg,highway_93.jpg,mountain_59.jpg,mountain_59.jpg,3.0,right,0.7274,0.0,highway,highway_85.jpg,3.577778004,1.8292,A3CGQOJC28OVGN
105,A3CGQOJC28OVGN,32,female,mountain_156.jpg,mountain_156.jpg,mountain_128.jpg,left,golf_course_135.jpg,mountain_156.jpg,playground_212.jpg,badlands_71.jpg,bridge_120.jpg,bridge_120.jpg,1.0,left,1.7233,0.0,mountain,mountain_128.jpg,7.925925926,2.2914,A3CGQOJC28OVGN
106,A3CGQOJC28OVGN,32,female,golf_course_217.jpg,golf_course_262.jpg,golf_course_217.jpg,right,mountain_289.jpg,badlands_149.jpg,golf_course_217.jpg,bridge_119.jpg,highway_215.jpg,highway_215.jpg,2.0,right,1.0036,1.0,golf,golf_course_262.jpg,2.985185411,3.4898,A3CGQOJC28OVGN
107,A3CGQOJC28OVGN,32,female,mountain_222.jpg,mountain_222.jpg,mountain_93.jpg,left,badlands_25.jpg,mountain_222.jpg,bridge_180.jpg,highway_210.jpg,playground_8.jpg,playground_8.jpg,1.0,right,2.7943,1.0,mountain,mountain_93.jpg,2.044444614,1.9091,A3CGQOJC28OVGN
108,A3CGQOJC28OVGN,32,female,golf_course_214.jpg,golf_course_214.jpg,golf_course_312.jpg,left,bridge_156.jpg,highway_69.jpg,golf_course_214.jpg,playground_96.jpg,badlands_40.jpg,badlands_40.jpg,2.0,right,1.3619,0.0,golf,golf_course_312.jpg,4.711110998,1.9305,A3CGQOJC28OVGN
109,A3CGQOJC28OVGN,32,female,bridge_128.jpg,bridge_61.jpg,bridge_128.jpg,right,highway_397.jpg,bridge_128.jpg,golf_course_54.jpg,mountain_195.jpg,badlands_85.jpg,badlands_85.jpg,1.0,right,1.454,0.0,bridge,bridge_61.jpg,3.303703591,1.5369,A3CGQOJC28OVGN
110,A3CGQOJC28OVGN,32,female,golf_course_193.jpg,golf_course_193.jpg,golf_course_123.jpg,left,bridge_203.jpg,badlands_88.jpg,mountain_280.jpg,golf_course_193.jpg,playground_16.jpg,playground_16.jpg,3.0,left,1.0291,1.0,golf,golf_course_123.jpg,4.881481595,2.5555,A3CGQOJC28OVGN
111,A3CGQOJC28OVGN,32,female,mountain_110.jpg,mountain_110.jpg,mountain_223.jpg,left,highway_241.jpg,mountain_110.jpg,bridge_173.jpg,golf_course_240.jpg,badlands_56.jpg,badlands_56.jpg,1.0,left,2.2729,1.0,mountain,mountain_223.jpg,3.977778117,2.2786,A3CGQOJC28OVGN
112,A3CGQOJC28OVGN,32,female,bridge_202.jpg,bridge_31.jpg,bridge_202.jpg,right,mountain_210.jpg,bridge_202.jpg,highway_247.jpg,golf_course_98.jpg,badlands_195.jpg,badlands_195.jpg,1.0,right,3.1673,0.0,bridge,bridge_31.jpg,3.051852191,2.2202,A3CGQOJC28OVGN
113,A3CGQOJC28OVGN,32,female,bridge_108.jpg,bridge_116.jpg,bridge_108.jpg,right,bridge_108.jpg,playground_169.jpg,highway_158.jpg,mountain_37.jpg,badlands_155.jpg,badlands_155.jpg,0.0,right,1.4497,0.0,bridge,bridge_116.jpg,5.792592932,1.7484,A3CGQOJC28OVGN
114,A3CGQOJC28OVGN,32,female,playground_240.jpg,playground_240.jpg,playground_40.jpg,left,golf_course_73.jpg,highway_22.jpg,playground_240.jpg,bridge_78.jpg,badlands_223.jpg,badlands_223.jpg,2.0,left,1.5969,1.0,playground,playground_40.jpg,6.725926152,1.3542,A3CGQOJC28OVGN
115,A3CGQOJC28OVGN,32,female,badlands_137.jpg,badlands_194.jpg,badlands_137.jpg,right,bridge_176.jpg,playground_155.jpg,highway_200.jpg,badlands_137.jpg,golf_course_146.jpg,golf_course_146.jpg,3.0,left,1.0938,0.0,badlands,badlands_194.jpg,5.422222561,1.4606,A3CGQOJC28OVGN
116,A3CGQOJC28OVGN,32,female,playground_10.jpg,playground_10.jpg,playground_12.jpg,left,playground_10.jpg,golf_course_21.jpg,badlands_4.jpg,mountain_139.jpg,highway_243.jpg,highway_243.jpg,0.0,right,1.429,1.0,playground,playground_12.jpg,7.570370144,1.3887,A3CGQOJC28OVGN
117,A3CGQOJC28OVGN,32,female,highway_394.jpg,highway_204.jpg,highway_394.jpg,right,highway_394.jpg,bridge_189.jpg,golf_course_207.jpg,badlands_215.jpg,playground_157.jpg,playground_157.jpg,0.0,right,0.8872,0.0,highway,highway_204.jpg,5.718518858,1.8241,A3CGQOJC28OVGN
118,A3CGQOJC28OVGN,32,female,golf_course_195.jpg,golf_course_195.jpg,golf_course_25.jpg,left,bridge_235.jpg,golf_course_195.jpg,mountain_70.jpg,badlands_168.jpg,highway_365.jpg,highway_365.jpg,1.0,left,2.0478,0.0,golf,golf_course_25.jpg,3.31111145,1.464,A3CGQOJC28OVGN
119,A3CGQOJC28OVGN,32,female,badlands_221.jpg,badlands_115.jpg,badlands_221.jpg,right,badlands_221.jpg,highway_382.jpg,mountain_143.jpg,golf_course_125.jpg,playground_1.jpg,playground_1.jpg,0.0,right,1.0814,0.0,badlands,badlands_115.jpg,5.348148487,2.7409,A3CGQOJC28OVGN
120,A141JL6MLG3O45,50,Female,highway_415.jpg,highway_415.jpg,highway_174.jpg,left,playground_111.jpg,highway_415.jpg,badlands_209.jpg,golf_course_29.jpg,mountain_214.jpg,mountain_214.jpg,1.0,left,11.096,1.0,highway,highway_174.jpg,4.0,14.3365,A141JL6MLG3O45
121,A141JL6MLG3O45,50,Female,playground_76.jpg,playground_76.jpg,playground_72.jpg,left,mountain_103.jpg,golf_course_165.jpg,highway_259.jpg,playground_76.jpg,bridge_114.jpg,bridge_114.jpg,3.0,left,5.4621,1.0,playground,playground_72.jpg,4.0,2.4659,A141JL6MLG3O45
122,A141JL6MLG3O45,50,Female,golf_course_193.jpg,golf_course_235.jpg,golf_course_193.jpg,right,playground_165.jpg,mountain_195.jpg,bridge_49.jpg,golf_course_193.jpg,highway_69.jpg,highway_69.jpg,3.0,right,3.9927,0.0,golf,golf_course_235.jpg,5.03125,10.3246,A141JL6MLG3O45
123,A141JL6MLG3O45,50,Female,mountain_57.jpg,mountain_57.jpg,mountain_193.jpg,left,playground_1.jpg,bridge_2.jpg,mountain_57.jpg,badlands_227.jpg,golf_course_133.jpg,golf_course_133.jpg,2.0,left,5.2027,0.0,mountain,mountain_193.jpg,2.677083333,7.1651,A141JL6MLG3O45
124,A141JL6MLG3O45,50,Female,golf_course_87.jpg,golf_course_161.jpg,golf_course_87.jpg,right,playground_61.jpg,golf_course_87.jpg,badlands_183.jpg,bridge_78.jpg,highway_200.jpg,highway_200.jpg,1.0,right,5.0887,1.0,golf,golf_course_161.jpg,6.666666667,3.6932,A141JL6MLG3O45
125,A141JL6MLG3O45,50,Female,badlands_24.jpg,badlands_24.jpg,badlands_3.jpg,left,highway_38.jpg,mountain_213.jpg,badlands_24.jpg,golf_course_233.jpg,bridge_183.jpg,bridge_183.jpg,2.0,left,3.3312,0.0,badlands,badlands_3.jpg,1.947916667,3.7695,A141JL6MLG3O45
126,A141JL6MLG3O45,50,Female,golf_course_331.jpg,golf_course_26.jpg,golf_course_331.jpg,right,golf_course_331.jpg,mountain_298.jpg,highway_220.jpg,playground_218.jpg,badlands_32.jpg,badlands_32.jpg,0.0,right,3.5132,1.0,golf,golf_course_26.jpg,7.96875,5.344,A141JL6MLG3O45
127,A141JL6MLG3O45,50,Female,mountain_230.jpg,mountain_230.jpg,mountain_184.jpg,left,golf_course_125.jpg,mountain_230.jpg,highway_326.jpg,badlands_201.jpg,bridge_103.jpg,bridge_103.jpg,1.0,right,5.9439,0.0,mountain,mountain_184.jpg,2.989583333,6.1808,A141JL6MLG3O45
128,A141JL6MLG3O45,50,Female,golf_course_195.jpg,golf_course_195.jpg,golf_course_25.jpg,left,mountain_102.jpg,bridge_15.jpg,golf_course_195.jpg,badlands_166.jpg,highway_112.jpg,highway_112.jpg,2.0,left,4.5356,0.0,golf,golf_course_25.jpg,5.989583333,3.731,A141JL6MLG3O45
129,A141JL6MLG3O45,50,Female,badlands_52.jpg,badlands_52.jpg,badlands_94.jpg,left,bridge_161.jpg,highway_100.jpg,golf_course_240.jpg,badlands_52.jpg,mountain_196.jpg,mountain_196.jpg,3.0,left,3.0664,0.0,badlands,badlands_94.jpg,4.9375,4.7696,A141JL6MLG3O45
130,A141JL6MLG3O45,50,Female,highway_394.jpg,highway_406.jpg,highway_394.jpg,right,highway_394.jpg,playground_243.jpg,golf_course_21.jpg,bridge_120.jpg,badlands_88.jpg,badlands_88.jpg,0.0,right,2.8505,1.0,highway,highway_406.jpg,6.020833333,4.8,A141JL6MLG3O45
131,A141JL6MLG3O45,50,Female,badlands_184.jpg,badlands_228.jpg,badlands_184.jpg,right,golf_course_135.jpg,badlands_184.jpg,playground_116.jpg,bridge_4.jpg,mountain_70.jpg,mountain_70.jpg,1.0,left,3.2955,0.0,badlands,badlands_228.jpg,6.96875,3.1202,A141JL6MLG3O45
132,A141JL6MLG3O45,50,Female,bridge_172.jpg,bridge_17.jpg,bridge_172.jpg,right,playground_181.jpg,bridge_172.jpg,badlands_104.jpg,highway_286.jpg,golf_course_73.jpg,golf_course_73.jpg,1.0,right,2.3704,0.0,bridge,bridge_17.jpg,1.9375,3.528,A141JL6MLG3O45
133,A141JL6MLG3O45,50,Female,highway_209.jpg,highway_122.jpg,highway_209.jpg,right,mountain_143.jpg,golf_course_146.jpg,highway_209.jpg,playground_212.jpg,bridge_76.jpg,bridge_76.jpg,2.0,right,2.4984,1.0,highway,highway_122.jpg,5.958333333,3.6283,A141JL6MLG3O45
134,A141JL6MLG3O45,50,Female,playground_60.jpg,playground_60.jpg,playground_268.jpg,left,playground_60.jpg,badlands_197.jpg,mountain_10.jpg,bridge_173.jpg,highway_247.jpg,highway_247.jpg,0.0,right,4.9188,0.0,playground,playground_268.jpg,7.010416667,18.0088,A141JL6MLG3O45
135,A141JL6MLG3O45,50,Female,mountain_110.jpg,mountain_110.jpg,mountain_223.jpg,left,mountain_110.jpg,bridge_136.jpg,highway_210.jpg,badlands_65.jpg,golf_course_93.jpg,golf_course_93.jpg,0.0,left,2.1161,1.0,mountain,mountain_223.jpg,5.010416667,3.605,A141JL6MLG3O45
136,A141JL6MLG3O45,50,Female,golf_course_188.jpg,golf_course_160.jpg,golf_course_188.jpg,right,highway_382.jpg,bridge_189.jpg,golf_course_188.jpg,mountain_304.jpg,playground_114.jpg,playground_114.jpg,2.0,left,4.3601,1.0,golf,golf_course_160.jpg,7.0,5.1248,A141JL6MLG3O45
137,A141JL6MLG3O45,50,Female,bridge_91.jpg,bridge_91.jpg,bridge_253.jpg,left,badlands_85.jpg,playground_172.jpg,bridge_91.jpg,highway_57.jpg,mountain_306.jpg,mountain_306.jpg,2.0,left,2.856,0.0,bridge,bridge_253.jpg,4.0,5.3859,A141JL6MLG3O45
138,A141JL6MLG3O45,50,Female,badlands_222.jpg,badlands_222.jpg,badlands_34.jpg,left,mountain_210.jpg,golf_course_210.jpg,playground_207.jpg,badlands_222.jpg,bridge_104.jpg,bridge_104.jpg,3.0,left,1.3428,0.0,badlands,badlands_34.jpg,6.979166667,5.9389,A141JL6MLG3O45
139,A141JL6MLG3O45,50,Female,golf_course_15.jpg,golf_course_97.jpg,golf_course_15.jpg,right,golf_course_15.jpg,highway_323.jpg,playground_31.jpg,mountain_126.jpg,badlands_211.jpg,badlands_211.jpg,0.0,right,2.9278,1.0,golf,golf_course_97.jpg,7.90625,2.9171,A141JL6MLG3O45
140,A141JL6MLG3O45,50,Female,badlands_23.jpg,badlands_101.jpg,badlands_23.jpg,right,playground_198.jpg,mountain_243.jpg,badlands_23.jpg,golf_course_207.jpg,bridge_43.jpg,bridge_43.jpg,2.0,right,3.3583,1.0,badlands,badlands_101.jpg,4.03125,4.5804,A141JL6MLG3O45
141,A141JL6MLG3O45,50,Female,badlands_21.jpg,badlands_21.jpg,badlands_98.jpg,left,golf_course_37.jpg,playground_155.jpg,bridge_170.jpg,badlands_21.jpg,highway_88.jpg,highway_88.jpg,3.0,left,2.4211,1.0,badlands,badlands_98.jpg,6.0,11.8389,A141JL6MLG3O45
142,A141JL6MLG3O45,50,Female,playground_219.jpg,playground_21.jpg,playground_219.jpg,right,bridge_150.jpg,highway_103.jpg,playground_219.jpg,mountain_225.jpg,badlands_205.jpg,badlands_205.jpg,2.0,right,1.5596,0.0,playground,playground_21.jpg,8.020833333,5.4188,A141JL6MLG3O45
143,A141JL6MLG3O45,50,Female,playground_131.jpg,playground_131.jpg,playground_43.jpg,left,badlands_71.jpg,playground_131.jpg,golf_course_213.jpg,mountain_112.jpg,bridge_125.jpg,bridge_125.jpg,1.0,left,2.2342,0.0,playground,playground_43.jpg,8.0,1.6498,A141JL6MLG3O45
144,A141JL6MLG3O45,50,Female,bridge_128.jpg,bridge_128.jpg,bridge_61.jpg,left,mountain_294.jpg,playground_150.jpg,golf_course_92.jpg,bridge_128.jpg,highway_330.jpg,highway_330.jpg,3.0,right,2.4677,0.0,bridge,bridge_61.jpg,3.072916667,7.8064,A141JL6MLG3O45
145,A141JL6MLG3O45,50,Female,golf_course_217.jpg,golf_course_262.jpg,golf_course_217.jpg,right,golf_course_217.jpg,bridge_89.jpg,playground_18.jpg,mountain_296.jpg,badlands_165.jpg,badlands_165.jpg,0.0,right,2.8072,1.0,golf,golf_course_262.jpg,5.041666667,6.5972,A141JL6MLG3O45
146,A141JL6MLG3O45,50,Female,golf_course_78.jpg,golf_course_134.jpg,golf_course_78.jpg,right,golf_course_78.jpg,badlands_133.jpg,mountain_158.jpg,playground_121.jpg,bridge_6.jpg,bridge_6.jpg,0.0,right,2.5965,0.0,golf,golf_course_134.jpg,7.947916667,4.5204,A141JL6MLG3O45
147,A141JL6MLG3O45,50,Female,mountain_101.jpg,mountain_171.jpg,mountain_101.jpg,right,golf_course_88.jpg,playground_54.jpg,mountain_101.jpg,bridge_175.jpg,badlands_77.jpg,badlands_77.jpg,2.0,left,7.2312,0.0,mountain,mountain_171.jpg,5.916666667,9.1483,A141JL6MLG3O45
148,A141JL6MLG3O45,50,Female,golf_course_309.jpg,golf_course_309.jpg,golf_course_209.jpg,left,highway_86.jpg,golf_course_309.jpg,playground_152.jpg,bridge_55.jpg,mountain_163.jpg,mountain_163.jpg,1.0,left,2.6573,1.0,golf,golf_course_209.jpg,5.0,4.7361,A141JL6MLG3O45
149,A141JL6MLG3O45,50,Female,bridge_65.jpg,bridge_65.jpg,bridge_60.jpg,left,mountain_204.jpg,bridge_65.jpg,badlands_109.jpg,playground_168.jpg,highway_215.jpg,highway_215.jpg,1.0,left,3.3341,1.0,bridge,bridge_60.jpg,3.052083333,3.6072,A141JL6MLG3O45
150,A141JL6MLG3O45,50,Female,mountain_222.jpg,mountain_93.jpg,mountain_222.jpg,right,highway_114.jpg,mountain_222.jpg,golf_course_127.jpg,badlands_179.jpg,bridge_21.jpg,bridge_21.jpg,1.0,right,10.3411,1.0,mountain,mountain_93.jpg,3.958333333,5.1424,A141JL6MLG3O45
151,A141JL6MLG3O45,50,Female,bridge_202.jpg,bridge_31.jpg,bridge_202.jpg,right,bridge_202.jpg,playground_13.jpg,mountain_11.jpg,badlands_4.jpg,golf_course_54.jpg,golf_course_54.jpg,0.0,left,2.7592,0.0,bridge,bridge_31.jpg,4.96875,10.0803,A141JL6MLG3O45
152,A141JL6MLG3O45,50,Female,highway_245.jpg,highway_245.jpg,highway_134.jpg,left,bridge_249.jpg,highway_245.jpg,mountain_251.jpg,badlands_229.jpg,playground_190.jpg,playground_190.jpg,1.0,left,14.7775,0.0,highway,highway_134.jpg,3.0,7.5116,A141JL6MLG3O45
153,A141JL6MLG3O45,50,Female,mountain_232.jpg,mountain_3.jpg,mountain_232.jpg,right,golf_course_205.jpg,mountain_232.jpg,playground_199.jpg,badlands_223.jpg,bridge_23.jpg,bridge_23.jpg,1.0,right,1.8473,0.0,mountain,mountain_3.jpg,2.989583333,7.6965,A141JL6MLG3O45
154,A141JL6MLG3O45,50,Female,mountain_156.jpg,mountain_156.jpg,mountain_295.jpg,left,mountain_156.jpg,playground_160.jpg,highway_99.jpg,golf_course_119.jpg,bridge_178.jpg,bridge_178.jpg,0.0,right,2.2061,1.0,mountain,mountain_295.jpg,6.020833333,4.2805,A141JL6MLG3O45
155,A141JL6MLG3O45,50,Female,highway_156.jpg,highway_293.jpg,highway_156.jpg,right,playground_159.jpg,mountain_139.jpg,highway_156.jpg,golf_course_1.jpg,bridge_252.jpg,bridge_252.jpg,2.0,left,2.5507,1.0,highway,highway_293.jpg,7.979166667,5.3859,A141JL6MLG3O45
156,A141JL6MLG3O45,50,Female,mountain_154.jpg,mountain_154.jpg,mountain_131.jpg,left,golf_course_148.jpg,mountain_154.jpg,bridge_156.jpg,badlands_168.jpg,highway_263.jpg,highway_263.jpg,1.0,right,1.9944,0.0,mountain,mountain_131.jpg,3.96875,5.8454,A141JL6MLG3O45
157,A141JL6MLG3O45,50,Female,badlands_113.jpg,badlands_203.jpg,badlands_113.jpg,right,highway_365.jpg,bridge_59.jpg,mountain_65.jpg,badlands_113.jpg,golf_course_336.jpg,golf_course_336.jpg,3.0,right,1.8498,1.0,badlands,badlands_203.jpg,6.0,2.5464,A141JL6MLG3O45
158,A141JL6MLG3O45,50,Female,golf_course_214.jpg,golf_course_214.jpg,golf_course_317.jpg,left,golf_course_214.jpg,highway_340.jpg,mountain_197.jpg,bridge_119.jpg,badlands_185.jpg,badlands_185.jpg,0.0,left,1.4925,1.0,golf,golf_course_317.jpg,7.958333333,4.4653,A141JL6MLG3O45
159,A141JL6MLG3O45,50,Female,badlands_137.jpg,badlands_137.jpg,badlands_194.jpg,left,golf_course_98.jpg,badlands_137.jpg,playground_96.jpg,bridge_166.jpg,highway_146.jpg,highway_146.jpg,1.0,left,2.6635,0.0,badlands,badlands_194.jpg,3.958333333,2.9624,A141JL6MLG3O45
160,A141JL6MLG3O45,50,Female,mountain_123.jpg,mountain_123.jpg,mountain_94.jpg,left,badlands_25.jpg,playground_0.jpg,mountain_123.jpg,highway_158.jpg,bridge_12.jpg,bridge_12.jpg,2.0,left,1.8289,0.0,mountain,mountain_94.jpg,2.947916667,3.8183,A141JL6MLG3O45
161,A141JL6MLG3O45,50,Female,highway_273.jpg,highway_273.jpg,highway_171.jpg,left,highway_273.jpg,playground_16.jpg,badlands_132.jpg,golf_course_20.jpg,mountain_265.jpg,mountain_265.jpg,0.0,left,2.0784,1.0,highway,highway_171.jpg,5.979166667,4.3857,A141JL6MLG3O45
162,A141JL6MLG3O45,50,Female,highway_359.jpg,highway_359.jpg,highway_389.jpg,left,highway_359.jpg,golf_course_152.jpg,bridge_139.jpg,mountain_289.jpg,playground_153.jpg,playground_153.jpg,0.0,left,2.9334,0.0,highway,highway_389.jpg,3.958333333,4.5499,A141JL6MLG3O45
163,A141JL6MLG3O45,50,Female,bridge_108.jpg,bridge_108.jpg,bridge_116.jpg,left,playground_255.jpg,highway_117.jpg,bridge_108.jpg,badlands_226.jpg,mountain_275.jpg,mountain_275.jpg,2.0,left,2.7914,0.0,bridge,bridge_116.jpg,6.989583333,5.0805,A141JL6MLG3O45
164,A141JL6MLG3O45,50,Female,bridge_256.jpg,bridge_256.jpg,bridge_54.jpg,left,bridge_256.jpg,playground_11.jpg,golf_course_294.jpg,mountain_159.jpg,highway_388.jpg,highway_388.jpg,0.0,left,2.2993,0.0,bridge,bridge_54.jpg,2.96875,6.7598,A141JL6MLG3O45
165,A141JL6MLG3O45,50,Female,badlands_70.jpg,badlands_119.jpg,badlands_70.jpg,right,badlands_70.jpg,bridge_176.jpg,playground_169.jpg,mountain_90.jpg,highway_295.jpg,highway_295.jpg,0.0,right,1.583,1.0,badlands,badlands_119.jpg,4.96875,9.5182,A141JL6MLG3O45
166,A141JL6MLG3O45,50,Female,bridge_250.jpg,bridge_250.jpg,bridge_134.jpg,left,badlands_45.jpg,bridge_250.jpg,golf_course_279.jpg,highway_256.jpg,playground_126.jpg,playground_126.jpg,1.0,left,3.0027,0.0,bridge,bridge_134.jpg,3.989583333,7.6572,A141JL6MLG3O45
167,A141JL6MLG3O45,50,Female,highway_177.jpg,highway_278.jpg,highway_177.jpg,right,highway_177.jpg,golf_course_221.jpg,mountain_84.jpg,bridge_239.jpg,playground_88.jpg,playground_88.jpg,0.0,right,1.7654,1.0,highway,highway_278.jpg,6.9375,4.7189,A141JL6MLG3O45
168,A141JL6MLG3O45,50,Female,mountain_293.jpg,mountain_293.jpg,mountain_72.jpg,left,highway_284.jpg,playground_105.jpg,badlands_152.jpg,mountain_293.jpg,bridge_245.jpg,bridge_245.jpg,3.0,left,2.1882,0.0,mountain,mountain_72.jpg,7.0,12.3668,A141JL6MLG3O45
169,A141JL6MLG3O45,50,Female,playground_117.jpg,playground_127.jpg,playground_117.jpg,right,mountain_249.jpg,highway_2.jpg,golf_course_126.jpg,playground_117.jpg,bridge_137.jpg,bridge_137.jpg,3.0,right,6.3471,1.0,playground,playground_127.jpg,5.020833333,5.4541,A141JL6MLG3O45
170,A141JL6MLG3O45,50,Female,playground_10.jpg,playground_12.jpg,playground_10.jpg,right,playground_10.jpg,golf_course_324.jpg,bridge_90.jpg,badlands_16.jpg,mountain_59.jpg,mountain_59.jpg,0.0,left,2.2446,1.0,playground,playground_12.jpg,5.989583333,4.3562,A141JL6MLG3O45
171,A141JL6MLG3O45,50,Female,badlands_221.jpg,badlands_207.jpg,badlands_221.jpg,right,golf_course_196.jpg,highway_17.jpg,mountain_37.jpg,badlands_221.jpg,bridge_68.jpg,bridge_68.jpg,3.0,right,2.2873,1.0,badlands,badlands_207.jpg,4.010416667,3.3825,A141JL6MLG3O45
172,A141JL6MLG3O45,50,Female,playground_240.jpg,playground_2.jpg,playground_240.jpg,right,bridge_233.jpg,highway_239.jpg,playground_240.jpg,golf_course_333.jpg,mountain_190.jpg,mountain_190.jpg,2.0,right,2.3322,0.0,playground,playground_2.jpg,4.020833333,3.6111,A141JL6MLG3O45
173,A141JL6MLG3O45,50,Female,playground_257.jpg,playground_214.jpg,playground_257.jpg,right,bridge_1.jpg,golf_course_297.jpg,playground_257.jpg,highway_229.jpg,mountain_96.jpg,mountain_96.jpg,2.0,right,2.1777,0.0,playground,playground_214.jpg,4.96875,3.1545,A141JL6MLG3O45
174,A141JL6MLG3O45,50,Female,highway_294.jpg,highway_368.jpg,highway_294.jpg,right,highway_294.jpg,playground_225.jpg,golf_course_337.jpg,badlands_215.jpg,mountain_245.jpg,mountain_245.jpg,0.0,left,2.2035,1.0,highway,highway_368.jpg,5.9375,5.901,A141JL6MLG3O45
175,A141JL6MLG3O45,50,Female,highway_93.jpg,highway_93.jpg,highway_85.jpg,left,highway_93.jpg,bridge_235.jpg,playground_100.jpg,golf_course_55.jpg,mountain_233.jpg,mountain_233.jpg,0.0,right,1.7201,0.0,highway,highway_85.jpg,6.927083333,3.566,A141JL6MLG3O45
176,A141JL6MLG3O45,50,Female,bridge_146.jpg,bridge_146.jpg,bridge_121.jpg,left,bridge_146.jpg,golf_course_163.jpg,playground_113.jpg,highway_241.jpg,badlands_50.jpg,badlands_50.jpg,0.0,left,3.9426,1.0,bridge,bridge_121.jpg,4.96875,2.0908,A141JL6MLG3O45
177,A141JL6MLG3O45,50,Female,bridge_191.jpg,bridge_75.jpg,bridge_191.jpg,right,golf_course_274.jpg,highway_22.jpg,mountain_301.jpg,bridge_191.jpg,playground_45.jpg,playground_45.jpg,3.0,left,2.0161,1.0,bridge,bridge_75.jpg,5.989583333,1.8942,A141JL6MLG3O45
178,A141JL6MLG3O45,50,Female,playground_144.jpg,playground_144.jpg,playground_65.jpg,left,mountain_23.jpg,playground_144.jpg,badlands_195.jpg,highway_243.jpg,golf_course_292.jpg,golf_course_292.jpg,1.0,right,5.2926,1.0,playground,playground_65.jpg,7.979166667,2.671,A141JL6MLG3O45
179,A141JL6MLG3O45,50,Female,playground_145.jpg,playground_242.jpg,playground_145.jpg,right,mountain_257.jpg,golf_course_8.jpg,bridge_198.jpg,playground_145.jpg,badlands_149.jpg,badlands_149.jpg,3.0,left,2.9081,1.0,playground,playground_242.jpg,4.010416667,2.5284,A141JL6MLG3O45
180,A1AYQ8E01NSY5Z,39,male,bridge_128.jpg,bridge_128.jpg,bridge_244.jpg,left,badlands_133.jpg,mountain_245.jpg,bridge_128.jpg,playground_259.jpg,golf_course_336.jpg,golf_course_336.jpg,2.0,right,1.739,1.0,bridge,bridge_244.jpg,1.958333333,4.169,A1AYQ8E01NSY5Z
181,A1AYQ8E01NSY5Z,39,male,golf_course_331.jpg,golf_course_26.jpg,golf_course_331.jpg,right,golf_course_331.jpg,playground_105.jpg,highway_88.jpg,bridge_59.jpg,mountain_70.jpg,mountain_70.jpg,0.0,right,2.92,1.0,golf,golf_course_26.jpg,6.966666667,4.67,A1AYQ8E01NSY5Z
182,A1AYQ8E01NSY5Z,39,male,playground_76.jpg,playground_76.jpg,playground_22.jpg,left,badlands_88.jpg,mountain_96.jpg,playground_76.jpg,golf_course_170.jpg,highway_141.jpg,highway_141.jpg,2.0,right,2.102,0.0,playground,playground_22.jpg,7.8,3.202,A1AYQ8E01NSY5Z
183,A1AYQ8E01NSY5Z,39,male,bridge_172.jpg,bridge_172.jpg,bridge_163.jpg,left,mountain_163.jpg,bridge_172.jpg,badlands_215.jpg,playground_243.jpg,golf_course_11.jpg,golf_course_11.jpg,1.0,left,0.911,1.0,bridge,bridge_163.jpg,5.091666667,3.632,A1AYQ8E01NSY5Z
184,A1AYQ8E01NSY5Z,39,male,mountain_123.jpg,mountain_189.jpg,mountain_123.jpg,right,golf_course_135.jpg,badlands_44.jpg,mountain_123.jpg,bridge_136.jpg,highway_365.jpg,highway_365.jpg,2.0,left,1.239,1.0,mountain,mountain_189.jpg,7.008333333,3.524,A1AYQ8E01NSY5Z
185,A1AYQ8E01NSY5Z,39,male,highway_359.jpg,highway_389.jpg,highway_359.jpg,right,bridge_76.jpg,badlands_45.jpg,highway_359.jpg,playground_155.jpg,mountain_204.jpg,mountain_204.jpg,2.0,left,3.232,0.0,highway,highway_389.jpg,4.008333333,5.177,A1AYQ8E01NSY5Z
186,A1AYQ8E01NSY5Z,39,male,golf_course_193.jpg,golf_course_235.jpg,golf_course_193.jpg,right,mountain_255.jpg,highway_330.jpg,golf_course_193.jpg,badlands_64.jpg,bridge_233.jpg,bridge_233.jpg,2.0,right,1.866,0.0,golf,golf_course_235.jpg,7.075,3.081,A1AYQ8E01NSY5Z
187,A1AYQ8E01NSY5Z,39,male,highway_245.jpg,highway_206.jpg,highway_245.jpg,right,bridge_176.jpg,playground_190.jpg,golf_course_92.jpg,highway_245.jpg,badlands_142.jpg,badlands_142.jpg,3.0,right,1.329,1.0,highway,highway_206.jpg,5.866666667,3.652,A1AYQ8E01NSY5Z
188,A1AYQ8E01NSY5Z,39,male,bridge_65.jpg,bridge_181.jpg,bridge_65.jpg,right,bridge_65.jpg,playground_111.jpg,badlands_58.jpg,highway_388.jpg,mountain_265.jpg,mountain_265.jpg,0.0,left,1.4,0.0,bridge,bridge_181.jpg,8.308333333,3.532,A1AYQ8E01NSY5Z
189,A1AYQ8E01NSY5Z,39,male,mountain_232.jpg,mountain_54.jpg,mountain_232.jpg,right,golf_course_221.jpg,mountain_232.jpg,bridge_173.jpg,badlands_149.jpg,playground_13.jpg,playground_13.jpg,1.0,right,2.726,1.0,mountain,mountain_54.jpg,7.125,4.313,A1AYQ8E01NSY5Z
190,A1AYQ8E01NSY5Z,39,male,playground_219.jpg,playground_219.jpg,playground_21.jpg,left,golf_course_297.jpg,playground_219.jpg,mountain_294.jpg,badlands_223.jpg,highway_69.jpg,highway_69.jpg,1.0,left,1.648,0.0,playground,playground_21.jpg,4.291666667,4.051,A1AYQ8E01NSY5Z
191,A1AYQ8E01NSY5Z,39,male,golf_course_309.jpg,golf_course_309.jpg,golf_course_209.jpg,left,playground_8.jpg,highway_348.jpg,golf_course_309.jpg,bridge_90.jpg,mountain_103.jpg,mountain_103.jpg,2.0,left,1.156,1.0,golf,golf_course_209.jpg,6.066666667,2.796,A1AYQ8E01NSY5Z
192,A1AYQ8E01NSY5Z,39,male,bridge_108.jpg,bridge_108.jpg,bridge_116.jpg,left,bridge_108.jpg,golf_course_274.jpg,highway_220.jpg,mountain_126.jpg,badlands_206.jpg,badlands_206.jpg,0.0,left,2.071,0.0,bridge,bridge_116.jpg,3.858333333,2.137,A1AYQ8E01NSY5Z
193,A1AYQ8E01NSY5Z,39,male,playground_60.jpg,playground_60.jpg,playground_268.jpg,left,mountain_306.jpg,playground_60.jpg,golf_course_37.jpg,badlands_226.jpg,bridge_1.jpg,bridge_1.jpg,1.0,right,1.433,0.0,playground,playground_268.jpg,4.891666667,4.2,A1AYQ8E01NSY5Z
194,A1AYQ8E01NSY5Z,39,male,badlands_221.jpg,badlands_207.jpg,badlands_221.jpg,right,highway_114.jpg,badlands_221.jpg,mountain_10.jpg,playground_207.jpg,bridge_189.jpg,bridge_189.jpg,1.0,right,0.911,1.0,badlands,badlands_207.jpg,6.908333333,6.101,A1AYQ8E01NSY5Z
195,A1AYQ8E01NSY5Z,39,male,highway_415.jpg,highway_174.jpg,highway_415.jpg,right,badlands_40.jpg,bridge_55.jpg,playground_165.jpg,highway_415.jpg,mountain_159.jpg,mountain_159.jpg,3.0,left,2.144,1.0,highway,highway_174.jpg,7.933333333,7.724,A1AYQ8E01NSY5Z
196,A1AYQ8E01NSY5Z,39,male,badlands_70.jpg,badlands_102.jpg,badlands_70.jpg,right,badlands_70.jpg,bridge_150.jpg,highway_286.jpg,playground_126.jpg,golf_course_40.jpg,golf_course_40.jpg,0.0,right,0.188,0.0,badlands,badlands_102.jpg,5.891666667,2.757,A1AYQ8E01NSY5Z
197,A1AYQ8E01NSY5Z,39,male,bridge_250.jpg,bridge_134.jpg,bridge_250.jpg,right,golf_course_196.jpg,mountain_226.jpg,bridge_250.jpg,badlands_30.jpg,highway_397.jpg,highway_397.jpg,2.0,left,1.573,0.0,bridge,bridge_134.jpg,3.925,2.702,A1AYQ8E01NSY5Z
198,A1AYQ8E01NSY5Z,39,male,bridge_91.jpg,bridge_82.jpg,bridge_91.jpg,right,playground_252.jpg,bridge_91.jpg,highway_342.jpg,golf_course_233.jpg,mountain_143.jpg,mountain_143.jpg,1.0,left,1.392,1.0,bridge,bridge_82.jpg,6.95,2.405,A1AYQ8E01NSY5Z
199,A1AYQ8E01NSY5Z,39,male,highway_93.jpg,highway_93.jpg,highway_369.jpg,left,golf_course_333.jpg,mountain_84.jpg,badlands_185.jpg,highway_93.jpg,playground_16.jpg,playground_16.jpg,3.0,right,1.657,1.0,highway,highway_369.jpg,6.95,2.247,A1AYQ8E01NSY5Z
200,A1AYQ8E01NSY5Z,39,male,bridge_146.jpg,bridge_121.jpg,bridge_146.jpg,right,badlands_229.jpg,bridge_146.jpg,highway_99.jpg,mountain_214.jpg,playground_45.jpg,playground_45.jpg,1.0,right,1.668,1.0,bridge,bridge_121.jpg,4.016666667,2.634,A1AYQ8E01NSY5Z
201,A1AYQ8E01NSY5Z,39,male,badlands_24.jpg,badlands_3.jpg,badlands_24.jpg,right,golf_course_20.jpg,playground_212.jpg,badlands_24.jpg,highway_361.jpg,bridge_183.jpg,bridge_183.jpg,2.0,right,1.488,0.0,badlands,badlands_3.jpg,5.325,2.064,A1AYQ8E01NSY5Z
202,A1AYQ8E01NSY5Z,39,male,golf_course_214.jpg,golf_course_214.jpg,golf_course_317.jpg,left,golf_course_214.jpg,bridge_198.jpg,badlands_205.jpg,highway_247.jpg,playground_181.jpg,playground_181.jpg,0.0,right,2.196,1.0,golf,golf_course_317.jpg,8.941666667,4.471,A1AYQ8E01NSY5Z
203,A1AYQ8E01NSY5Z,39,male,mountain_110.jpg,mountain_110.jpg,mountain_223.jpg,left,playground_41.jpg,highway_295.jpg,bridge_165.jpg,mountain_110.jpg,badlands_227.jpg,badlands_227.jpg,3.0,right,0.912,1.0,mountain,mountain_223.jpg,7.058333333,3.766,A1AYQ8E01NSY5Z
204,A1AYQ8E01NSY5Z,39,male,mountain_222.jpg,mountain_222.jpg,mountain_93.jpg,left,mountain_222.jpg,highway_17.jpg,golf_course_324.jpg,playground_96.jpg,badlands_166.jpg,badlands_166.jpg,0.0,right,1.063,1.0,mountain,mountain_93.jpg,7.1,1.749,A1AYQ8E01NSY5Z
205,A1AYQ8E01NSY5Z,39,male,highway_156.jpg,highway_156.jpg,highway_293.jpg,left,golf_course_337.jpg,playground_1.jpg,mountain_302.jpg,highway_156.jpg,badlands_86.jpg,badlands_86.jpg,3.0,left,1.348,1.0,highway,highway_293.jpg,5.991666667,3.512,A1AYQ8E01NSY5Z
206,A1AYQ8E01NSY5Z,39,male,golf_course_78.jpg,golf_course_101.jpg,golf_course_78.jpg,right,mountain_135.jpg,bridge_15.jpg,golf_course_78.jpg,playground_78.jpg,highway_195.jpg,highway_195.jpg,2.0,right,1.265,1.0,golf,golf_course_101.jpg,7.291666667,4.061,A1AYQ8E01NSY5Z
207,A1AYQ8E01NSY5Z,39,male,playground_257.jpg,playground_257.jpg,playground_214.jpg,left,golf_course_322.jpg,bridge_103.jpg,playground_257.jpg,mountain_251.jpg,highway_239.jpg,highway_239.jpg,2.0,right,1.272,0.0,playground,playground_214.jpg,5.9,2.344,A1AYQ8E01NSY5Z
208,A1AYQ8E01NSY5Z,39,male,bridge_191.jpg,bridge_184.jpg,bridge_191.jpg,right,bridge_191.jpg,golf_course_55.jpg,badlands_209.jpg,playground_54.jpg,mountain_296.jpg,mountain_296.jpg,0.0,right,0.739,0.0,bridge,bridge_184.jpg,4.041666667,2.165,A1AYQ8E01NSY5Z
209,A1AYQ8E01NSY5Z,39,male,bridge_202.jpg,bridge_202.jpg,bridge_31.jpg,left,badlands_179.jpg,bridge_202.jpg,highway_340.jpg,playground_153.jpg,golf_course_93.jpg,golf_course_93.jpg,1.0,right,1.581,0.0,bridge,bridge_31.jpg,4.05,5.062,A1AYQ8E01NSY5Z
210,A1AYQ8E01NSY5Z,39,male,mountain_154.jpg,mountain_95.jpg,mountain_154.jpg,right,bridge_12.jpg,mountain_154.jpg,highway_200.jpg,playground_18.jpg,badlands_195.jpg,badlands_195.jpg,1.0,left,1.012,1.0,mountain,mountain_95.jpg,7.2,2.538,A1AYQ8E01NSY5Z
211,A1AYQ8E01NSY5Z,39,male,golf_course_87.jpg,golf_course_130.jpg,golf_course_87.jpg,right,golf_course_87.jpg,mountain_304.jpg,badlands_36.jpg,playground_0.jpg,bridge_114.jpg,bridge_114.jpg,0.0,right,1.694,0.0,golf,golf_course_130.jpg,6.9,2.403,A1AYQ8E01NSY5Z
212,A1AYQ8E01NSY5Z,39,male,golf_course_217.jpg,golf_course_262.jpg,golf_course_217.jpg,right,badlands_56.jpg,highway_229.jpg,golf_course_217.jpg,playground_150.jpg,bridge_203.jpg,bridge_203.jpg,2.0,right,0.979,1.0,golf,golf_course_262.jpg,6.066666667,7.123,A1AYQ8E01NSY5Z
213,A1AYQ8E01NSY5Z,39,male,highway_394.jpg,highway_394.jpg,highway_204.jpg,left,golf_course_210.jpg,badlands_132.jpg,highway_394.jpg,playground_116.jpg,bridge_156.jpg,bridge_156.jpg,2.0,left,1.453,0.0,highway,highway_204.jpg,7.041666667,2.494,A1AYQ8E01NSY5Z
214,A1AYQ8E01NSY5Z,39,male,badlands_222.jpg,badlands_62.jpg,badlands_222.jpg,right,badlands_222.jpg,highway_22.jpg,mountain_139.jpg,playground_169.jpg,golf_course_122.jpg,golf_course_122.jpg,0.0,right,1.674,1.0,badlands,badlands_62.jpg,7.958333333,3.216,A1AYQ8E01NSY5Z
215,A1AYQ8E01NSY5Z,39,male,badlands_137.jpg,badlands_137.jpg,badlands_194.jpg,left,golf_course_148.jpg,badlands_137.jpg,mountain_243.jpg,bridge_170.jpg,playground_157.jpg,playground_157.jpg,1.0,left,1.338,0.0,badlands,badlands_194.jpg,6.541666667,1.998,A1AYQ8E01NSY5Z
216,A1AYQ8E01NSY5Z,39,male,mountain_101.jpg,mountain_101.jpg,mountain_221.jpg,left,bridge_120.jpg,golf_course_127.jpg,mountain_101.jpg,highway_326.jpg,badlands_25.jpg,badlands_25.jpg,2.0,right,1.681,1.0,mountain,mountain_221.jpg,7.008333333,1.305,A1AYQ8E01NSY5Z
217,A1AYQ8E01NSY5Z,39,male,playground_10.jpg,playground_10.jpg,playground_122.jpg,left,golf_course_207.jpg,badlands_168.jpg,highway_117.jpg,playground_10.jpg,mountain_59.jpg,mountain_59.jpg,3.0,right,1.614,0.0,playground,playground_122.jpg,5.858333333,2.443,A1AYQ8E01NSY5Z
218,A1AYQ8E01NSY5Z,39,male,badlands_23.jpg,badlands_23.jpg,badlands_101.jpg,left,highway_103.jpg,mountain_38.jpg,playground_31.jpg,badlands_23.jpg,golf_course_226.jpg,golf_course_226.jpg,3.0,left,0.676,1.0,badlands,badlands_101.jpg,7.075,2.456,A1AYQ8E01NSY5Z
219,A1AYQ8E01NSY5Z,39,male,playground_131.jpg,playground_164.jpg,playground_131.jpg,right,playground_131.jpg,bridge_239.jpg,badlands_50.jpg,highway_57.jpg,golf_course_187.jpg,golf_course_187.jpg,0.0,right,1.383,1.0,playground,playground_164.jpg,5.95,2.15,A1AYQ8E01NSY5Z
220,A1AYQ8E01NSY5Z,39,male,mountain_156.jpg,mountain_295.jpg,mountain_156.jpg,right,bridge_180.jpg,golf_course_267.jpg,mountain_156.jpg,highway_71.jpg,playground_89.jpg,playground_89.jpg,2.0,right,0.773,1.0,mountain,mountain_295.jpg,8.141666667,2.452,A1AYQ8E01NSY5Z
221,A1AYQ8E01NSY5Z,39,male,bridge_256.jpg,bridge_256.jpg,bridge_54.jpg,left,playground_172.jpg,highway_112.jpg,bridge_256.jpg,badlands_165.jpg,golf_course_279.jpg,golf_course_279.jpg,2.0,left,1.593,0.0,bridge,bridge_54.jpg,8.275,2.583,A1AYQ8E01NSY5Z
222,A1AYQ8E01NSY5Z,39,male,golf_course_188.jpg,golf_course_157.jpg,golf_course_188.jpg,right,bridge_2.jpg,badlands_16.jpg,golf_course_188.jpg,playground_159.jpg,mountain_195.jpg,mountain_195.jpg,2.0,left,1.763,0.0,golf,golf_course_157.jpg,6.075,3.198,A1AYQ8E01NSY5Z
223,A1AYQ8E01NSY5Z,39,male,golf_course_195.jpg,golf_course_25.jpg,golf_course_195.jpg,right,badlands_65.jpg,golf_course_195.jpg,bridge_21.jpg,mountain_65.jpg,playground_39.jpg,playground_39.jpg,1.0,right,1.332,0.0,golf,golf_course_25.jpg,4.108333333,2.351,A1AYQ8E01NSY5Z
224,A1AYQ8E01NSY5Z,39,male,playground_240.jpg,playground_240.jpg,playground_40.jpg,left,bridge_6.jpg,badlands_147.jpg,highway_38.jpg,playground_240.jpg,mountain_90.jpg,mountain_90.jpg,3.0,left,0.862,1.0,playground,playground_40.jpg,5.991666667,1.741,A1AYQ8E01NSY5Z
225,A1AYQ8E01NSY5Z,39,male,golf_course_15.jpg,golf_course_113.jpg,golf_course_15.jpg,right,bridge_166.jpg,mountain_280.jpg,golf_course_15.jpg,playground_134.jpg,badlands_201.jpg,badlands_201.jpg,2.0,right,1.02,0.0,golf,golf_course_113.jpg,6.925,1.888,A1AYQ8E01NSY5Z
226,A1AYQ8E01NSY5Z,39,male,badlands_21.jpg,badlands_1.jpg,badlands_21.jpg,right,golf_course_29.jpg,badlands_21.jpg,highway_259.jpg,playground_4.jpg,mountain_275.jpg,mountain_275.jpg,1.0,right,0.957,0.0,badlands,badlands_1.jpg,3.608333333,1.728,A1AYQ8E01NSY5Z
227,A1AYQ8E01NSY5Z,39,male,playground_145.jpg,playground_145.jpg,playground_242.jpg,left,badlands_197.jpg,highway_323.jpg,playground_145.jpg,mountain_102.jpg,bridge_138.jpg,bridge_138.jpg,2.0,right,0.953,1.0,playground,playground_242.jpg,6.975,2.042,A1AYQ8E01NSY5Z
228,A1AYQ8E01NSY5Z,39,male,highway_177.jpg,highway_87.jpg,highway_177.jpg,right,golf_course_98.jpg,badlands_140.jpg,bridge_68.jpg,highway_177.jpg,playground_255.jpg,playground_255.jpg,3.0,right,1.106,0.0,highway,highway_87.jpg,3.958333333,3.017,A1AYQ8E01NSY5Z
229,A1AYQ8E01NSY5Z,39,male,playground_144.jpg,playground_144.jpg,playground_137.jpg,left,golf_course_294.jpg,highway_158.jpg,playground_144.jpg,badlands_104.jpg,mountain_196.jpg,mountain_196.jpg,2.0,left,0.824,0.0,playground,playground_137.jpg,3.016666667,2.71,A1AYQ8E01NSY5Z
230,A1AYQ8E01NSY5Z,39,male,highway_294.jpg,highway_368.jpg,highway_294.jpg,right,golf_course_165.jpg,badlands_4.jpg,playground_198.jpg,highway_294.jpg,mountain_298.jpg,mountain_298.jpg,3.0,left,1.656,1.0,highway,highway_368.jpg,6.958333333,3.014,A1AYQ8E01NSY5Z
231,A1AYQ8E01NSY5Z,39,male,mountain_230.jpg,mountain_230.jpg,mountain_184.jpg,left,golf_course_21.jpg,mountain_230.jpg,playground_100.jpg,bridge_137.jpg,highway_382.jpg,highway_382.jpg,1.0,left,0.929,0.0,mountain,mountain_184.jpg,6.958333333,1.227,A1AYQ8E01NSY5Z
232,A1AYQ8E01NSY5Z,39,male,highway_209.jpg,highway_122.jpg,highway_209.jpg,right,highway_209.jpg,golf_course_240.jpg,mountain_257.jpg,badlands_173.jpg,bridge_78.jpg,bridge_78.jpg,0.0,right,1.418,1.0,highway,highway_122.jpg,8.033333333,1.937,A1AYQ8E01NSY5Z
233,A1AYQ8E01NSY5Z,39,male,highway_273.jpg,highway_273.jpg,highway_384.jpg,left,badlands_109.jpg,mountain_181.jpg,highway_273.jpg,golf_course_292.jpg,playground_152.jpg,playground_152.jpg,2.0,right,1.444,0.0,highway,highway_384.jpg,6.708333333,1.597,A1AYQ8E01NSY5Z
234,A1AYQ8E01NSY5Z,39,male,badlands_113.jpg,badlands_113.jpg,badlands_203.jpg,left,highway_241.jpg,badlands_113.jpg,playground_225.jpg,mountain_11.jpg,bridge_119.jpg,bridge_119.jpg,1.0,right,1.068,1.0,badlands,badlands_203.jpg,7.133333333,1.179,A1AYQ8E01NSY5Z
235,A1AYQ8E01NSY5Z,39,male,mountain_57.jpg,mountain_57.jpg,mountain_138.jpg,left,highway_263.jpg,bridge_161.jpg,playground_160.jpg,mountain_57.jpg,golf_course_213.jpg,golf_course_213.jpg,3.0,right,1.774,1.0,mountain,mountain_138.jpg,6.041666667,2.489,A1AYQ8E01NSY5Z
236,A1AYQ8E01NSY5Z,39,male,playground_117.jpg,playground_117.jpg,playground_167.jpg,left,mountain_301.jpg,playground_117.jpg,badlands_152.jpg,highway_215.jpg,bridge_89.jpg,bridge_89.jpg,1.0,right,0.98,0.0,playground,playground_167.jpg,7.75,2.291,A1AYQ8E01NSY5Z
237,A1AYQ8E01NSY5Z,39,male,mountain_293.jpg,mountain_72.jpg,mountain_293.jpg,right,highway_12.jpg,mountain_293.jpg,golf_course_54.jpg,bridge_49.jpg,badlands_155.jpg,badlands_155.jpg,1.0,left,1.013,0.0,mountain,mountain_72.jpg,8.933333333,2.232,A1AYQ8E01NSY5Z
238,A1AYQ8E01NSY5Z,39,male,badlands_184.jpg,badlands_228.jpg,badlands_184.jpg,right,mountain_190.jpg,golf_course_163.jpg,bridge_104.jpg,badlands_184.jpg,highway_256.jpg,highway_256.jpg,3.0,right,2.345,0.0,badlands,badlands_228.jpg,8.991666667,1.841,A1AYQ8E01NSY5Z
239,A1AYQ8E01NSY5Z,39,male,badlands_52.jpg,badlands_52.jpg,badlands_94.jpg,left,mountain_213.jpg,bridge_190.jpg,golf_course_133.jpg,badlands_52.jpg,playground_218.jpg,playground_218.jpg,3.0,left,1.777,0.0,badlands,badlands_94.jpg,6.208333333,5.231,A1AYQ8E01NSY5Z
240,A1HUQ7QA5QWM5Q,35,female,bridge_191.jpg,bridge_184.jpg,bridge_191.jpg,right,bridge_191.jpg,mountain_38.jpg,golf_course_73.jpg,badlands_45.jpg,playground_16.jpg,playground_16.jpg,0.0,left,1.5133,0.0,bridge,bridge_184.jpg,7.346103038,1.5076,A1HUQ7QA5QWM5Q
241,A1HUQ7QA5QWM5Q,35,female,bridge_91.jpg,bridge_91.jpg,bridge_253.jpg,left,golf_course_210.jpg,bridge_91.jpg,highway_58.jpg,playground_207.jpg,mountain_135.jpg,mountain_135.jpg,1.0,right,0.9185,0.0,bridge,bridge_253.jpg,6.955085865,0.8236,A1HUQ7QA5QWM5Q
242,A1HUQ7QA5QWM5Q,35,female,badlands_52.jpg,badlands_63.jpg,badlands_52.jpg,right,highway_239.jpg,badlands_52.jpg,playground_160.jpg,mountain_103.jpg,golf_course_126.jpg,golf_course_126.jpg,1.0,right,1.4101,1.0,badlands,badlands_63.jpg,6.955085865,1.1327,A1HUQ7QA5QWM5Q
243,A1HUQ7QA5QWM5Q,35,female,badlands_24.jpg,badlands_24.jpg,badlands_53.jpg,left,badlands_24.jpg,playground_172.jpg,highway_284.jpg,golf_course_333.jpg,bridge_170.jpg,bridge_170.jpg,0.0,right,1.347,1.0,badlands,badlands_53.jpg,6.955085865,0.7605,A1HUQ7QA5QWM5Q
244,A1HUQ7QA5QWM5Q,35,female,playground_219.jpg,playground_219.jpg,playground_205.jpg,left,mountain_139.jpg,highway_215.jpg,bridge_2.jpg,playground_219.jpg,golf_course_37.jpg,golf_course_37.jpg,3.0,left,1.5053,1.0,playground,playground_205.jpg,6.05680317,1.1305,A1HUQ7QA5QWM5Q
245,A1HUQ7QA5QWM5Q,35,female,highway_93.jpg,highway_369.jpg,highway_93.jpg,right,golf_course_294.jpg,playground_169.jpg,highway_93.jpg,badlands_209.jpg,mountain_275.jpg,mountain_275.jpg,2.0,right,1.8099,1.0,highway,highway_369.jpg,7.060766182,0.9933,A1HUQ7QA5QWM5Q
246,A1HUQ7QA5QWM5Q,35,female,highway_394.jpg,highway_204.jpg,highway_394.jpg,right,playground_168.jpg,badlands_223.jpg,mountain_294.jpg,highway_394.jpg,bridge_103.jpg,bridge_103.jpg,3.0,right,1.1248,0.0,highway,highway_204.jpg,7.007926024,1.5,A1HUQ7QA5QWM5Q
247,A1HUQ7QA5QWM5Q,35,female,highway_209.jpg,highway_314.jpg,highway_209.jpg,right,highway_209.jpg,golf_course_292.jpg,playground_212.jpg,mountain_143.jpg,badlands_183.jpg,badlands_183.jpg,0.0,right,1.0999,0.0,highway,highway_314.jpg,7.007926024,0.8411,A1HUQ7QA5QWM5Q
248,A1HUQ7QA5QWM5Q,35,female,mountain_293.jpg,mountain_293.jpg,mountain_72.jpg,left,mountain_293.jpg,bridge_233.jpg,badlands_152.jpg,playground_225.jpg,golf_course_29.jpg,golf_course_29.jpg,0.0,left,1.378,0.0,mountain,mountain_72.jpg,7.007926024,0.2424,A1HUQ7QA5QWM5Q
249,A1HUQ7QA5QWM5Q,35,female,bridge_202.jpg,bridge_38.jpg,bridge_202.jpg,right,golf_course_165.jpg,badlands_30.jpg,bridge_202.jpg,playground_41.jpg,highway_141.jpg,highway_141.jpg,2.0,right,1.1626,1.0,bridge,bridge_38.jpg,7.007926024,0.2778,A1HUQ7QA5QWM5Q
250,A1HUQ7QA5QWM5Q,35,female,bridge_128.jpg,bridge_128.jpg,bridge_61.jpg,left,golf_course_221.jpg,bridge_128.jpg,highway_241.jpg,playground_243.jpg,badlands_86.jpg,badlands_86.jpg,1.0,left,1.6233,0.0,bridge,bridge_61.jpg,7.007926024,0.2202,A1HUQ7QA5QWM5Q
251,A1HUQ7QA5QWM5Q,35,female,bridge_146.jpg,bridge_121.jpg,bridge_146.jpg,right,highway_114.jpg,bridge_146.jpg,golf_course_279.jpg,badlands_65.jpg,playground_61.jpg,playground_61.jpg,1.0,right,1.4189,1.0,bridge,bridge_121.jpg,7.007926024,0.2335,A1HUQ7QA5QWM5Q
252,A1HUQ7QA5QWM5Q,35,female,highway_294.jpg,highway_294.jpg,highway_203.jpg,left,mountain_195.jpg,highway_294.jpg,playground_111.jpg,badlands_104.jpg,golf_course_146.jpg,golf_course_146.jpg,1.0,left,1.2797,0.0,highway,highway_203.jpg,7.007926024,0.2239,A1HUQ7QA5QWM5Q
253,A1HUQ7QA5QWM5Q,35,female,mountain_222.jpg,mountain_222.jpg,mountain_244.jpg,left,golf_course_54.jpg,highway_220.jpg,mountain_222.jpg,bridge_78.jpg,playground_13.jpg,playground_13.jpg,2.0,right,1.1145,0.0,mountain,mountain_244.jpg,7.007926024,0.2476,A1HUQ7QA5QWM5Q
254,A1HUQ7QA5QWM5Q,35,female,playground_10.jpg,playground_10.jpg,playground_12.jpg,left,golf_course_8.jpg,playground_10.jpg,badlands_132.jpg,mountain_37.jpg,highway_295.jpg,highway_295.jpg,1.0,left,1.3826,1.0,playground,playground_12.jpg,8.001321004,0.7291,A1HUQ7QA5QWM5Q
255,A1HUQ7QA5QWM5Q,35,female,golf_course_309.jpg,golf_course_209.jpg,golf_course_309.jpg,right,mountain_296.jpg,highway_2.jpg,bridge_165.jpg,golf_course_309.jpg,badlands_84.jpg,badlands_84.jpg,3.0,right,0.9065,1.0,golf,golf_course_209.jpg,6.088507266,1.7748,A1HUQ7QA5QWM5Q
256,A1HUQ7QA5QWM5Q,35,female,mountain_110.jpg,mountain_157.jpg,mountain_110.jpg,right,badlands_179.jpg,bridge_139.jpg,mountain_110.jpg,playground_190.jpg,highway_57.jpg,highway_57.jpg,2.0,left,0.7956,0.0,mountain,mountain_157.jpg,4.957727873,1.0914,A1HUQ7QA5QWM5Q
257,A1HUQ7QA5QWM5Q,35,female,badlands_21.jpg,badlands_21.jpg,badlands_1.jpg,left,mountain_59.jpg,bridge_173.jpg,badlands_21.jpg,highway_330.jpg,playground_114.jpg,playground_114.jpg,2.0,right,0.6981,0.0,badlands,badlands_1.jpg,5.982826948,1.3039,A1HUQ7QA5QWM5Q
258,A1HUQ7QA5QWM5Q,35,female,mountain_154.jpg,mountain_131.jpg,mountain_154.jpg,right,playground_152.jpg,bridge_176.jpg,mountain_154.jpg,golf_course_148.jpg,highway_342.jpg,highway_342.jpg,2.0,left,0.9224,0.0,mountain,mountain_131.jpg,7.039630119,0.7495,A1HUQ7QA5QWM5Q
259,A1HUQ7QA5QWM5Q,35,female,golf_course_15.jpg,golf_course_97.jpg,golf_course_15.jpg,right,highway_259.jpg,badlands_71.jpg,golf_course_15.jpg,bridge_90.jpg,mountain_255.jpg,mountain_255.jpg,2.0,right,0.8337,1.0,golf,golf_course_97.jpg,7.980184941,0.5632,A1HUQ7QA5QWM5Q
260,A1HUQ7QA5QWM5Q,35,female,bridge_172.jpg,bridge_17.jpg,bridge_172.jpg,right,golf_course_88.jpg,badlands_227.jpg,bridge_172.jpg,mountain_70.jpg,highway_100.jpg,highway_100.jpg,2.0,left,0.7251,0.0,bridge,bridge_17.jpg,5.021136063,1.5327,A1HUQ7QA5QWM5Q
261,A1HUQ7QA5QWM5Q,35,female,golf_course_331.jpg,golf_course_331.jpg,golf_course_114.jpg,left,playground_54.jpg,bridge_203.jpg,highway_195.jpg,golf_course_331.jpg,mountain_233.jpg,mountain_233.jpg,3.0,right,1.1121,0.0,golf,golf_course_114.jpg,5.961690885,0.8285,A1HUQ7QA5QWM5Q
262,A1HUQ7QA5QWM5Q,35,female,badlands_113.jpg,badlands_113.jpg,badlands_225.jpg,left,bridge_249.jpg,badlands_113.jpg,golf_course_135.jpg,mountain_306.jpg,highway_397.jpg,highway_397.jpg,1.0,right,1.7257,0.0,badlands,badlands_225.jpg,6.965653897,0.6562,A1HUQ7QA5QWM5Q
263,A1HUQ7QA5QWM5Q,35,female,playground_117.jpg,playground_117.jpg,playground_167.jpg,left,mountain_181.jpg,playground_117.jpg,highway_88.jpg,badlands_195.jpg,bridge_1.jpg,bridge_1.jpg,1.0,left,1.4456,0.0,playground,playground_167.jpg,7.969616909,0.558,A1HUQ7QA5QWM5Q
264,A1HUQ7QA5QWM5Q,35,female,golf_course_78.jpg,golf_course_78.jpg,golf_course_134.jpg,left,bridge_12.jpg,highway_243.jpg,badlands_173.jpg,golf_course_78.jpg,playground_39.jpg,playground_39.jpg,3.0,right,1.0687,0.0,golf,golf_course_134.jpg,3.932628798,0.9041,A1HUQ7QA5QWM5Q
265,A1HUQ7QA5QWM5Q,35,female,golf_course_87.jpg,golf_course_130.jpg,golf_course_87.jpg,right,playground_121.jpg,mountain_251.jpg,golf_course_87.jpg,bridge_178.jpg,badlands_56.jpg,badlands_56.jpg,2.0,right,1.3245,0.0,golf,golf_course_130.jpg,5.147952444,0.66,A1HUQ7QA5QWM5Q
266,A1HUQ7QA5QWM5Q,35,female,badlands_222.jpg,badlands_222.jpg,badlands_62.jpg,left,bridge_183.jpg,badlands_222.jpg,playground_116.jpg,mountain_159.jpg,highway_146.jpg,highway_146.jpg,1.0,left,15.12,1.0,badlands,badlands_62.jpg,5.856010568,0.8176,A1HUQ7QA5QWM5Q
267,A1HUQ7QA5QWM5Q,35,female,mountain_101.jpg,mountain_101.jpg,mountain_221.jpg,left,bridge_245.jpg,highway_388.jpg,playground_255.jpg,mountain_101.jpg,golf_course_152.jpg,golf_course_152.jpg,3.0,right,1.4171,1.0,mountain,mountain_221.jpg,6.92338177,0.5111,A1HUQ7QA5QWM5Q
268,A1HUQ7QA5QWM5Q,35,female,playground_240.jpg,playground_2.jpg,playground_240.jpg,right,golf_course_274.jpg,mountain_289.jpg,playground_240.jpg,badlands_85.jpg,bridge_23.jpg,bridge_23.jpg,2.0,right,1.239,0.0,playground,playground_2.jpg,7.91677675,0.8085,A1HUQ7QA5QWM5Q
269,A1HUQ7QA5QWM5Q,35,female,mountain_230.jpg,mountain_230.jpg,mountain_184.jpg,left,bridge_190.jpg,mountain_230.jpg,golf_course_267.jpg,highway_17.jpg,playground_4.jpg,playground_4.jpg,1.0,right,1.1027,0.0,mountain,mountain_184.jpg,6.912813738,0.7454,A1HUQ7QA5QWM5Q
270,A1HUQ7QA5QWM5Q,35,female,highway_245.jpg,highway_206.jpg,highway_245.jpg,right,badlands_109.jpg,highway_245.jpg,golf_course_40.jpg,mountain_213.jpg,playground_157.jpg,playground_157.jpg,1.0,right,1.3273,1.0,highway,highway_206.jpg,6.912813738,0.3052,A1HUQ7QA5QWM5Q
271,A1HUQ7QA5QWM5Q,35,female,highway_415.jpg,highway_60.jpg,highway_415.jpg,right,golf_course_324.jpg,highway_415.jpg,playground_159.jpg,bridge_161.jpg,mountain_298.jpg,mountain_298.jpg,1.0,right,1.0858,0.0,highway,highway_60.jpg,6.912813738,0.2164,A1HUQ7QA5QWM5Q
272,A1HUQ7QA5QWM5Q,35,female,bridge_65.jpg,bridge_181.jpg,bridge_65.jpg,right,highway_229.jpg,golf_course_20.jpg,badlands_155.jpg,bridge_65.jpg,playground_199.jpg,playground_199.jpg,3.0,right,1.2315,0.0,bridge,bridge_181.jpg,6.912813738,0.2411,A1HUQ7QA5QWM5Q
273,A1HUQ7QA5QWM5Q,35,female,playground_60.jpg,playground_60.jpg,playground_244.jpg,left,bridge_235.jpg,badlands_58.jpg,playground_60.jpg,highway_263.jpg,mountain_249.jpg,mountain_249.jpg,2.0,right,1.6273,1.0,playground,playground_244.jpg,6.912813738,0.2024,A1HUQ7QA5QWM5Q
274,A1HUQ7QA5QWM5Q,35,female,badlands_70.jpg,badlands_119.jpg,badlands_70.jpg,right,highway_247.jpg,golf_course_244.jpg,playground_1.jpg,badlands_70.jpg,mountain_96.jpg,mountain_96.jpg,3.0,right,2.1813,1.0,badlands,badlands_119.jpg,6.912813738,0.3264,A1HUQ7QA5QWM5Q
275,A1HUQ7QA5QWM5Q,35,female,playground_257.jpg,playground_215.jpg,playground_257.jpg,right,badlands_40.jpg,bridge_180.jpg,playground_257.jpg,highway_256.jpg,mountain_210.jpg,mountain_210.jpg,2.0,right,1.2051,1.0,playground,playground_215.jpg,6.912813738,0.2318,A1HUQ7QA5QWM5Q
276,A1HUQ7QA5QWM5Q,35,female,highway_359.jpg,highway_389.jpg,highway_359.jpg,right,highway_359.jpg,golf_course_240.jpg,badlands_205.jpg,mountain_11.jpg,playground_0.jpg,playground_0.jpg,0.0,right,1.0445,0.0,highway,highway_389.jpg,6.912813738,0.2378,A1HUQ7QA5QWM5Q
277,A1HUQ7QA5QWM5Q,35,female,highway_273.jpg,highway_273.jpg,highway_171.jpg,left,badlands_32.jpg,highway_273.jpg,playground_113.jpg,mountain_10.jpg,bridge_89.jpg,bridge_89.jpg,1.0,right,1.1966,1.0,highway,highway_171.jpg,6.120211361,1.0221,A1HUQ7QA5QWM5Q
278,A1HUQ7QA5QWM5Q,35,female,mountain_232.jpg,mountain_54.jpg,mountain_232.jpg,right,mountain_232.jpg,highway_103.jpg,bridge_136.jpg,playground_181.jpg,golf_course_322.jpg,golf_course_322.jpg,0.0,left,1.191,1.0,mountain,mountain_54.jpg,6.120211361,0.2104,A1HUQ7QA5QWM5Q
279,A1HUQ7QA5QWM5Q,35,female,playground_145.jpg,playground_242.jpg,playground_145.jpg,right,playground_145.jpg,highway_326.jpg,bridge_252.jpg,badlands_133.jpg,mountain_65.jpg,mountain_65.jpg,0.0,right,1.5008,1.0,playground,playground_242.jpg,5.021136063,0.8567,A1HUQ7QA5QWM5Q
280,A1HUQ7QA5QWM5Q,35,female,bridge_256.jpg,bridge_211.jpg,bridge_256.jpg,right,bridge_256.jpg,playground_155.jpg,mountain_301.jpg,badlands_215.jpg,highway_365.jpg,highway_365.jpg,0.0,right,1.0432,1.0,bridge,bridge_211.jpg,7.103038309,0.7126,A1HUQ7QA5QWM5Q
281,A1HUQ7QA5QWM5Q,35,female,golf_course_214.jpg,golf_course_214.jpg,golf_course_317.jpg,left,highway_86.jpg,golf_course_214.jpg,badlands_166.jpg,mountain_163.jpg,playground_11.jpg,playground_11.jpg,1.0,right,1.184,1.0,golf,golf_course_317.jpg,8.096433289,0.6474,A1HUQ7QA5QWM5Q
282,A1HUQ7QA5QWM5Q,35,female,playground_144.jpg,playground_137.jpg,playground_144.jpg,right,playground_144.jpg,bridge_150.jpg,badlands_25.jpg,mountain_243.jpg,golf_course_233.jpg,golf_course_233.jpg,0.0,right,1.1967,0.0,playground,playground_137.jpg,8.836195509,1.0578,A1HUQ7QA5QWM5Q
283,A1HUQ7QA5QWM5Q,35,female,golf_course_217.jpg,golf_course_217.jpg,golf_course_262.jpg,left,badlands_88.jpg,golf_course_217.jpg,bridge_138.jpg,mountain_204.jpg,highway_340.jpg,highway_340.jpg,1.0,right,0.9474,1.0,golf,golf_course_262.jpg,6.173051519,0.7147,A1HUQ7QA5QWM5Q
284,A1HUQ7QA5QWM5Q,35,female,playground_76.jpg,playground_22.jpg,playground_76.jpg,right,playground_76.jpg,highway_348.jpg,badlands_201.jpg,mountain_214.jpg,golf_course_205.jpg,golf_course_205.jpg,0.0,left,0.9949,0.0,playground,playground_22.jpg,6.173051519,0.2338,A1HUQ7QA5QWM5Q
285,A1HUQ7QA5QWM5Q,35,female,badlands_184.jpg,badlands_184.jpg,badlands_103.jpg,left,golf_course_226.jpg,badlands_184.jpg,bridge_15.jpg,highway_382.jpg,mountain_90.jpg,mountain_90.jpg,1.0,right,0.1082,1.0,badlands,badlands_103.jpg,6.902245707,0.8256,A1HUQ7QA5QWM5Q
286,A1HUQ7QA5QWM5Q,35,female,highway_156.jpg,highway_160.jpg,highway_156.jpg,right,highway_156.jpg,bridge_68.jpg,mountain_190.jpg,badlands_149.jpg,playground_252.jpg,playground_252.jpg,0.0,left,6.6056,0.0,highway,highway_160.jpg,6.902245707,0.3283,A1HUQ7QA5QWM5Q
287,A1HUQ7QA5QWM5Q,35,female,golf_course_188.jpg,golf_course_188.jpg,golf_course_157.jpg,left,badlands_142.jpg,playground_150.jpg,golf_course_188.jpg,highway_158.jpg,bridge_189.jpg,bridge_189.jpg,2.0,right,2.2265,0.0,golf,golf_course_157.jpg,6.902245707,0.2356,A1HUQ7QA5QWM5Q
288,A1HUQ7QA5QWM5Q,35,female,mountain_123.jpg,mountain_189.jpg,mountain_123.jpg,right,mountain_123.jpg,playground_165.jpg,bridge_120.jpg,badlands_147.jpg,golf_course_125.jpg,golf_course_125.jpg,0.0,right,1.2645,1.0,mountain,mountain_189.jpg,6.902245707,0.2394,A1HUQ7QA5QWM5Q
289,A1HUQ7QA5QWM5Q,35,female,golf_course_193.jpg,golf_course_123.jpg,golf_course_193.jpg,right,golf_course_193.jpg,highway_210.jpg,badlands_81.jpg,mountain_245.jpg,bridge_114.jpg,bridge_114.jpg,0.0,right,1.0018,1.0,golf,golf_course_123.jpg,6.088507266,1.6815,A1HUQ7QA5QWM5Q
290,A1HUQ7QA5QWM5Q,35,female,playground_131.jpg,playground_164.jpg,playground_131.jpg,right,mountain_158.jpg,highway_286.jpg,playground_131.jpg,golf_course_187.jpg,badlands_140.jpg,badlands_140.jpg,2.0,right,1.2982,1.0,playground,playground_164.jpg,7.029062087,0.9224,A1HUQ7QA5QWM5Q
291,A1HUQ7QA5QWM5Q,35,female,highway_177.jpg,highway_278.jpg,highway_177.jpg,right,badlands_165.jpg,highway_177.jpg,golf_course_336.jpg,mountain_265.jpg,bridge_21.jpg,bridge_21.jpg,1.0,right,1.2518,1.0,highway,highway_278.jpg,7.029062087,0.2486,A1HUQ7QA5QWM5Q
292,A1HUQ7QA5QWM5Q,35,female,badlands_23.jpg,badlands_114.jpg,badlands_23.jpg,right,mountain_102.jpg,golf_course_1.jpg,badlands_23.jpg,playground_218.jpg,highway_38.jpg,highway_38.jpg,2.0,right,2.4724,0.0,badlands,badlands_114.jpg,5.0,0.9092,A1HUQ7QA5QWM5Q
293,A1HUQ7QA5QWM5Q,35,female,bridge_250.jpg,bridge_250.jpg,bridge_205.jpg,left,playground_96.jpg,highway_12.jpg,bridge_250.jpg,badlands_4.jpg,mountain_197.jpg,mountain_197.jpg,2.0,right,0.8987,1.0,bridge,bridge_205.jpg,5.0,0.3206,A1HUQ7QA5QWM5Q
294,A1HUQ7QA5QWM5Q,35,female,golf_course_195.jpg,golf_course_2.jpg,golf_course_195.jpg,right,bridge_59.jpg,mountain_23.jpg,golf_course_195.jpg,playground_198.jpg,badlands_36.jpg,badlands_36.jpg,2.0,right,1.1915,1.0,golf,golf_course_2.jpg,6.046235139,0.6489,A1HUQ7QA5QWM5Q
295,A1HUQ7QA5QWM5Q,35,female,badlands_221.jpg,badlands_207.jpg,badlands_221.jpg,right,playground_8.jpg,golf_course_163.jpg,highway_112.jpg,badlands_221.jpg,mountain_304.jpg,mountain_304.jpg,3.0,right,1.2305,1.0,badlands,badlands_207.jpg,6.98678996,0.7522,A1HUQ7QA5QWM5Q
296,A1HUQ7QA5QWM5Q,35,female,mountain_57.jpg,mountain_57.jpg,mountain_138.jpg,left,highway_22.jpg,mountain_57.jpg,bridge_49.jpg,badlands_16.jpg,playground_31.jpg,playground_31.jpg,1.0,right,1.4549,1.0,mountain,mountain_138.jpg,7.885072655,1.0819,A1HUQ7QA5QWM5Q
297,A1HUQ7QA5QWM5Q,35,female,mountain_156.jpg,mountain_128.jpg,mountain_156.jpg,right,playground_126.jpg,mountain_156.jpg,bridge_6.jpg,badlands_226.jpg,golf_course_213.jpg,golf_course_213.jpg,1.0,right,0.834,0.0,mountain,mountain_128.jpg,5.042272127,1.2426,A1HUQ7QA5QWM5Q
298,A1HUQ7QA5QWM5Q,35,female,badlands_137.jpg,badlands_194.jpg,badlands_137.jpg,right,playground_259.jpg,badlands_137.jpg,golf_course_297.jpg,mountain_225.jpg,bridge_43.jpg,bridge_43.jpg,1.0,right,0.9349,0.0,badlands,badlands_194.jpg,3.996036988,0.7305,A1HUQ7QA5QWM5Q
299,A1HUQ7QA5QWM5Q,35,female,bridge_108.jpg,bridge_108.jpg,bridge_116.jpg,left,badlands_77.jpg,playground_100.jpg,bridge_108.jpg,golf_course_127.jpg,mountain_257.jpg,mountain_257.jpg,2.0,left,0.7871,0.0,bridge,bridge_116.jpg,4.978863937,0.5686,A1HUQ7QA5QWM5Q
300,A2TB72JCF109WF,30,malke,highway_294.jpg,highway_203.jpg,highway_294.jpg,right,golf_course_20.jpg,highway_294.jpg,playground_172.jpg,bridge_173.jpg,badlands_147.jpg,badlands_147.jpg,1.0,left,3.3296,0.0,highway,highway_203.jpg,6.84,3.8192,A2TB72JCF109WF
301,A2TB72JCF109WF,30,malke,mountain_101.jpg,mountain_171.jpg,mountain_101.jpg,right,highway_361.jpg,badlands_215.jpg,mountain_101.jpg,golf_course_324.jpg,bridge_239.jpg,bridge_239.jpg,2.0,left,2.7872,0.0,mountain,mountain_171.jpg,7.02,0.3943,A2TB72JCF109WF
302,A2TB72JCF109WF,30,malke,playground_10.jpg,playground_10.jpg,playground_12.jpg,left,bridge_175.jpg,golf_course_152.jpg,playground_10.jpg,mountain_90.jpg,highway_58.jpg,highway_58.jpg,2.0,left,2.1707,1.0,playground,playground_12.jpg,7.0,0.9485,A2TB72JCF109WF
303,A2TB72JCF109WF,30,malke,badlands_52.jpg,badlands_94.jpg,badlands_52.jpg,right,badlands_52.jpg,mountain_304.jpg,playground_152.jpg,bridge_125.jpg,highway_256.jpg,highway_256.jpg,0.0,left,2.8862,0.0,badlands,badlands_94.jpg,8.0,1.4452,A2TB72JCF109WF
304,A2TB72JCF109WF,30,malke,bridge_250.jpg,bridge_134.jpg,bridge_250.jpg,right,mountain_196.jpg,badlands_84.jpg,bridge_250.jpg,highway_112.jpg,golf_course_165.jpg,golf_course_165.jpg,2.0,right,2.0817,0.0,bridge,bridge_134.jpg,7.99,0.8722,A2TB72JCF109WF
305,A2TB72JCF109WF,30,malke,playground_257.jpg,playground_257.jpg,playground_215.jpg,left,playground_257.jpg,bridge_120.jpg,highway_100.jpg,golf_course_54.jpg,badlands_211.jpg,badlands_211.jpg,0.0,left,15.8856,1.0,playground,playground_215.jpg,4.97,3.6865,A2TB72JCF109WF
306,A2TB72JCF109WF,30,malke,golf_course_15.jpg,golf_course_97.jpg,golf_course_15.jpg,right,golf_course_15.jpg,playground_100.jpg,bridge_233.jpg,badlands_109.jpg,mountain_245.jpg,mountain_245.jpg,0.0,left,14.7681,1.0,golf,golf_course_97.jpg,6.0,2.9584,A2TB72JCF109WF
307,A2TB72JCF109WF,30,malke,mountain_57.jpg,mountain_57.jpg,mountain_193.jpg,left,mountain_57.jpg,highway_69.jpg,golf_course_37.jpg,playground_198.jpg,bridge_87.jpg,bridge_87.jpg,0.0,left,7.4948,0.0,mountain,mountain_193.jpg,5.98,1.7215,A2TB72JCF109WF
308,A2TB72JCF109WF,30,malke,bridge_256.jpg,bridge_54.jpg,bridge_256.jpg,right,golf_course_210.jpg,bridge_256.jpg,highway_295.jpg,playground_199.jpg,badlands_45.jpg,badlands_45.jpg,1.0,left,5.017,0.0,bridge,bridge_54.jpg,5.97,1.578,A2TB72JCF109WF
309,A2TB72JCF109WF,30,malke,golf_course_331.jpg,golf_course_26.jpg,golf_course_331.jpg,right,highway_14.jpg,badlands_64.jpg,playground_41.jpg,golf_course_331.jpg,mountain_37.jpg,mountain_37.jpg,3.0,left,2.9671,1.0,golf,golf_course_26.jpg,4.99,2.9276,A2TB72JCF109WF
310,A2TB72JCF109WF,30,malke,badlands_23.jpg,badlands_101.jpg,badlands_23.jpg,right,playground_78.jpg,badlands_23.jpg,bridge_161.jpg,golf_course_125.jpg,mountain_294.jpg,mountain_294.jpg,1.0,left,5.8229,1.0,badlands,badlands_101.jpg,3.97,3.1234,A2TB72JCF109WF
311,A2TB72JCF109WF,30,malke,bridge_91.jpg,bridge_253.jpg,bridge_91.jpg,right,badlands_40.jpg,mountain_159.jpg,highway_348.jpg,bridge_91.jpg,playground_89.jpg,playground_89.jpg,3.0,left,1.1949,0.0,bridge,bridge_253.jpg,3.98,1.4363,A2TB72JCF109WF
312,A2TB72JCF109WF,30,malke,golf_course_214.jpg,golf_course_312.jpg,golf_course_214.jpg,right,badlands_152.jpg,mountain_225.jpg,golf_course_214.jpg,highway_263.jpg,bridge_138.jpg,bridge_138.jpg,2.0,left,0.0073,0.0,golf,golf_course_312.jpg,3.98,1.8116,A2TB72JCF109WF
313,A2TB72JCF109WF,30,malke,mountain_293.jpg,mountain_47.jpg,mountain_293.jpg,right,mountain_293.jpg,badlands_88.jpg,highway_286.jpg,bridge_78.jpg,golf_course_170.jpg,golf_course_170.jpg,0.0,left,6.401,1.0,mountain,mountain_47.jpg,5.99,1.5058,A2TB72JCF109WF
314,A2TB72JCF109WF,30,malke,playground_145.jpg,playground_242.jpg,playground_145.jpg,right,playground_145.jpg,mountain_70.jpg,badlands_4.jpg,highway_365.jpg,bridge_203.jpg,bridge_203.jpg,0.0,left,2.0317,1.0,playground,playground_242.jpg,5.97,1.4877,A2TB72JCF109WF
315,A2TB72JCF109WF,30,malke,playground_76.jpg,playground_22.jpg,playground_76.jpg,right,highway_247.jpg,golf_course_221.jpg,bridge_55.jpg,playground_76.jpg,badlands_25.jpg,badlands_25.jpg,3.0,left,7.1652,0.0,playground,playground_22.jpg,5.97,1.3732,A2TB72JCF109WF
316,A2TB72JCF109WF,30,malke,badlands_137.jpg,badlands_194.jpg,badlands_137.jpg,right,golf_course_93.jpg,badlands_137.jpg,highway_342.jpg,playground_225.jpg,bridge_59.jpg,bridge_59.jpg,1.0,left,5.8798,0.0,badlands,badlands_194.jpg,5.97,1.417,A2TB72JCF109WF
317,A2TB72JCF109WF,30,malke,bridge_146.jpg,bridge_121.jpg,bridge_146.jpg,right,playground_259.jpg,bridge_146.jpg,highway_302.jpg,mountain_143.jpg,badlands_155.jpg,badlands_155.jpg,1.0,left,2.3151,1.0,bridge,bridge_121.jpg,7.0,4.8507,A2TB72JCF109WF
318,A2TB72JCF109WF,30,malke,highway_394.jpg,highway_204.jpg,highway_394.jpg,right,badlands_142.jpg,mountain_84.jpg,playground_168.jpg,highway_394.jpg,golf_course_333.jpg,golf_course_333.jpg,3.0,left,0.213,0.0,highway,highway_204.jpg,7.0,1.9109,A2TB72JCF109WF
319,A2TB72JCF109WF,30,malke,golf_course_217.jpg,golf_course_217.jpg,golf_course_262.jpg,left,mountain_265.jpg,highway_241.jpg,golf_course_217.jpg,bridge_178.jpg,badlands_16.jpg,badlands_16.jpg,2.0,left,0.7238,1.0,golf,golf_course_262.jpg,7.97,4.2466,A2TB72JCF109WF
320,A2TB72JCF109WF,30,malke,mountain_230.jpg,mountain_230.jpg,mountain_97.jpg,left,mountain_230.jpg,badlands_36.jpg,highway_215.jpg,bridge_165.jpg,playground_39.jpg,playground_39.jpg,0.0,left,2.9748,1.0,mountain,mountain_97.jpg,7.0,6.8439,A2TB72JCF109WF
321,A2TB72JCF109WF,30,malke,bridge_128.jpg,bridge_128.jpg,bridge_244.jpg,left,golf_course_297.jpg,bridge_128.jpg,badlands_56.jpg,playground_155.jpg,highway_195.jpg,highway_195.jpg,1.0,left,2.6182,1.0,bridge,bridge_244.jpg,7.01,1.1454,A2TB72JCF109WF
322,A2TB72JCF109WF,30,malke,playground_240.jpg,playground_240.jpg,playground_2.jpg,left,mountain_289.jpg,golf_course_135.jpg,playground_240.jpg,badlands_201.jpg,highway_326.jpg,highway_326.jpg,2.0,left,1.8052,0.0,playground,playground_2.jpg,6.96,1.2675,A2TB72JCF109WF
323,A2TB72JCF109WF,30,malke,highway_245.jpg,highway_134.jpg,highway_245.jpg,right,highway_245.jpg,bridge_245.jpg,playground_13.jpg,golf_course_29.jpg,badlands_132.jpg,badlands_132.jpg,0.0,right,2.6439,0.0,highway,highway_134.jpg,7.97,4.0839,A2TB72JCF109WF
324,A2TB72JCF109WF,30,malke,playground_144.jpg,playground_144.jpg,playground_65.jpg,left,mountain_11.jpg,highway_397.jpg,playground_144.jpg,golf_course_207.jpg,bridge_170.jpg,bridge_170.jpg,2.0,left,2.7385,1.0,playground,playground_65.jpg,7.98,2.995,A2TB72JCF109WF
325,A2TB72JCF109WF,30,malke,bridge_202.jpg,bridge_202.jpg,bridge_38.jpg,left,highway_2.jpg,bridge_202.jpg,playground_121.jpg,badlands_168.jpg,golf_course_240.jpg,golf_course_240.jpg,1.0,left,10.1866,1.0,bridge,bridge_38.jpg,6.99,3.4377,A2TB72JCF109WF
326,A2TB72JCF109WF,30,malke,golf_course_195.jpg,golf_course_195.jpg,golf_course_2.jpg,left,highway_330.jpg,badlands_71.jpg,playground_1.jpg,golf_course_195.jpg,mountain_306.jpg,mountain_306.jpg,3.0,left,2.8014,1.0,golf,golf_course_2.jpg,4.96,3.2265,A2TB72JCF109WF
327,A2TB72JCF109WF,30,malke,mountain_156.jpg,mountain_156.jpg,mountain_295.jpg,left,badlands_85.jpg,mountain_156.jpg,bridge_198.jpg,playground_45.jpg,golf_course_226.jpg,golf_course_226.jpg,1.0,left,2.4532,1.0,mountain,mountain_295.jpg,4.96,2.2787,A2TB72JCF109WF
328,A2TB72JCF109WF,30,malke,mountain_154.jpg,mountain_131.jpg,mountain_154.jpg,right,highway_114.jpg,mountain_154.jpg,golf_course_21.jpg,playground_150.jpg,badlands_65.jpg,badlands_65.jpg,1.0,left,1.9304,0.0,mountain,mountain_131.jpg,4.96,1.6404,A2TB72JCF109WF
329,A2TB72JCF109WF,30,malke,playground_117.jpg,playground_117.jpg,playground_167.jpg,left,mountain_197.jpg,highway_17.jpg,playground_117.jpg,golf_course_126.jpg,bridge_12.jpg,bridge_12.jpg,2.0,left,2.1468,0.0,playground,playground_167.jpg,4.96,1.858,A2TB72JCF109WF
330,A2TB72JCF109WF,30,malke,badlands_70.jpg,badlands_102.jpg,badlands_70.jpg,right,golf_course_163.jpg,mountain_103.jpg,badlands_70.jpg,playground_169.jpg,highway_141.jpg,highway_141.jpg,2.0,left,1.6174,0.0,badlands,badlands_102.jpg,5.96,1.6824,A2TB72JCF109WF
331,A2TB72JCF109WF,30,malke,playground_60.jpg,playground_60.jpg,playground_268.jpg,left,highway_210.jpg,badlands_185.jpg,playground_60.jpg,bridge_103.jpg,golf_course_336.jpg,golf_course_336.jpg,2.0,left,2.6486,0.0,playground,playground_268.jpg,6.02,2.3933,A2TB72JCF109WF
332,A2TB72JCF109WF,30,malke,golf_course_188.jpg,golf_course_188.jpg,golf_course_157.jpg,left,mountain_190.jpg,golf_course_188.jpg,playground_61.jpg,highway_323.jpg,badlands_227.jpg,badlands_227.jpg,1.0,left,8.008,0.0,golf,golf_course_157.jpg,5.96,1.8605,A2TB72JCF109WF
333,A2TB72JCF109WF,30,malke,badlands_222.jpg,badlands_222.jpg,badlands_62.jpg,left,playground_16.jpg,golf_course_233.jpg,badlands_222.jpg,mountain_163.jpg,highway_200.jpg,highway_200.jpg,2.0,right,10.8166,1.0,badlands,badlands_62.jpg,5.96,3.3087,A2TB72JCF109WF
334,A2TB72JCF109WF,30,malke,badlands_24.jpg,badlands_24.jpg,badlands_3.jpg,left,badlands_24.jpg,mountain_65.jpg,bridge_104.jpg,playground_111.jpg,golf_course_127.jpg,golf_course_127.jpg,0.0,right,4.1555,0.0,badlands,badlands_3.jpg,5.96,2.7248,A2TB72JCF109WF
335,A2TB72JCF109WF,30,malke,badlands_21.jpg,badlands_98.jpg,badlands_21.jpg,right,highway_284.jpg,bridge_15.jpg,badlands_21.jpg,golf_course_267.jpg,playground_18.jpg,playground_18.jpg,2.0,left,4.4584,1.0,badlands,badlands_98.jpg,5.96,1.6401,A2TB72JCF109WF
336,A2TB72JCF109WF,30,malke,highway_209.jpg,highway_209.jpg,highway_314.jpg,left,mountain_301.jpg,bridge_4.jpg,highway_209.jpg,playground_31.jpg,golf_course_279.jpg,golf_course_279.jpg,2.0,left,3.0429,0.0,highway,highway_314.jpg,5.99,17.9438,A2TB72JCF109WF
337,A2TB72JCF109WF,30,malke,highway_177.jpg,highway_278.jpg,highway_177.jpg,right,highway_177.jpg,bridge_150.jpg,badlands_195.jpg,golf_course_146.jpg,playground_207.jpg,playground_207.jpg,0.0,left,5.9768,1.0,highway,highway_278.jpg,5.99,2.9395,A2TB72JCF109WF
338,A2TB72JCF109WF,30,malke,mountain_110.jpg,mountain_110.jpg,mountain_157.jpg,left,badlands_50.jpg,golf_course_337.jpg,highway_88.jpg,mountain_110.jpg,bridge_21.jpg,bridge_21.jpg,3.0,left,2.8603,0.0,mountain,mountain_157.jpg,5.99,1.368,A2TB72JCF109WF
339,A2TB72JCF109WF,30,malke,playground_131.jpg,playground_131.jpg,playground_43.jpg,left,playground_131.jpg,bridge_68.jpg,golf_course_8.jpg,highway_71.jpg,mountain_181.jpg,mountain_181.jpg,0.0,left,1.222,0.0,playground,playground_43.jpg,5.99,2.6569,A2TB72JCF109WF
340,A2TB72JCF109WF,30,malke,mountain_232.jpg,mountain_54.jpg,mountain_232.jpg,right,playground_134.jpg,highway_103.jpg,mountain_232.jpg,badlands_86.jpg,golf_course_294.jpg,golf_course_294.jpg,2.0,left,1.8033,1.0,mountain,mountain_54.jpg,5.99,1.8372,A2TB72JCF109WF
341,A2TB72JCF109WF,30,malke,highway_273.jpg,highway_384.jpg,highway_273.jpg,right,bridge_183.jpg,playground_252.jpg,golf_course_11.jpg,highway_273.jpg,mountain_226.jpg,mountain_226.jpg,3.0,left,1.1026,0.0,highway,highway_384.jpg,5.99,1.466,A2TB72JCF109WF
342,A2TB72JCF109WF,30,malke,highway_359.jpg,highway_389.jpg,highway_359.jpg,right,mountain_255.jpg,highway_359.jpg,golf_course_244.jpg,badlands_140.jpg,bridge_1.jpg,bridge_1.jpg,1.0,left,1.5754,0.0,highway,highway_389.jpg,5.97,2.6895,A2TB72JCF109WF
343,A2TB72JCF109WF,30,malke,badlands_184.jpg,badlands_103.jpg,badlands_184.jpg,right,playground_160.jpg,badlands_184.jpg,mountain_296.jpg,bridge_23.jpg,highway_117.jpg,highway_117.jpg,1.0,left,1.2244,1.0,badlands,badlands_103.jpg,5.97,3.2807,A2TB72JCF109WF
344,A2TB72JCF109WF,30,malke,bridge_108.jpg,bridge_116.jpg,bridge_108.jpg,right,playground_113.jpg,bridge_108.jpg,highway_243.jpg,mountain_204.jpg,badlands_77.jpg,badlands_77.jpg,1.0,left,0.5526,0.0,bridge,bridge_116.jpg,5.97,1.855,A2TB72JCF109WF
345,A2TB72JCF109WF,30,malke,golf_course_193.jpg,golf_course_193.jpg,golf_course_123.jpg,left,highway_158.jpg,golf_course_193.jpg,bridge_90.jpg,mountain_126.jpg,playground_0.jpg,playground_0.jpg,1.0,left,1.5408,1.0,golf,golf_course_123.jpg,5.97,1.4357,A2TB72JCF109WF
346,A2TB72JCF109WF,30,malke,bridge_191.jpg,bridge_191.jpg,bridge_184.jpg,left,bridge_191.jpg,badlands_205.jpg,highway_12.jpg,mountain_213.jpg,golf_course_196.jpg,golf_course_196.jpg,0.0,left,1.897,0.0,bridge,bridge_184.jpg,5.97,1.8097,A2TB72JCF109WF
347,A2TB72JCF109WF,30,malke,mountain_123.jpg,mountain_189.jpg,mountain_123.jpg,right,golf_course_55.jpg,bridge_166.jpg,mountain_123.jpg,playground_88.jpg,badlands_226.jpg,badlands_226.jpg,2.0,left,2.928,1.0,mountain,mountain_189.jpg,5.97,3.6013,A2TB72JCF109WF
348,A2TB72JCF109WF,30,malke,highway_156.jpg,highway_160.jpg,highway_156.jpg,right,badlands_81.jpg,highway_156.jpg,bridge_137.jpg,golf_course_40.jpg,mountain_249.jpg,mountain_249.jpg,1.0,left,3.5888,0.0,highway,highway_160.jpg,5.98,2.7691,A2TB72JCF109WF
349,A2TB72JCF109WF,30,malke,badlands_113.jpg,badlands_203.jpg,badlands_113.jpg,right,playground_157.jpg,golf_course_274.jpg,badlands_113.jpg,highway_146.jpg,mountain_38.jpg,mountain_38.jpg,2.0,left,1.1648,1.0,badlands,badlands_203.jpg,5.98,1.2359,A2TB72JCF109WF
350,A2TB72JCF109WF,30,malke,golf_course_87.jpg,golf_course_130.jpg,golf_course_87.jpg,right,highway_259.jpg,mountain_135.jpg,golf_course_87.jpg,playground_212.jpg,bridge_139.jpg,bridge_139.jpg,2.0,left,4.072,0.0,golf,golf_course_130.jpg,5.98,1.0069,A2TB72JCF109WF
351,A2TB72JCF109WF,30,malke,badlands_221.jpg,badlands_221.jpg,badlands_207.jpg,left,mountain_102.jpg,playground_153.jpg,highway_303.jpg,badlands_221.jpg,golf_course_98.jpg,golf_course_98.jpg,3.0,left,0.7734,1.0,badlands,badlands_207.jpg,5.98,1.4511,A2TB72JCF109WF
352,A2TB72JCF109WF,30,malke,bridge_65.jpg,bridge_65.jpg,bridge_181.jpg,left,badlands_165.jpg,playground_181.jpg,highway_99.jpg,bridge_65.jpg,golf_course_1.jpg,golf_course_1.jpg,3.0,left,0.0968,0.0,bridge,bridge_181.jpg,5.98,0.8927,A2TB72JCF109WF
353,A2TB72JCF109WF,30,malke,playground_219.jpg,playground_205.jpg,playground_219.jpg,right,bridge_252.jpg,mountain_280.jpg,playground_219.jpg,golf_course_133.jpg,highway_86.jpg,highway_86.jpg,2.0,left,4.3635,1.0,playground,playground_205.jpg,5.98,0.7225,A2TB72JCF109WF
354,A2TB72JCF109WF,30,malke,highway_415.jpg,highway_415.jpg,highway_174.jpg,left,playground_159.jpg,highway_415.jpg,bridge_189.jpg,mountain_112.jpg,golf_course_73.jpg,golf_course_73.jpg,1.0,left,2.0718,1.0,highway,highway_174.jpg,6.96,3.8501,A2TB72JCF109WF
355,A2TB72JCF109WF,30,malke,bridge_172.jpg,bridge_163.jpg,bridge_172.jpg,right,mountain_210.jpg,playground_4.jpg,badlands_179.jpg,bridge_172.jpg,highway_22.jpg,highway_22.jpg,3.0,left,3.3442,1.0,bridge,bridge_163.jpg,6.96,1.2361,A2TB72JCF109WF
356,A2TB72JCF109WF,30,malke,golf_course_78.jpg,golf_course_101.jpg,golf_course_78.jpg,right,mountain_23.jpg,golf_course_78.jpg,playground_96.jpg,badlands_44.jpg,highway_388.jpg,highway_388.jpg,1.0,left,3.9163,1.0,golf,golf_course_101.jpg,6.96,1.3304,A2TB72JCF109WF
357,A2TB72JCF109WF,30,malke,mountain_222.jpg,mountain_93.jpg,mountain_222.jpg,right,mountain_222.jpg,bridge_114.jpg,highway_38.jpg,golf_course_205.jpg,badlands_183.jpg,badlands_183.jpg,0.0,left,1.4318,1.0,mountain,mountain_93.jpg,6.96,0.9869,A2TB72JCF109WF
358,A2TB72JCF109WF,30,malke,highway_93.jpg,highway_85.jpg,highway_93.jpg,right,mountain_233.jpg,highway_93.jpg,playground_8.jpg,golf_course_187.jpg,bridge_89.jpg,bridge_89.jpg,1.0,left,3.1413,0.0,highway,highway_85.jpg,6.96,1.2031,A2TB72JCF109WF
359,A2TB72JCF109WF,30,malke,golf_course_309.jpg,golf_course_309.jpg,golf_course_209.jpg,left,golf_course_309.jpg,mountain_10.jpg,bridge_2.jpg,playground_243.jpg,badlands_104.jpg,badlands_104.jpg,0.0,left,2.7669,1.0,golf,golf_course_209.jpg,6.96,0.9579,A2TB72JCF109WF
360,A35D1C63QSSJU4,30,MALE,badlands_222.jpg,badlands_222.jpg,badlands_62.jpg,left,bridge_170.jpg,mountain_65.jpg,badlands_222.jpg,golf_course_73.jpg,playground_155.jpg,playground_155.jpg,2.0,right,2.9066,1.0,badlands,badlands_62.jpg,5.84375,4.3135,A35D1C63QSSJU4
361,A35D1C63QSSJU4,30,MALE,golf_course_15.jpg,golf_course_15.jpg,golf_course_97.jpg,left,badlands_36.jpg,highway_215.jpg,golf_course_15.jpg,bridge_183.jpg,playground_1.jpg,playground_1.jpg,2.0,left,3.1222,1.0,golf,golf_course_97.jpg,5.979166667,0.4531,A35D1C63QSSJU4
362,A35D1C63QSSJU4,30,MALE,highway_245.jpg,highway_206.jpg,highway_245.jpg,right,golf_course_119.jpg,mountain_103.jpg,highway_245.jpg,bridge_43.jpg,playground_88.jpg,playground_88.jpg,2.0,right,1.7805,1.0,highway,highway_206.jpg,5.989583333,2.3091,A35D1C63QSSJU4
363,A35D1C63QSSJU4,30,MALE,badlands_221.jpg,badlands_221.jpg,badlands_115.jpg,left,badlands_221.jpg,highway_57.jpg,mountain_10.jpg,golf_course_196.jpg,bridge_15.jpg,bridge_15.jpg,0.0,right,2.0533,0.0,badlands,badlands_115.jpg,4.104166667,3.1007,A35D1C63QSSJU4
364,A35D1C63QSSJU4,30,MALE,golf_course_193.jpg,golf_course_193.jpg,golf_course_123.jpg,left,golf_course_193.jpg,bridge_198.jpg,badlands_32.jpg,playground_153.jpg,mountain_11.jpg,mountain_11.jpg,0.0,right,1.4951,1.0,golf,golf_course_123.jpg,5.96875,2.9558,A35D1C63QSSJU4
365,A35D1C63QSSJU4,30,MALE,golf_course_195.jpg,golf_course_2.jpg,golf_course_195.jpg,right,highway_388.jpg,bridge_139.jpg,mountain_214.jpg,golf_course_195.jpg,playground_150.jpg,playground_150.jpg,3.0,right,1.4225,1.0,golf,golf_course_2.jpg,7.875,2.8841,A35D1C63QSSJU4
366,A35D1C63QSSJU4,30,MALE,playground_219.jpg,playground_219.jpg,playground_205.jpg,left,golf_course_244.jpg,highway_361.jpg,playground_219.jpg,badlands_140.jpg,bridge_89.jpg,bridge_89.jpg,2.0,left,0.0762,1.0,playground,playground_205.jpg,7.041666667,1.6768,A35D1C63QSSJU4
367,A35D1C63QSSJU4,30,MALE,highway_273.jpg,highway_273.jpg,highway_384.jpg,left,highway_273.jpg,playground_218.jpg,mountain_251.jpg,golf_course_297.jpg,badlands_65.jpg,badlands_65.jpg,0.0,right,1.5585,0.0,highway,highway_384.jpg,7.9375,1.3896,A35D1C63QSSJU4
368,A35D1C63QSSJU4,30,MALE,playground_131.jpg,playground_131.jpg,playground_164.jpg,left,bridge_55.jpg,golf_course_207.jpg,playground_131.jpg,badlands_133.jpg,highway_14.jpg,highway_14.jpg,2.0,right,2.4119,1.0,playground,playground_164.jpg,6.979166667,1.8147,A35D1C63QSSJU4
369,A35D1C63QSSJU4,30,MALE,mountain_101.jpg,mountain_221.jpg,mountain_101.jpg,right,mountain_101.jpg,playground_8.jpg,highway_342.jpg,badlands_56.jpg,golf_course_322.jpg,golf_course_322.jpg,0.0,right,1.8526,1.0,mountain,mountain_221.jpg,5.020833333,3.8213,A35D1C63QSSJU4
370,A35D1C63QSSJU4,30,MALE,bridge_108.jpg,bridge_108.jpg,bridge_116.jpg,left,bridge_108.jpg,badlands_88.jpg,golf_course_233.jpg,highway_348.jpg,playground_157.jpg,playground_157.jpg,0.0,right,1.9077,0.0,bridge,bridge_116.jpg,3.9375,3.1796,A35D1C63QSSJU4
371,A35D1C63QSSJU4,30,MALE,playground_257.jpg,playground_257.jpg,playground_215.jpg,left,playground_257.jpg,bridge_12.jpg,highway_263.jpg,badlands_40.jpg,mountain_213.jpg,mountain_213.jpg,0.0,left,2.2568,1.0,playground,playground_215.jpg,6.052083333,1.6593,A35D1C63QSSJU4
372,A35D1C63QSSJU4,30,MALE,mountain_230.jpg,mountain_184.jpg,mountain_230.jpg,right,playground_54.jpg,mountain_230.jpg,golf_course_226.jpg,highway_340.jpg,bridge_59.jpg,bridge_59.jpg,1.0,right,10.5235,0.0,mountain,mountain_184.jpg,3.03125,2.9639,A35D1C63QSSJU4
373,A35D1C63QSSJU4,30,MALE,mountain_222.jpg,mountain_244.jpg,mountain_222.jpg,right,playground_152.jpg,golf_course_210.jpg,mountain_222.jpg,badlands_109.jpg,bridge_203.jpg,bridge_203.jpg,2.0,left,6.0974,0.0,mountain,mountain_244.jpg,3.958333333,3.5277,A35D1C63QSSJU4
374,A35D1C63QSSJU4,30,MALE,mountain_57.jpg,mountain_138.jpg,mountain_57.jpg,right,mountain_57.jpg,badlands_85.jpg,playground_199.jpg,golf_course_40.jpg,bridge_76.jpg,bridge_76.jpg,0.0,left,3.4874,1.0,mountain,mountain_138.jpg,6.0,2.4409,A35D1C63QSSJU4
375,A35D1C63QSSJU4,30,MALE,highway_415.jpg,highway_415.jpg,highway_60.jpg,left,mountain_296.jpg,golf_course_88.jpg,playground_169.jpg,highway_415.jpg,bridge_245.jpg,bridge_245.jpg,3.0,left,0.9778,0.0,highway,highway_60.jpg,5.03125,1.6692,A35D1C63QSSJU4
376,A35D1C63QSSJU4,30,MALE,badlands_137.jpg,badlands_137.jpg,badlands_139.jpg,left,playground_126.jpg,mountain_143.jpg,badlands_137.jpg,bridge_156.jpg,highway_69.jpg,highway_69.jpg,2.0,right,0.2883,1.0,badlands,badlands_139.jpg,6.010416667,2.9592,A35D1C63QSSJU4
377,A35D1C63QSSJU4,30,MALE,highway_93.jpg,highway_369.jpg,highway_93.jpg,right,bridge_166.jpg,golf_course_98.jpg,badlands_86.jpg,highway_93.jpg,playground_160.jpg,playground_160.jpg,3.0,right,6.0654,1.0,highway,highway_369.jpg,8.958333333,2.5012,A35D1C63QSSJU4
