key_resp.keys,key_resp_2.keys,key_resp_2.rt,demo_test_key_resp.keys,demo_test_key_resp.rt,demo_loops.thisRepN,demo_loops.thisTrialN,demo_loops.thisN,demo_loops.thisIndex,demo_loops.ran,target,image1,image2,correct,background_0,background_1,background_2,background_3,background_4,background_5,target_index,workID,Age,Gender,Hours slept (last night),date,expName,psychopyVersion,OS,frameRate,key_resp_after_demo.keys,key_resp_after_demo.rt,test_key_resp.keys,test_key_resp.rt,exp_loops.thisRepN,exp_loops.thisTrialN,exp_loops.thisN,exp_loops.thisIndex,exp_loops.ran,selected_dist,distractor_level,category,key_resp_4.keys,key_resp_4.rt,slider_part2.response,slider_part2.rt,exp_loops_part2.thisRepN,exp_loops_part2.thisTrialN,exp_loops_part2.thisN,exp_loops_part2.thisIndex,exp_loops_part2.ran,key_resp_last_slide.keys,key_resp_last_slide.rt
,space,89.577,right,21.505,0,0,0,0,1,flower1.jpg,flower1.jpg,flower1_pair.jpg,left,leaf3.jpg,trail1.jpg,flower1.jpg,bird1.jpg,tree3.jpg,fence4.jpg,2,A1Z494GD5FXO5L,24,male,8,2023-06-26_09h09.07.192,working,2022.2.4,Win32,5.333333333,,,,,,,,,,,,,,,,,,,,,,,
,,,right,11.62,0,1,1,1,1,leaf2.jpg,leaf1.jpg,leaf2.jpg,right,trail2.jpg,leaf2.jpg,bird2.jpg,tree2.jpg,fence3.jpg,flower2.jpg,1,A1Z494GD5FXO5L,24,male,8,2023-06-26_09h09.07.192,working,2022.2.4,Win32,5.333333333,,,,,,,,,,,,,,,,,,,,,,,
,,,left,5.692,0,2,2,2,1,fence1.jpg,fence1.jpg,fence2.jpg,left,tree1.jpg,bird3.jpg,trail3.jpg,fence1.jpg,leaf4.jpg,flower3.jpg,3,A1Z494GD5FXO5L,24,male,8,2023-06-26_09h09.07.192,working,2022.2.4,Win32,5.333333333,,,,,,,,,,,,,,,,,,,,,,,
,,,,,,,,,,bridge_91.jpg,bridge_82.jpg,bridge_91.jpg,right,golf_course_297.jpg,playground_249.jpg,mountain_309.jpg,highway_36.jpg,bridge_91.jpg,badlands_30.jpg,4,A1Z494GD5FXO5L,24,male,8,2023-06-26_09h09.07.192,working,2022.2.4,Win32,5.333333333,space,249.694,right,10.097,0,0,0,0,1,bridge_82.jpg,1,bridge,,,,,,,,,,,
,,,,,,,,,,golf_course_78.jpg,golf_course_78.jpg,golf_course_101.jpg,left,badlands_80.jpg,bridge_86.jpg,mountain_137.jpg,playground_50.jpg,golf_course_78.jpg,highway_101.jpg,4,A1Z494GD5FXO5L,24,male,8,2023-06-26_09h09.07.192,working,2022.2.4,Win32,5.333333333,,,left,9.025,0,1,1,1,1,golf_course_101.jpg,1,golf,,,,,,,,,,,
,,,,,,,,,,playground_117.jpg,playground_117.jpg,playground_167.jpg,left,badlands_200.jpg,golf_course_305.jpg,playground_117.jpg,bridge_76.jpg,mountain_204.jpg,highway_251.jpg,2,A1Z494GD5FXO5L,24,male,8,2023-06-26_09h09.07.192,working,2022.2.4,Win32,5.333333333,,,right,11.069,0,2,2,2,1,playground_167.jpg,0,playground,,,,,,,,,,,
,,,,,,,,,,golf_course_15.jpg,golf_course_15.jpg,golf_course_113.jpg,left,golf_course_15.jpg,highway_413.jpg,mountain_212.jpg,bridge_118.jpg,playground_85.jpg,badlands_219.jpg,0,A1Z494GD5FXO5L,24,male,8,2023-06-26_09h09.07.192,working,2022.2.4,Win32,5.333333333,,,left,3.457,0,3,3,3,1,golf_course_113.jpg,0,golf,,,,,,,,,,,
,,,,,,,,,,highway_294.jpg,highway_294.jpg,highway_368.jpg,left,bridge_62.jpg,mountain_89.jpg,playground_191.jpg,highway_294.jpg,golf_course_307.jpg,badlands_105.jpg,3,A1Z494GD5FXO5L,24,male,8,2023-06-26_09h09.07.192,working,2022.2.4,Win32,5.333333333,,,left,4.258,0,4,4,4,1,highway_368.jpg,1,highway,,,,,,,,,,,
,,,,,,,,,,golf_course_309.jpg,golf_course_16.jpg,golf_course_309.jpg,right,highway_154.jpg,golf_course_309.jpg,mountain_160.jpg,badlands_171.jpg,playground_162.jpg,bridge_102.jpg,1,A1Z494GD5FXO5L,24,male,8,2023-06-26_09h09.07.192,working,2022.2.4,Win32,5.333333333,,,right,4.6,0,5,5,5,1,golf_course_16.jpg,0,golf,,,,,,,,,,,
,,,,,,,,,,highway_156.jpg,highway_156.jpg,highway_293.jpg,left,golf_course_56.jpg,mountain_253.jpg,highway_156.jpg,badlands_47.jpg,playground_195.jpg,bridge_120.jpg,2,A1Z494GD5FXO5L,24,male,8,2023-06-26_09h09.07.192,working,2022.2.4,Win32,5.333333333,,,right,4.071,0,6,6,6,1,highway_293.jpg,1,highway,,,,,,,,,,,
,,,,,,,,,,golf_course_193.jpg,golf_course_193.jpg,golf_course_235.jpg,left,golf_course_193.jpg,bridge_64.jpg,badlands_128.jpg,playground_64.jpg,mountain_41.jpg,highway_199.jpg,0,A1Z494GD5FXO5L,24,male,8,2023-06-26_09h09.07.192,working,2022.2.4,Win32,5.333333333,,,left,4.952,0,7,7,7,1,golf_course_235.jpg,0,golf,,,,,,,,,,,
,,,,,,,,,,highway_359.jpg,highway_359.jpg,highway_379.jpg,left,bridge_66.jpg,badlands_213.jpg,mountain_250.jpg,playground_14.jpg,highway_359.jpg,golf_course_0.jpg,4,A1Z494GD5FXO5L,24,male,8,2023-06-26_09h09.07.192,working,2022.2.4,Win32,5.333333333,,,left,4.513,0,8,8,8,1,highway_379.jpg,1,highway,,,,,,,,,,,
,,,,,,,,,,bridge_256.jpg,bridge_256.jpg,bridge_54.jpg,left,playground_55.jpg,bridge_256.jpg,mountain_135.jpg,badlands_170.jpg,highway_102.jpg,golf_course_71.jpg,1,A1Z494GD5FXO5L,24,male,8,2023-06-26_09h09.07.192,working,2022.2.4,Win32,5.333333333,,,left,3.383,0,9,9,9,1,bridge_54.jpg,0,bridge,,,,,,,,,,,
,,,,,,,,,,golf_course_214.jpg,golf_course_214.jpg,golf_course_317.jpg,left,playground_36.jpg,bridge_167.jpg,highway_9.jpg,golf_course_214.jpg,mountain_22.jpg,badlands_54.jpg,3,A1Z494GD5FXO5L,24,male,8,2023-06-26_09h09.07.192,working,2022.2.4,Win32,5.333333333,,,left,1.831,0,10,10,10,1,golf_course_317.jpg,1,golf,,,,,,,,,,,
,,,,,,,,,,mountain_110.jpg,mountain_223.jpg,mountain_110.jpg,right,golf_course_269.jpg,highway_90.jpg,playground_49.jpg,mountain_110.jpg,badlands_72.jpg,bridge_79.jpg,3,A1Z494GD5FXO5L,24,male,8,2023-06-26_09h09.07.192,working,2022.2.4,Win32,5.333333333,,,left,3.439,0,11,11,11,1,mountain_223.jpg,1,mountain,,,,,,,,,,,
,,,,,,,,,,playground_219.jpg,playground_205.jpg,playground_219.jpg,right,golf_course_59.jpg,playground_219.jpg,mountain_33.jpg,bridge_143.jpg,highway_290.jpg,badlands_164.jpg,1,A1Z494GD5FXO5L,24,male,8,2023-06-26_09h09.07.192,working,2022.2.4,Win32,5.333333333,,,left,7.327,0,12,12,12,1,playground_205.jpg,1,playground,,,,,,,,,,,
,,,,,,,,,,playground_240.jpg,playground_2.jpg,playground_240.jpg,right,mountain_92.jpg,golf_course_199.jpg,badlands_180.jpg,highway_313.jpg,playground_240.jpg,bridge_133.jpg,4,A1Z494GD5FXO5L,24,male,8,2023-06-26_09h09.07.192,working,2022.2.4,Win32,5.333333333,,,right,2.292,0,13,13,13,1,playground_2.jpg,0,playground,,,,,,,,,,,
,,,,,,,,,,playground_76.jpg,playground_76.jpg,playground_22.jpg,left,badlands_106.jpg,bridge_155.jpg,golf_course_288.jpg,highway_247.jpg,playground_76.jpg,mountain_169.jpg,4,A1Z494GD5FXO5L,24,male,8,2023-06-26_09h09.07.192,working,2022.2.4,Win32,5.333333333,,,left,2.423,0,14,14,14,1,playground_22.jpg,0,playground,,,,,,,,,,,
,,,,,,,,,,bridge_172.jpg,bridge_172.jpg,bridge_163.jpg,left,bridge_172.jpg,golf_course_116.jpg,playground_204.jpg,highway_141.jpg,badlands_79.jpg,mountain_19.jpg,0,A1Z494GD5FXO5L,24,male,8,2023-06-26_09h09.07.192,working,2022.2.4,Win32,5.333333333,,,left,8.999,0,15,15,15,1,bridge_163.jpg,1,bridge,,,,,,,,,,,
,,,,,,,,,,highway_394.jpg,highway_394.jpg,highway_406.jpg,left,bridge_190.jpg,playground_141.jpg,badlands_183.jpg,golf_course_212.jpg,highway_394.jpg,mountain_126.jpg,4,A1Z494GD5FXO5L,24,male,8,2023-06-26_09h09.07.192,working,2022.2.4,Win32,5.333333333,,,left,3.68,0,16,16,16,1,highway_406.jpg,1,highway,,,,,,,,,,,
,,,,,,,,,,bridge_146.jpg,bridge_27.jpg,bridge_146.jpg,right,playground_154.jpg,badlands_120.jpg,bridge_146.jpg,highway_288.jpg,mountain_307.jpg,golf_course_164.jpg,2,A1Z494GD5FXO5L,24,male,8,2023-06-26_09h09.07.192,working,2022.2.4,Win32,5.333333333,,,left,3.266,0,17,17,17,1,bridge_27.jpg,0,bridge,,,,,,,,,,,
,,,,,,,,,,highway_245.jpg,highway_245.jpg,highway_134.jpg,left,highway_245.jpg,bridge_224.jpg,badlands_88.jpg,playground_61.jpg,golf_course_265.jpg,mountain_306.jpg,0,A1Z494GD5FXO5L,24,male,8,2023-06-26_09h09.07.192,working,2022.2.4,Win32,5.333333333,,,right,6.454,0,18,18,18,1,highway_134.jpg,0,highway,,,,,,,,,,,
,,,,,,,,,,bridge_128.jpg,bridge_128.jpg,bridge_244.jpg,left,badlands_211.jpg,playground_196.jpg,golf_course_226.jpg,highway_28.jpg,bridge_128.jpg,mountain_198.jpg,4,A1Z494GD5FXO5L,24,male,8,2023-06-26_09h09.07.192,working,2022.2.4,Win32,5.333333333,,,left,2.662,0,19,19,19,1,bridge_244.jpg,1,bridge,,,,,,,,,,,
,,,,,,,,,,badlands_21.jpg,badlands_21.jpg,badlands_1.jpg,left,golf_course_202.jpg,bridge_254.jpg,mountain_190.jpg,playground_54.jpg,badlands_21.jpg,highway_33.jpg,4,A1Z494GD5FXO5L,24,male,8,2023-06-26_09h09.07.192,working,2022.2.4,Win32,5.333333333,,,left,3.753,0,20,20,20,1,badlands_1.jpg,0,badlands,,,,,,,,,,,
,,,,,,,,,,playground_144.jpg,playground_144.jpg,playground_137.jpg,left,mountain_120.jpg,bridge_74.jpg,badlands_174.jpg,playground_144.jpg,golf_course_176.jpg,highway_342.jpg,3,A1Z494GD5FXO5L,24,male,8,2023-06-26_09h09.07.192,working,2022.2.4,Win32,5.333333333,,,left,2.224,0,21,21,21,1,playground_137.jpg,0,playground,,,,,,,,,,,
,,,,,,,,,,bridge_108.jpg,bridge_116.jpg,bridge_108.jpg,right,badlands_85.jpg,highway_269.jpg,mountain_290.jpg,golf_course_174.jpg,bridge_108.jpg,playground_16.jpg,4,A1Z494GD5FXO5L,24,male,8,2023-06-26_09h09.07.192,working,2022.2.4,Win32,5.333333333,,,right,3.709,0,22,22,22,1,bridge_116.jpg,0,bridge,,,,,,,,,,,
,,,,,,,,,,mountain_232.jpg,mountain_232.jpg,mountain_3.jpg,left,golf_course_128.jpg,playground_15.jpg,highway_3.jpg,badlands_173.jpg,mountain_232.jpg,bridge_147.jpg,4,A1Z494GD5FXO5L,24,male,8,2023-06-26_09h09.07.192,working,2022.2.4,Win32,5.333333333,,,left,2.485,0,23,23,23,1,mountain_3.jpg,0,mountain,,,,,,,,,,,
,,,,,,,,,,playground_145.jpg,playground_145.jpg,playground_229.jpg,left,badlands_227.jpg,mountain_152.jpg,highway_37.jpg,playground_145.jpg,bridge_24.jpg,golf_course_162.jpg,3,A1Z494GD5FXO5L,24,male,8,2023-06-26_09h09.07.192,working,2022.2.4,Win32,5.333333333,,,left,5.569,0,24,24,24,1,playground_229.jpg,0,playground,,,,,,,,,,,
,,,,,,,,,,highway_93.jpg,highway_369.jpg,highway_93.jpg,right,badlands_122.jpg,bridge_197.jpg,playground_103.jpg,golf_course_127.jpg,highway_93.jpg,mountain_146.jpg,4,A1Z494GD5FXO5L,24,male,8,2023-06-26_09h09.07.192,working,2022.2.4,Win32,5.333333333,,,left,5.356,0,25,25,25,1,highway_369.jpg,1,highway,,,,,,,,,,,
,,,,,,,,,,badlands_221.jpg,badlands_221.jpg,badlands_115.jpg,left,mountain_91.jpg,highway_18.jpg,bridge_106.jpg,badlands_221.jpg,golf_course_194.jpg,playground_126.jpg,3,A1Z494GD5FXO5L,24,male,8,2023-06-26_09h09.07.192,working,2022.2.4,Win32,5.333333333,,,left,7.819,0,26,26,26,1,badlands_115.jpg,0,badlands,,,,,,,,,,,
,,,,,,,,,,mountain_230.jpg,mountain_184.jpg,mountain_230.jpg,right,golf_course_33.jpg,badlands_60.jpg,bridge_136.jpg,playground_181.jpg,mountain_230.jpg,highway_15.jpg,4,A1Z494GD5FXO5L,24,male,8,2023-06-26_09h09.07.192,working,2022.2.4,Win32,5.333333333,,,right,2.001,0,27,27,27,1,mountain_184.jpg,0,mountain,,,,,,,,,,,
,,,,,,,,,,badlands_184.jpg,badlands_228.jpg,badlands_184.jpg,right,mountain_233.jpg,bridge_204.jpg,badlands_184.jpg,playground_68.jpg,highway_287.jpg,golf_course_342.jpg,2,A1Z494GD5FXO5L,24,male,8,2023-06-26_09h09.07.192,working,2022.2.4,Win32,5.333333333,,,left,6.544,0,28,28,28,1,badlands_228.jpg,0,badlands,,,,,,,,,,,
,,,,,,,,,,badlands_23.jpg,badlands_114.jpg,badlands_23.jpg,right,playground_84.jpg,badlands_23.jpg,golf_course_221.jpg,bridge_158.jpg,mountain_38.jpg,highway_76.jpg,1,A1Z494GD5FXO5L,24,male,8,2023-06-26_09h09.07.192,working,2022.2.4,Win32,5.333333333,,,left,6.176,0,29,29,29,1,badlands_114.jpg,0,badlands,,,,,,,,,,,
,,,,,,,,,,playground_131.jpg,playground_131.jpg,playground_164.jpg,left,mountain_268.jpg,playground_131.jpg,bridge_238.jpg,golf_course_282.jpg,badlands_59.jpg,highway_246.jpg,1,A1Z494GD5FXO5L,24,male,8,2023-06-26_09h09.07.192,working,2022.2.4,Win32,5.333333333,,,left,2.816,0,30,30,30,1,playground_164.jpg,1,playground,,,,,,,,,,,
,,,,,,,,,,mountain_123.jpg,mountain_123.jpg,mountain_94.jpg,left,highway_50.jpg,bridge_218.jpg,mountain_123.jpg,golf_course_67.jpg,badlands_125.jpg,playground_110.jpg,2,A1Z494GD5FXO5L,24,male,8,2023-06-26_09h09.07.192,working,2022.2.4,Win32,5.333333333,,,left,4.403,0,31,31,31,1,mountain_94.jpg,0,mountain,,,,,,,,,,,
,,,,,,,,,,playground_60.jpg,playground_60.jpg,playground_268.jpg,left,highway_83.jpg,badlands_55.jpg,golf_course_300.jpg,mountain_40.jpg,playground_60.jpg,bridge_228.jpg,4,A1Z494GD5FXO5L,24,male,8,2023-06-26_09h09.07.192,working,2022.2.4,Win32,5.333333333,,,right,3.317,0,32,32,32,1,playground_268.jpg,0,playground,,,,,,,,,,,
,,,,,,,,,,bridge_65.jpg,bridge_60.jpg,bridge_65.jpg,right,highway_399.jpg,golf_course_171.jpg,mountain_199.jpg,bridge_65.jpg,playground_241.jpg,badlands_97.jpg,3,A1Z494GD5FXO5L,24,male,8,2023-06-26_09h09.07.192,working,2022.2.4,Win32,5.333333333,,,left,6.986,0,33,33,33,1,bridge_60.jpg,1,bridge,,,,,,,,,,,
,,,,,,,,,,badlands_24.jpg,badlands_3.jpg,badlands_24.jpg,right,golf_course_133.jpg,playground_176.jpg,mountain_277.jpg,badlands_24.jpg,bridge_212.jpg,highway_404.jpg,3,A1Z494GD5FXO5L,24,male,8,2023-06-26_09h09.07.192,working,2022.2.4,Win32,5.333333333,,,right,2.266,0,34,34,34,1,badlands_3.jpg,0,badlands,,,,,,,,,,,
,,,,,,,,,,bridge_191.jpg,bridge_191.jpg,bridge_75.jpg,left,badlands_138.jpg,golf_course_253.jpg,playground_153.jpg,bridge_191.jpg,mountain_76.jpg,highway_42.jpg,3,A1Z494GD5FXO5L,24,male,8,2023-06-26_09h09.07.192,working,2022.2.4,Win32,5.333333333,,,left,4.518,0,35,35,35,1,bridge_75.jpg,1,bridge,,,,,,,,,,,
,,,,,,,,,,mountain_101.jpg,mountain_221.jpg,mountain_101.jpg,right,highway_265.jpg,playground_6.jpg,golf_course_219.jpg,mountain_101.jpg,badlands_36.jpg,bridge_180.jpg,3,A1Z494GD5FXO5L,24,male,8,2023-06-26_09h09.07.192,working,2022.2.4,Win32,5.333333333,,,left,22.494,0,36,36,36,1,mountain_221.jpg,1,mountain,,,,,,,,,,,
,,,,,,,,,,golf_course_217.jpg,golf_course_35.jpg,golf_course_217.jpg,right,bridge_152.jpg,highway_58.jpg,golf_course_217.jpg,badlands_9.jpg,playground_173.jpg,mountain_62.jpg,2,A1Z494GD5FXO5L,24,male,8,2023-06-26_09h09.07.192,working,2022.2.4,Win32,5.333333333,,,left,3.087,0,37,37,37,1,golf_course_35.jpg,0,golf,,,,,,,,,,,
,,,,,,,,,,playground_10.jpg,playground_12.jpg,playground_10.jpg,right,badlands_216.jpg,playground_10.jpg,bridge_63.jpg,golf_course_61.jpg,mountain_87.jpg,highway_383.jpg,1,A1Z494GD5FXO5L,24,male,8,2023-06-26_09h09.07.192,working,2022.2.4,Win32,5.333333333,,,left,3.388,0,38,38,38,1,playground_12.jpg,1,playground,,,,,,,,,,,
,,,,,,,,,,badlands_222.jpg,badlands_62.jpg,badlands_222.jpg,right,mountain_29.jpg,badlands_222.jpg,playground_30.jpg,highway_53.jpg,bridge_39.jpg,golf_course_120.jpg,1,A1Z494GD5FXO5L,24,male,8,2023-06-26_09h09.07.192,working,2022.2.4,Win32,5.333333333,,,right,2.108,0,39,39,39,1,badlands_62.jpg,1,badlands,,,,,,,,,,,
,,,,,,,,,,golf_course_331.jpg,golf_course_114.jpg,golf_course_331.jpg,right,bridge_144.jpg,highway_191.jpg,badlands_217.jpg,golf_course_331.jpg,playground_83.jpg,mountain_192.jpg,3,A1Z494GD5FXO5L,24,male,8,2023-06-26_09h09.07.192,working,2022.2.4,Win32,5.333333333,,,right,8.571,0,40,40,40,1,golf_course_114.jpg,0,golf,,,,,,,,,,,
,,,,,,,,,,badlands_113.jpg,badlands_113.jpg,badlands_203.jpg,left,mountain_302.jpg,badlands_113.jpg,playground_140.jpg,bridge_20.jpg,golf_course_72.jpg,highway_81.jpg,1,A1Z494GD5FXO5L,24,male,8,2023-06-26_09h09.07.192,working,2022.2.4,Win32,5.333333333,,,left,2.621,0,41,41,41,1,badlands_203.jpg,1,badlands,,,,,,,,,,,
,,,,,,,,,,golf_course_195.jpg,golf_course_195.jpg,golf_course_2.jpg,left,golf_course_195.jpg,badlands_215.jpg,mountain_166.jpg,highway_148.jpg,bridge_1.jpg,playground_165.jpg,0,A1Z494GD5FXO5L,24,male,8,2023-06-26_09h09.07.192,working,2022.2.4,Win32,5.333333333,,,right,3.627,0,42,42,42,1,golf_course_2.jpg,1,golf,,,,,,,,,,,
,,,,,,,,,,highway_177.jpg,highway_177.jpg,highway_278.jpg,left,mountain_88.jpg,playground_251.jpg,highway_177.jpg,bridge_124.jpg,golf_course_138.jpg,badlands_152.jpg,2,A1Z494GD5FXO5L,24,male,8,2023-06-26_09h09.07.192,working,2022.2.4,Win32,5.333333333,,,right,4.44,0,43,43,43,1,highway_278.jpg,1,highway,,,,,,,,,,,
,,,,,,,,,,badlands_52.jpg,badlands_52.jpg,badlands_63.jpg,left,bridge_45.jpg,playground_120.jpg,badlands_52.jpg,mountain_256.jpg,highway_172.jpg,golf_course_252.jpg,2,A1Z494GD5FXO5L,24,male,8,2023-06-26_09h09.07.192,working,2022.2.4,Win32,5.333333333,,,right,2.658,0,44,44,44,1,badlands_63.jpg,1,badlands,,,,,,,,,,,
,,,,,,,,,,mountain_222.jpg,mountain_222.jpg,mountain_244.jpg,left,bridge_234.jpg,highway_178.jpg,mountain_222.jpg,golf_course_102.jpg,playground_7.jpg,badlands_16.jpg,2,A1Z494GD5FXO5L,24,male,8,2023-06-26_09h09.07.192,working,2022.2.4,Win32,5.333333333,,,left,3.034,0,45,45,45,1,mountain_244.jpg,0,mountain,,,,,,,,,,,
,,,,,,,,,,golf_course_87.jpg,golf_course_161.jpg,golf_course_87.jpg,right,highway_365.jpg,mountain_180.jpg,playground_98.jpg,golf_course_87.jpg,bridge_225.jpg,badlands_157.jpg,3,A1Z494GD5FXO5L,24,male,8,2023-06-26_09h09.07.192,working,2022.2.4,Win32,5.333333333,,,left,3.197,0,46,46,46,1,golf_course_161.jpg,1,golf,,,,,,,,,,,
,,,,,,,,,,playground_257.jpg,playground_215.jpg,playground_257.jpg,right,highway_315.jpg,mountain_228.jpg,badlands_175.jpg,playground_257.jpg,bridge_52.jpg,golf_course_144.jpg,3,A1Z494GD5FXO5L,24,male,8,2023-06-26_09h09.07.192,working,2022.2.4,Win32,5.333333333,,,right,6.952,0,47,47,47,1,playground_215.jpg,1,playground,,,,,,,,,,,
,,,,,,,,,,highway_209.jpg,highway_209.jpg,highway_314.jpg,left,mountain_226.jpg,badlands_81.jpg,highway_209.jpg,golf_course_42.jpg,playground_235.jpg,bridge_193.jpg,2,A1Z494GD5FXO5L,24,male,8,2023-06-26_09h09.07.192,working,2022.2.4,Win32,5.333333333,,,left,4.945,0,48,48,48,1,highway_314.jpg,0,highway,,,,,,,,,,,
,,,,,,,,,,badlands_70.jpg,badlands_70.jpg,badlands_102.jpg,left,golf_course_23.jpg,badlands_70.jpg,bridge_169.jpg,playground_26.jpg,mountain_176.jpg,highway_308.jpg,1,A1Z494GD5FXO5L,24,male,8,2023-06-26_09h09.07.192,working,2022.2.4,Win32,5.333333333,,,left,2.852,0,49,49,49,1,badlands_102.jpg,0,badlands,,,,,,,,,,,
,,,,,,,,,,mountain_154.jpg,mountain_95.jpg,mountain_154.jpg,right,mountain_154.jpg,playground_74.jpg,badlands_214.jpg,bridge_173.jpg,golf_course_166.jpg,highway_305.jpg,0,A1Z494GD5FXO5L,24,male,8,2023-06-26_09h09.07.192,working,2022.2.4,Win32,5.333333333,,,left,3.825,0,50,50,50,1,mountain_95.jpg,1,mountain,,,,,,,,,,,
,,,,,,,,,,badlands_137.jpg,badlands_137.jpg,badlands_139.jpg,left,bridge_142.jpg,mountain_51.jpg,golf_course_179.jpg,playground_118.jpg,badlands_137.jpg,highway_274.jpg,4,A1Z494GD5FXO5L,24,male,8,2023-06-26_09h09.07.192,working,2022.2.4,Win32,5.333333333,,,right,2.396,0,51,51,51,1,badlands_139.jpg,1,badlands,,,,,,,,,,,
,,,,,,,,,,mountain_156.jpg,mountain_128.jpg,mountain_156.jpg,right,golf_course_218.jpg,playground_37.jpg,badlands_27.jpg,mountain_156.jpg,bridge_110.jpg,highway_147.jpg,3,A1Z494GD5FXO5L,24,male,8,2023-06-26_09h09.07.192,working,2022.2.4,Win32,5.333333333,,,left,3.809,0,52,52,52,1,mountain_128.jpg,0,mountain,,,,,,,,,,,
,,,,,,,,,,golf_course_188.jpg,golf_course_160.jpg,golf_course_188.jpg,right,playground_256.jpg,badlands_46.jpg,golf_course_188.jpg,mountain_102.jpg,highway_30.jpg,bridge_4.jpg,2,A1Z494GD5FXO5L,24,male,8,2023-06-26_09h09.07.192,working,2022.2.4,Win32,5.333333333,,,left,4.283,0,53,53,53,1,golf_course_160.jpg,1,golf,,,,,,,,,,,
,,,,,,,,,,bridge_202.jpg,bridge_31.jpg,bridge_202.jpg,right,bridge_202.jpg,golf_course_55.jpg,mountain_34.jpg,badlands_33.jpg,highway_226.jpg,playground_184.jpg,0,A1Z494GD5FXO5L,24,male,8,2023-06-26_09h09.07.192,working,2022.2.4,Win32,5.333333333,,,right,4.314,0,54,54,54,1,bridge_31.jpg,0,bridge,,,,,,,,,,,
,,,,,,,,,,highway_415.jpg,highway_415.jpg,highway_174.jpg,left,bridge_126.jpg,badlands_26.jpg,mountain_294.jpg,playground_227.jpg,highway_415.jpg,golf_course_241.jpg,4,A1Z494GD5FXO5L,24,male,8,2023-06-26_09h09.07.192,working,2022.2.4,Win32,5.333333333,,,left,5.73,0,55,55,55,1,highway_174.jpg,1,highway,,,,,,,,,,,
,,,,,,,,,,highway_273.jpg,highway_171.jpg,highway_273.jpg,right,badlands_185.jpg,golf_course_181.jpg,bridge_72.jpg,highway_273.jpg,playground_258.jpg,mountain_202.jpg,3,A1Z494GD5FXO5L,24,male,8,2023-06-26_09h09.07.192,working,2022.2.4,Win32,5.333333333,,,left,7.283,0,56,56,56,1,highway_171.jpg,1,highway,,,,,,,,,,,
,,,,,,,,,,bridge_250.jpg,bridge_250.jpg,bridge_134.jpg,left,golf_course_308.jpg,mountain_249.jpg,highway_193.jpg,bridge_250.jpg,playground_222.jpg,badlands_104.jpg,3,A1Z494GD5FXO5L,24,male,8,2023-06-26_09h09.07.192,working,2022.2.4,Win32,5.333333333,,,right,4.319,0,57,57,57,1,bridge_134.jpg,0,bridge,,,,,,,,,,,
,,,,,,,,,,mountain_57.jpg,mountain_57.jpg,mountain_193.jpg,left,badlands_35.jpg,bridge_87.jpg,mountain_57.jpg,highway_354.jpg,golf_course_137.jpg,playground_78.jpg,2,A1Z494GD5FXO5L,24,male,8,2023-06-26_09h09.07.192,working,2022.2.4,Win32,5.333333333,,,left,2.815,0,58,58,58,1,mountain_193.jpg,0,mountain,,,,,,,,,,,
,,,,,,,,,,mountain_293.jpg,mountain_47.jpg,mountain_293.jpg,right,bridge_164.jpg,highway_107.jpg,mountain_293.jpg,badlands_10.jpg,playground_233.jpg,golf_course_105.jpg,2,A1Z494GD5FXO5L,24,male,8,2023-06-26_09h09.07.192,working,2022.2.4,Win32,5.333333333,,,right,3.935,0,59,59,59,1,mountain_47.jpg,1,mountain,,,,,,,,,,,
,,,,,,,,,,bridge_91.jpg,bridge_82.jpg,bridge_91.jpg,right,golf_course_297.jpg,playground_249.jpg,mountain_309.jpg,highway_36.jpg,bridge_91.jpg,badlands_30.jpg,4,A1Z494GD5FXO5L,24,male,8,2023-06-26_09h09.07.192,working,2022.2.4,Win32,5.333333333,,,,,,,,,,bridge_82.jpg,1,bridge,space,161.826,8.270833333,10.231,0,0,0,0,1,,
,,,,,,,,,,golf_course_78.jpg,golf_course_78.jpg,golf_course_101.jpg,left,badlands_80.jpg,bridge_86.jpg,mountain_137.jpg,playground_50.jpg,golf_course_78.jpg,highway_101.jpg,4,A1Z494GD5FXO5L,24,male,8,2023-06-26_09h09.07.192,working,2022.2.4,Win32,5.333333333,,,,,,,,,,golf_course_101.jpg,1,golf,,,1.541666667,6.528,0,1,1,1,1,,
,,,,,,,,,,playground_117.jpg,playground_117.jpg,playground_167.jpg,left,badlands_200.jpg,golf_course_305.jpg,playground_117.jpg,bridge_76.jpg,mountain_204.jpg,highway_251.jpg,2,A1Z494GD5FXO5L,24,male,8,2023-06-26_09h09.07.192,working,2022.2.4,Win32,5.333333333,,,,,,,,,,playground_167.jpg,0,playground,,,8.729166667,5.451,0,2,2,2,1,,
,,,,,,,,,,golf_course_15.jpg,golf_course_15.jpg,golf_course_113.jpg,left,golf_course_15.jpg,highway_413.jpg,mountain_212.jpg,bridge_118.jpg,playground_85.jpg,badlands_219.jpg,0,A1Z494GD5FXO5L,24,male,8,2023-06-26_09h09.07.192,working,2022.2.4,Win32,5.333333333,,,,,,,,,,golf_course_113.jpg,0,golf,,,3.020833333,9.089,0,3,3,3,1,,
,,,,,,,,,,highway_294.jpg,highway_294.jpg,highway_368.jpg,left,bridge_62.jpg,mountain_89.jpg,playground_191.jpg,highway_294.jpg,golf_course_307.jpg,badlands_105.jpg,3,A1Z494GD5FXO5L,24,male,8,2023-06-26_09h09.07.192,working,2022.2.4,Win32,5.333333333,,,,,,,,,,highway_368.jpg,1,highway,,,8.729166667,6.29,0,4,4,4,1,,
,,,,,,,,,,golf_course_309.jpg,golf_course_16.jpg,golf_course_309.jpg,right,highway_154.jpg,golf_course_309.jpg,mountain_160.jpg,badlands_171.jpg,playground_162.jpg,bridge_102.jpg,1,A1Z494GD5FXO5L,24,male,8,2023-06-26_09h09.07.192,working,2022.2.4,Win32,5.333333333,,,,,,,,,,golf_course_16.jpg,0,golf,,,2.989583333,14.62,0,5,5,5,1,,
,,,,,,,,,,highway_156.jpg,highway_156.jpg,highway_293.jpg,left,golf_course_56.jpg,mountain_253.jpg,highway_156.jpg,badlands_47.jpg,playground_195.jpg,bridge_120.jpg,2,A1Z494GD5FXO5L,24,male,8,2023-06-26_09h09.07.192,working,2022.2.4,Win32,5.333333333,,,,,,,,,,highway_293.jpg,1,highway,,,2.677083333,0.925,0,6,6,6,1,,
,,,,,,,,,,golf_course_193.jpg,golf_course_193.jpg,golf_course_235.jpg,left,golf_course_193.jpg,bridge_64.jpg,badlands_128.jpg,playground_64.jpg,mountain_41.jpg,highway_199.jpg,0,A1Z494GD5FXO5L,24,male,8,2023-06-26_09h09.07.192,working,2022.2.4,Win32,5.333333333,,,,,,,,,,golf_course_235.jpg,0,golf,,,2.041666667,9.341,0,7,7,7,1,,
,,,,,,,,,,highway_359.jpg,highway_359.jpg,highway_379.jpg,left,bridge_66.jpg,badlands_213.jpg,mountain_250.jpg,playground_14.jpg,highway_359.jpg,golf_course_0.jpg,4,A1Z494GD5FXO5L,24,male,8,2023-06-26_09h09.07.192,working,2022.2.4,Win32,5.333333333,,,,,,,,,,highway_379.jpg,1,highway,,,8.854166667,14.024,0,8,8,8,1,,
,,,,,,,,,,bridge_256.jpg,bridge_256.jpg,bridge_54.jpg,left,playground_55.jpg,bridge_256.jpg,mountain_135.jpg,badlands_170.jpg,highway_102.jpg,golf_course_71.jpg,1,A1Z494GD5FXO5L,24,male,8,2023-06-26_09h09.07.192,working,2022.2.4,Win32,5.333333333,,,,,,,,,,bridge_54.jpg,0,bridge,,,5.958333333,8.706,0,9,9,9,1,,
,,,,,,,,,,golf_course_214.jpg,golf_course_214.jpg,golf_course_317.jpg,left,playground_36.jpg,bridge_167.jpg,highway_9.jpg,golf_course_214.jpg,mountain_22.jpg,badlands_54.jpg,3,A1Z494GD5FXO5L,24,male,8,2023-06-26_09h09.07.192,working,2022.2.4,Win32,5.333333333,,,,,,,,,,golf_course_317.jpg,1,golf,,,8.989583333,14.377,0,10,10,10,1,,
,,,,,,,,,,mountain_110.jpg,mountain_223.jpg,mountain_110.jpg,right,golf_course_269.jpg,highway_90.jpg,playground_49.jpg,mountain_110.jpg,badlands_72.jpg,bridge_79.jpg,3,A1Z494GD5FXO5L,24,male,8,2023-06-26_09h09.07.192,working,2022.2.4,Win32,5.333333333,,,,,,,,,,mountain_223.jpg,1,mountain,,,8.822916667,6.53,0,11,11,11,1,,
,,,,,,,,,,playground_219.jpg,playground_205.jpg,playground_219.jpg,right,golf_course_59.jpg,playground_219.jpg,mountain_33.jpg,bridge_143.jpg,highway_290.jpg,badlands_164.jpg,1,A1Z494GD5FXO5L,24,male,8,2023-06-26_09h09.07.192,working,2022.2.4,Win32,5.333333333,,,,,,,,,,playground_205.jpg,1,playground,,,9,8.034,0,12,12,12,1,,
,,,,,,,,,,playground_240.jpg,playground_2.jpg,playground_240.jpg,right,mountain_92.jpg,golf_course_199.jpg,badlands_180.jpg,highway_313.jpg,playground_240.jpg,bridge_133.jpg,4,A1Z494GD5FXO5L,24,male,8,2023-06-26_09h09.07.192,working,2022.2.4,Win32,5.333333333,,,,,,,,,,playground_2.jpg,0,playground,,,8.927083333,18.778,0,13,13,13,1,,
,,,,,,,,,,playground_76.jpg,playground_76.jpg,playground_22.jpg,left,badlands_106.jpg,bridge_155.jpg,golf_course_288.jpg,highway_247.jpg,playground_76.jpg,mountain_169.jpg,4,A1Z494GD5FXO5L,24,male,8,2023-06-26_09h09.07.192,working,2022.2.4,Win32,5.333333333,,,,,,,,,,playground_22.jpg,0,playground,,,8.833333333,7.863,0,14,14,14,1,,
,,,,,,,,,,bridge_172.jpg,bridge_172.jpg,bridge_163.jpg,left,bridge_172.jpg,golf_course_116.jpg,playground_204.jpg,highway_141.jpg,badlands_79.jpg,mountain_19.jpg,0,A1Z494GD5FXO5L,24,male,8,2023-06-26_09h09.07.192,working,2022.2.4,Win32,5.333333333,,,,,,,,,,bridge_163.jpg,1,bridge,,,8.96875,3.549,0,15,15,15,1,,
,,,,,,,,,,highway_394.jpg,highway_394.jpg,highway_406.jpg,left,bridge_190.jpg,playground_141.jpg,badlands_183.jpg,golf_course_212.jpg,highway_394.jpg,mountain_126.jpg,4,A1Z494GD5FXO5L,24,male,8,2023-06-26_09h09.07.192,working,2022.2.4,Win32,5.333333333,,,,,,,,,,highway_406.jpg,1,highway,,,2.010416667,6.93,0,16,16,16,1,,
,,,,,,,,,,bridge_146.jpg,bridge_27.jpg,bridge_146.jpg,right,playground_154.jpg,badlands_120.jpg,bridge_146.jpg,highway_288.jpg,mountain_307.jpg,golf_course_164.jpg,2,A1Z494GD5FXO5L,24,male,8,2023-06-26_09h09.07.192,working,2022.2.4,Win32,5.333333333,,,,,,,,,,bridge_27.jpg,0,bridge,,,3.083333333,5.177,0,17,17,17,1,,
,,,,,,,,,,highway_245.jpg,highway_245.jpg,highway_134.jpg,left,highway_245.jpg,bridge_224.jpg,badlands_88.jpg,playground_61.jpg,golf_course_265.jpg,mountain_306.jpg,0,A1Z494GD5FXO5L,24,male,8,2023-06-26_09h09.07.192,working,2022.2.4,Win32,5.333333333,,,,,,,,,,highway_134.jpg,0,highway,,,2.020833333,8.117,0,18,18,18,1,,
,,,,,,,,,,bridge_128.jpg,bridge_128.jpg,bridge_244.jpg,left,badlands_211.jpg,playground_196.jpg,golf_course_226.jpg,highway_28.jpg,bridge_128.jpg,mountain_198.jpg,4,A1Z494GD5FXO5L,24,male,8,2023-06-26_09h09.07.192,working,2022.2.4,Win32,5.333333333,,,,,,,,,,bridge_244.jpg,1,bridge,,,6.989583333,11.76,0,19,19,19,1,,
,,,,,,,,,,badlands_21.jpg,badlands_21.jpg,badlands_1.jpg,left,golf_course_202.jpg,bridge_254.jpg,mountain_190.jpg,playground_54.jpg,badlands_21.jpg,highway_33.jpg,4,A1Z494GD5FXO5L,24,male,8,2023-06-26_09h09.07.192,working,2022.2.4,Win32,5.333333333,,,,,,,,,,badlands_1.jpg,0,badlands,,,1.09375,10.809,0,20,20,20,1,,
,,,,,,,,,,playground_144.jpg,playground_144.jpg,playground_137.jpg,left,mountain_120.jpg,bridge_74.jpg,badlands_174.jpg,playground_144.jpg,golf_course_176.jpg,highway_342.jpg,3,A1Z494GD5FXO5L,24,male,8,2023-06-26_09h09.07.192,working,2022.2.4,Win32,5.333333333,,,,,,,,,,playground_137.jpg,0,playground,,,2.020833333,11.386,0,21,21,21,1,,
,,,,,,,,,,bridge_108.jpg,bridge_116.jpg,bridge_108.jpg,right,badlands_85.jpg,highway_269.jpg,mountain_290.jpg,golf_course_174.jpg,bridge_108.jpg,playground_16.jpg,4,A1Z494GD5FXO5L,24,male,8,2023-06-26_09h09.07.192,working,2022.2.4,Win32,5.333333333,,,,,,,,,,bridge_116.jpg,0,bridge,,,3.833333333,9.483,0,22,22,22,1,,
,,,,,,,,,,mountain_232.jpg,mountain_232.jpg,mountain_3.jpg,left,golf_course_128.jpg,playground_15.jpg,highway_3.jpg,badlands_173.jpg,mountain_232.jpg,bridge_147.jpg,4,A1Z494GD5FXO5L,24,male,8,2023-06-26_09h09.07.192,working,2022.2.4,Win32,5.333333333,,,,,,,,,,mountain_3.jpg,0,mountain,,,1.072916667,9.855,0,23,23,23,1,,
,,,,,,,,,,playground_145.jpg,playground_145.jpg,playground_229.jpg,left,badlands_227.jpg,mountain_152.jpg,highway_37.jpg,playground_145.jpg,bridge_24.jpg,golf_course_162.jpg,3,A1Z494GD5FXO5L,24,male,8,2023-06-26_09h09.07.192,working,2022.2.4,Win32,5.333333333,,,,,,,,,,playground_229.jpg,0,playground,,,6.010416667,10.614,0,24,24,24,1,,
,,,,,,,,,,highway_93.jpg,highway_369.jpg,highway_93.jpg,right,badlands_122.jpg,bridge_197.jpg,playground_103.jpg,golf_course_127.jpg,highway_93.jpg,mountain_146.jpg,4,A1Z494GD5FXO5L,24,male,8,2023-06-26_09h09.07.192,working,2022.2.4,Win32,5.333333333,,,,,,,,,,highway_369.jpg,1,highway,,,8.927083333,19.445,0,25,25,25,1,,
,,,,,,,,,,badlands_221.jpg,badlands_221.jpg,badlands_115.jpg,left,mountain_91.jpg,highway_18.jpg,bridge_106.jpg,badlands_221.jpg,golf_course_194.jpg,playground_126.jpg,3,A1Z494GD5FXO5L,24,male,8,2023-06-26_09h09.07.192,working,2022.2.4,Win32,5.333333333,,,,,,,,,,badlands_115.jpg,0,badlands,,,9,4.486,0,26,26,26,1,,
,,,,,,,,,,mountain_230.jpg,mountain_184.jpg,mountain_230.jpg,right,golf_course_33.jpg,badlands_60.jpg,bridge_136.jpg,playground_181.jpg,mountain_230.jpg,highway_15.jpg,4,A1Z494GD5FXO5L,24,male,8,2023-06-26_09h09.07.192,working,2022.2.4,Win32,5.333333333,,,,,,,,,,mountain_184.jpg,0,mountain,,,1.010416667,13.126,0,27,27,27,1,,
,,,,,,,,,,badlands_184.jpg,badlands_228.jpg,badlands_184.jpg,right,mountain_233.jpg,bridge_204.jpg,badlands_184.jpg,playground_68.jpg,highway_287.jpg,golf_course_342.jpg,2,A1Z494GD5FXO5L,24,male,8,2023-06-26_09h09.07.192,working,2022.2.4,Win32,5.333333333,,,,,,,,,,badlands_228.jpg,0,badlands,,,8.979166667,11.375,0,28,28,28,1,,
,,,,,,,,,,badlands_23.jpg,badlands_114.jpg,badlands_23.jpg,right,playground_84.jpg,badlands_23.jpg,golf_course_221.jpg,bridge_158.jpg,mountain_38.jpg,highway_76.jpg,1,A1Z494GD5FXO5L,24,male,8,2023-06-26_09h09.07.192,working,2022.2.4,Win32,5.333333333,,,,,,,,,,badlands_114.jpg,0,badlands,,,9,29.713,0,29,29,29,1,,
,,,,,,,,,,playground_131.jpg,playground_131.jpg,playground_164.jpg,left,mountain_268.jpg,playground_131.jpg,bridge_238.jpg,golf_course_282.jpg,badlands_59.jpg,highway_246.jpg,1,A1Z494GD5FXO5L,24,male,8,2023-06-26_09h09.07.192,working,2022.2.4,Win32,5.333333333,,,,,,,,,,playground_164.jpg,1,playground,,,8.96875,3.338,0,30,30,30,1,,
,,,,,,,,,,mountain_123.jpg,mountain_123.jpg,mountain_94.jpg,left,highway_50.jpg,bridge_218.jpg,mountain_123.jpg,golf_course_67.jpg,badlands_125.jpg,playground_110.jpg,2,A1Z494GD5FXO5L,24,male,8,2023-06-26_09h09.07.192,working,2022.2.4,Win32,5.333333333,,,,,,,,,,mountain_94.jpg,0,mountain,,,1.0625,8.524,0,31,31,31,1,,
,,,,,,,,,,playground_60.jpg,playground_60.jpg,playground_268.jpg,left,highway_83.jpg,badlands_55.jpg,golf_course_300.jpg,mountain_40.jpg,playground_60.jpg,bridge_228.jpg,4,A1Z494GD5FXO5L,24,male,8,2023-06-26_09h09.07.192,working,2022.2.4,Win32,5.333333333,,,,,,,,,,playground_268.jpg,0,playground,,,8.96875,18.623,0,32,32,32,1,,
,,,,,,,,,,bridge_65.jpg,bridge_60.jpg,bridge_65.jpg,right,highway_399.jpg,golf_course_171.jpg,mountain_199.jpg,bridge_65.jpg,playground_241.jpg,badlands_97.jpg,3,A1Z494GD5FXO5L,24,male,8,2023-06-26_09h09.07.192,working,2022.2.4,Win32,5.333333333,,,,,,,,,,bridge_60.jpg,1,bridge,,,1.145833333,4.527,0,33,33,33,1,,
,,,,,,,,,,badlands_24.jpg,badlands_3.jpg,badlands_24.jpg,right,golf_course_133.jpg,playground_176.jpg,mountain_277.jpg,badlands_24.jpg,bridge_212.jpg,highway_404.jpg,3,A1Z494GD5FXO5L,24,male,8,2023-06-26_09h09.07.192,working,2022.2.4,Win32,5.333333333,,,,,,,,,,badlands_3.jpg,0,badlands,,,1.96875,4.558,0,34,34,34,1,,
,,,,,,,,,,bridge_191.jpg,bridge_191.jpg,bridge_75.jpg,left,badlands_138.jpg,golf_course_253.jpg,playground_153.jpg,bridge_191.jpg,mountain_76.jpg,highway_42.jpg,3,A1Z494GD5FXO5L,24,male,8,2023-06-26_09h09.07.192,working,2022.2.4,Win32,5.333333333,,,,,,,,,,bridge_75.jpg,1,bridge,,,9,9.304,0,35,35,35,1,,
,,,,,,,,,,mountain_101.jpg,mountain_221.jpg,mountain_101.jpg,right,highway_265.jpg,playground_6.jpg,golf_course_219.jpg,mountain_101.jpg,badlands_36.jpg,bridge_180.jpg,3,A1Z494GD5FXO5L,24,male,8,2023-06-26_09h09.07.192,working,2022.2.4,Win32,5.333333333,,,,,,,,,,mountain_221.jpg,1,mountain,,,1.083333333,4.697,0,36,36,36,1,,
,,,,,,,,,,golf_course_217.jpg,golf_course_35.jpg,golf_course_217.jpg,right,bridge_152.jpg,highway_58.jpg,golf_course_217.jpg,badlands_9.jpg,playground_173.jpg,mountain_62.jpg,2,A1Z494GD5FXO5L,24,male,8,2023-06-26_09h09.07.192,working,2022.2.4,Win32,5.333333333,,,,,,,,,,golf_course_35.jpg,0,golf,,,1.135416667,7.443,0,37,37,37,1,,
,,,,,,,,,,playground_10.jpg,playground_12.jpg,playground_10.jpg,right,badlands_216.jpg,playground_10.jpg,bridge_63.jpg,golf_course_61.jpg,mountain_87.jpg,highway_383.jpg,1,A1Z494GD5FXO5L,24,male,8,2023-06-26_09h09.07.192,working,2022.2.4,Win32,5.333333333,,,,,,,,,,playground_12.jpg,1,playground,,,1.03125,2.623,0,38,38,38,1,,
,,,,,,,,,,badlands_222.jpg,badlands_62.jpg,badlands_222.jpg,right,mountain_29.jpg,badlands_222.jpg,playground_30.jpg,highway_53.jpg,bridge_39.jpg,golf_course_120.jpg,1,A1Z494GD5FXO5L,24,male,8,2023-06-26_09h09.07.192,working,2022.2.4,Win32,5.333333333,,,,,,,,,,badlands_62.jpg,1,badlands,,,8.947916667,8,0,39,39,39,1,,
,,,,,,,,,,golf_course_331.jpg,golf_course_114.jpg,golf_course_331.jpg,right,bridge_144.jpg,highway_191.jpg,badlands_217.jpg,golf_course_331.jpg,playground_83.jpg,mountain_192.jpg,3,A1Z494GD5FXO5L,24,male,8,2023-06-26_09h09.07.192,working,2022.2.4,Win32,5.333333333,,,,,,,,,,golf_course_114.jpg,0,golf,,,1.041666667,6.797,0,40,40,40,1,,
,,,,,,,,,,badlands_113.jpg,badlands_113.jpg,badlands_203.jpg,left,mountain_302.jpg,badlands_113.jpg,playground_140.jpg,bridge_20.jpg,golf_course_72.jpg,highway_81.jpg,1,A1Z494GD5FXO5L,24,male,8,2023-06-26_09h09.07.192,working,2022.2.4,Win32,5.333333333,,,,,,,,,,badlands_203.jpg,1,badlands,,,8.979166667,6.063,0,41,41,41,1,,
,,,,,,,,,,golf_course_195.jpg,golf_course_195.jpg,golf_course_2.jpg,left,golf_course_195.jpg,badlands_215.jpg,mountain_166.jpg,highway_148.jpg,bridge_1.jpg,playground_165.jpg,0,A1Z494GD5FXO5L,24,male,8,2023-06-26_09h09.07.192,working,2022.2.4,Win32,5.333333333,,,,,,,,,,golf_course_2.jpg,1,golf,,,8.9375,5.462,0,42,42,42,1,,
,,,,,,,,,,highway_177.jpg,highway_177.jpg,highway_278.jpg,left,mountain_88.jpg,playground_251.jpg,highway_177.jpg,bridge_124.jpg,golf_course_138.jpg,badlands_152.jpg,2,A1Z494GD5FXO5L,24,male,8,2023-06-26_09h09.07.192,working,2022.2.4,Win32,5.333333333,,,,,,,,,,highway_278.jpg,1,highway,,,8.979166667,12.656,0,43,43,43,1,,
,,,,,,,,,,badlands_52.jpg,badlands_52.jpg,badlands_63.jpg,left,bridge_45.jpg,playground_120.jpg,badlands_52.jpg,mountain_256.jpg,highway_172.jpg,golf_course_252.jpg,2,A1Z494GD5FXO5L,24,male,8,2023-06-26_09h09.07.192,working,2022.2.4,Win32,5.333333333,,,,,,,,,,badlands_63.jpg,1,badlands,,,8.989583333,14.978,0,44,44,44,1,,
,,,,,,,,,,mountain_222.jpg,mountain_222.jpg,mountain_244.jpg,left,bridge_234.jpg,highway_178.jpg,mountain_222.jpg,golf_course_102.jpg,playground_7.jpg,badlands_16.jpg,2,A1Z494GD5FXO5L,24,male,8,2023-06-26_09h09.07.192,working,2022.2.4,Win32,5.333333333,,,,,,,,,,mountain_244.jpg,0,mountain,,,1.114583333,22.39,0,45,45,45,1,,
,,,,,,,,,,golf_course_87.jpg,golf_course_161.jpg,golf_course_87.jpg,right,highway_365.jpg,mountain_180.jpg,playground_98.jpg,golf_course_87.jpg,bridge_225.jpg,badlands_157.jpg,3,A1Z494GD5FXO5L,24,male,8,2023-06-26_09h09.07.192,working,2022.2.4,Win32,5.333333333,,,,,,,,,,golf_course_161.jpg,1,golf,,,1.927083333,4.988,0,46,46,46,1,,
,,,,,,,,,,playground_257.jpg,playground_215.jpg,playground_257.jpg,right,highway_315.jpg,mountain_228.jpg,badlands_175.jpg,playground_257.jpg,bridge_52.jpg,golf_course_144.jpg,3,A1Z494GD5FXO5L,24,male,8,2023-06-26_09h09.07.192,working,2022.2.4,Win32,5.333333333,,,,,,,,,,playground_215.jpg,1,playground,,,1.020833333,25.042,0,47,47,47,1,,
,,,,,,,,,,highway_209.jpg,highway_209.jpg,highway_314.jpg,left,mountain_226.jpg,badlands_81.jpg,highway_209.jpg,golf_course_42.jpg,playground_235.jpg,bridge_193.jpg,2,A1Z494GD5FXO5L,24,male,8,2023-06-26_09h09.07.192,working,2022.2.4,Win32,5.333333333,,,,,,,,,,highway_314.jpg,0,highway,,,1.0625,33.782,0,48,48,48,1,,
,,,,,,,,,,badlands_70.jpg,badlands_70.jpg,badlands_102.jpg,left,golf_course_23.jpg,badlands_70.jpg,bridge_169.jpg,playground_26.jpg,mountain_176.jpg,highway_308.jpg,1,A1Z494GD5FXO5L,24,male,8,2023-06-26_09h09.07.192,working,2022.2.4,Win32,5.333333333,,,,,,,,,,badlands_102.jpg,0,badlands,,,2.052083333,10.988,0,49,49,49,1,,
,,,,,,,,,,mountain_154.jpg,mountain_95.jpg,mountain_154.jpg,right,mountain_154.jpg,playground_74.jpg,badlands_214.jpg,bridge_173.jpg,golf_course_166.jpg,highway_305.jpg,0,A1Z494GD5FXO5L,24,male,8,2023-06-26_09h09.07.192,working,2022.2.4,Win32,5.333333333,,,,,,,,,,mountain_95.jpg,1,mountain,,,2.822916667,13.005,0,50,50,50,1,,
,,,,,,,,,,badlands_137.jpg,badlands_137.jpg,badlands_139.jpg,left,bridge_142.jpg,mountain_51.jpg,golf_course_179.jpg,playground_118.jpg,badlands_137.jpg,highway_274.jpg,4,A1Z494GD5FXO5L,24,male,8,2023-06-26_09h09.07.192,working,2022.2.4,Win32,5.333333333,,,,,,,,,,badlands_139.jpg,1,badlands,,,3.0625,3.681,0,51,51,51,1,,
,,,,,,,,,,mountain_156.jpg,mountain_128.jpg,mountain_156.jpg,right,golf_course_218.jpg,playground_37.jpg,badlands_27.jpg,mountain_156.jpg,bridge_110.jpg,highway_147.jpg,3,A1Z494GD5FXO5L,24,male,8,2023-06-26_09h09.07.192,working,2022.2.4,Win32,5.333333333,,,,,,,,,,mountain_128.jpg,0,mountain,,,7.895833333,6.327,0,52,52,52,1,,
,,,,,,,,,,golf_course_188.jpg,golf_course_160.jpg,golf_course_188.jpg,right,playground_256.jpg,badlands_46.jpg,golf_course_188.jpg,mountain_102.jpg,highway_30.jpg,bridge_4.jpg,2,A1Z494GD5FXO5L,24,male,8,2023-06-26_09h09.07.192,working,2022.2.4,Win32,5.333333333,,,,,,,,,,golf_course_160.jpg,1,golf,,,8.041666667,8.19,0,53,53,53,1,,
,,,,,,,,,,bridge_202.jpg,bridge_31.jpg,bridge_202.jpg,right,bridge_202.jpg,golf_course_55.jpg,mountain_34.jpg,badlands_33.jpg,highway_226.jpg,playground_184.jpg,0,A1Z494GD5FXO5L,24,male,8,2023-06-26_09h09.07.192,working,2022.2.4,Win32,5.333333333,,,,,,,,,,bridge_31.jpg,0,bridge,,,2.916666667,12.394,0,54,54,54,1,,
,,,,,,,,,,highway_415.jpg,highway_415.jpg,highway_174.jpg,left,bridge_126.jpg,badlands_26.jpg,mountain_294.jpg,playground_227.jpg,highway_415.jpg,golf_course_241.jpg,4,A1Z494GD5FXO5L,24,male,8,2023-06-26_09h09.07.192,working,2022.2.4,Win32,5.333333333,,,,,,,,,,highway_174.jpg,1,highway,,,8.927083333,3.667,0,55,55,55,1,,
,,,,,,,,,,highway_273.jpg,highway_171.jpg,highway_273.jpg,right,badlands_185.jpg,golf_course_181.jpg,bridge_72.jpg,highway_273.jpg,playground_258.jpg,mountain_202.jpg,3,A1Z494GD5FXO5L,24,male,8,2023-06-26_09h09.07.192,working,2022.2.4,Win32,5.333333333,,,,,,,,,,highway_171.jpg,1,highway,,,8.90625,14.381,0,56,56,56,1,,
,,,,,,,,,,bridge_250.jpg,bridge_250.jpg,bridge_134.jpg,left,golf_course_308.jpg,mountain_249.jpg,highway_193.jpg,bridge_250.jpg,playground_222.jpg,badlands_104.jpg,3,A1Z494GD5FXO5L,24,male,8,2023-06-26_09h09.07.192,working,2022.2.4,Win32,5.333333333,,,,,,,,,,bridge_134.jpg,0,bridge,,,8.90625,8.031,0,57,57,57,1,,
,,,,,,,,,,mountain_57.jpg,mountain_57.jpg,mountain_193.jpg,left,badlands_35.jpg,bridge_87.jpg,mountain_57.jpg,highway_354.jpg,golf_course_137.jpg,playground_78.jpg,2,A1Z494GD5FXO5L,24,male,8,2023-06-26_09h09.07.192,working,2022.2.4,Win32,5.333333333,,,,,,,,,,mountain_193.jpg,0,mountain,,,1.96875,3.639,0,58,58,58,1,,
,,,,,,,,,,mountain_293.jpg,mountain_47.jpg,mountain_293.jpg,right,bridge_164.jpg,highway_107.jpg,mountain_293.jpg,badlands_10.jpg,playground_233.jpg,golf_course_105.jpg,2,A1Z494GD5FXO5L,24,male,8,2023-06-26_09h09.07.192,working,2022.2.4,Win32,5.333333333,,,,,,,,,,mountain_47.jpg,1,mountain,,,8.947916667,15.761,0,59,59,59,1,,
,,,,,,,,,,,,,,,,,,,,,A1Z494GD5FXO5L,24,male,8,2023-06-26_09h09.07.192,working,2022.2.4,Win32,5.333333333,,,,,,,,,,,,,,,,,,,,,,space,121.483
