key_resp.keys,key_resp_2.keys,key_resp_2.rt,demo_test_key_resp.keys,demo_test_key_resp.rt,demo_loops.thisRepN,demo_loops.thisTrialN,demo_loops.thisN,demo_loops.thisIndex,demo_loops.ran,target,image1,image2,correct,background_0,background_1,background_2,background_3,background_4,background_5,target_index,workID,Age,Gender,Hours slept (last night),date,expName,psychopyVersion,OS,frameRate,key_resp_after_demo.keys,key_resp_after_demo.rt,test_key_resp.keys,test_key_resp.rt,exp_loops.thisRepN,exp_loops.thisTrialN,exp_loops.thisN,exp_loops.thisIndex,exp_loops.ran,selected_dist,distractor_level,category,key_resp_4.keys,key_resp_4.rt,slider_part2.response,slider_part2.rt,exp_loops_part2.thisRepN,exp_loops_part2.thisTrialN,exp_loops_part2.thisN,exp_loops_part2.thisIndex,exp_loops_part2.ran,key_resp_last_slide.keys,key_resp_last_slide.rt
,space,13.1208,left,17.7651,0,0,0,0,1,flower1.jpg,flower1.jpg,flower1_pair.jpg,left,leaf3.jpg,trail1.jpg,flower1.jpg,bird1.jpg,tree3.jpg,fence4.jpg,2,A8GOBUKMAFES6,25,Female,7hr,2023-06-26_09h43.13.238,working,2022.2.4,Win32,10.91822251,,,,,,,,,,,,,,,,,,,,,,,
,,,right,4.3977,0,1,1,1,1,leaf2.jpg,leaf1.jpg,leaf2.jpg,right,trail2.jpg,leaf2.jpg,bird2.jpg,tree2.jpg,fence3.jpg,flower2.jpg,1,A8GOBUKMAFES6,25,Female,7hr,2023-06-26_09h43.13.238,working,2022.2.4,Win32,10.91822251,,,,,,,,,,,,,,,,,,,,,,,
,,,left,3.7532,0,2,2,2,1,fence1.jpg,fence1.jpg,fence2.jpg,left,tree1.jpg,bird3.jpg,trail3.jpg,fence1.jpg,leaf4.jpg,flower3.jpg,3,A8GOBUKMAFES6,25,Female,7hr,2023-06-26_09h43.13.238,working,2022.2.4,Win32,10.91822251,,,,,,,,,,,,,,,,,,,,,,,
,,,,,,,,,,badlands_137.jpg,badlands_137.jpg,badlands_139.jpg,left,playground_162.jpg,highway_354.jpg,golf_course_127.jpg,badlands_137.jpg,mountain_306.jpg,bridge_22.jpg,3,A8GOBUKMAFES6,25,Female,7hr,2023-06-26_09h43.13.238,working,2022.2.4,Win32,10.91822251,space,22.678,left,2.6562,0,0,0,0,1,badlands_139.jpg,1,badlands,,,,,,,,,,,
,,,,,,,,,,bridge_146.jpg,bridge_27.jpg,bridge_146.jpg,right,badlands_36.jpg,playground_16.jpg,bridge_146.jpg,golf_course_41.jpg,mountain_277.jpg,highway_90.jpg,2,A8GOBUKMAFES6,25,Female,7hr,2023-06-26_09h43.13.238,working,2022.2.4,Win32,10.91822251,,,left,3.824,0,1,1,1,1,bridge_27.jpg,0,bridge,,,,,,,,,,,
,,,,,,,,,,playground_117.jpg,playground_117.jpg,playground_127.jpg,left,playground_117.jpg,bridge_169.jpg,mountain_251.jpg,badlands_121.jpg,highway_50.jpg,golf_course_288.jpg,0,A8GOBUKMAFES6,25,Female,7hr,2023-06-26_09h43.13.238,working,2022.2.4,Win32,10.91822251,,,left,1.4049,0,2,2,2,1,playground_127.jpg,1,playground,,,,,,,,,,,
,,,,,,,,,,bridge_172.jpg,bridge_172.jpg,bridge_163.jpg,left,bridge_172.jpg,highway_36.jpg,badlands_125.jpg,playground_50.jpg,mountain_199.jpg,golf_course_144.jpg,0,A8GOBUKMAFES6,25,Female,7hr,2023-06-26_09h43.13.238,working,2022.2.4,Win32,10.91822251,,,right,1.9292,0,3,3,3,1,bridge_163.jpg,1,bridge,,,,,,,,,,,
,,,,,,,,,,golf_course_15.jpg,golf_course_113.jpg,golf_course_15.jpg,right,highway_37.jpg,playground_83.jpg,bridge_106.jpg,badlands_20.jpg,golf_course_15.jpg,mountain_38.jpg,4,A8GOBUKMAFES6,25,Female,7hr,2023-06-26_09h43.13.238,working,2022.2.4,Win32,10.91822251,,,left,2.136,0,4,4,4,1,golf_course_113.jpg,0,golf,,,,,,,,,,,
,,,,,,,,,,bridge_108.jpg,bridge_116.jpg,bridge_108.jpg,right,playground_110.jpg,golf_course_181.jpg,mountain_76.jpg,bridge_108.jpg,badlands_156.jpg,highway_78.jpg,3,A8GOBUKMAFES6,25,Female,7hr,2023-06-26_09h43.13.238,working,2022.2.4,Win32,10.91822251,,,right,1.9148,0,5,5,5,1,bridge_116.jpg,0,bridge,,,,,,,,,,,
,,,,,,,,,,highway_415.jpg,highway_415.jpg,highway_60.jpg,left,bridge_164.jpg,highway_415.jpg,golf_course_265.jpg,badlands_16.jpg,mountain_39.jpg,playground_126.jpg,1,A8GOBUKMAFES6,25,Female,7hr,2023-06-26_09h43.13.238,working,2022.2.4,Win32,10.91822251,,,left,1.255,0,6,6,6,1,highway_60.jpg,0,highway,,,,,,,,,,,
,,,,,,,,,,bridge_250.jpg,bridge_250.jpg,bridge_205.jpg,left,badlands_10.jpg,bridge_250.jpg,mountain_206.jpg,golf_course_166.jpg,playground_14.jpg,highway_138.jpg,1,A8GOBUKMAFES6,25,Female,7hr,2023-06-26_09h43.13.238,working,2022.2.4,Win32,10.91822251,,,right,2.2978,0,7,7,7,1,bridge_205.jpg,1,bridge,,,,,,,,,,,
,,,,,,,,,,bridge_65.jpg,bridge_181.jpg,bridge_65.jpg,right,mountain_169.jpg,golf_course_164.jpg,bridge_65.jpg,playground_98.jpg,badlands_215.jpg,highway_246.jpg,2,A8GOBUKMAFES6,25,Female,7hr,2023-06-26_09h43.13.238,working,2022.2.4,Win32,10.91822251,,,left,1.3497,0,8,8,8,1,bridge_181.jpg,0,bridge,,,,,,,,,,,
,,,,,,,,,,badlands_113.jpg,badlands_225.jpg,badlands_113.jpg,right,golf_course_162.jpg,badlands_113.jpg,bridge_64.jpg,playground_74.jpg,mountain_87.jpg,highway_141.jpg,1,A8GOBUKMAFES6,25,Female,7hr,2023-06-26_09h43.13.238,working,2022.2.4,Win32,10.91822251,,,right,2.2355,0,9,9,9,1,badlands_225.jpg,0,badlands,,,,,,,,,,,
,,,,,,,,,,playground_257.jpg,playground_215.jpg,playground_257.jpg,right,golf_course_269.jpg,highway_287.jpg,badlands_59.jpg,playground_257.jpg,bridge_193.jpg,mountain_176.jpg,3,A8GOBUKMAFES6,25,Female,7hr,2023-06-26_09h43.13.238,working,2022.2.4,Win32,10.91822251,,,right,2.0757,0,10,10,10,1,playground_215.jpg,1,playground,,,,,,,,,,,
,,,,,,,,,,bridge_256.jpg,bridge_54.jpg,bridge_256.jpg,right,playground_6.jpg,highway_265.jpg,bridge_256.jpg,badlands_33.jpg,mountain_126.jpg,golf_course_297.jpg,2,A8GOBUKMAFES6,25,Female,7hr,2023-06-26_09h43.13.238,working,2022.2.4,Win32,10.91822251,,,left,1.3752,0,11,11,11,1,bridge_54.jpg,0,bridge,,,,,,,,,,,
,,,,,,,,,,playground_240.jpg,playground_40.jpg,playground_240.jpg,right,highway_268.jpg,playground_240.jpg,mountain_32.jpg,bridge_102.jpg,badlands_35.jpg,golf_course_282.jpg,1,A8GOBUKMAFES6,25,Female,7hr,2023-06-26_09h43.13.238,working,2022.2.4,Win32,10.91822251,,,right,0.9722,0,12,12,12,1,playground_40.jpg,1,playground,,,,,,,,,,,
,,,,,,,,,,highway_294.jpg,highway_203.jpg,highway_294.jpg,right,bridge_204.jpg,golf_course_241.jpg,badlands_219.jpg,highway_294.jpg,mountain_45.jpg,playground_184.jpg,3,A8GOBUKMAFES6,25,Female,7hr,2023-06-26_09h43.13.238,working,2022.2.4,Win32,10.91822251,,,left,1.1368,0,13,13,13,1,highway_203.jpg,0,highway,,,,,,,,,,,
,,,,,,,,,,badlands_52.jpg,badlands_94.jpg,badlands_52.jpg,right,mountain_41.jpg,playground_249.jpg,golf_course_221.jpg,bridge_1.jpg,badlands_52.jpg,highway_404.jpg,4,A8GOBUKMAFES6,25,Female,7hr,2023-06-26_09h43.13.238,working,2022.2.4,Win32,10.91822251,,,right,0.7658,0,14,14,14,1,badlands_94.jpg,0,badlands,,,,,,,,,,,
,,,,,,,,,,badlands_70.jpg,badlands_119.jpg,badlands_70.jpg,right,bridge_96.jpg,mountain_249.jpg,badlands_70.jpg,golf_course_333.jpg,playground_227.jpg,highway_53.jpg,2,A8GOBUKMAFES6,25,Female,7hr,2023-06-26_09h43.13.238,working,2022.2.4,Win32,10.91822251,,,left,0.6735,0,15,15,15,1,badlands_119.jpg,1,badlands,,,,,,,,,,,
,,,,,,,,,,playground_144.jpg,playground_65.jpg,playground_144.jpg,right,playground_144.jpg,badlands_6.jpg,mountain_228.jpg,highway_191.jpg,bridge_124.jpg,golf_course_212.jpg,0,A8GOBUKMAFES6,25,Female,7hr,2023-06-26_09h43.13.238,working,2022.2.4,Win32,10.91822251,,,right,0.7523,0,16,16,16,1,playground_65.jpg,1,playground,,,,,,,,,,,
,,,,,,,,,,bridge_128.jpg,bridge_244.jpg,bridge_128.jpg,right,playground_176.jpg,golf_course_202.jpg,highway_288.jpg,bridge_128.jpg,badlands_129.jpg,mountain_202.jpg,3,A8GOBUKMAFES6,25,Female,7hr,2023-06-26_09h43.13.238,working,2022.2.4,Win32,10.91822251,,,left,1.3114,0,17,17,17,1,bridge_244.jpg,1,bridge,,,,,,,,,,,
,,,,,,,,,,golf_course_214.jpg,golf_course_214.jpg,golf_course_312.jpg,left,badlands_72.jpg,mountain_146.jpg,bridge_133.jpg,playground_153.jpg,golf_course_214.jpg,highway_305.jpg,4,A8GOBUKMAFES6,25,Female,7hr,2023-06-26_09h43.13.238,working,2022.2.4,Win32,10.91822251,,,left,1.0818,0,18,18,18,1,golf_course_312.jpg,0,golf,,,,,,,,,,,
,,,,,,,,,,badlands_184.jpg,badlands_103.jpg,badlands_184.jpg,right,badlands_184.jpg,playground_55.jpg,bridge_4.jpg,golf_course_316.jpg,mountain_33.jpg,highway_15.jpg,0,A8GOBUKMAFES6,25,Female,7hr,2023-06-26_09h43.13.238,working,2022.2.4,Win32,10.91822251,,,right,1.5255,0,19,19,19,1,badlands_103.jpg,1,badlands,,,,,,,,,,,
,,,,,,,,,,bridge_202.jpg,bridge_202.jpg,bridge_38.jpg,left,badlands_138.jpg,bridge_202.jpg,playground_154.jpg,golf_course_218.jpg,mountain_120.jpg,highway_383.jpg,1,A8GOBUKMAFES6,25,Female,7hr,2023-06-26_09h43.13.238,working,2022.2.4,Win32,10.91822251,,,left,1.3343,0,20,20,20,1,bridge_38.jpg,1,bridge,,,,,,,,,,,
,,,,,,,,,,golf_course_87.jpg,golf_course_161.jpg,golf_course_87.jpg,right,bridge_152.jpg,golf_course_87.jpg,highway_399.jpg,mountain_88.jpg,playground_64.jpg,badlands_152.jpg,1,A8GOBUKMAFES6,25,Female,7hr,2023-06-26_09h43.13.238,working,2022.2.4,Win32,10.91822251,,,left,2.6185,0,21,21,21,1,golf_course_161.jpg,1,golf,,,,,,,,,,,
,,,,,,,,,,badlands_221.jpg,badlands_207.jpg,badlands_221.jpg,right,mountain_102.jpg,badlands_221.jpg,highway_17.jpg,bridge_66.jpg,playground_36.jpg,golf_course_179.jpg,1,A8GOBUKMAFES6,25,Female,7hr,2023-06-26_09h43.13.238,working,2022.2.4,Win32,10.91822251,,,right,1.4193,0,22,22,22,1,badlands_207.jpg,1,badlands,,,,,,,,,,,
,,,,,,,,,,golf_course_217.jpg,golf_course_35.jpg,golf_course_217.jpg,right,mountain_137.jpg,highway_247.jpg,golf_course_217.jpg,playground_191.jpg,bridge_86.jpg,badlands_157.jpg,2,A8GOBUKMAFES6,25,Female,7hr,2023-06-26_09h43.13.238,working,2022.2.4,Win32,10.91822251,,,left,0.8774,0,23,23,23,1,golf_course_35.jpg,0,golf,,,,,,,,,,,
,,,,,,,,,,mountain_230.jpg,mountain_230.jpg,mountain_184.jpg,left,golf_course_328.jpg,badlands_171.jpg,mountain_230.jpg,bridge_228.jpg,highway_251.jpg,playground_141.jpg,2,A8GOBUKMAFES6,25,Female,7hr,2023-06-26_09h43.13.238,working,2022.2.4,Win32,10.91822251,,,right,0.8798,0,24,24,24,1,mountain_184.jpg,0,mountain,,,,,,,,,,,
,,,,,,,,,,highway_156.jpg,highway_156.jpg,highway_293.jpg,left,badlands_213.jpg,mountain_62.jpg,bridge_179.jpg,highway_156.jpg,golf_course_61.jpg,playground_39.jpg,3,A8GOBUKMAFES6,25,Female,7hr,2023-06-26_09h43.13.238,working,2022.2.4,Win32,10.91822251,,,left,0.9783,0,25,25,25,1,highway_293.jpg,1,highway,,,,,,,,,,,
,,,,,,,,,,golf_course_195.jpg,golf_course_2.jpg,golf_course_195.jpg,right,playground_124.jpg,golf_course_195.jpg,bridge_158.jpg,badlands_200.jpg,mountain_43.jpg,highway_290.jpg,1,A8GOBUKMAFES6,25,Female,7hr,2023-06-26_09h43.13.238,working,2022.2.4,Win32,10.91822251,,,right,0.8083,0,26,26,26,1,golf_course_2.jpg,1,golf,,,,,,,,,,,
,,,,,,,,,,highway_209.jpg,highway_122.jpg,highway_209.jpg,right,playground_132.jpg,golf_course_3.jpg,bridge_156.jpg,highway_209.jpg,badlands_97.jpg,mountain_29.jpg,3,A8GOBUKMAFES6,25,Female,7hr,2023-06-26_09h43.13.238,working,2022.2.4,Win32,10.91822251,,,left,0.7392,0,27,27,27,1,highway_122.jpg,1,highway,,,,,,,,,,,
,,,,,,,,,,highway_245.jpg,highway_206.jpg,highway_245.jpg,right,badlands_60.jpg,playground_33.jpg,golf_course_72.jpg,highway_245.jpg,mountain_204.jpg,bridge_234.jpg,3,A8GOBUKMAFES6,25,Female,7hr,2023-06-26_09h43.13.238,working,2022.2.4,Win32,10.91822251,,,left,0.8413,0,28,28,28,1,highway_206.jpg,1,highway,,,,,,,,,,,
,,,,,,,,,,golf_course_188.jpg,golf_course_188.jpg,golf_course_160.jpg,left,badlands_47.jpg,golf_course_188.jpg,playground_222.jpg,bridge_76.jpg,highway_193.jpg,mountain_143.jpg,1,A8GOBUKMAFES6,25,Female,7hr,2023-06-26_09h43.13.238,working,2022.2.4,Win32,10.91822251,,,right,0.8128,0,29,29,29,1,golf_course_160.jpg,1,golf,,,,,,,,,,,
,,,,,,,,,,badlands_24.jpg,badlands_3.jpg,badlands_24.jpg,right,badlands_24.jpg,mountain_268.jpg,bridge_173.jpg,highway_29.jpg,playground_251.jpg,golf_course_102.jpg,0,A8GOBUKMAFES6,25,Female,7hr,2023-06-26_09h43.13.238,working,2022.2.4,Win32,10.91822251,,,left,0.9477,0,30,30,30,1,badlands_3.jpg,0,badlands,,,,,,,,,,,
,,,,,,,,,,highway_273.jpg,highway_384.jpg,highway_273.jpg,right,bridge_24.jpg,highway_273.jpg,badlands_174.jpg,golf_course_174.jpg,playground_246.jpg,mountain_35.jpg,1,A8GOBUKMAFES6,25,Female,7hr,2023-06-26_09h43.13.238,working,2022.2.4,Win32,10.91822251,,,right,1.3019,0,31,31,31,1,highway_384.jpg,0,highway,,,,,,,,,,,
,,,,,,,,,,golf_course_309.jpg,golf_course_16.jpg,golf_course_309.jpg,right,highway_107.jpg,badlands_166.jpg,playground_103.jpg,mountain_19.jpg,golf_course_309.jpg,bridge_143.jpg,4,A8GOBUKMAFES6,25,Female,7hr,2023-06-26_09h43.13.238,working,2022.2.4,Win32,10.91822251,,,left,0.9588,0,32,32,32,1,golf_course_16.jpg,0,golf,,,,,,,,,,,
,,,,,,,,,,mountain_156.jpg,mountain_128.jpg,mountain_156.jpg,right,mountain_156.jpg,playground_118.jpg,highway_257.jpg,badlands_85.jpg,bridge_136.jpg,golf_course_194.jpg,0,A8GOBUKMAFES6,25,Female,7hr,2023-06-26_09h43.13.238,working,2022.2.4,Win32,10.91822251,,,right,0.7257,0,33,33,33,1,mountain_128.jpg,0,mountain,,,,,,,,,,,
,,,,,,,,,,highway_394.jpg,highway_406.jpg,highway_394.jpg,right,badlands_104.jpg,mountain_233.jpg,playground_54.jpg,highway_394.jpg,golf_course_253.jpg,bridge_79.jpg,3,A8GOBUKMAFES6,25,Female,7hr,2023-06-26_09h43.13.238,working,2022.2.4,Win32,10.91822251,,,left,0.7238,0,34,34,34,1,highway_406.jpg,1,highway,,,,,,,,,,,
,,,,,,,,,,playground_145.jpg,playground_229.jpg,playground_145.jpg,right,highway_148.jpg,playground_145.jpg,mountain_151.jpg,golf_course_291.jpg,badlands_44.jpg,bridge_20.jpg,1,A8GOBUKMAFES6,25,Female,7hr,2023-06-26_09h43.13.238,working,2022.2.4,Win32,10.91822251,,,right,0.9478,0,35,35,35,1,playground_229.jpg,0,playground,,,,,,,,,,,
,,,,,,,,,,mountain_232.jpg,mountain_232.jpg,mountain_54.jpg,left,bridge_218.jpg,badlands_211.jpg,mountain_232.jpg,highway_31.jpg,playground_15.jpg,golf_course_56.jpg,2,A8GOBUKMAFES6,25,Female,7hr,2023-06-26_09h43.13.238,working,2022.2.4,Win32,10.91822251,,,right,0.9948,0,36,36,36,1,mountain_54.jpg,1,mountain,,,,,,,,,,,
,,,,,,,,,,golf_course_331.jpg,golf_course_26.jpg,golf_course_331.jpg,right,highway_30.jpg,mountain_89.jpg,golf_course_331.jpg,bridge_110.jpg,playground_258.jpg,badlands_26.jpg,2,A8GOBUKMAFES6,25,Female,7hr,2023-06-26_09h43.13.238,working,2022.2.4,Win32,10.91822251,,,left,1.2142,0,37,37,37,1,golf_course_26.jpg,1,golf,,,,,,,,,,,
,,,,,,,,,,golf_course_78.jpg,golf_course_78.jpg,golf_course_101.jpg,left,mountain_256.jpg,highway_315.jpg,golf_course_78.jpg,bridge_212.jpg,badlands_9.jpg,playground_173.jpg,2,A8GOBUKMAFES6,25,Female,7hr,2023-06-26_09h43.13.238,working,2022.2.4,Win32,10.91822251,,,right,0.9139,0,38,38,38,1,golf_course_101.jpg,1,golf,,,,,,,,,,,
,,,,,,,,,,playground_76.jpg,playground_22.jpg,playground_76.jpg,right,highway_147.jpg,badlands_227.jpg,golf_course_59.jpg,playground_76.jpg,bridge_254.jpg,mountain_253.jpg,3,A8GOBUKMAFES6,25,Female,7hr,2023-06-26_09h43.13.238,working,2022.2.4,Win32,10.91822251,,,left,0.814,0,39,39,39,1,playground_22.jpg,0,playground,,,,,,,,,,,
,,,,,,,,,,playground_131.jpg,playground_43.jpg,playground_131.jpg,right,badlands_183.jpg,bridge_224.jpg,highway_365.jpg,mountain_250.jpg,playground_131.jpg,golf_course_33.jpg,4,A8GOBUKMAFES6,25,Female,7hr,2023-06-26_09h43.13.238,working,2022.2.4,Win32,10.91822251,,,right,0.8058,0,40,40,40,1,playground_43.jpg,0,playground,,,,,,,,,,,
,,,,,,,,,,playground_10.jpg,playground_122.jpg,playground_10.jpg,right,golf_course_226.jpg,playground_10.jpg,mountain_22.jpg,bridge_197.jpg,badlands_214.jpg,highway_269.jpg,1,A8GOBUKMAFES6,25,Female,7hr,2023-06-26_09h43.13.238,working,2022.2.4,Win32,10.91822251,,,left,0.719,0,41,41,41,1,playground_122.jpg,0,playground,,,,,,,,,,,
,,,,,,,,,,badlands_23.jpg,badlands_23.jpg,badlands_101.jpg,left,playground_61.jpg,badlands_23.jpg,mountain_190.jpg,golf_course_55.jpg,bridge_180.jpg,highway_33.jpg,1,A8GOBUKMAFES6,25,Female,7hr,2023-06-26_09h43.13.238,working,2022.2.4,Win32,10.91822251,,,right,0.7857,0,42,42,42,1,badlands_101.jpg,1,badlands,,,,,,,,,,,
,,,,,,,,,,mountain_154.jpg,mountain_131.jpg,mountain_154.jpg,right,bridge_238.jpg,playground_233.jpg,highway_313.jpg,golf_course_23.jpg,mountain_154.jpg,badlands_79.jpg,4,A8GOBUKMAFES6,25,Female,7hr,2023-06-26_09h43.13.238,working,2022.2.4,Win32,10.91822251,,,left,0.8788,0,43,43,43,1,mountain_131.jpg,0,mountain,,,,,,,,,,,
,,,,,,,,,,badlands_222.jpg,badlands_222.jpg,badlands_34.jpg,left,golf_course_176.jpg,bridge_68.jpg,playground_195.jpg,badlands_222.jpg,highway_308.jpg,mountain_307.jpg,3,A8GOBUKMAFES6,25,Female,7hr,2023-06-26_09h43.13.238,working,2022.2.4,Win32,10.91822251,,,right,0.9539,0,44,44,44,1,badlands_34.jpg,0,badlands,,,,,,,,,,,
,,,,,,,,,,mountain_57.jpg,mountain_57.jpg,mountain_193.jpg,left,mountain_57.jpg,playground_84.jpg,bridge_126.jpg,badlands_170.jpg,highway_42.jpg,golf_course_128.jpg,0,A8GOBUKMAFES6,25,Female,7hr,2023-06-26_09h43.13.238,working,2022.2.4,Win32,10.91822251,,,left,0.9809,0,45,45,45,1,mountain_193.jpg,0,mountain,,,,,,,,,,,
,,,,,,,,,,bridge_191.jpg,bridge_184.jpg,bridge_191.jpg,right,bridge_191.jpg,highway_101.jpg,golf_course_199.jpg,playground_7.jpg,badlands_217.jpg,mountain_180.jpg,0,A8GOBUKMAFES6,25,Female,7hr,2023-06-26_09h43.13.238,working,2022.2.4,Win32,10.91822251,,,right,1.6846,0,46,46,46,1,bridge_184.jpg,0,bridge,,,,,,,,,,,
,,,,,,,,,,highway_359.jpg,highway_379.jpg,highway_359.jpg,right,badlands_55.jpg,highway_359.jpg,playground_26.jpg,golf_course_307.jpg,bridge_147.jpg,mountain_198.jpg,1,A8GOBUKMAFES6,25,Female,7hr,2023-06-26_09h43.13.238,working,2022.2.4,Win32,10.91822251,,,left,2.3136,0,47,47,47,1,highway_379.jpg,1,highway,,,,,,,,,,,
,,,,,,,,,,highway_93.jpg,highway_93.jpg,highway_85.jpg,left,bridge_45.jpg,mountain_192.jpg,highway_93.jpg,golf_course_171.jpg,playground_140.jpg,badlands_185.jpg,2,A8GOBUKMAFES6,25,Female,7hr,2023-06-26_09h43.13.238,working,2022.2.4,Win32,10.91822251,,,left,2.2444,0,48,48,48,1,highway_85.jpg,0,highway,,,,,,,,,,,
,,,,,,,,,,playground_60.jpg,playground_60.jpg,playground_244.jpg,left,badlands_67.jpg,mountain_226.jpg,golf_course_0.jpg,highway_81.jpg,playground_60.jpg,bridge_190.jpg,4,A8GOBUKMAFES6,25,Female,7hr,2023-06-26_09h43.13.238,working,2022.2.4,Win32,10.91822251,,,left,1.8657,0,49,49,49,1,playground_244.jpg,1,playground,,,,,,,,,,,
,,,,,,,,,,mountain_293.jpg,mountain_293.jpg,mountain_72.jpg,left,bridge_74.jpg,highway_274.jpg,golf_course_305.jpg,playground_63.jpg,mountain_293.jpg,badlands_150.jpg,4,A8GOBUKMAFES6,25,Female,7hr,2023-06-26_09h43.13.238,working,2022.2.4,Win32,10.91822251,,,left,1.5923,0,50,50,50,1,mountain_72.jpg,0,mountain,,,,,,,,,,,
,,,,,,,,,,playground_219.jpg,playground_205.jpg,playground_219.jpg,right,playground_219.jpg,badlands_128.jpg,mountain_40.jpg,highway_199.jpg,bridge_52.jpg,golf_course_338.jpg,0,A8GOBUKMAFES6,25,Female,7hr,2023-06-26_09h43.13.238,working,2022.2.4,Win32,10.91822251,,,left,1.3154,0,51,51,51,1,playground_205.jpg,1,playground,,,,,,,,,,,
,,,,,,,,,,highway_177.jpg,highway_278.jpg,highway_177.jpg,right,playground_85.jpg,highway_177.jpg,mountain_92.jpg,bridge_225.jpg,golf_course_196.jpg,badlands_180.jpg,1,A8GOBUKMAFES6,25,Female,7hr,2023-06-26_09h43.13.238,working,2022.2.4,Win32,10.91822251,,,right,1.2944,0,52,52,52,1,highway_278.jpg,1,highway,,,,,,,,,,,
,,,,,,,,,,mountain_222.jpg,mountain_93.jpg,mountain_222.jpg,right,bridge_155.jpg,mountain_222.jpg,badlands_164.jpg,golf_course_42.jpg,playground_241.jpg,highway_335.jpg,1,A8GOBUKMAFES6,25,Female,7hr,2023-06-26_09h43.13.238,working,2022.2.4,Win32,10.91822251,,,left,2.5408,0,53,53,53,1,mountain_93.jpg,1,mountain,,,,,,,,,,,
,,,,,,,,,,golf_course_193.jpg,golf_course_235.jpg,golf_course_193.jpg,right,mountain_294.jpg,badlands_88.jpg,bridge_167.jpg,golf_course_193.jpg,playground_165.jpg,highway_413.jpg,3,A8GOBUKMAFES6,25,Female,7hr,2023-06-26_09h43.13.238,working,2022.2.4,Win32,10.91822251,,,right,0.9863,0,54,54,54,1,golf_course_235.jpg,0,golf,,,,,,,,,,,
,,,,,,,,,,badlands_21.jpg,badlands_1.jpg,badlands_21.jpg,right,mountain_152.jpg,badlands_21.jpg,golf_course_313.jpg,playground_196.jpg,bridge_72.jpg,highway_172.jpg,1,A8GOBUKMAFES6,25,Female,7hr,2023-06-26_09h43.13.238,working,2022.2.4,Win32,10.91822251,,,left,0.9804,0,55,55,55,1,badlands_1.jpg,0,badlands,,,,,,,,,,,
,,,,,,,,,,mountain_123.jpg,mountain_189.jpg,mountain_123.jpg,right,golf_course_300.jpg,bridge_35.jpg,mountain_123.jpg,highway_319.jpg,badlands_120.jpg,playground_204.jpg,2,A8GOBUKMAFES6,25,Female,7hr,2023-06-26_09h43.13.238,working,2022.2.4,Win32,10.91822251,,,left,1.1203,0,56,56,56,1,mountain_189.jpg,1,mountain,,,,,,,,,,,
,,,,,,,,,,mountain_101.jpg,mountain_221.jpg,mountain_101.jpg,right,golf_course_137.jpg,bridge_140.jpg,playground_42.jpg,mountain_101.jpg,highway_18.jpg,badlands_106.jpg,3,A8GOBUKMAFES6,25,Female,7hr,2023-06-26_09h43.13.238,working,2022.2.4,Win32,10.91822251,,,right,1.0068,0,57,57,57,1,mountain_221.jpg,1,mountain,,,,,,,,,,,
,,,,,,,,,,bridge_91.jpg,bridge_91.jpg,bridge_253.jpg,left,badlands_27.jpg,bridge_91.jpg,highway_295.jpg,playground_120.jpg,mountain_160.jpg,golf_course_238.jpg,1,A8GOBUKMAFES6,25,Female,7hr,2023-06-26_09h43.13.238,working,2022.2.4,Win32,10.91822251,,,left,1.0664,0,58,58,58,1,bridge_253.jpg,0,bridge,,,,,,,,,,,
,,,,,,,,,,mountain_110.jpg,mountain_157.jpg,mountain_110.jpg,right,badlands_46.jpg,golf_course_252.jpg,mountain_110.jpg,highway_154.jpg,bridge_112.jpg,playground_37.jpg,2,A8GOBUKMAFES6,25,Female,7hr,2023-06-26_09h43.13.238,working,2022.2.4,Win32,10.91822251,,,right,0.9731,0,59,59,59,1,mountain_157.jpg,0,mountain,,,,,,,,,,,
,,,,,,,,,,badlands_137.jpg,badlands_137.jpg,badlands_139.jpg,left,playground_162.jpg,highway_354.jpg,golf_course_127.jpg,badlands_137.jpg,mountain_306.jpg,bridge_22.jpg,3,A8GOBUKMAFES6,25,Female,7hr,2023-06-26_09h43.13.238,working,2022.2.4,Win32,10.91822251,,,,,,,,,,badlands_139.jpg,1,badlands,space,14.3744,4.992592706,9.2719,0,0,0,0,1,,
,,,,,,,,,,bridge_146.jpg,bridge_27.jpg,bridge_146.jpg,right,badlands_36.jpg,playground_16.jpg,bridge_146.jpg,golf_course_41.jpg,mountain_277.jpg,highway_90.jpg,2,A8GOBUKMAFES6,25,Female,7hr,2023-06-26_09h43.13.238,working,2022.2.4,Win32,10.91822251,,,,,,,,,,bridge_27.jpg,0,bridge,,,6.007407294,2.4351,0,1,1,1,1,,
,,,,,,,,,,playground_117.jpg,playground_117.jpg,playground_127.jpg,left,playground_117.jpg,bridge_169.jpg,mountain_251.jpg,badlands_121.jpg,highway_50.jpg,golf_course_288.jpg,0,A8GOBUKMAFES6,25,Female,7hr,2023-06-26_09h43.13.238,working,2022.2.4,Win32,10.91822251,,,,,,,,,,playground_127.jpg,1,playground,,,7.007407294,3.0112,0,2,2,2,1,,
,,,,,,,,,,bridge_172.jpg,bridge_172.jpg,bridge_163.jpg,left,bridge_172.jpg,highway_36.jpg,badlands_125.jpg,playground_50.jpg,mountain_199.jpg,golf_course_144.jpg,0,A8GOBUKMAFES6,25,Female,7hr,2023-06-26_09h43.13.238,working,2022.2.4,Win32,10.91822251,,,,,,,,,,bridge_163.jpg,1,bridge,,,7.007407294,1.6738,0,3,3,3,1,,
,,,,,,,,,,golf_course_15.jpg,golf_course_113.jpg,golf_course_15.jpg,right,highway_37.jpg,playground_83.jpg,bridge_106.jpg,badlands_20.jpg,golf_course_15.jpg,mountain_38.jpg,4,A8GOBUKMAFES6,25,Female,7hr,2023-06-26_09h43.13.238,working,2022.2.4,Win32,10.91822251,,,,,,,,,,golf_course_113.jpg,0,golf,,,5.962962963,2.2622,0,4,4,4,1,,
,,,,,,,,,,bridge_108.jpg,bridge_116.jpg,bridge_108.jpg,right,playground_110.jpg,golf_course_181.jpg,mountain_76.jpg,bridge_108.jpg,badlands_156.jpg,highway_78.jpg,3,A8GOBUKMAFES6,25,Female,7hr,2023-06-26_09h43.13.238,working,2022.2.4,Win32,10.91822251,,,,,,,,,,bridge_116.jpg,0,bridge,,,5.955555669,2.3249,0,5,5,5,1,,
,,,,,,,,,,highway_415.jpg,highway_415.jpg,highway_60.jpg,left,bridge_164.jpg,highway_415.jpg,golf_course_265.jpg,badlands_16.jpg,mountain_39.jpg,playground_126.jpg,1,A8GOBUKMAFES6,25,Female,7hr,2023-06-26_09h43.13.238,working,2022.2.4,Win32,10.91822251,,,,,,,,,,highway_60.jpg,0,highway,,,5.955555669,2.9658,0,6,6,6,1,,
,,,,,,,,,,bridge_250.jpg,bridge_250.jpg,bridge_205.jpg,left,badlands_10.jpg,bridge_250.jpg,mountain_206.jpg,golf_course_166.jpg,playground_14.jpg,highway_138.jpg,1,A8GOBUKMAFES6,25,Female,7hr,2023-06-26_09h43.13.238,working,2022.2.4,Win32,10.91822251,,,,,,,,,,bridge_205.jpg,1,bridge,,,6.881481595,2.0478,0,7,7,7,1,,
,,,,,,,,,,bridge_65.jpg,bridge_181.jpg,bridge_65.jpg,right,mountain_169.jpg,golf_course_164.jpg,bridge_65.jpg,playground_98.jpg,badlands_215.jpg,highway_246.jpg,2,A8GOBUKMAFES6,25,Female,7hr,2023-06-26_09h43.13.238,working,2022.2.4,Win32,10.91822251,,,,,,,,,,bridge_181.jpg,0,bridge,,,6.881481595,1.398,0,8,8,8,1,,
,,,,,,,,,,badlands_113.jpg,badlands_225.jpg,badlands_113.jpg,right,golf_course_162.jpg,badlands_113.jpg,bridge_64.jpg,playground_74.jpg,mountain_87.jpg,highway_141.jpg,1,A8GOBUKMAFES6,25,Female,7hr,2023-06-26_09h43.13.238,working,2022.2.4,Win32,10.91822251,,,,,,,,,,badlands_225.jpg,0,badlands,,,6.881481595,1.5896,0,9,9,9,1,,
,,,,,,,,,,playground_257.jpg,playground_215.jpg,playground_257.jpg,right,golf_course_269.jpg,highway_287.jpg,badlands_59.jpg,playground_257.jpg,bridge_193.jpg,mountain_176.jpg,3,A8GOBUKMAFES6,25,Female,7hr,2023-06-26_09h43.13.238,working,2022.2.4,Win32,10.91822251,,,,,,,,,,playground_215.jpg,1,playground,,,6.977778117,2.3583,0,10,10,10,1,,
,,,,,,,,,,bridge_256.jpg,bridge_54.jpg,bridge_256.jpg,right,playground_6.jpg,highway_265.jpg,bridge_256.jpg,badlands_33.jpg,mountain_126.jpg,golf_course_297.jpg,2,A8GOBUKMAFES6,25,Female,7hr,2023-06-26_09h43.13.238,working,2022.2.4,Win32,10.91822251,,,,,,,,,,bridge_54.jpg,0,bridge,,,5.970370257,2.551,0,11,11,11,1,,
,,,,,,,,,,playground_240.jpg,playground_40.jpg,playground_240.jpg,right,highway_268.jpg,playground_240.jpg,mountain_32.jpg,bridge_102.jpg,badlands_35.jpg,golf_course_282.jpg,1,A8GOBUKMAFES6,25,Female,7hr,2023-06-26_09h43.13.238,working,2022.2.4,Win32,10.91822251,,,,,,,,,,playground_40.jpg,1,playground,,,7.666666667,1.7779,0,12,12,12,1,,
,,,,,,,,,,highway_294.jpg,highway_203.jpg,highway_294.jpg,right,bridge_204.jpg,golf_course_241.jpg,badlands_219.jpg,highway_294.jpg,mountain_45.jpg,playground_184.jpg,3,A8GOBUKMAFES6,25,Female,7hr,2023-06-26_09h43.13.238,working,2022.2.4,Win32,10.91822251,,,,,,,,,,highway_203.jpg,0,highway,,,7.088889228,0.7119,0,13,13,13,1,,
,,,,,,,,,,badlands_52.jpg,badlands_94.jpg,badlands_52.jpg,right,mountain_41.jpg,playground_249.jpg,golf_course_221.jpg,bridge_1.jpg,badlands_52.jpg,highway_404.jpg,4,A8GOBUKMAFES6,25,Female,7hr,2023-06-26_09h43.13.238,working,2022.2.4,Win32,10.91822251,,,,,,,,,,badlands_94.jpg,0,badlands,,,6.599999887,1.9556,0,14,14,14,1,,
,,,,,,,,,,badlands_70.jpg,badlands_119.jpg,badlands_70.jpg,right,bridge_96.jpg,mountain_249.jpg,badlands_70.jpg,golf_course_333.jpg,playground_227.jpg,highway_53.jpg,2,A8GOBUKMAFES6,25,Female,7hr,2023-06-26_09h43.13.238,working,2022.2.4,Win32,10.91822251,,,,,,,,,,badlands_119.jpg,1,badlands,,,6.93333322,1.1803,0,15,15,15,1,,
,,,,,,,,,,playground_144.jpg,playground_65.jpg,playground_144.jpg,right,playground_144.jpg,badlands_6.jpg,mountain_228.jpg,highway_191.jpg,bridge_124.jpg,golf_course_212.jpg,0,A8GOBUKMAFES6,25,Female,7hr,2023-06-26_09h43.13.238,working,2022.2.4,Win32,10.91822251,,,,,,,,,,playground_65.jpg,1,playground,,,6.94074108,1.274,0,16,16,16,1,,
,,,,,,,,,,bridge_128.jpg,bridge_244.jpg,bridge_128.jpg,right,playground_176.jpg,golf_course_202.jpg,highway_288.jpg,bridge_128.jpg,badlands_129.jpg,mountain_202.jpg,3,A8GOBUKMAFES6,25,Female,7hr,2023-06-26_09h43.13.238,working,2022.2.4,Win32,10.91822251,,,,,,,,,,bridge_244.jpg,1,bridge,,,6.111111111,1.5782,0,17,17,17,1,,
,,,,,,,,,,golf_course_214.jpg,golf_course_214.jpg,golf_course_312.jpg,left,badlands_72.jpg,mountain_146.jpg,bridge_133.jpg,playground_153.jpg,golf_course_214.jpg,highway_305.jpg,4,A8GOBUKMAFES6,25,Female,7hr,2023-06-26_09h43.13.238,working,2022.2.4,Win32,10.91822251,,,,,,,,,,golf_course_312.jpg,0,golf,,,7.014815154,1.1706,0,18,18,18,1,,
,,,,,,,,,,badlands_184.jpg,badlands_103.jpg,badlands_184.jpg,right,badlands_184.jpg,playground_55.jpg,bridge_4.jpg,golf_course_316.jpg,mountain_33.jpg,highway_15.jpg,0,A8GOBUKMAFES6,25,Female,7hr,2023-06-26_09h43.13.238,working,2022.2.4,Win32,10.91822251,,,,,,,,,,badlands_103.jpg,1,badlands,,,7.014815154,1.0865,0,19,19,19,1,,
,,,,,,,,,,bridge_202.jpg,bridge_202.jpg,bridge_38.jpg,left,badlands_138.jpg,bridge_202.jpg,playground_154.jpg,golf_course_218.jpg,mountain_120.jpg,highway_383.jpg,1,A8GOBUKMAFES6,25,Female,7hr,2023-06-26_09h43.13.238,working,2022.2.4,Win32,10.91822251,,,,,,,,,,bridge_38.jpg,1,bridge,,,5.948148374,1.2982,0,20,20,20,1,,
,,,,,,,,,,golf_course_87.jpg,golf_course_161.jpg,golf_course_87.jpg,right,bridge_152.jpg,golf_course_87.jpg,highway_399.jpg,mountain_88.jpg,playground_64.jpg,badlands_152.jpg,1,A8GOBUKMAFES6,25,Female,7hr,2023-06-26_09h43.13.238,working,2022.2.4,Win32,10.91822251,,,,,,,,,,golf_course_161.jpg,1,golf,,,6.948148374,0.9601,0,21,21,21,1,,
,,,,,,,,,,badlands_221.jpg,badlands_207.jpg,badlands_221.jpg,right,mountain_102.jpg,badlands_221.jpg,highway_17.jpg,bridge_66.jpg,playground_36.jpg,golf_course_179.jpg,1,A8GOBUKMAFES6,25,Female,7hr,2023-06-26_09h43.13.238,working,2022.2.4,Win32,10.91822251,,,,,,,,,,badlands_207.jpg,1,badlands,,,6.948148374,1.3906,0,22,22,22,1,,
,,,,,,,,,,golf_course_217.jpg,golf_course_35.jpg,golf_course_217.jpg,right,mountain_137.jpg,highway_247.jpg,golf_course_217.jpg,playground_191.jpg,bridge_86.jpg,badlands_157.jpg,2,A8GOBUKMAFES6,25,Female,7hr,2023-06-26_09h43.13.238,working,2022.2.4,Win32,10.91822251,,,,,,,,,,golf_course_35.jpg,0,golf,,,6.948148374,1.6565,0,23,23,23,1,,
,,,,,,,,,,mountain_230.jpg,mountain_230.jpg,mountain_184.jpg,left,golf_course_328.jpg,badlands_171.jpg,mountain_230.jpg,bridge_228.jpg,highway_251.jpg,playground_141.jpg,2,A8GOBUKMAFES6,25,Female,7hr,2023-06-26_09h43.13.238,working,2022.2.4,Win32,10.91822251,,,,,,,,,,mountain_184.jpg,0,mountain,,,6.948148374,1.2854,0,24,24,24,1,,
,,,,,,,,,,highway_156.jpg,highway_156.jpg,highway_293.jpg,left,badlands_213.jpg,mountain_62.jpg,bridge_179.jpg,highway_156.jpg,golf_course_61.jpg,playground_39.jpg,3,A8GOBUKMAFES6,25,Female,7hr,2023-06-26_09h43.13.238,working,2022.2.4,Win32,10.91822251,,,,,,,,,,highway_293.jpg,1,highway,,,6.948148374,1.3894,0,25,25,25,1,,
,,,,,,,,,,golf_course_195.jpg,golf_course_2.jpg,golf_course_195.jpg,right,playground_124.jpg,golf_course_195.jpg,bridge_158.jpg,badlands_200.jpg,mountain_43.jpg,highway_290.jpg,1,A8GOBUKMAFES6,25,Female,7hr,2023-06-26_09h43.13.238,working,2022.2.4,Win32,10.91822251,,,,,,,,,,golf_course_2.jpg,1,golf,,,5.866667006,1.4313,0,26,26,26,1,,
,,,,,,,,,,highway_209.jpg,highway_122.jpg,highway_209.jpg,right,playground_132.jpg,golf_course_3.jpg,bridge_156.jpg,highway_209.jpg,badlands_97.jpg,mountain_29.jpg,3,A8GOBUKMAFES6,25,Female,7hr,2023-06-26_09h43.13.238,working,2022.2.4,Win32,10.91822251,,,,,,,,,,highway_122.jpg,1,highway,,,7.8740743,2.4149,0,27,27,27,1,,
,,,,,,,,,,highway_245.jpg,highway_206.jpg,highway_245.jpg,right,badlands_60.jpg,playground_33.jpg,golf_course_72.jpg,highway_245.jpg,mountain_204.jpg,bridge_234.jpg,3,A8GOBUKMAFES6,25,Female,7hr,2023-06-26_09h43.13.238,working,2022.2.4,Win32,10.91822251,,,,,,,,,,highway_206.jpg,1,highway,,,6.118518405,1.5669,0,28,28,28,1,,
,,,,,,,,,,golf_course_188.jpg,golf_course_188.jpg,golf_course_160.jpg,left,badlands_47.jpg,golf_course_188.jpg,playground_222.jpg,bridge_76.jpg,highway_193.jpg,mountain_143.jpg,1,A8GOBUKMAFES6,25,Female,7hr,2023-06-26_09h43.13.238,working,2022.2.4,Win32,10.91822251,,,,,,,,,,golf_course_160.jpg,1,golf,,,6.133333559,1.6593,0,29,29,29,1,,
,,,,,,,,,,badlands_24.jpg,badlands_3.jpg,badlands_24.jpg,right,badlands_24.jpg,mountain_268.jpg,bridge_173.jpg,highway_29.jpg,playground_251.jpg,golf_course_102.jpg,0,A8GOBUKMAFES6,25,Female,7hr,2023-06-26_09h43.13.238,working,2022.2.4,Win32,10.91822251,,,,,,,,,,badlands_3.jpg,0,badlands,,,5.962962963,2.061,0,30,30,30,1,,
,,,,,,,,,,highway_273.jpg,highway_384.jpg,highway_273.jpg,right,bridge_24.jpg,highway_273.jpg,badlands_174.jpg,golf_course_174.jpg,playground_246.jpg,mountain_35.jpg,1,A8GOBUKMAFES6,25,Female,7hr,2023-06-26_09h43.13.238,working,2022.2.4,Win32,10.91822251,,,,,,,,,,highway_384.jpg,0,highway,,,6.970370257,1.1287,0,31,31,31,1,,
,,,,,,,,,,golf_course_309.jpg,golf_course_16.jpg,golf_course_309.jpg,right,highway_107.jpg,badlands_166.jpg,playground_103.jpg,mountain_19.jpg,golf_course_309.jpg,bridge_143.jpg,4,A8GOBUKMAFES6,25,Female,7hr,2023-06-26_09h43.13.238,working,2022.2.4,Win32,10.91822251,,,,,,,,,,golf_course_16.jpg,0,golf,,,6.970370257,1.098,0,32,32,32,1,,
,,,,,,,,,,mountain_156.jpg,mountain_128.jpg,mountain_156.jpg,right,mountain_156.jpg,playground_118.jpg,highway_257.jpg,badlands_85.jpg,bridge_136.jpg,golf_course_194.jpg,0,A8GOBUKMAFES6,25,Female,7hr,2023-06-26_09h43.13.238,working,2022.2.4,Win32,10.91822251,,,,,,,,,,mountain_128.jpg,0,mountain,,,6.970370257,0.8999,0,33,33,33,1,,
,,,,,,,,,,highway_394.jpg,highway_406.jpg,highway_394.jpg,right,badlands_104.jpg,mountain_233.jpg,playground_54.jpg,highway_394.jpg,golf_course_253.jpg,bridge_79.jpg,3,A8GOBUKMAFES6,25,Female,7hr,2023-06-26_09h43.13.238,working,2022.2.4,Win32,10.91822251,,,,,,,,,,highway_406.jpg,1,highway,,,6.970370257,0.7918,0,34,34,34,1,,
,,,,,,,,,,playground_145.jpg,playground_229.jpg,playground_145.jpg,right,highway_148.jpg,playground_145.jpg,mountain_151.jpg,golf_course_291.jpg,badlands_44.jpg,bridge_20.jpg,1,A8GOBUKMAFES6,25,Female,7hr,2023-06-26_09h43.13.238,working,2022.2.4,Win32,10.91822251,,,,,,,,,,playground_229.jpg,0,playground,,,5.925925926,1.0788,0,35,35,35,1,,
,,,,,,,,,,mountain_232.jpg,mountain_232.jpg,mountain_54.jpg,left,bridge_218.jpg,badlands_211.jpg,mountain_232.jpg,highway_31.jpg,playground_15.jpg,golf_course_56.jpg,2,A8GOBUKMAFES6,25,Female,7hr,2023-06-26_09h43.13.238,working,2022.2.4,Win32,10.91822251,,,,,,,,,,mountain_54.jpg,1,mountain,,,5.925925926,0.8794,0,36,36,36,1,,
,,,,,,,,,,golf_course_331.jpg,golf_course_26.jpg,golf_course_331.jpg,right,highway_30.jpg,mountain_89.jpg,golf_course_331.jpg,bridge_110.jpg,playground_258.jpg,badlands_26.jpg,2,A8GOBUKMAFES6,25,Female,7hr,2023-06-26_09h43.13.238,working,2022.2.4,Win32,10.91822251,,,,,,,,,,golf_course_26.jpg,1,golf,,,5.925925926,0.7935,0,37,37,37,1,,
,,,,,,,,,,golf_course_78.jpg,golf_course_78.jpg,golf_course_101.jpg,left,mountain_256.jpg,highway_315.jpg,golf_course_78.jpg,bridge_212.jpg,badlands_9.jpg,playground_173.jpg,2,A8GOBUKMAFES6,25,Female,7hr,2023-06-26_09h43.13.238,working,2022.2.4,Win32,10.91822251,,,,,,,,,,golf_course_101.jpg,1,golf,,,6.955555669,1.3303,0,38,38,38,1,,
,,,,,,,,,,playground_76.jpg,playground_22.jpg,playground_76.jpg,right,highway_147.jpg,badlands_227.jpg,golf_course_59.jpg,playground_76.jpg,bridge_254.jpg,mountain_253.jpg,3,A8GOBUKMAFES6,25,Female,7hr,2023-06-26_09h43.13.238,working,2022.2.4,Win32,10.91822251,,,,,,,,,,playground_22.jpg,0,playground,,,6.955555669,0.8091,0,39,39,39,1,,
,,,,,,,,,,playground_131.jpg,playground_43.jpg,playground_131.jpg,right,badlands_183.jpg,bridge_224.jpg,highway_365.jpg,mountain_250.jpg,playground_131.jpg,golf_course_33.jpg,4,A8GOBUKMAFES6,25,Female,7hr,2023-06-26_09h43.13.238,working,2022.2.4,Win32,10.91822251,,,,,,,,,,playground_43.jpg,0,playground,,,6.955555669,0.8348,0,40,40,40,1,,
,,,,,,,,,,playground_10.jpg,playground_122.jpg,playground_10.jpg,right,golf_course_226.jpg,playground_10.jpg,mountain_22.jpg,bridge_197.jpg,badlands_214.jpg,highway_269.jpg,1,A8GOBUKMAFES6,25,Female,7hr,2023-06-26_09h43.13.238,working,2022.2.4,Win32,10.91822251,,,,,,,,,,playground_122.jpg,0,playground,,,5.992592706,0.8925,0,41,41,41,1,,
,,,,,,,,,,badlands_23.jpg,badlands_23.jpg,badlands_101.jpg,left,playground_61.jpg,badlands_23.jpg,mountain_190.jpg,golf_course_55.jpg,bridge_180.jpg,highway_33.jpg,1,A8GOBUKMAFES6,25,Female,7hr,2023-06-26_09h43.13.238,working,2022.2.4,Win32,10.91822251,,,,,,,,,,badlands_101.jpg,1,badlands,,,5.992592706,0.6544,0,42,42,42,1,,
,,,,,,,,,,mountain_154.jpg,mountain_131.jpg,mountain_154.jpg,right,bridge_238.jpg,playground_233.jpg,highway_313.jpg,golf_course_23.jpg,mountain_154.jpg,badlands_79.jpg,4,A8GOBUKMAFES6,25,Female,7hr,2023-06-26_09h43.13.238,working,2022.2.4,Win32,10.91822251,,,,,,,,,,mountain_131.jpg,0,mountain,,,5.992592706,0.6455,0,43,43,43,1,,
,,,,,,,,,,badlands_222.jpg,badlands_222.jpg,badlands_34.jpg,left,golf_course_176.jpg,bridge_68.jpg,playground_195.jpg,badlands_222.jpg,highway_308.jpg,mountain_307.jpg,3,A8GOBUKMAFES6,25,Female,7hr,2023-06-26_09h43.13.238,working,2022.2.4,Win32,10.91822251,,,,,,,,,,badlands_34.jpg,0,badlands,,,5.992592706,0.5953,0,44,44,44,1,,
,,,,,,,,,,mountain_57.jpg,mountain_57.jpg,mountain_193.jpg,left,mountain_57.jpg,playground_84.jpg,bridge_126.jpg,badlands_170.jpg,highway_42.jpg,golf_course_128.jpg,0,A8GOBUKMAFES6,25,Female,7hr,2023-06-26_09h43.13.238,working,2022.2.4,Win32,10.91822251,,,,,,,,,,mountain_193.jpg,0,mountain,,,5.992592706,0.8193,0,45,45,45,1,,
,,,,,,,,,,bridge_191.jpg,bridge_184.jpg,bridge_191.jpg,right,bridge_191.jpg,highway_101.jpg,golf_course_199.jpg,playground_7.jpg,badlands_217.jpg,mountain_180.jpg,0,A8GOBUKMAFES6,25,Female,7hr,2023-06-26_09h43.13.238,working,2022.2.4,Win32,10.91822251,,,,,,,,,,bridge_184.jpg,0,bridge,,,6.903704043,1.9156,0,46,46,46,1,,
,,,,,,,,,,highway_359.jpg,highway_379.jpg,highway_359.jpg,right,badlands_55.jpg,highway_359.jpg,playground_26.jpg,golf_course_307.jpg,bridge_147.jpg,mountain_198.jpg,1,A8GOBUKMAFES6,25,Female,7hr,2023-06-26_09h43.13.238,working,2022.2.4,Win32,10.91822251,,,,,,,,,,highway_379.jpg,1,highway,,,7.059259485,0.6974,0,47,47,47,1,,
,,,,,,,,,,highway_93.jpg,highway_93.jpg,highway_85.jpg,left,bridge_45.jpg,mountain_192.jpg,highway_93.jpg,golf_course_171.jpg,playground_140.jpg,badlands_185.jpg,2,A8GOBUKMAFES6,25,Female,7hr,2023-06-26_09h43.13.238,working,2022.2.4,Win32,10.91822251,,,,,,,,,,highway_85.jpg,0,highway,,,7.059259485,0.8265,0,48,48,48,1,,
,,,,,,,,,,playground_60.jpg,playground_60.jpg,playground_244.jpg,left,badlands_67.jpg,mountain_226.jpg,golf_course_0.jpg,highway_81.jpg,playground_60.jpg,bridge_190.jpg,4,A8GOBUKMAFES6,25,Female,7hr,2023-06-26_09h43.13.238,working,2022.2.4,Win32,10.91822251,,,,,,,,,,playground_244.jpg,1,playground,,,7.059259485,0.7835,0,49,49,49,1,,
,,,,,,,,,,mountain_293.jpg,mountain_293.jpg,mountain_72.jpg,left,bridge_74.jpg,highway_274.jpg,golf_course_305.jpg,playground_63.jpg,mountain_293.jpg,badlands_150.jpg,4,A8GOBUKMAFES6,25,Female,7hr,2023-06-26_09h43.13.238,working,2022.2.4,Win32,10.91822251,,,,,,,,,,mountain_72.jpg,0,mountain,,,7.059259485,0.8605,0,50,50,50,1,,
,,,,,,,,,,playground_219.jpg,playground_205.jpg,playground_219.jpg,right,playground_219.jpg,badlands_128.jpg,mountain_40.jpg,highway_199.jpg,bridge_52.jpg,golf_course_338.jpg,0,A8GOBUKMAFES6,25,Female,7hr,2023-06-26_09h43.13.238,working,2022.2.4,Win32,10.91822251,,,,,,,,,,playground_205.jpg,1,playground,,,7.059259485,0.8431,0,51,51,51,1,,
,,,,,,,,,,highway_177.jpg,highway_278.jpg,highway_177.jpg,right,playground_85.jpg,highway_177.jpg,mountain_92.jpg,bridge_225.jpg,golf_course_196.jpg,badlands_180.jpg,1,A8GOBUKMAFES6,25,Female,7hr,2023-06-26_09h43.13.238,working,2022.2.4,Win32,10.91822251,,,,,,,,,,highway_278.jpg,1,highway,,,7.059259485,0.1772,0,52,52,52,1,,
,,,,,,,,,,mountain_222.jpg,mountain_93.jpg,mountain_222.jpg,right,bridge_155.jpg,mountain_222.jpg,badlands_164.jpg,golf_course_42.jpg,playground_241.jpg,highway_335.jpg,1,A8GOBUKMAFES6,25,Female,7hr,2023-06-26_09h43.13.238,working,2022.2.4,Win32,10.91822251,,,,,,,,,,mountain_93.jpg,1,mountain,,,6.037037037,1.6312,0,53,53,53,1,,
,,,,,,,,,,golf_course_193.jpg,golf_course_235.jpg,golf_course_193.jpg,right,mountain_294.jpg,badlands_88.jpg,bridge_167.jpg,golf_course_193.jpg,playground_165.jpg,highway_413.jpg,3,A8GOBUKMAFES6,25,Female,7hr,2023-06-26_09h43.13.238,working,2022.2.4,Win32,10.91822251,,,,,,,,,,golf_course_235.jpg,0,golf,,,6.037037037,0.2544,0,54,54,54,1,,
,,,,,,,,,,badlands_21.jpg,badlands_1.jpg,badlands_21.jpg,right,mountain_152.jpg,badlands_21.jpg,golf_course_313.jpg,playground_196.jpg,bridge_72.jpg,highway_172.jpg,1,A8GOBUKMAFES6,25,Female,7hr,2023-06-26_09h43.13.238,working,2022.2.4,Win32,10.91822251,,,,,,,,,,badlands_1.jpg,0,badlands,,,6.037037037,1.1894,0,55,55,55,1,,
,,,,,,,,,,mountain_123.jpg,mountain_189.jpg,mountain_123.jpg,right,golf_course_300.jpg,bridge_35.jpg,mountain_123.jpg,highway_319.jpg,badlands_120.jpg,playground_204.jpg,2,A8GOBUKMAFES6,25,Female,7hr,2023-06-26_09h43.13.238,working,2022.2.4,Win32,10.91822251,,,,,,,,,,mountain_189.jpg,1,mountain,,,6.029629743,1.206,0,56,56,56,1,,
,,,,,,,,,,mountain_101.jpg,mountain_221.jpg,mountain_101.jpg,right,golf_course_137.jpg,bridge_140.jpg,playground_42.jpg,mountain_101.jpg,highway_18.jpg,badlands_106.jpg,3,A8GOBUKMAFES6,25,Female,7hr,2023-06-26_09h43.13.238,working,2022.2.4,Win32,10.91822251,,,,,,,,,,mountain_221.jpg,1,mountain,,,5.992592706,0.9741,0,57,57,57,1,,
,,,,,,,,,,bridge_91.jpg,bridge_91.jpg,bridge_253.jpg,left,badlands_27.jpg,bridge_91.jpg,highway_295.jpg,playground_120.jpg,mountain_160.jpg,golf_course_238.jpg,1,A8GOBUKMAFES6,25,Female,7hr,2023-06-26_09h43.13.238,working,2022.2.4,Win32,10.91822251,,,,,,,,,,bridge_253.jpg,0,bridge,,,5.829629969,1.7467,0,58,58,58,1,,
,,,,,,,,,,mountain_110.jpg,mountain_157.jpg,mountain_110.jpg,right,badlands_46.jpg,golf_course_252.jpg,mountain_110.jpg,highway_154.jpg,bridge_112.jpg,playground_37.jpg,2,A8GOBUKMAFES6,25,Female,7hr,2023-06-26_09h43.13.238,working,2022.2.4,Win32,10.91822251,,,,,,,,,,mountain_157.jpg,0,mountain,,,6,0.952,0,59,59,59,1,,
,,,,,,,,,,,,,,,,,,,,,A8GOBUKMAFES6,25,Female,7hr,2023-06-26_09h43.13.238,working,2022.2.4,Win32,10.91822251,,,,,,,,,,,,,,,,,,,,,,space,26.5779
