key_resp.keys,key_resp_2.keys,key_resp_2.rt,demo_test_key_resp.keys,demo_test_key_resp.rt,demo_loops.thisRepN,demo_loops.thisTrialN,demo_loops.thisN,demo_loops.thisIndex,demo_loops.ran,target,image1,image2,correct,background_0,background_1,background_2,background_3,background_4,background_5,target_index,workID,Age,Gender,Hours slept (last night),date,expName,psychopyVersion,OS,frameRate,key_resp_after_demo.keys,key_resp_after_demo.rt,test_key_resp.keys,test_key_resp.rt,exp_loops.thisRepN,exp_loops.thisTrialN,exp_loops.thisN,exp_loops.thisIndex,exp_loops.ran,selected_dist,distractor_level,category,key_resp_4.keys,key_resp_4.rt,slider_part2.response,slider_part2.rt,exp_loops_part2.thisRepN,exp_loops_part2.thisTrialN,exp_loops_part2.thisN,exp_loops_part2.thisIndex,exp_loops_part2.ran,key_resp_last_slide.keys,key_resp_last_slide.rt
,space,18.9613,left,2.3493,0,0,0,0,1,flower1.jpg,flower1.jpg,flower1_pair.jpg,left,leaf3.jpg,trail1.jpg,flower1.jpg,bird1.jpg,tree3.jpg,fence4.jpg,2,AW5O1RK3W60FC,61,female,7,2023-06-26_10h31.47.298,working,2022.2.4,Win32,9.142857143,,,,,,,,,,,,,,,,,,,,,,,
,,,left,4.2374,0,1,1,1,1,leaf2.jpg,leaf1.jpg,leaf2.jpg,right,trail2.jpg,leaf2.jpg,bird2.jpg,tree2.jpg,fence3.jpg,flower2.jpg,1,AW5O1RK3W60FC,61,female,7,2023-06-26_10h31.47.298,working,2022.2.4,Win32,9.142857143,,,,,,,,,,,,,,,,,,,,,,,
,,,left,2.6361,0,2,2,2,1,fence1.jpg,fence1.jpg,fence2.jpg,left,tree1.jpg,bird3.jpg,trail3.jpg,fence1.jpg,leaf4.jpg,flower3.jpg,3,AW5O1RK3W60FC,61,female,7,2023-06-26_10h31.47.298,working,2022.2.4,Win32,9.142857143,,,,,,,,,,,,,,,,,,,,,,,
,,,,,,,,,,mountain_222.jpg,mountain_244.jpg,mountain_222.jpg,right,playground_42.jpg,mountain_222.jpg,badlands_171.jpg,bridge_120.jpg,golf_course_333.jpg,highway_141.jpg,1,AW5O1RK3W60FC,61,female,7,2023-06-26_10h31.47.298,working,2022.2.4,Win32,9.142857143,space,14.0716,right,2.8409,0,0,0,0,1,mountain_244.jpg,0,mountain,,,,,,,,,,,
,,,,,,,,,,mountain_101.jpg,mountain_101.jpg,mountain_221.jpg,left,highway_399.jpg,golf_course_166.jpg,mountain_101.jpg,badlands_180.jpg,bridge_133.jpg,playground_241.jpg,2,AW5O1RK3W60FC,61,female,7,2023-06-26_10h31.47.298,working,2022.2.4,Win32,9.142857143,,,left,2.3152,0,1,1,1,1,mountain_221.jpg,1,mountain,,,,,,,,,,,
,,,,,,,,,,bridge_108.jpg,bridge_108.jpg,bridge_148.jpg,left,golf_course_202.jpg,bridge_108.jpg,badlands_175.jpg,mountain_228.jpg,playground_204.jpg,highway_365.jpg,1,AW5O1RK3W60FC,61,female,7,2023-06-26_10h31.47.298,working,2022.2.4,Win32,9.142857143,,,left,3.1161,0,2,2,2,1,bridge_148.jpg,1,bridge,,,,,,,,,,,
,,,,,,,,,,highway_273.jpg,highway_171.jpg,highway_273.jpg,right,highway_273.jpg,golf_course_181.jpg,badlands_9.jpg,mountain_39.jpg,bridge_156.jpg,playground_195.jpg,0,AW5O1RK3W60FC,61,female,7,2023-06-26_10h31.47.298,working,2022.2.4,Win32,9.142857143,,,right,5.3784,0,3,3,3,1,highway_171.jpg,1,highway,,,,,,,,,,,
,,,,,,,,,,mountain_156.jpg,mountain_295.jpg,mountain_156.jpg,right,playground_30.jpg,bridge_212.jpg,highway_274.jpg,badlands_59.jpg,mountain_156.jpg,golf_course_305.jpg,4,AW5O1RK3W60FC,61,female,7,2023-06-26_10h31.47.298,working,2022.2.4,Win32,9.142857143,,,right,2.7785,0,4,4,4,1,mountain_295.jpg,1,mountain,,,,,,,,,,,
,,,,,,,,,,highway_415.jpg,highway_60.jpg,highway_415.jpg,right,mountain_306.jpg,badlands_166.jpg,highway_415.jpg,golf_course_291.jpg,bridge_179.jpg,playground_162.jpg,2,AW5O1RK3W60FC,61,female,7,2023-06-26_10h31.47.298,working,2022.2.4,Win32,9.142857143,,,right,1.9818,0,5,5,5,1,highway_60.jpg,0,highway,,,,,,,,,,,
,,,,,,,,,,highway_209.jpg,highway_209.jpg,highway_122.jpg,left,golf_course_133.jpg,playground_54.jpg,bridge_76.jpg,highway_209.jpg,mountain_89.jpg,badlands_173.jpg,3,AW5O1RK3W60FC,61,female,7,2023-06-26_10h31.47.298,working,2022.2.4,Win32,9.142857143,,,left,1.315,0,6,6,6,1,highway_122.jpg,1,highway,,,,,,,,,,,
,,,,,,,,,,playground_76.jpg,playground_76.jpg,playground_72.jpg,left,mountain_166.jpg,golf_course_313.jpg,bridge_110.jpg,playground_76.jpg,badlands_35.jpg,highway_246.jpg,3,AW5O1RK3W60FC,61,female,7,2023-06-26_10h31.47.298,working,2022.2.4,Win32,9.142857143,,,left,3.1971,0,7,7,7,1,playground_72.jpg,1,playground,,,,,,,,,,,
,,,,,,,,,,playground_219.jpg,playground_219.jpg,playground_21.jpg,left,badlands_201.jpg,mountain_169.jpg,playground_219.jpg,golf_course_196.jpg,highway_50.jpg,bridge_72.jpg,2,AW5O1RK3W60FC,61,female,7,2023-06-26_10h31.47.298,working,2022.2.4,Win32,9.142857143,,,left,3.5712,0,8,8,8,1,playground_21.jpg,0,playground,,,,,,,,,,,
,,,,,,,,,,bridge_256.jpg,bridge_256.jpg,bridge_211.jpg,left,highway_268.jpg,bridge_256.jpg,playground_6.jpg,badlands_156.jpg,golf_course_316.jpg,mountain_249.jpg,1,AW5O1RK3W60FC,61,female,7,2023-06-26_10h31.47.298,working,2022.2.4,Win32,9.142857143,,,right,2.5902,0,9,9,9,1,bridge_211.jpg,1,bridge,,,,,,,,,,,
,,,,,,,,,,mountain_123.jpg,mountain_94.jpg,mountain_123.jpg,right,playground_78.jpg,highway_178.jpg,mountain_123.jpg,badlands_200.jpg,golf_course_144.jpg,bridge_228.jpg,2,AW5O1RK3W60FC,61,female,7,2023-06-26_10h31.47.298,working,2022.2.4,Win32,9.142857143,,,right,2.0507,0,10,10,10,1,mountain_94.jpg,0,mountain,,,,,,,,,,,
,,,,,,,,,,highway_245.jpg,highway_245.jpg,highway_206.jpg,left,playground_251.jpg,bridge_22.jpg,mountain_250.jpg,golf_course_164.jpg,highway_245.jpg,badlands_44.jpg,4,AW5O1RK3W60FC,61,female,7,2023-06-26_10h31.47.298,working,2022.2.4,Win32,9.142857143,,,left,1.0682,0,11,11,11,1,highway_206.jpg,1,highway,,,,,,,,,,,
,,,,,,,,,,badlands_52.jpg,badlands_63.jpg,badlands_52.jpg,right,bridge_24.jpg,golf_course_59.jpg,highway_36.jpg,mountain_45.jpg,badlands_52.jpg,playground_141.jpg,4,AW5O1RK3W60FC,61,female,7,2023-06-26_10h31.47.298,working,2022.2.4,Win32,9.142857143,,,right,3.6662,0,12,12,12,1,badlands_63.jpg,1,badlands,,,,,,,,,,,
,,,,,,,,,,badlands_70.jpg,badlands_102.jpg,badlands_70.jpg,right,mountain_76.jpg,golf_course_105.jpg,badlands_70.jpg,bridge_224.jpg,highway_148.jpg,playground_110.jpg,2,AW5O1RK3W60FC,61,female,7,2023-06-26_10h31.47.298,working,2022.2.4,Win32,9.142857143,,,left,5.2731,0,13,13,13,1,badlands_102.jpg,0,badlands,,,,,,,,,,,
,,,,,,,,,,mountain_110.jpg,mountain_157.jpg,mountain_110.jpg,right,playground_181.jpg,bridge_117.jpg,mountain_110.jpg,highway_265.jpg,badlands_152.jpg,golf_course_162.jpg,2,AW5O1RK3W60FC,61,female,7,2023-06-26_10h31.47.298,working,2022.2.4,Win32,9.142857143,,,left,2.1323,0,14,14,14,1,mountain_157.jpg,0,mountain,,,,,,,,,,,
,,,,,,,,,,golf_course_195.jpg,golf_course_25.jpg,golf_course_195.jpg,right,bridge_66.jpg,playground_15.jpg,highway_81.jpg,golf_course_195.jpg,badlands_16.jpg,mountain_92.jpg,3,AW5O1RK3W60FC,61,female,7,2023-06-26_10h31.47.298,working,2022.2.4,Win32,9.142857143,,,right,3.9782,0,15,15,15,1,golf_course_25.jpg,0,golf,,,,,,,,,,,
,,,,,,,,,,mountain_57.jpg,mountain_57.jpg,mountain_138.jpg,left,bridge_169.jpg,playground_49.jpg,highway_147.jpg,mountain_57.jpg,golf_course_282.jpg,badlands_217.jpg,3,AW5O1RK3W60FC,61,female,7,2023-06-26_10h31.47.298,working,2022.2.4,Win32,9.142857143,,,right,4.1293,0,16,16,16,1,mountain_138.jpg,1,mountain,,,,,,,,,,,
,,,,,,,,,,highway_93.jpg,highway_93.jpg,highway_85.jpg,left,playground_47.jpg,golf_course_56.jpg,badlands_46.jpg,highway_93.jpg,mountain_160.jpg,bridge_68.jpg,3,AW5O1RK3W60FC,61,female,7,2023-06-26_10h31.47.298,working,2022.2.4,Win32,9.142857143,,,left,1.6708,0,17,17,17,1,highway_85.jpg,0,highway,,,,,,,,,,,
,,,,,,,,,,bridge_128.jpg,bridge_128.jpg,bridge_244.jpg,left,mountain_187.jpg,badlands_170.jpg,playground_118.jpg,bridge_128.jpg,highway_90.jpg,golf_course_288.jpg,3,AW5O1RK3W60FC,61,female,7,2023-06-26_10h31.47.298,working,2022.2.4,Win32,9.142857143,,,left,4.8421,0,18,18,18,1,bridge_244.jpg,1,bridge,,,,,,,,,,,
,,,,,,,,,,highway_394.jpg,highway_406.jpg,highway_394.jpg,right,playground_237.jpg,golf_course_127.jpg,highway_394.jpg,mountain_62.jpg,bridge_45.jpg,badlands_33.jpg,2,AW5O1RK3W60FC,61,female,7,2023-06-26_10h31.47.298,working,2022.2.4,Win32,9.142857143,,,left,6.7866,0,19,19,19,1,highway_406.jpg,1,highway,,,,,,,,,,,
,,,,,,,,,,golf_course_193.jpg,golf_course_193.jpg,golf_course_235.jpg,left,badlands_215.jpg,mountain_33.jpg,bridge_39.jpg,playground_126.jpg,golf_course_193.jpg,highway_226.jpg,4,AW5O1RK3W60FC,61,female,7,2023-06-26_10h31.47.298,working,2022.2.4,Win32,9.142857143,,,right,3.0259,0,20,20,20,1,golf_course_235.jpg,0,golf,,,,,,,,,,,
,,,,,,,,,,mountain_230.jpg,mountain_97.jpg,mountain_230.jpg,right,golf_course_179.jpg,highway_295.jpg,playground_55.jpg,badlands_80.jpg,mountain_230.jpg,bridge_142.jpg,4,AW5O1RK3W60FC,61,female,7,2023-06-26_10h31.47.298,working,2022.2.4,Win32,9.142857143,,,right,1.5571,0,21,21,21,1,mountain_97.jpg,1,mountain,,,,,,,,,,,
,,,,,,,,,,bridge_65.jpg,bridge_65.jpg,bridge_181.jpg,left,golf_course_33.jpg,bridge_65.jpg,playground_39.jpg,badlands_128.jpg,highway_101.jpg,mountain_294.jpg,1,AW5O1RK3W60FC,61,female,7,2023-06-26_10h31.47.298,working,2022.2.4,Win32,9.142857143,,,left,2.5815,0,22,22,22,1,bridge_181.jpg,0,bridge,,,,,,,,,,,
,,,,,,,,,,playground_117.jpg,playground_127.jpg,playground_117.jpg,right,playground_117.jpg,golf_course_67.jpg,mountain_40.jpg,bridge_164.jpg,badlands_122.jpg,highway_17.jpg,0,AW5O1RK3W60FC,61,female,7,2023-06-26_10h31.47.298,working,2022.2.4,Win32,9.142857143,,,right,1.9369,0,23,23,23,1,playground_127.jpg,1,playground,,,,,,,,,,,
,,,,,,,,,,playground_60.jpg,playground_244.jpg,playground_60.jpg,right,golf_course_218.jpg,highway_42.jpg,playground_60.jpg,bridge_64.jpg,mountain_126.jpg,badlands_67.jpg,2,AW5O1RK3W60FC,61,female,7,2023-06-26_10h31.47.298,working,2022.2.4,Win32,9.142857143,,,left,1.967,0,24,24,24,1,playground_244.jpg,1,playground,,,,,,,,,,,
,,,,,,,,,,badlands_24.jpg,badlands_3.jpg,badlands_24.jpg,right,badlands_24.jpg,highway_308.jpg,playground_227.jpg,mountain_29.jpg,bridge_124.jpg,golf_course_338.jpg,0,AW5O1RK3W60FC,61,female,7,2023-06-26_10h31.47.298,working,2022.2.4,Win32,9.142857143,,,right,3.3603,0,25,25,25,1,badlands_3.jpg,0,badlands,,,,,,,,,,,
,,,,,,,,,,golf_course_78.jpg,golf_course_134.jpg,golf_course_78.jpg,right,mountain_253.jpg,badlands_55.jpg,highway_342.jpg,golf_course_78.jpg,playground_120.jpg,bridge_74.jpg,3,AW5O1RK3W60FC,61,female,7,2023-06-26_10h31.47.298,working,2022.2.4,Win32,9.142857143,,,left,5.3879,0,26,26,26,1,golf_course_134.jpg,0,golf,,,,,,,,,,,
,,,,,,,,,,badlands_23.jpg,badlands_101.jpg,badlands_23.jpg,right,bridge_155.jpg,mountain_32.jpg,playground_14.jpg,golf_course_137.jpg,badlands_23.jpg,highway_404.jpg,4,AW5O1RK3W60FC,61,female,7,2023-06-26_10h31.47.298,working,2022.2.4,Win32,9.142857143,,,right,2.7113,0,27,27,27,1,badlands_101.jpg,1,badlands,,,,,,,,,,,
,,,,,,,,,,playground_144.jpg,playground_144.jpg,playground_137.jpg,left,highway_193.jpg,bridge_102.jpg,mountain_34.jpg,playground_144.jpg,badlands_10.jpg,golf_course_253.jpg,3,AW5O1RK3W60FC,61,female,7,2023-06-26_10h31.47.298,working,2022.2.4,Win32,9.142857143,,,left,0.909,0,28,28,28,1,playground_137.jpg,0,playground,,,,,,,,,,,
,,,,,,,,,,badlands_221.jpg,badlands_115.jpg,badlands_221.jpg,right,badlands_221.jpg,playground_7.jpg,bridge_4.jpg,golf_course_72.jpg,highway_269.jpg,mountain_233.jpg,0,AW5O1RK3W60FC,61,female,7,2023-06-26_10h31.47.298,working,2022.2.4,Win32,9.142857143,,,left,5.259,0,29,29,29,1,badlands_115.jpg,0,badlands,,,,,,,,,,,
,,,,,,,,,,bridge_250.jpg,bridge_250.jpg,bridge_134.jpg,left,mountain_22.jpg,bridge_250.jpg,playground_248.jpg,highway_191.jpg,badlands_185.jpg,golf_course_297.jpg,1,AW5O1RK3W60FC,61,female,7,2023-06-26_10h31.47.298,working,2022.2.4,Win32,9.142857143,,,left,1.4655,0,30,30,30,1,bridge_134.jpg,0,bridge,,,,,,,,,,,
,,,,,,,,,,playground_10.jpg,playground_12.jpg,playground_10.jpg,right,mountain_226.jpg,bridge_197.jpg,highway_290.jpg,playground_10.jpg,golf_course_265.jpg,badlands_105.jpg,3,AW5O1RK3W60FC,61,female,7,2023-06-26_10h31.47.298,working,2022.2.4,Win32,9.142857143,,,left,1.231,0,31,31,31,1,playground_12.jpg,1,playground,,,,,,,,,,,
,,,,,,,,,,playground_145.jpg,playground_145.jpg,playground_242.jpg,left,badlands_104.jpg,playground_145.jpg,mountain_135.jpg,bridge_218.jpg,golf_course_194.jpg,highway_315.jpg,1,AW5O1RK3W60FC,61,female,7,2023-06-26_10h31.47.298,working,2022.2.4,Win32,9.142857143,,,left,3.5686,0,32,32,32,1,playground_242.jpg,1,playground,,,,,,,,,,,
,,,,,,,,,,bridge_202.jpg,bridge_31.jpg,bridge_202.jpg,right,golf_course_42.jpg,bridge_202.jpg,badlands_81.jpg,playground_233.jpg,highway_138.jpg,mountain_35.jpg,1,AW5O1RK3W60FC,61,female,7,2023-06-26_10h31.47.298,working,2022.2.4,Win32,9.142857143,,,right,1.693,0,33,33,33,1,bridge_31.jpg,0,bridge,,,,,,,,,,,
,,,,,,,,,,bridge_191.jpg,bridge_184.jpg,bridge_191.jpg,right,mountain_277.jpg,badlands_72.jpg,playground_124.jpg,bridge_191.jpg,highway_413.jpg,golf_course_219.jpg,3,AW5O1RK3W60FC,61,female,7,2023-06-26_10h31.47.298,working,2022.2.4,Win32,9.142857143,,,left,2.7818,0,34,34,34,1,bridge_184.jpg,0,bridge,,,,,,,,,,,
,,,,,,,,,,golf_course_217.jpg,golf_course_217.jpg,golf_course_35.jpg,left,playground_222.jpg,highway_383.jpg,mountain_146.jpg,bridge_96.jpg,golf_course_217.jpg,badlands_47.jpg,4,AW5O1RK3W60FC,61,female,7,2023-06-26_10h31.47.298,working,2022.2.4,Win32,9.142857143,,,left,3.3111,0,35,35,35,1,golf_course_35.jpg,0,golf,,,,,,,,,,,
,,,,,,,,,,golf_course_188.jpg,golf_course_157.jpg,golf_course_188.jpg,right,mountain_176.jpg,playground_85.jpg,highway_251.jpg,golf_course_188.jpg,bridge_52.jpg,badlands_174.jpg,3,AW5O1RK3W60FC,61,female,7,2023-06-26_10h31.47.298,working,2022.2.4,Win32,9.142857143,,,right,1.4817,0,36,36,36,1,golf_course_157.jpg,0,golf,,,,,,,,,,,
,,,,,,,,,,golf_course_309.jpg,golf_course_16.jpg,golf_course_309.jpg,right,golf_course_309.jpg,badlands_214.jpg,bridge_143.jpg,mountain_51.jpg,highway_58.jpg,playground_64.jpg,0,AW5O1RK3W60FC,61,female,7,2023-06-26_10h31.47.298,working,2022.2.4,Win32,9.142857143,,,left,3.3624,0,37,37,37,1,golf_course_16.jpg,0,golf,,,,,,,,,,,
,,,,,,,,,,highway_294.jpg,highway_294.jpg,highway_368.jpg,left,mountain_91.jpg,badlands_120.jpg,playground_256.jpg,highway_294.jpg,golf_course_61.jpg,bridge_144.jpg,3,AW5O1RK3W60FC,61,female,7,2023-06-26_10h31.47.298,working,2022.2.4,Win32,9.142857143,,,left,2.3929,0,38,38,38,1,highway_368.jpg,1,highway,,,,,,,,,,,
,,,,,,,,,,badlands_184.jpg,badlands_184.jpg,badlands_103.jpg,left,mountain_202.jpg,badlands_184.jpg,bridge_126.jpg,golf_course_238.jpg,highway_102.jpg,playground_84.jpg,1,AW5O1RK3W60FC,61,female,7,2023-06-26_10h31.47.298,working,2022.2.4,Win32,9.142857143,,,left,2.3445,0,39,39,39,1,badlands_103.jpg,1,badlands,,,,,,,,,,,
,,,,,,,,,,highway_156.jpg,highway_156.jpg,highway_293.jpg,left,playground_26.jpg,highway_156.jpg,bridge_147.jpg,badlands_216.jpg,mountain_206.jpg,golf_course_226.jpg,1,AW5O1RK3W60FC,61,female,7,2023-06-26_10h31.47.298,working,2022.2.4,Win32,9.142857143,,,left,1.7638,0,40,40,40,1,highway_293.jpg,1,highway,,,,,,,,,,,
,,,,,,,,,,playground_131.jpg,playground_131.jpg,playground_43.jpg,left,playground_131.jpg,golf_course_71.jpg,mountain_251.jpg,highway_247.jpg,badlands_85.jpg,bridge_204.jpg,0,AW5O1RK3W60FC,61,female,7,2023-06-26_10h31.47.298,working,2022.2.4,Win32,9.142857143,,,left,2.3336,0,41,41,41,1,playground_43.jpg,0,playground,,,,,,,,,,,
,,,,,,,,,,golf_course_15.jpg,golf_course_97.jpg,golf_course_15.jpg,right,mountain_41.jpg,badlands_125.jpg,bridge_63.jpg,golf_course_15.jpg,playground_196.jpg,highway_31.jpg,3,AW5O1RK3W60FC,61,female,7,2023-06-26_10h31.47.298,working,2022.2.4,Win32,9.142857143,,,right,5.0435,0,42,42,42,1,golf_course_97.jpg,1,golf,,,,,,,,,,,
,,,,,,,,,,badlands_113.jpg,badlands_113.jpg,badlands_203.jpg,left,mountain_19.jpg,golf_course_41.jpg,playground_246.jpg,badlands_113.jpg,bridge_152.jpg,highway_172.jpg,3,AW5O1RK3W60FC,61,female,7,2023-06-26_10h31.47.298,working,2022.2.4,Win32,9.142857143,,,left,2.6888,0,43,43,43,1,badlands_203.jpg,1,badlands,,,,,,,,,,,
,,,,,,,,,,bridge_172.jpg,bridge_172.jpg,bridge_17.jpg,left,badlands_36.jpg,mountain_137.jpg,bridge_172.jpg,highway_313.jpg,playground_140.jpg,golf_course_55.jpg,2,AW5O1RK3W60FC,61,female,7,2023-06-26_10h31.47.298,working,2022.2.4,Win32,9.142857143,,,left,1.2565,0,44,44,44,1,bridge_17.jpg,0,bridge,,,,,,,,,,,
,,,,,,,,,,golf_course_331.jpg,golf_course_114.jpg,golf_course_331.jpg,right,golf_course_331.jpg,bridge_254.jpg,mountain_290.jpg,badlands_164.jpg,highway_3.jpg,playground_191.jpg,0,AW5O1RK3W60FC,61,female,7,2023-06-26_10h31.47.298,working,2022.2.4,Win32,9.142857143,,,right,2.3085,0,45,45,45,1,golf_course_114.jpg,0,golf,,,,,,,,,,,
,,,,,,,,,,bridge_91.jpg,bridge_82.jpg,bridge_91.jpg,right,playground_83.jpg,golf_course_138.jpg,bridge_91.jpg,mountain_302.jpg,badlands_30.jpg,highway_78.jpg,2,AW5O1RK3W60FC,61,female,7,2023-06-26_10h31.47.298,working,2022.2.4,Win32,9.142857143,,,right,4.2284,0,46,46,46,1,bridge_82.jpg,1,bridge,,,,,,,,,,,
,,,,,,,,,,bridge_146.jpg,bridge_27.jpg,bridge_146.jpg,right,badlands_211.jpg,mountain_180.jpg,golf_course_308.jpg,bridge_146.jpg,highway_107.jpg,playground_74.jpg,3,AW5O1RK3W60FC,61,female,7,2023-06-26_10h31.47.298,working,2022.2.4,Win32,9.142857143,,,left,2.0803,0,47,47,47,1,bridge_27.jpg,0,bridge,,,,,,,,,,,
,,,,,,,,,,golf_course_214.jpg,golf_course_214.jpg,golf_course_317.jpg,left,bridge_112.jpg,highway_287.jpg,mountain_268.jpg,badlands_20.jpg,golf_course_214.jpg,playground_36.jpg,4,AW5O1RK3W60FC,61,female,7,2023-06-26_10h31.47.298,working,2022.2.4,Win32,9.142857143,,,left,1.2772,0,48,48,48,1,golf_course_317.jpg,1,golf,,,,,,,,,,,
,,,,,,,,,,highway_177.jpg,highway_278.jpg,highway_177.jpg,right,playground_249.jpg,badlands_88.jpg,highway_177.jpg,bridge_140.jpg,mountain_256.jpg,golf_course_128.jpg,2,AW5O1RK3W60FC,61,female,7,2023-06-26_10h31.47.298,working,2022.2.4,Win32,9.142857143,,,left,5.9629,0,49,49,49,1,highway_278.jpg,1,highway,,,,,,,,,,,
,,,,,,,,,,badlands_222.jpg,badlands_222.jpg,badlands_34.jpg,left,badlands_222.jpg,highway_288.jpg,mountain_38.jpg,golf_course_241.jpg,bridge_173.jpg,playground_33.jpg,0,AW5O1RK3W60FC,61,female,7,2023-06-26_10h31.47.298,working,2022.2.4,Win32,9.142857143,,,left,1.0798,0,50,50,50,1,badlands_34.jpg,0,badlands,,,,,,,,,,,
,,,,,,,,,,mountain_154.jpg,mountain_95.jpg,mountain_154.jpg,right,golf_course_23.jpg,badlands_54.jpg,playground_154.jpg,highway_305.jpg,mountain_154.jpg,bridge_106.jpg,4,AW5O1RK3W60FC,61,female,7,2023-06-26_10h31.47.298,working,2022.2.4,Win32,9.142857143,,,left,1.4535,0,51,51,51,1,mountain_95.jpg,1,mountain,,,,,,,,,,,
,,,,,,,,,,badlands_137.jpg,badlands_194.jpg,badlands_137.jpg,right,mountain_151.jpg,golf_course_252.jpg,bridge_62.jpg,badlands_137.jpg,highway_29.jpg,playground_258.jpg,3,AW5O1RK3W60FC,61,female,7,2023-06-26_10h31.47.298,working,2022.2.4,Win32,9.142857143,,,right,4.1161,0,52,52,52,1,badlands_194.jpg,0,badlands,,,,,,,,,,,
,,,,,,,,,,playground_240.jpg,playground_40.jpg,playground_240.jpg,right,mountain_88.jpg,badlands_121.jpg,playground_240.jpg,bridge_86.jpg,highway_37.jpg,golf_course_0.jpg,2,AW5O1RK3W60FC,61,female,7,2023-06-26_10h31.47.298,working,2022.2.4,Win32,9.142857143,,,left,3.6024,0,53,53,53,1,playground_40.jpg,1,playground,,,,,,,,,,,
,,,,,,,,,,mountain_232.jpg,mountain_232.jpg,mountain_54.jpg,left,bridge_158.jpg,golf_course_176.jpg,highway_33.jpg,badlands_97.jpg,mountain_232.jpg,playground_61.jpg,4,AW5O1RK3W60FC,61,female,7,2023-06-26_10h31.47.298,working,2022.2.4,Win32,9.142857143,,,left,4.6665,0,54,54,54,1,mountain_54.jpg,1,mountain,,,,,,,,,,,
,,,,,,,,,,golf_course_87.jpg,golf_course_161.jpg,golf_course_87.jpg,right,playground_165.jpg,badlands_138.jpg,bridge_193.jpg,golf_course_87.jpg,highway_335.jpg,mountain_307.jpg,3,AW5O1RK3W60FC,61,female,7,2023-06-26_10h31.47.298,working,2022.2.4,Win32,9.142857143,,,right,2.3005,0,55,55,55,1,golf_course_161.jpg,1,golf,,,,,,,,,,,
,,,,,,,,,,playground_257.jpg,playground_214.jpg,playground_257.jpg,right,mountain_199.jpg,playground_257.jpg,bridge_266.jpg,golf_course_174.jpg,highway_354.jpg,badlands_219.jpg,1,AW5O1RK3W60FC,61,female,7,2023-06-26_10h31.47.298,working,2022.2.4,Win32,9.142857143,,,right,4.2347,0,56,56,56,1,playground_214.jpg,0,playground,,,,,,,,,,,
,,,,,,,,,,mountain_293.jpg,mountain_293.jpg,mountain_72.jpg,left,golf_course_171.jpg,mountain_293.jpg,bridge_20.jpg,badlands_157.jpg,playground_37.jpg,highway_9.jpg,1,AW5O1RK3W60FC,61,female,7,2023-06-26_10h31.47.298,working,2022.2.4,Win32,9.142857143,,,left,2.7549,0,57,57,57,1,mountain_72.jpg,0,mountain,,,,,,,,,,,
,,,,,,,,,,highway_359.jpg,highway_389.jpg,highway_359.jpg,right,golf_course_328.jpg,mountain_204.jpg,playground_132.jpg,highway_359.jpg,badlands_183.jpg,bridge_238.jpg,3,AW5O1RK3W60FC,61,female,7,2023-06-26_10h31.47.298,working,2022.2.4,Win32,9.142857143,,,right,2.5386,0,58,58,58,1,highway_389.jpg,0,highway,,,,,,,,,,,
,,,,,,,,,,badlands_21.jpg,badlands_1.jpg,badlands_21.jpg,right,highway_76.jpg,mountain_198.jpg,golf_course_342.jpg,badlands_21.jpg,playground_16.jpg,bridge_190.jpg,3,AW5O1RK3W60FC,61,female,7,2023-06-26_10h31.47.298,working,2022.2.4,Win32,9.142857143,,,right,1.8321,0,59,59,59,1,badlands_1.jpg,0,badlands,,,,,,,,,,,
,,,,,,,,,,mountain_222.jpg,mountain_244.jpg,mountain_222.jpg,right,playground_42.jpg,mountain_222.jpg,badlands_171.jpg,bridge_120.jpg,golf_course_333.jpg,highway_141.jpg,1,AW5O1RK3W60FC,61,female,7,2023-06-26_10h31.47.298,working,2022.2.4,Win32,9.142857143,,,,,,,,,,mountain_244.jpg,0,mountain,space,10.831,1.958333333,7.3836,0,0,0,0,1,,
,,,,,,,,,,mountain_101.jpg,mountain_101.jpg,mountain_221.jpg,left,highway_399.jpg,golf_course_166.jpg,mountain_101.jpg,badlands_180.jpg,bridge_133.jpg,playground_241.jpg,2,AW5O1RK3W60FC,61,female,7,2023-06-26_10h31.47.298,working,2022.2.4,Win32,9.142857143,,,,,,,,,,mountain_221.jpg,1,mountain,,,1.979166667,6.7928,0,1,1,1,1,,
,,,,,,,,,,bridge_108.jpg,bridge_108.jpg,bridge_148.jpg,left,golf_course_202.jpg,bridge_108.jpg,badlands_175.jpg,mountain_228.jpg,playground_204.jpg,highway_365.jpg,1,AW5O1RK3W60FC,61,female,7,2023-06-26_10h31.47.298,working,2022.2.4,Win32,9.142857143,,,,,,,,,,bridge_148.jpg,1,bridge,,,2.989583333,9.0397,0,2,2,2,1,,
,,,,,,,,,,highway_273.jpg,highway_171.jpg,highway_273.jpg,right,highway_273.jpg,golf_course_181.jpg,badlands_9.jpg,mountain_39.jpg,bridge_156.jpg,playground_195.jpg,0,AW5O1RK3W60FC,61,female,7,2023-06-26_10h31.47.298,working,2022.2.4,Win32,9.142857143,,,,,,,,,,highway_171.jpg,1,highway,,,6.010416667,4.3992,0,3,3,3,1,,
,,,,,,,,,,mountain_156.jpg,mountain_295.jpg,mountain_156.jpg,right,playground_30.jpg,bridge_212.jpg,highway_274.jpg,badlands_59.jpg,mountain_156.jpg,golf_course_305.jpg,4,AW5O1RK3W60FC,61,female,7,2023-06-26_10h31.47.298,working,2022.2.4,Win32,9.142857143,,,,,,,,,,mountain_295.jpg,1,mountain,,,6.010416667,5.4735,0,4,4,4,1,,
,,,,,,,,,,highway_415.jpg,highway_60.jpg,highway_415.jpg,right,mountain_306.jpg,badlands_166.jpg,highway_415.jpg,golf_course_291.jpg,bridge_179.jpg,playground_162.jpg,2,AW5O1RK3W60FC,61,female,7,2023-06-26_10h31.47.298,working,2022.2.4,Win32,9.142857143,,,,,,,,,,highway_60.jpg,0,highway,,,6.96875,3.4778,0,5,5,5,1,,
,,,,,,,,,,highway_209.jpg,highway_209.jpg,highway_122.jpg,left,golf_course_133.jpg,playground_54.jpg,bridge_76.jpg,highway_209.jpg,mountain_89.jpg,badlands_173.jpg,3,AW5O1RK3W60FC,61,female,7,2023-06-26_10h31.47.298,working,2022.2.4,Win32,9.142857143,,,,,,,,,,highway_122.jpg,1,highway,,,8.010416667,3.2646,0,6,6,6,1,,
,,,,,,,,,,playground_76.jpg,playground_76.jpg,playground_72.jpg,left,mountain_166.jpg,golf_course_313.jpg,bridge_110.jpg,playground_76.jpg,badlands_35.jpg,highway_246.jpg,3,AW5O1RK3W60FC,61,female,7,2023-06-26_10h31.47.298,working,2022.2.4,Win32,9.142857143,,,,,,,,,,playground_72.jpg,1,playground,,,8.010416667,2.8639,0,7,7,7,1,,
,,,,,,,,,,playground_219.jpg,playground_219.jpg,playground_21.jpg,left,badlands_201.jpg,mountain_169.jpg,playground_219.jpg,golf_course_196.jpg,highway_50.jpg,bridge_72.jpg,2,AW5O1RK3W60FC,61,female,7,2023-06-26_10h31.47.298,working,2022.2.4,Win32,9.142857143,,,,,,,,,,playground_21.jpg,0,playground,,,7.958333333,3.8002,0,8,8,8,1,,
,,,,,,,,,,bridge_256.jpg,bridge_256.jpg,bridge_211.jpg,left,highway_268.jpg,bridge_256.jpg,playground_6.jpg,badlands_156.jpg,golf_course_316.jpg,mountain_249.jpg,1,AW5O1RK3W60FC,61,female,7,2023-06-26_10h31.47.298,working,2022.2.4,Win32,9.142857143,,,,,,,,,,bridge_211.jpg,1,bridge,,,6.96875,3.0496,0,9,9,9,1,,
,,,,,,,,,,mountain_123.jpg,mountain_94.jpg,mountain_123.jpg,right,playground_78.jpg,highway_178.jpg,mountain_123.jpg,badlands_200.jpg,golf_course_144.jpg,bridge_228.jpg,2,AW5O1RK3W60FC,61,female,7,2023-06-26_10h31.47.298,working,2022.2.4,Win32,9.142857143,,,,,,,,,,mountain_94.jpg,0,mountain,,,1.010416667,2.5549,0,10,10,10,1,,
,,,,,,,,,,highway_245.jpg,highway_245.jpg,highway_206.jpg,left,playground_251.jpg,bridge_22.jpg,mountain_250.jpg,golf_course_164.jpg,highway_245.jpg,badlands_44.jpg,4,AW5O1RK3W60FC,61,female,7,2023-06-26_10h31.47.298,working,2022.2.4,Win32,9.142857143,,,,,,,,,,highway_206.jpg,1,highway,,,2.958333333,4.7224,0,11,11,11,1,,
,,,,,,,,,,badlands_52.jpg,badlands_63.jpg,badlands_52.jpg,right,bridge_24.jpg,golf_course_59.jpg,highway_36.jpg,mountain_45.jpg,badlands_52.jpg,playground_141.jpg,4,AW5O1RK3W60FC,61,female,7,2023-06-26_10h31.47.298,working,2022.2.4,Win32,9.142857143,,,,,,,,,,badlands_63.jpg,1,badlands,,,5.010416667,3.9248,0,12,12,12,1,,
,,,,,,,,,,badlands_70.jpg,badlands_102.jpg,badlands_70.jpg,right,mountain_76.jpg,golf_course_105.jpg,badlands_70.jpg,bridge_224.jpg,highway_148.jpg,playground_110.jpg,2,AW5O1RK3W60FC,61,female,7,2023-06-26_10h31.47.298,working,2022.2.4,Win32,9.142857143,,,,,,,,,,badlands_102.jpg,0,badlands,,,2.947916667,4.4538,0,13,13,13,1,,
,,,,,,,,,,mountain_110.jpg,mountain_157.jpg,mountain_110.jpg,right,playground_181.jpg,bridge_117.jpg,mountain_110.jpg,highway_265.jpg,badlands_152.jpg,golf_course_162.jpg,2,AW5O1RK3W60FC,61,female,7,2023-06-26_10h31.47.298,working,2022.2.4,Win32,9.142857143,,,,,,,,,,mountain_157.jpg,0,mountain,,,6.020833333,3.0656,0,14,14,14,1,,
,,,,,,,,,,golf_course_195.jpg,golf_course_25.jpg,golf_course_195.jpg,right,bridge_66.jpg,playground_15.jpg,highway_81.jpg,golf_course_195.jpg,badlands_16.jpg,mountain_92.jpg,3,AW5O1RK3W60FC,61,female,7,2023-06-26_10h31.47.298,working,2022.2.4,Win32,9.142857143,,,,,,,,,,golf_course_25.jpg,0,golf,,,4.989583333,3.9925,0,15,15,15,1,,
,,,,,,,,,,mountain_57.jpg,mountain_57.jpg,mountain_138.jpg,left,bridge_169.jpg,playground_49.jpg,highway_147.jpg,mountain_57.jpg,golf_course_282.jpg,badlands_217.jpg,3,AW5O1RK3W60FC,61,female,7,2023-06-26_10h31.47.298,working,2022.2.4,Win32,9.142857143,,,,,,,,,,mountain_138.jpg,1,mountain,,,6.020833333,3.8286,0,16,16,16,1,,
,,,,,,,,,,highway_93.jpg,highway_93.jpg,highway_85.jpg,left,playground_47.jpg,golf_course_56.jpg,badlands_46.jpg,highway_93.jpg,mountain_160.jpg,bridge_68.jpg,3,AW5O1RK3W60FC,61,female,7,2023-06-26_10h31.47.298,working,2022.2.4,Win32,9.142857143,,,,,,,,,,highway_85.jpg,0,highway,,,5.020833333,3.0424,0,17,17,17,1,,
,,,,,,,,,,bridge_128.jpg,bridge_128.jpg,bridge_244.jpg,left,mountain_187.jpg,badlands_170.jpg,playground_118.jpg,bridge_128.jpg,highway_90.jpg,golf_course_288.jpg,3,AW5O1RK3W60FC,61,female,7,2023-06-26_10h31.47.298,working,2022.2.4,Win32,9.142857143,,,,,,,,,,bridge_244.jpg,1,bridge,,,5.958333333,2.8078,0,18,18,18,1,,
,,,,,,,,,,highway_394.jpg,highway_406.jpg,highway_394.jpg,right,playground_237.jpg,golf_course_127.jpg,highway_394.jpg,mountain_62.jpg,bridge_45.jpg,badlands_33.jpg,2,AW5O1RK3W60FC,61,female,7,2023-06-26_10h31.47.298,working,2022.2.4,Win32,9.142857143,,,,,,,,,,highway_406.jpg,1,highway,,,6.979166667,2.5765,0,19,19,19,1,,
,,,,,,,,,,golf_course_193.jpg,golf_course_193.jpg,golf_course_235.jpg,left,badlands_215.jpg,mountain_33.jpg,bridge_39.jpg,playground_126.jpg,golf_course_193.jpg,highway_226.jpg,4,AW5O1RK3W60FC,61,female,7,2023-06-26_10h31.47.298,working,2022.2.4,Win32,9.142857143,,,,,,,,,,golf_course_235.jpg,0,golf,,,6.072916667,4.3703,0,20,20,20,1,,
,,,,,,,,,,mountain_230.jpg,mountain_97.jpg,mountain_230.jpg,right,golf_course_179.jpg,highway_295.jpg,playground_55.jpg,badlands_80.jpg,mountain_230.jpg,bridge_142.jpg,4,AW5O1RK3W60FC,61,female,7,2023-06-26_10h31.47.298,working,2022.2.4,Win32,9.142857143,,,,,,,,,,mountain_97.jpg,1,mountain,,,2.072916667,4.5687,0,21,21,21,1,,
,,,,,,,,,,bridge_65.jpg,bridge_65.jpg,bridge_181.jpg,left,golf_course_33.jpg,bridge_65.jpg,playground_39.jpg,badlands_128.jpg,highway_101.jpg,mountain_294.jpg,1,AW5O1RK3W60FC,61,female,7,2023-06-26_10h31.47.298,working,2022.2.4,Win32,9.142857143,,,,,,,,,,bridge_181.jpg,0,bridge,,,6.0625,3.5603,0,22,22,22,1,,
,,,,,,,,,,playground_117.jpg,playground_127.jpg,playground_117.jpg,right,playground_117.jpg,golf_course_67.jpg,mountain_40.jpg,bridge_164.jpg,badlands_122.jpg,highway_17.jpg,0,AW5O1RK3W60FC,61,female,7,2023-06-26_10h31.47.298,working,2022.2.4,Win32,9.142857143,,,,,,,,,,playground_127.jpg,1,playground,,,5.96875,3.1788,0,23,23,23,1,,
,,,,,,,,,,playground_60.jpg,playground_244.jpg,playground_60.jpg,right,golf_course_218.jpg,highway_42.jpg,playground_60.jpg,bridge_64.jpg,mountain_126.jpg,badlands_67.jpg,2,AW5O1RK3W60FC,61,female,7,2023-06-26_10h31.47.298,working,2022.2.4,Win32,9.142857143,,,,,,,,,,playground_244.jpg,1,playground,,,6,2.887,0,24,24,24,1,,
,,,,,,,,,,badlands_24.jpg,badlands_3.jpg,badlands_24.jpg,right,badlands_24.jpg,highway_308.jpg,playground_227.jpg,mountain_29.jpg,bridge_124.jpg,golf_course_338.jpg,0,AW5O1RK3W60FC,61,female,7,2023-06-26_10h31.47.298,working,2022.2.4,Win32,9.142857143,,,,,,,,,,badlands_3.jpg,0,badlands,,,3.958333333,2.6559,0,25,25,25,1,,
,,,,,,,,,,golf_course_78.jpg,golf_course_134.jpg,golf_course_78.jpg,right,mountain_253.jpg,badlands_55.jpg,highway_342.jpg,golf_course_78.jpg,playground_120.jpg,bridge_74.jpg,3,AW5O1RK3W60FC,61,female,7,2023-06-26_10h31.47.298,working,2022.2.4,Win32,9.142857143,,,,,,,,,,golf_course_134.jpg,0,golf,,,7.989583333,2.4343,0,26,26,26,1,,
,,,,,,,,,,badlands_23.jpg,badlands_101.jpg,badlands_23.jpg,right,bridge_155.jpg,mountain_32.jpg,playground_14.jpg,golf_course_137.jpg,badlands_23.jpg,highway_404.jpg,4,AW5O1RK3W60FC,61,female,7,2023-06-26_10h31.47.298,working,2022.2.4,Win32,9.142857143,,,,,,,,,,badlands_101.jpg,1,badlands,,,4,3.4659,0,27,27,27,1,,
,,,,,,,,,,playground_144.jpg,playground_144.jpg,playground_137.jpg,left,highway_193.jpg,bridge_102.jpg,mountain_34.jpg,playground_144.jpg,badlands_10.jpg,golf_course_253.jpg,3,AW5O1RK3W60FC,61,female,7,2023-06-26_10h31.47.298,working,2022.2.4,Win32,9.142857143,,,,,,,,,,playground_137.jpg,0,playground,,,4,3.7748,0,28,28,28,1,,
,,,,,,,,,,badlands_221.jpg,badlands_115.jpg,badlands_221.jpg,right,badlands_221.jpg,playground_7.jpg,bridge_4.jpg,golf_course_72.jpg,highway_269.jpg,mountain_233.jpg,0,AW5O1RK3W60FC,61,female,7,2023-06-26_10h31.47.298,working,2022.2.4,Win32,9.142857143,,,,,,,,,,badlands_115.jpg,0,badlands,,,4,3.8818,0,29,29,29,1,,
,,,,,,,,,,bridge_250.jpg,bridge_250.jpg,bridge_134.jpg,left,mountain_22.jpg,bridge_250.jpg,playground_248.jpg,highway_191.jpg,badlands_185.jpg,golf_course_297.jpg,1,AW5O1RK3W60FC,61,female,7,2023-06-26_10h31.47.298,working,2022.2.4,Win32,9.142857143,,,,,,,,,,bridge_134.jpg,0,bridge,,,6.083333333,4.6827,0,30,30,30,1,,
,,,,,,,,,,playground_10.jpg,playground_12.jpg,playground_10.jpg,right,mountain_226.jpg,bridge_197.jpg,highway_290.jpg,playground_10.jpg,golf_course_265.jpg,badlands_105.jpg,3,AW5O1RK3W60FC,61,female,7,2023-06-26_10h31.47.298,working,2022.2.4,Win32,9.142857143,,,,,,,,,,playground_12.jpg,1,playground,,,7.041666667,3.6532,0,31,31,31,1,,
,,,,,,,,,,playground_145.jpg,playground_145.jpg,playground_242.jpg,left,badlands_104.jpg,playground_145.jpg,mountain_135.jpg,bridge_218.jpg,golf_course_194.jpg,highway_315.jpg,1,AW5O1RK3W60FC,61,female,7,2023-06-26_10h31.47.298,working,2022.2.4,Win32,9.142857143,,,,,,,,,,playground_242.jpg,1,playground,,,7.020833333,4.2577,0,32,32,32,1,,
,,,,,,,,,,bridge_202.jpg,bridge_31.jpg,bridge_202.jpg,right,golf_course_42.jpg,bridge_202.jpg,badlands_81.jpg,playground_233.jpg,highway_138.jpg,mountain_35.jpg,1,AW5O1RK3W60FC,61,female,7,2023-06-26_10h31.47.298,working,2022.2.4,Win32,9.142857143,,,,,,,,,,bridge_31.jpg,0,bridge,,,1.989583333,5.0653,0,33,33,33,1,,
,,,,,,,,,,bridge_191.jpg,bridge_184.jpg,bridge_191.jpg,right,mountain_277.jpg,badlands_72.jpg,playground_124.jpg,bridge_191.jpg,highway_413.jpg,golf_course_219.jpg,3,AW5O1RK3W60FC,61,female,7,2023-06-26_10h31.47.298,working,2022.2.4,Win32,9.142857143,,,,,,,,,,bridge_184.jpg,0,bridge,,,3.947916667,3.6303,0,34,34,34,1,,
,,,,,,,,,,golf_course_217.jpg,golf_course_217.jpg,golf_course_35.jpg,left,playground_222.jpg,highway_383.jpg,mountain_146.jpg,bridge_96.jpg,golf_course_217.jpg,badlands_47.jpg,4,AW5O1RK3W60FC,61,female,7,2023-06-26_10h31.47.298,working,2022.2.4,Win32,9.142857143,,,,,,,,,,golf_course_35.jpg,0,golf,,,6.041666667,2.8252,0,35,35,35,1,,
,,,,,,,,,,golf_course_188.jpg,golf_course_157.jpg,golf_course_188.jpg,right,mountain_176.jpg,playground_85.jpg,highway_251.jpg,golf_course_188.jpg,bridge_52.jpg,badlands_174.jpg,3,AW5O1RK3W60FC,61,female,7,2023-06-26_10h31.47.298,working,2022.2.4,Win32,9.142857143,,,,,,,,,,golf_course_157.jpg,0,golf,,,2.010416667,3.416,0,36,36,36,1,,
,,,,,,,,,,golf_course_309.jpg,golf_course_16.jpg,golf_course_309.jpg,right,golf_course_309.jpg,badlands_214.jpg,bridge_143.jpg,mountain_51.jpg,highway_58.jpg,playground_64.jpg,0,AW5O1RK3W60FC,61,female,7,2023-06-26_10h31.47.298,working,2022.2.4,Win32,9.142857143,,,,,,,,,,golf_course_16.jpg,0,golf,,,2,2.232,0,37,37,37,1,,
,,,,,,,,,,highway_294.jpg,highway_294.jpg,highway_368.jpg,left,mountain_91.jpg,badlands_120.jpg,playground_256.jpg,highway_294.jpg,golf_course_61.jpg,bridge_144.jpg,3,AW5O1RK3W60FC,61,female,7,2023-06-26_10h31.47.298,working,2022.2.4,Win32,9.142857143,,,,,,,,,,highway_368.jpg,1,highway,,,6.020833333,2.6646,0,38,38,38,1,,
,,,,,,,,,,badlands_184.jpg,badlands_184.jpg,badlands_103.jpg,left,mountain_202.jpg,badlands_184.jpg,bridge_126.jpg,golf_course_238.jpg,highway_102.jpg,playground_84.jpg,1,AW5O1RK3W60FC,61,female,7,2023-06-26_10h31.47.298,working,2022.2.4,Win32,9.142857143,,,,,,,,,,badlands_103.jpg,1,badlands,,,7.0625,2.8495,0,39,39,39,1,,
,,,,,,,,,,highway_156.jpg,highway_156.jpg,highway_293.jpg,left,playground_26.jpg,highway_156.jpg,bridge_147.jpg,badlands_216.jpg,mountain_206.jpg,golf_course_226.jpg,1,AW5O1RK3W60FC,61,female,7,2023-06-26_10h31.47.298,working,2022.2.4,Win32,9.142857143,,,,,,,,,,highway_293.jpg,1,highway,,,7.0625,2.2749,0,40,40,40,1,,
,,,,,,,,,,playground_131.jpg,playground_131.jpg,playground_43.jpg,left,playground_131.jpg,golf_course_71.jpg,mountain_251.jpg,highway_247.jpg,badlands_85.jpg,bridge_204.jpg,0,AW5O1RK3W60FC,61,female,7,2023-06-26_10h31.47.298,working,2022.2.4,Win32,9.142857143,,,,,,,,,,playground_43.jpg,0,playground,,,4.947916667,3.0651,0,41,41,41,1,,
,,,,,,,,,,golf_course_15.jpg,golf_course_97.jpg,golf_course_15.jpg,right,mountain_41.jpg,badlands_125.jpg,bridge_63.jpg,golf_course_15.jpg,playground_196.jpg,highway_31.jpg,3,AW5O1RK3W60FC,61,female,7,2023-06-26_10h31.47.298,working,2022.2.4,Win32,9.142857143,,,,,,,,,,golf_course_97.jpg,1,golf,,,7.979166667,3.2896,0,42,42,42,1,,
,,,,,,,,,,badlands_113.jpg,badlands_113.jpg,badlands_203.jpg,left,mountain_19.jpg,golf_course_41.jpg,playground_246.jpg,badlands_113.jpg,bridge_152.jpg,highway_172.jpg,3,AW5O1RK3W60FC,61,female,7,2023-06-26_10h31.47.298,working,2022.2.4,Win32,9.142857143,,,,,,,,,,badlands_203.jpg,1,badlands,,,8.927083333,4.2408,0,43,43,43,1,,
,,,,,,,,,,bridge_172.jpg,bridge_172.jpg,bridge_17.jpg,left,badlands_36.jpg,mountain_137.jpg,bridge_172.jpg,highway_313.jpg,playground_140.jpg,golf_course_55.jpg,2,AW5O1RK3W60FC,61,female,7,2023-06-26_10h31.47.298,working,2022.2.4,Win32,9.142857143,,,,,,,,,,bridge_17.jpg,0,bridge,,,2.0625,3.7628,0,44,44,44,1,,
,,,,,,,,,,golf_course_331.jpg,golf_course_114.jpg,golf_course_331.jpg,right,golf_course_331.jpg,bridge_254.jpg,mountain_290.jpg,badlands_164.jpg,highway_3.jpg,playground_191.jpg,0,AW5O1RK3W60FC,61,female,7,2023-06-26_10h31.47.298,working,2022.2.4,Win32,9.142857143,,,,,,,,,,golf_course_114.jpg,0,golf,,,6.041666667,4.0163,0,45,45,45,1,,
,,,,,,,,,,bridge_91.jpg,bridge_82.jpg,bridge_91.jpg,right,playground_83.jpg,golf_course_138.jpg,bridge_91.jpg,mountain_302.jpg,badlands_30.jpg,highway_78.jpg,2,AW5O1RK3W60FC,61,female,7,2023-06-26_10h31.47.298,working,2022.2.4,Win32,9.142857143,,,,,,,,,,bridge_82.jpg,1,bridge,,,6.052083333,2.592,0,46,46,46,1,,
,,,,,,,,,,bridge_146.jpg,bridge_27.jpg,bridge_146.jpg,right,badlands_211.jpg,mountain_180.jpg,golf_course_308.jpg,bridge_146.jpg,highway_107.jpg,playground_74.jpg,3,AW5O1RK3W60FC,61,female,7,2023-06-26_10h31.47.298,working,2022.2.4,Win32,9.142857143,,,,,,,,,,bridge_27.jpg,0,bridge,,,3.96875,4.1197,0,47,47,47,1,,
,,,,,,,,,,golf_course_214.jpg,golf_course_214.jpg,golf_course_317.jpg,left,bridge_112.jpg,highway_287.jpg,mountain_268.jpg,badlands_20.jpg,golf_course_214.jpg,playground_36.jpg,4,AW5O1RK3W60FC,61,female,7,2023-06-26_10h31.47.298,working,2022.2.4,Win32,9.142857143,,,,,,,,,,golf_course_317.jpg,1,golf,,,8.052083333,2.5859,0,48,48,48,1,,
,,,,,,,,,,highway_177.jpg,highway_278.jpg,highway_177.jpg,right,playground_249.jpg,badlands_88.jpg,highway_177.jpg,bridge_140.jpg,mountain_256.jpg,golf_course_128.jpg,2,AW5O1RK3W60FC,61,female,7,2023-06-26_10h31.47.298,working,2022.2.4,Win32,9.142857143,,,,,,,,,,highway_278.jpg,1,highway,,,8.041666667,1.8092,0,49,49,49,1,,
,,,,,,,,,,badlands_222.jpg,badlands_222.jpg,badlands_34.jpg,left,badlands_222.jpg,highway_288.jpg,mountain_38.jpg,golf_course_241.jpg,bridge_173.jpg,playground_33.jpg,0,AW5O1RK3W60FC,61,female,7,2023-06-26_10h31.47.298,working,2022.2.4,Win32,9.142857143,,,,,,,,,,badlands_34.jpg,0,badlands,,,7.052083333,2.7393,0,50,50,50,1,,
,,,,,,,,,,mountain_154.jpg,mountain_95.jpg,mountain_154.jpg,right,golf_course_23.jpg,badlands_54.jpg,playground_154.jpg,highway_305.jpg,mountain_154.jpg,bridge_106.jpg,4,AW5O1RK3W60FC,61,female,7,2023-06-26_10h31.47.298,working,2022.2.4,Win32,9.142857143,,,,,,,,,,mountain_95.jpg,1,mountain,,,7.052083333,2.8818,0,51,51,51,1,,
,,,,,,,,,,badlands_137.jpg,badlands_194.jpg,badlands_137.jpg,right,mountain_151.jpg,golf_course_252.jpg,bridge_62.jpg,badlands_137.jpg,highway_29.jpg,playground_258.jpg,3,AW5O1RK3W60FC,61,female,7,2023-06-26_10h31.47.298,working,2022.2.4,Win32,9.142857143,,,,,,,,,,badlands_194.jpg,0,badlands,,,8.020833333,2.9715,0,52,52,52,1,,
,,,,,,,,,,playground_240.jpg,playground_40.jpg,playground_240.jpg,right,mountain_88.jpg,badlands_121.jpg,playground_240.jpg,bridge_86.jpg,highway_37.jpg,golf_course_0.jpg,2,AW5O1RK3W60FC,61,female,7,2023-06-26_10h31.47.298,working,2022.2.4,Win32,9.142857143,,,,,,,,,,playground_40.jpg,1,playground,,,7.03125,2.2238,0,53,53,53,1,,
,,,,,,,,,,mountain_232.jpg,mountain_232.jpg,mountain_54.jpg,left,bridge_158.jpg,golf_course_176.jpg,highway_33.jpg,badlands_97.jpg,mountain_232.jpg,playground_61.jpg,4,AW5O1RK3W60FC,61,female,7,2023-06-26_10h31.47.298,working,2022.2.4,Win32,9.142857143,,,,,,,,,,mountain_54.jpg,1,mountain,,,5.927083333,2.9401,0,54,54,54,1,,
,,,,,,,,,,golf_course_87.jpg,golf_course_161.jpg,golf_course_87.jpg,right,playground_165.jpg,badlands_138.jpg,bridge_193.jpg,golf_course_87.jpg,highway_335.jpg,mountain_307.jpg,3,AW5O1RK3W60FC,61,female,7,2023-06-26_10h31.47.298,working,2022.2.4,Win32,9.142857143,,,,,,,,,,golf_course_161.jpg,1,golf,,,5.96875,4.4184,0,55,55,55,1,,
,,,,,,,,,,playground_257.jpg,playground_214.jpg,playground_257.jpg,right,mountain_199.jpg,playground_257.jpg,bridge_266.jpg,golf_course_174.jpg,highway_354.jpg,badlands_219.jpg,1,AW5O1RK3W60FC,61,female,7,2023-06-26_10h31.47.298,working,2022.2.4,Win32,9.142857143,,,,,,,,,,playground_214.jpg,0,playground,,,5.989583333,2.3359,0,56,56,56,1,,
,,,,,,,,,,mountain_293.jpg,mountain_293.jpg,mountain_72.jpg,left,golf_course_171.jpg,mountain_293.jpg,bridge_20.jpg,badlands_157.jpg,playground_37.jpg,highway_9.jpg,1,AW5O1RK3W60FC,61,female,7,2023-06-26_10h31.47.298,working,2022.2.4,Win32,9.142857143,,,,,,,,,,mountain_72.jpg,0,mountain,,,8.010416667,2.8109,0,57,57,57,1,,
,,,,,,,,,,highway_359.jpg,highway_389.jpg,highway_359.jpg,right,golf_course_328.jpg,mountain_204.jpg,playground_132.jpg,highway_359.jpg,badlands_183.jpg,bridge_238.jpg,3,AW5O1RK3W60FC,61,female,7,2023-06-26_10h31.47.298,working,2022.2.4,Win32,9.142857143,,,,,,,,,,highway_389.jpg,0,highway,,,5.010416667,4.5509,0,58,58,58,1,,
,,,,,,,,,,badlands_21.jpg,badlands_1.jpg,badlands_21.jpg,right,highway_76.jpg,mountain_198.jpg,golf_course_342.jpg,badlands_21.jpg,playground_16.jpg,bridge_190.jpg,3,AW5O1RK3W60FC,61,female,7,2023-06-26_10h31.47.298,working,2022.2.4,Win32,9.142857143,,,,,,,,,,badlands_1.jpg,0,badlands,,,6.03125,2.1556,0,59,59,59,1,,
,,,,,,,,,,,,,,,,,,,,,AW5O1RK3W60FC,61,female,7,2023-06-26_10h31.47.298,working,2022.2.4,Win32,9.142857143,,,,,,,,,,,,,,,,,,,,,,space,26.6298
