button.numClicks,button.timesOn,button.timesOff,workID,Age,Gender,Hours slept (last night),date,expName,psychopyVersion,OS,frameRate,key_resp_13.keys,key_resp_13.rt,key_resp_14.keys,key_resp_14.rt,key_resp_3.keys,key_resp_3.corr,key_resp_3.rt,demo_loop.thisRepN,demo_loop.thisTrialN,demo_loop.thisN,demo_loop.thisIndex,demo_loop.ran,target_image,target_match,option1,option2,option3,option1_layer,option2_layer,option3_layer,match_layer,correct_answer,trial_num,key_resp_15.keys,key_resp_15.rt,key_resp.keys,key_resp.corr,key_resp.rt,trials.thisRepN,trials.thisTrialN,trials.thisN,trials.thisIndex,trials.ran,key_resp_end_2.keys,key_resp_end_2.rt
1,[6.689799999982142],[6.689799999982142],A002160837SWJFPIAI7L7,29,male,7,2023-01-18_13h19.29.042,perception_pilot,2022.2.4,Win32,58.91363261,,,,,,,,,,,,,,,,,,,,,,,,,,,,,,,,,,,
,,,A002160837SWJFPIAI7L7,29,male,7,2023-01-18_13h19.29.042,perception_pilot,2022.2.4,Win32,58.91363261,space,63.1065,,,,,,,,,,,,,,,,,,,,,,,,,,,,,,,,,
,,,A002160837SWJFPIAI7L7,29,male,7,2023-01-18_13h19.29.042,perception_pilot,2022.2.4,Win32,58.91363261,,,space,9.1916,,,,,,,,,,,,,,,,,,,,,,,,,,,,,,,
,,,A002160837SWJFPIAI7L7,29,male,7,2023-01-18_13h19.29.042,perception_pilot,2022.2.4,Win32,58.91363261,,,,,,,,,,,,,,,,,,,,,,,,,,,,,,,,,,,
,,,A002160837SWJFPIAI7L7,29,male,7,2023-01-18_13h19.29.042,perception_pilot,2022.2.4,Win32,58.91363261,,,,,1,1,5.9042,0,0,0,0,1,WHITE_CHEEKED_TURACO_5.jpg,PYGMY_KINGFISHER_2.jpg,MALAGASY_WHITE_EYE_5.jpg,SNOWY_EGRET_1.jpg,CHINESE_POND_HERON_1.jpg,3,2,1,3,1,0,,,,,,,,,,,,
,,,A002160837SWJFPIAI7L7,29,male,7,2023-01-18_13h19.29.042,perception_pilot,2022.2.4,Win32,58.91363261,,,,,1,0,7.4027,0,1,1,1,1,GILA_WOODPECKER_3.jpg,SNOWY_OWL_4.jpg,BLACK_VULTURE_3.jpg,BLACK_SWAN_3.jpg,ALEXANDRINE_PARAKEET_2.jpg,3,1,2,2,3,1,,,,,,,,,,,,
,,,A002160837SWJFPIAI7L7,29,male,7,2023-01-18_13h19.29.042,perception_pilot,2022.2.4,Win32,58.91363261,,,,,3,1,6.1154,0,2,2,2,1,CRESTED_CARACARA_4.jpg,BLUE_DACNIS_4.jpg,FAIRY_PENGUIN_5.jpg,TOUCHAN_4.jpg,PARADISE_TANAGER_1.jpg,1,3,2,2,3,2,,,,,,,,,,,,
,,,A002160837SWJFPIAI7L7,29,male,7,2023-01-18_13h19.29.042,perception_pilot,2022.2.4,Win32,58.91363261,,,,,1,0,8.9455,0,3,3,3,1,TASMANIAN_HEN_5.jpg,BLACKBURNIAM_WARBLER_3.jpg,COPPERY_TAILED_COUCAL_1.jpg,AFRICAN_EMERALD_CUCKOO_5.jpg,CREAM_COLORED_WOODPECKER_4.jpg,3,2,1,1,3,3,,,,,,,,,,,,
,,,A002160837SWJFPIAI7L7,29,male,7,2023-01-18_13h19.29.042,perception_pilot,2022.2.4,Win32,58.91363261,,,,,2,0,6.1985,0,4,4,4,1,GREY_PLOVER_1.jpg,HYACINTH_MACAW_3.jpg,TURKEY_VULTURE_1.jpg,AMETHYST_WOODSTAR_4.jpg,GOULDIAN_FINCH_4.jpg,1,3,2,1,1,4,,,,,,,,,,,,
,,,A002160837SWJFPIAI7L7,29,male,7,2023-01-18_13h19.29.042,perception_pilot,2022.2.4,Win32,58.91363261,,,,,3,0,13.7991,0,5,5,5,1,RED_HEADED_WOODPECKER_5.jpg,COLLARED_ARACARI_1.jpg,GREAT_GRAY_OWL_5.jpg,BLACKBURNIAM_WARBLER_4.jpg,CRIMSON_CHAT_3.jpg,1,3,2,3,2,5,,,,,,,,,,,,
,,,A002160837SWJFPIAI7L7,29,male,7,2023-01-18_13h19.29.042,perception_pilot,2022.2.4,Win32,58.91363261,,,,,2,0,2.6874,0,6,6,6,1,right.png,right.png,left.png,right.png,up.png,,,,,1,6,,,,,,,,,,,,
,,,A002160837SWJFPIAI7L7,29,male,7,2023-01-18_13h19.29.042,perception_pilot,2022.2.4,Win32,58.91363261,,,,,2,1,3.2851,0,7,7,7,1,GOLDEN_CHEEKED_WARBLER_2.jpg,WHITE_THROATED_BEE_EATER_1.jpg,SPOONBILL_1.jpg,DARJEELING_WOODPECKER_1.jpg,AMERICAN_FLAMINGO_3.jpg,1,3,2,3,2,7,,,,,,,,,,,,
,,,A002160837SWJFPIAI7L7,29,male,7,2023-01-18_13h19.29.042,perception_pilot,2022.2.4,Win32,58.91363261,,,,,3,0,3.0294,0,8,8,8,1,LARK_BUNTING_2.jpg,EMU_3.jpg,KING_VULTURE_5.jpg,KING_VULTURE_3.jpg,CACTUS_WREN_3.jpg,1,2,3,1,1,8,,,,,,,,,,,,
,,,A002160837SWJFPIAI7L7,29,male,7,2023-01-18_13h19.29.042,perception_pilot,2022.2.4,Win32,58.91363261,,,,,3,1,3.3889,0,9,9,9,1,AMERICAN_PIPIT_5.jpg,GREEN_MAGPIE_1.jpg,HEPATIC_TANAGER_5.jpg,EMU_2.jpg,LOGGERHEAD_SHRIKE_4.jpg,3,1,2,2,3,9,,,,,,,,,,,,
,,,A002160837SWJFPIAI7L7,29,male,7,2023-01-18_13h19.29.042,perception_pilot,2022.2.4,Win32,58.91363261,,,,,,,,,,,,,,,,,,,,,,,,space,210.8,,,,,,,,,,
,,,A002160837SWJFPIAI7L7,29,male,7,2023-01-18_13h19.29.042,perception_pilot,2022.2.4,Win32,58.91363261,,,,,,,,,,,,,SKUA_4.jpg,PARUS_MAJOR_2.jpg,PURPLE_FINCH_4.jpg,ROADRUNNER_5.jpg,SNOWY_EGRET_5.jpg,2,3,1,2,1,0,,,2,0,3.6401,0,0,0,0,1,,
,,,A002160837SWJFPIAI7L7,29,male,7,2023-01-18_13h19.29.042,perception_pilot,2022.2.4,Win32,58.91363261,,,,,,,,,,,,,CERULEAN_WARBLER_1.jpg,AMERICAN_FLAMINGO_5.jpg,ORIENTAL_BAY_OWL_1.jpg,BANANAQUIT_1.jpg,COCK_OF_THE__ROCK_2.jpg,1,3,2,2,3,1,,,1,0,3.4788,0,1,1,1,1,,
,,,A002160837SWJFPIAI7L7,29,male,7,2023-01-18_13h19.29.042,perception_pilot,2022.2.4,Win32,58.91363261,,,,,,,,,,,,,EASTERN_TOWEE_2.jpg,HYACINTH_MACAW_4.jpg,NORTHERN_BEARDLESS_TYRANNULET_5.jpg,SANDHILL_CRANE_2.jpg,ANDEAN_GOOSE_3.jpg,3,1,2,2,3,2,,,3,1,2.5846,0,2,2,2,1,,
,,,A002160837SWJFPIAI7L7,29,male,7,2023-01-18_13h19.29.042,perception_pilot,2022.2.4,Win32,58.91363261,,,,,,,,,,,,,LESSER_ADJUTANT_4.jpg,ALTAMIRA_YELLOWTHROAT_5.jpg,DOUBLE_EYED_FIG_PARROT_4.jpg,FAIRY_TERN_3.jpg,RAINBOW_LORIKEET_5.jpg,1,3,2,1,1,3,,,1,1,7.6072,0,3,3,3,1,,
,,,A002160837SWJFPIAI7L7,29,male,7,2023-01-18_13h19.29.042,perception_pilot,2022.2.4,Win32,58.91363261,,,,,,,,,,,,,INDIGO_BUNTING_1.jpg,DARWINS_FLYCATCHER_2.jpg,FRIGATE_4.jpg,SNOWY_PLOVER_1.jpg,BALTIMORE_ORIOLE_4.jpg,1,2,3,3,3,4,,,3,1,2.6625,0,4,4,4,1,,
,,,A002160837SWJFPIAI7L7,29,male,7,2023-01-18_13h19.29.042,perception_pilot,2022.2.4,Win32,58.91363261,,,,,,,,,,,,,GYRFALCON_1.jpg,ASHY_STORM_PETREL_2.jpg,FAIRY_TERN_1.jpg,GREY_PLOVER_3.jpg,CINNAMON_ATTILA_2.jpg,3,1,2,1,2,5,,,2,1,2.1763,0,5,5,5,1,,
,,,A002160837SWJFPIAI7L7,29,male,7,2023-01-18_13h19.29.042,perception_pilot,2022.2.4,Win32,58.91363261,,,,,,,,,,,,,INCA_TERN_4.jpg,BORNEAN_BRISTLEHEAD_5.jpg,WHITE_NECKED_RAVEN_4.jpg,ELLIOTS__PHEASANT_4.jpg,SMITHS_LONGSPUR_5.jpg,3,1,2,3,1,6,,,3,0,2.03,0,6,6,6,1,,
,,,A002160837SWJFPIAI7L7,29,male,7,2023-01-18_13h19.29.042,perception_pilot,2022.2.4,Win32,58.91363261,,,,,,,,,,,,,ECUADORIAN_HILLSTAR_5.jpg,SCARLET_IBIS_2.jpg,AMERICAN_FLAMINGO_1.jpg,CRIMSON_SUNBIRD_5.jpg,BOBOLINK_5.jpg,1,3,2,1,1,7,,,2,0,1.4036,0,7,7,7,1,,
,,,A002160837SWJFPIAI7L7,29,male,7,2023-01-18_13h19.29.042,perception_pilot,2022.2.4,Win32,58.91363261,,,,,,,,,,,,,LESSER_ADJUTANT_5.jpg,AMERICAN_GOLDFINCH_1.jpg,GAMBELS_QUAIL_1.jpg,RED_HEADED_WOODPECKER_1.jpg,MALAGASY_WHITE_EYE_2.jpg,2,3,1,1,3,8,,,3,1,1.1353,0,8,8,8,1,,
,,,A002160837SWJFPIAI7L7,29,male,7,2023-01-18_13h19.29.042,perception_pilot,2022.2.4,Win32,58.91363261,,,,,,,,,,,,,MCKAYS_BUNTING_3.jpg,AMERICAN_GOLDFINCH_4.jpg,PALILA_5.jpg,EMU_4.jpg,IWI_2.jpg,3,1,2,3,1,9,,,1,1,1.6585,0,9,9,9,1,,
,,,A002160837SWJFPIAI7L7,29,male,7,2023-01-18_13h19.29.042,perception_pilot,2022.2.4,Win32,58.91363261,,,,,,,,,,,,,left.png,left.png,right.png,left.png,up.png,,,,,1,10,,,1,1,2.0646,0,10,10,10,1,,
,,,A002160837SWJFPIAI7L7,29,male,7,2023-01-18_13h19.29.042,perception_pilot,2022.2.4,Win32,58.91363261,,,,,,,,,,,,,MALACHITE_KINGFISHER_2.jpg,GREEN_BROADBILL_5.jpg,SKUA_3.jpg,JAVA_SPARROW_5.jpg,INCA_TERN_2.jpg,1,3,2,3,2,11,,,2,1,10.3146,0,11,11,11,1,,
,,,A002160837SWJFPIAI7L7,29,male,7,2023-01-18_13h19.29.042,perception_pilot,2022.2.4,Win32,58.91363261,,,,,,,,,,,,,OVENBIRD_5.jpg,FAIRY_PENGUIN_1.jpg,PURPLE_FINCH_5.jpg,JABIRU_4.jpg,ABBOTTS_BOOBY_2.jpg,3,1,2,2,3,12,,,1,0,2.0489,0,12,12,12,1,,
,,,A002160837SWJFPIAI7L7,29,male,7,2023-01-18_13h19.29.042,perception_pilot,2022.2.4,Win32,58.91363261,,,,,,,,,,,,,RUBY_THROATED_HUMMINGBIRD_2.jpg,GOLDEN_PARAKEET_2.jpg,APAPANE_4.jpg,DUSKY_ROBIN_5.jpg,GREEN_JAY_2.jpg,2,3,1,1,3,13,,,2,0,1.5324,0,13,13,13,1,,
,,,A002160837SWJFPIAI7L7,29,male,7,2023-01-18_13h19.29.042,perception_pilot,2022.2.4,Win32,58.91363261,,,,,,,,,,,,,SCARLET_TANAGER_2.jpg,LITTLE_AUK_3.jpg,CALIFORNIA_QUAIL_5.jpg,BORNEAN_LEAFBIRD_1.jpg,CARMINE_BEE-EATER_1.jpg,2,3,1,2,1,14,,,3,0,5.0568,0,14,14,14,1,,
,,,A002160837SWJFPIAI7L7,29,male,7,2023-01-18_13h19.29.042,perception_pilot,2022.2.4,Win32,58.91363261,,,,,,,,,,,,,GOLDEN_CHLOROPHONIA_5.jpg,VERMILION_FLYCATHER_5.jpg,DARWINS_FLYCATCHER_3.jpg,ROADRUNNER_2.jpg,COMMON_HOUSE_MARTIN_4.jpg,3,1,2,3,1,15,,,1,1,2.2796,0,15,15,15,1,,
,,,A002160837SWJFPIAI7L7,29,male,7,2023-01-18_13h19.29.042,perception_pilot,2022.2.4,Win32,58.91363261,,,,,,,,,,,,,PINK_ROBIN_4.jpg,ALBATROSS_4.jpg,SPOONBILL_3.jpg,JACK_SNIPE_5.jpg,COMMON_IORA_4.jpg,1,2,3,2,2,16,,,1,0,3.3003,0,16,16,16,1,,
,,,A002160837SWJFPIAI7L7,29,male,7,2023-01-18_13h19.29.042,perception_pilot,2022.2.4,Win32,58.91363261,,,,,,,,,,,,,CASSOWARY_1.jpg,DEMOISELLE_CRANE_1.jpg,WHITE_NECKED_RAVEN_5.jpg,SCARLET_MACAW_1.jpg,ROSY_FACED_LOVEBIRD_4.jpg,3,2,1,3,1,17,,,1,1,3.0333,0,17,17,17,1,,
,,,A002160837SWJFPIAI7L7,29,male,7,2023-01-18_13h19.29.042,perception_pilot,2022.2.4,Win32,58.91363261,,,,,,,,,,,,,RUBY_THROATED_HUMMINGBIRD_1.jpg,FRIGATE_1.jpg,VULTURINE_GUINEAFOWL_4.jpg,NORTHERN_CARDINAL_1.jpg,EURASIAN_GOLDEN_ORIOLE_5.jpg,2,3,1,3,2,18,,,3,0,3.2548,0,18,18,18,1,,
,,,A002160837SWJFPIAI7L7,29,male,7,2023-01-18_13h19.29.042,perception_pilot,2022.2.4,Win32,58.91363261,,,,,,,,,,,,,SPLENDID_WREN_1.jpg,DOUBLE_BRESTED_CORMARANT_1.jpg,CUBAN_TODY_4.jpg,PARAKETT__AKULET_3.jpg,BLACK_SWAN_2.jpg,3,1,2,2,3,19,,,1,0,3.164,0,19,19,19,1,,
,,,A002160837SWJFPIAI7L7,29,male,7,2023-01-18_13h19.29.042,perception_pilot,2022.2.4,Win32,58.91363261,,,,,,,,,,,,,LITTLE_AUK_5.jpg,SANDHILL_CRANE_3.jpg,BEARDED_BELLBIRD_1.jpg,ORANGE_BRESTED_BUNTING_3.jpg,SCARLET_IBIS_1.jpg,3,2,1,1,3,20,,,1,0,3.9251,0,20,20,20,1,,
,,,A002160837SWJFPIAI7L7,29,male,7,2023-01-18_13h19.29.042,perception_pilot,2022.2.4,Win32,58.91363261,,,,,,,,,,,,,RED_FACED_WARBLER_1.jpg,BLACK_VENTED_SHEARWATER_4.jpg,EMU_5.jpg,CAPE_GLOSSY_STARLING_2.jpg,COMMON_LOON_4.jpg,1,3,2,2,3,21,,,1,0,1.5134,0,21,21,21,1,,
,,,A002160837SWJFPIAI7L7,29,male,7,2023-01-18_13h19.29.042,perception_pilot,2022.2.4,Win32,58.91363261,,,,,,,,,,,,,MAGPIE_GOOSE_5.jpg,HAMERKOP_1.jpg,DOUBLE_EYED_FIG_PARROT_5.jpg,LILAC_ROLLER_2.jpg,OYSTER_CATCHER_3.jpg,1,2,3,2,2,22,,,2,1,3.039,0,22,22,22,1,,
,,,A002160837SWJFPIAI7L7,29,male,7,2023-01-18_13h19.29.042,perception_pilot,2022.2.4,Win32,58.91363261,,,,,,,,,,,,,left.png,left.png,right.png,up.png,left.png,,,,,1,23,,,1,1,3.0947,0,23,23,23,1,,
,,,A002160837SWJFPIAI7L7,29,male,7,2023-01-18_13h19.29.042,perception_pilot,2022.2.4,Win32,58.91363261,,,,,,,,,,,,,BROWN_THRASHER_3.jpg,OYSTER_CATCHER_4.jpg,DOUBLE_EYED_FIG_PARROT_3.jpg,BLACK_BAZA_4.jpg,RED_HEADED_WOODPECKER_2.jpg,1,3,2,2,3,24,,,2,0,2.3997,0,24,24,24,1,,
,,,A002160837SWJFPIAI7L7,29,male,7,2023-01-18_13h19.29.042,perception_pilot,2022.2.4,Win32,58.91363261,,,,,,,,,,,,,ASIAN_DOLLARD_BIRD_2.jpg,ALBATROSS_2.jpg,OSTRICH_1.jpg,HAWAIIAN_GOOSE_1.jpg,VIOLET_GREEN_SWALLOW_4.jpg,1,2,3,1,1,25,,,2,0,2.9499,0,25,25,25,1,,
,,,A002160837SWJFPIAI7L7,29,male,7,2023-01-18_13h19.29.042,perception_pilot,2022.2.4,Win32,58.91363261,,,,,,,,,,,,,PYGMY_KINGFISHER_5.jpg,GRANDALA_2.jpg,GREAT_POTOO_3.jpg,NORTHERN_PARULA_5.jpg,MIKADO__PHEASANT_5.jpg,2,3,1,1,3,26,,,3,1,1.7137,0,26,26,26,1,,
,,,A002160837SWJFPIAI7L7,29,male,7,2023-01-18_13h19.29.042,perception_pilot,2022.2.4,Win32,58.91363261,,,,,,,,,,,,,EUROPEAN_TURTLE_DOVE_3.jpg,TEAL_DUCK_2.jpg,PAINTED_BUNTING_3.jpg,MALABAR_HORNBILL_2.jpg,SNOWY_EGRET_3.jpg,2,3,1,1,3,27,,,2,0,2.5595,0,27,27,27,1,,
,,,A002160837SWJFPIAI7L7,29,male,7,2023-01-18_13h19.29.042,perception_pilot,2022.2.4,Win32,58.91363261,,,,,,,,,,,,,OCELLATED_TURKEY_1.jpg,PURPLE_SWAMPHEN_4.jpg,CHIPPING_SPARROW_1.jpg,GLOSSY_IBIS_2.jpg,LARK_BUNTING_1.jpg,1,3,2,3,2,28,,,2,1,4.4155,0,28,28,28,1,,
,,,A002160837SWJFPIAI7L7,29,male,7,2023-01-18_13h19.29.042,perception_pilot,2022.2.4,Win32,58.91363261,,,,,,,,,,,,,NORTHERN_JACANA_3.jpg,REGENT_BOWERBIRD_5.jpg,BAR-TAILED_GODWIT_3.jpg,BANANAQUIT_3.jpg,ASHY_THRUSHBIRD_4.jpg,3,1,2,2,3,29,,,2,0,1.1804,0,29,29,29,1,,
,,,A002160837SWJFPIAI7L7,29,male,7,2023-01-18_13h19.29.042,perception_pilot,2022.2.4,Win32,58.91363261,,,,,,,,,,,,,ARARIPE_MANAKIN_4.jpg,KIWI_3.jpg,GREAT_GRAY_OWL_4.jpg,BORNEAN_LEAFBIRD_3.jpg,BLACK_VULTURE_1.jpg,1,3,2,1,1,30,,,3,0,3.747,0,30,30,30,1,,
,,,A002160837SWJFPIAI7L7,29,male,7,2023-01-18_13h19.29.042,perception_pilot,2022.2.4,Win32,58.91363261,,,,,,,,,,,,,CRESTED_NUTHATCH_2.jpg,AFRICAN_FIREFINCH_1.jpg,GOLDEN_CHLOROPHONIA_1.jpg,SCARLET_IBIS_3.jpg,CANARY_1.jpg,2,1,3,2,1,31,,,2,0,4.4948,0,31,31,31,1,,
,,,A002160837SWJFPIAI7L7,29,male,7,2023-01-18_13h19.29.042,perception_pilot,2022.2.4,Win32,58.91363261,,,,,,,,,,,,,RUBY_THROATED_HUMMINGBIRD_3.jpg,WHITE_CHEEKED_TURACO_4.jpg,MYNA_5.jpg,NORTHERN_SHOVELER_1.jpg,MALABAR_HORNBILL_5.jpg,2,3,1,1,3,32,,,3,1,5.6514,0,32,32,32,1,,
,,,A002160837SWJFPIAI7L7,29,male,7,2023-01-18_13h19.29.042,perception_pilot,2022.2.4,Win32,58.91363261,,,,,,,,,,,,,GRAY_KINGBIRD_5.jpg,AFRICAN_FIREFINCH_3.jpg,COCK_OF_THE__ROCK_4.jpg,EVENING_GROSBEAK_4.jpg,BALD_EAGLE_2.jpg,2,3,1,3,2,33,,,1,0,4.7117,0,33,33,33,1,,
,,,A002160837SWJFPIAI7L7,29,male,7,2023-01-18_13h19.29.042,perception_pilot,2022.2.4,Win32,58.91363261,,,,,,,,,,,,,KILLDEAR_2.jpg,ALEXANDRINE_PARAKEET_5.jpg,GOLDEN_CHLOROPHONIA_2.jpg,AZURE_TIT_5.jpg,CAATINGA_CACHOLOTE_4.jpg,1,3,2,1,1,34,,,1,1,1.452,0,34,34,34,1,,
,,,A002160837SWJFPIAI7L7,29,male,7,2023-01-18_13h19.29.042,perception_pilot,2022.2.4,Win32,58.91363261,,,,,,,,,,,,,AFRICAN_PIED_HORNBILL_5.jpg,ALEXANDRINE_PARAKEET_1.jpg,KIWI_4.jpg,INDIAN_PITTA_2.jpg,CAPUCHINBIRD_2.jpg,1,2,3,2,2,35,,,2,1,4.3412,0,35,35,35,1,,
,,,A002160837SWJFPIAI7L7,29,male,7,2023-01-18_13h19.29.042,perception_pilot,2022.2.4,Win32,58.91363261,,,,,,,,,,,,,VERMILION_FLYCATHER_3.jpg,CROWNED_PIGEON_1.jpg,RED_BEARDED_BEE_EATER_1.jpg,LITTLE_AUK_4.jpg,INDIAN_BUSTARD_1.jpg,3,2,1,2,2,36,,,1,0,6.2555,0,36,36,36,1,,
,,,A002160837SWJFPIAI7L7,29,male,7,2023-01-18_13h19.29.042,perception_pilot,2022.2.4,Win32,58.91363261,,,,,,,,,,,,,RUFOUS_KINGFISHER_1.jpg,BLACK_VENTED_SHEARWATER_2.jpg,MAGPIE_GOOSE_3.jpg,BANDED_STILT_3.jpg,HORNED_SUNGEM_4.jpg,2,1,3,1,2,37,,,1,0,6.5479,0,37,37,37,1,,
,,,A002160837SWJFPIAI7L7,29,male,7,2023-01-18_13h19.29.042,perception_pilot,2022.2.4,Win32,58.91363261,,,,,,,,,,,,,NICOBAR_PIGEON_1.jpg,EASTERN_BLUEBIRD_3.jpg,MYNA_4.jpg,LITTLE_AUK_1.jpg,ROSY_FACED_LOVEBIRD_2.jpg,1,2,3,3,3,38,,,3,1,5.96,0,38,38,38,1,,
,,,A002160837SWJFPIAI7L7,29,male,7,2023-01-18_13h19.29.042,perception_pilot,2022.2.4,Win32,58.91363261,,,,,,,,,,,,,BROWN_NOODY_3.jpg,KIWI_2.jpg,GUINEA_TURACO_5.jpg,SPANGLED_COTINGA_4.jpg,PEACOCK_5.jpg,3,2,1,1,3,39,,,2,0,3.6471,0,39,39,39,1,,
,,,A002160837SWJFPIAI7L7,29,male,7,2023-01-18_13h19.29.042,perception_pilot,2022.2.4,Win32,58.91363261,,,,,,,,,,,,,SHOEBILL_3.jpg,MALAGASY_WHITE_EYE_3.jpg,GILDED_FLICKER_5.jpg,EMERALD_TANAGER_3.jpg,BALD_EAGLE_5.jpg,2,1,3,1,2,40,,,2,1,2.642,0,40,40,40,1,,
,,,A002160837SWJFPIAI7L7,29,male,7,2023-01-18_13h19.29.042,perception_pilot,2022.2.4,Win32,58.91363261,,,,,,,,,,,,,BREWERS_BLACKBIRD_3.jpg,GOLDEN_CHEEKED_WARBLER_3.jpg,PEACOCK_4.jpg,AMERICAN_AVOCET_5.jpg,CAPE_LONGCLAW_2.jpg,1,2,3,2,2,41,,,3,0,1.6024,0,41,41,41,1,,
,,,A002160837SWJFPIAI7L7,29,male,7,2023-01-18_13h19.29.042,perception_pilot,2022.2.4,Win32,58.91363261,,,,,,,,,,,,,STRIPPED_SWALLOW_1.jpg,MAGPIE_GOOSE_4.jpg,ANDEAN_GOOSE_1.jpg,GO_AWAY_BIRD_5.jpg,EMPEROR_PENGUIN_5.jpg,2,3,1,2,1,42,,,2,0,1.9963,0,42,42,42,1,,
,,,A002160837SWJFPIAI7L7,29,male,7,2023-01-18_13h19.29.042,perception_pilot,2022.2.4,Win32,58.91363261,,,,,,,,,,,,,BALI_STARLING_1.jpg,IBERIAN_MAGPIE_1.jpg,PURPLE_FINCH_2.jpg,CAPE_LONGCLAW_5.jpg,GRANDALA_5.jpg,2,1,3,3,3,43,,,1,0,1.14,0,43,43,43,1,,
,,,A002160837SWJFPIAI7L7,29,male,7,2023-01-18_13h19.29.042,perception_pilot,2022.2.4,Win32,58.91363261,,,,,,,,,,,,,FLAME_BOWERBIRD_3.jpg,INDIAN_BUSTARD_2.jpg,BROWN_THRASHER_4.jpg,QUETZAL_3.jpg,SPOON_BILED_SANDPIPER_5.jpg,2,3,1,1,3,44,,,1,0,2.5346,0,44,44,44,1,,
,,,A002160837SWJFPIAI7L7,29,male,7,2023-01-18_13h19.29.042,perception_pilot,2022.2.4,Win32,58.91363261,,,,,,,,,,,,,BARRED_PUFFBIRD_3.jpg,WHITE_CHEEKED_TURACO_2.jpg,CUBAN_TODY_3.jpg,VEERY_4.jpg,NORTHERN_CARDINAL_5.jpg,1,3,2,1,1,45,,,1,1,1.2472,0,45,45,45,1,,
,,,A002160837SWJFPIAI7L7,29,male,7,2023-01-18_13h19.29.042,perception_pilot,2022.2.4,Win32,58.91363261,,,,,,,,,,,,,IVORY_GULL_1.jpg,FAIRY_TERN_4.jpg,EASTERN_GOLDEN_WEAVER_5.jpg,WILSONS_BIRD_OF_PARADISE_4.jpg,BANDED_STILT_4.jpg,2,1,3,3,3,46,,,3,1,1.7198,0,46,46,46,1,,
,,,A002160837SWJFPIAI7L7,29,male,7,2023-01-18_13h19.29.042,perception_pilot,2022.2.4,Win32,58.91363261,,,,,,,,,,,,,HAWAIIAN_GOOSE_4.jpg,WATTLED_LAPWING_3.jpg,HIMALAYAN_MONAL_2.jpg,BROWN_NOODY_5.jpg,RED_BEARDED_BEE_EATER_3.jpg,2,3,1,3,2,47,,,2,1,1.6608,0,47,47,47,1,,
,,,A002160837SWJFPIAI7L7,29,male,7,2023-01-18_13h19.29.042,perception_pilot,2022.2.4,Win32,58.91363261,,,,,,,,,,,,,ALPINE_CHOUGH_4.jpg,SNOWY_EGRET_2.jpg,AMERICAN_FLAMINGO_2.jpg,EUROPEAN_GOLDFINCH_3.jpg,BOBOLINK_3.jpg,1,2,3,1,1,48,,,2,0,2.7848,0,48,48,48,1,,
,,,A002160837SWJFPIAI7L7,29,male,7,2023-01-18_13h19.29.042,perception_pilot,2022.2.4,Win32,58.91363261,,,,,,,,,,,,,ASIAN_CRESTED_IBIS_4.jpg,IVORY_GULL_2.jpg,OYSTER_CATCHER_2.jpg,CANARY_2.jpg,CASPIAN_TERN_4.jpg,2,1,3,3,3,49,,,3,1,1.1976,0,49,49,49,1,,
,,,A002160837SWJFPIAI7L7,29,male,7,2023-01-18_13h19.29.042,perception_pilot,2022.2.4,Win32,58.91363261,,,,,,,,,,,,,KAGU_5.jpg,IMPERIAL_SHAQ_2.jpg,ASHY_STORM_PETREL_1.jpg,EASTERN_MEADOWLARK_1.jpg,VICTORIA_CROWNED_PIGEON_5.jpg,2,1,3,3,3,50,,,1,0,5.516,0,50,50,50,1,,
,,,A002160837SWJFPIAI7L7,29,male,7,2023-01-18_13h19.29.042,perception_pilot,2022.2.4,Win32,58.91363261,,,,,,,,,,,,,CASPIAN_TERN_1.jpg,BRANDT_CORMARANT_4.jpg,EUROPEAN_GOLDFINCH_4.jpg,COMMON_POORWILL_4.jpg,COMMON_LOON_2.jpg,2,1,3,1,2,51,,,1,0,1.8031,0,51,51,51,1,,
,,,A002160837SWJFPIAI7L7,29,male,7,2023-01-18_13h19.29.042,perception_pilot,2022.2.4,Win32,58.91363261,,,,,,,,,,,,,right.png,right.png,up.png,right.png,left.png,,,,,3,52,,,3,1,1.8863,0,52,52,52,1,,
,,,A002160837SWJFPIAI7L7,29,male,7,2023-01-18_13h19.29.042,perception_pilot,2022.2.4,Win32,58.91363261,,,,,,,,,,,,,left.png,left.png,right.png,left.png,up.png,,,,,1,53,,,1,1,1.3141,0,53,53,53,1,,
,,,A002160837SWJFPIAI7L7,29,male,7,2023-01-18_13h19.29.042,perception_pilot,2022.2.4,Win32,58.91363261,,,,,,,,,,,,,CHUKAR_PARTRIDGE_5.jpg,RAZORBILL_1.jpg,BLACK_THROATED_BUSHTIT_1.jpg,OSTRICH_3.jpg,ASIAN_DOLLARD_BIRD_4.jpg,3,1,2,2,3,54,,,1,0,1.3771,0,54,54,54,1,,
,,,A002160837SWJFPIAI7L7,29,male,7,2023-01-18_13h19.29.042,perception_pilot,2022.2.4,Win32,58.91363261,,,,,,,,,,,,,NORTHERN_JACANA_2.jpg,RED_FACED_CORMORANT_1.jpg,SCARLET_IBIS_4.jpg,VULTURINE_GUINEAFOWL_5.jpg,GREEN_BROADBILL_1.jpg,3,2,1,3,1,55,,,1,1,2.6852,0,55,55,55,1,,
,,,A002160837SWJFPIAI7L7,29,male,7,2023-01-18_13h19.29.042,perception_pilot,2022.2.4,Win32,58.91363261,,,,,,,,,,,,,left.png,left.png,left.png,right.png,up.png,,,,,2,56,,,2,1,1.4714,0,56,56,56,1,,
,,,A002160837SWJFPIAI7L7,29,male,7,2023-01-18_13h19.29.042,perception_pilot,2022.2.4,Win32,58.91363261,,,,,,,,,,,,,PEACOCK_3.jpg,IBERIAN_MAGPIE_2.jpg,CHATTERING_LORY_3.jpg,ANIANIAU_2.jpg,STRAWBERRY_FINCH_4.jpg,3,1,2,3,1,57,,,2,0,1.2916,0,57,57,57,1,,
,,,A002160837SWJFPIAI7L7,29,male,7,2023-01-18_13h19.29.042,perception_pilot,2022.2.4,Win32,58.91363261,,,,,,,,,,,,,MYNA_1.jpg,PARADISE_TANAGER_3.jpg,INDIGO_BUNTING_2.jpg,GREY_PLOVER_4.jpg,SANDHILL_CRANE_4.jpg,3,2,1,3,1,58,,,1,1,1.0566,0,58,58,58,1,,
,,,A002160837SWJFPIAI7L7,29,male,7,2023-01-18_13h19.29.042,perception_pilot,2022.2.4,Win32,58.91363261,,,,,,,,,,,,,DOUBLE_BRESTED_CORMARANT_5.jpg,EURASIAN_MAGPIE_4.jpg,GILDED_FLICKER_2.jpg,PATAGONIAN_SIERRA_FINCH_2.jpg,CHINESE_POND_HERON_2.jpg,1,2,3,2,2,59,,,3,0,1.9429,0,59,59,59,1,,
,,,A002160837SWJFPIAI7L7,29,male,7,2023-01-18_13h19.29.042,perception_pilot,2022.2.4,Win32,58.91363261,,,,,,,,,,,,,NORTHERN_GANNET_2.jpg,MASKED_BOOBY_5.jpg,STRAWBERRY_FINCH_1.jpg,PAINTED_BUNTING_5.jpg,HOODED_MERGANSER_4.jpg,2,1,3,3,3,60,,,3,1,1.22,0,60,60,60,1,,
,,,A002160837SWJFPIAI7L7,29,male,7,2023-01-18_13h19.29.042,perception_pilot,2022.2.4,Win32,58.91363261,,,,,,,,,,,,,TREE_SWALLOW_4.jpg,ROBIN_3.jpg,RED_HEADED_DUCK_5.jpg,RED_FODY_3.jpg,CALIFORNIA_GULL_1.jpg,1,3,2,2,3,61,,,2,0,2.4691,0,61,61,61,1,,
,,,A002160837SWJFPIAI7L7,29,male,7,2023-01-18_13h19.29.042,perception_pilot,2022.2.4,Win32,58.91363261,,,,,,,,,,,,,PARUS_MAJOR_1.jpg,CALIFORNIA_GULL_2.jpg,PINK_ROBIN_3.jpg,BLACK_SWAN_4.jpg,COMMON_POORWILL_1.jpg,3,2,1,2,2,62,,,1,0,2.9177,0,62,62,62,1,,
,,,A002160837SWJFPIAI7L7,29,male,7,2023-01-18_13h19.29.042,perception_pilot,2022.2.4,Win32,58.91363261,,,,,,,,,,,,,IVORY_GULL_3.jpg,INDIGO_FLYCATCHER_2.jpg,SNOWY_EGRET_4.jpg,BUSH_TURKEY_1.jpg,FLAME_TANAGER_3.jpg,3,1,2,1,2,63,,,3,0,1.4629,0,63,63,63,1,,
,,,A002160837SWJFPIAI7L7,29,male,7,2023-01-18_13h19.29.042,perception_pilot,2022.2.4,Win32,58.91363261,,,,,,,,,,,,,INLAND_DOTTEREL_4.jpg,CRESTED_KINGFISHER_1.jpg,JANDAYA_PARAKEET_5.jpg,ANNAS_HUMMINGBIRD_2.jpg,NICOBAR_PIGEON_4.jpg,1,3,2,3,2,64,,,2,1,0.9689,0,64,64,64,1,,
,,,A002160837SWJFPIAI7L7,29,male,7,2023-01-18_13h19.29.042,perception_pilot,2022.2.4,Win32,58.91363261,,,,,,,,,,,,,,,,,,,,,,,,,,,,,,,,,,space,5.2788
