button.numClicks,button.timesOn,button.timesOff,workID,Age,Gender,Hours slept (last night),date,expName,psychopyVersion,OS,frameRate,key_resp_13.keys,key_resp_13.rt,key_resp_14.keys,key_resp_14.rt,key_resp_3.keys,key_resp_3.corr,key_resp_3.rt,demo_loop.thisRepN,demo_loop.thisTrialN,demo_loop.thisN,demo_loop.thisIndex,demo_loop.ran,target_image,target_match,option1,option2,option3,option1_layer,option2_layer,option3_layer,match_layer,correct_answer,trial_num,key_resp_15.keys,key_resp_15.rt,key_resp.keys,key_resp.corr,key_resp.rt,trials.thisRepN,trials.thisTrialN,trials.thisN,trials.thisIndex,trials.ran,key_resp_end_2.keys,key_resp_end_2.rt
1,[270.342400000006],[270.3426999999881],A10JXOU89D5RXR,61,female,8,2023-01-18_14h00.46.196,perception_pilot,2022.2.4,Win32,59.87306909,,,,,,,,,,,,,,,,,,,,,,,,,,,,,,,,,,,
,,,A10JXOU89D5RXR,61,female,8,2023-01-18_14h00.46.196,perception_pilot,2022.2.4,Win32,59.87306909,space,12.5573,,,,,,,,,,,,,,,,,,,,,,,,,,,,,,,,,
,,,A10JXOU89D5RXR,61,female,8,2023-01-18_14h00.46.196,perception_pilot,2022.2.4,Win32,59.87306909,,,space,13.8024,,,,,,,,,,,,,,,,,,,,,,,,,,,,,,,
,,,A10JXOU89D5RXR,61,female,8,2023-01-18_14h00.46.196,perception_pilot,2022.2.4,Win32,59.87306909,,,,,,,,,,,,,,,,,,,,,,,,,,,,,,,,,,,
,,,A10JXOU89D5RXR,61,female,8,2023-01-18_14h00.46.196,perception_pilot,2022.2.4,Win32,59.87306909,,,,,2,0,3.7377,0,0,0,0,1,TREE_SWALLOW_4.jpg,RED_FODY_3.jpg,RED_HEADED_DUCK_5.jpg,ROBIN_3.jpg,BORNEAN_LEAFBIRD_4.jpg,1,2,3,3,3,0,,,,,,,,,,,,
,,,A10JXOU89D5RXR,61,female,8,2023-01-18_14h00.46.196,perception_pilot,2022.2.4,Win32,59.87306909,,,,,2,1,6.311,0,1,1,1,1,GILA_WOODPECKER_3.jpg,SNOWY_OWL_4.jpg,BLACK_SWAN_3.jpg,ALEXANDRINE_PARAKEET_2.jpg,BLACK_VULTURE_3.jpg,1,2,3,2,2,1,,,,,,,,,,,,
,,,A10JXOU89D5RXR,61,female,8,2023-01-18_14h00.46.196,perception_pilot,2022.2.4,Win32,59.87306909,,,,,2,0,3.5691,0,2,2,2,1,INDIGO_BUNTING_1.jpg,FRIGATE_4.jpg,DARWINS_FLYCATCHER_2.jpg,SNOWY_PLOVER_1.jpg,POMARINE_JAEGER_5.jpg,3,2,1,1,3,2,,,,,,,,,,,,
,,,A10JXOU89D5RXR,61,female,8,2023-01-18_14h00.46.196,perception_pilot,2022.2.4,Win32,59.87306909,,,,,3,0,3.4678,0,3,3,3,1,GRAY_KINGBIRD_5.jpg,COCK_OF_THE__ROCK_4.jpg,BALD_EAGLE_2.jpg,BLACK_SWAN_5.jpg,AFRICAN_FIREFINCH_3.jpg,1,2,3,2,2,3,,,,,,,,,,,,
,,,A10JXOU89D5RXR,61,female,8,2023-01-18_14h00.46.196,perception_pilot,2022.2.4,Win32,59.87306909,,,,,1,1,2.3818,0,4,4,4,1,left.png,left.png,right.png,left.png,up.png,,,,,1,4,,,,,,,,,,,,
,,,A10JXOU89D5RXR,61,female,8,2023-01-18_14h00.46.196,perception_pilot,2022.2.4,Win32,59.87306909,,,,,3,1,2.4061,0,5,5,5,1,LARK_BUNTING_2.jpg,KING_VULTURE_3.jpg,EMU_3.jpg,CACTUS_WREN_3.jpg,CHARA_DE_COLLAR_4.jpg,1,3,2,2,3,5,,,,,,,,,,,,
,,,A10JXOU89D5RXR,61,female,8,2023-01-18_14h00.46.196,perception_pilot,2022.2.4,Win32,59.87306909,,,,,1,1,2.9777,0,6,6,6,1,RUFOUS_KINGFISHER_1.jpg,BLACK_VENTED_SHEARWATER_2.jpg,BANDED_STILT_3.jpg,HORNED_SUNGEM_4.jpg,MAGPIE_GOOSE_3.jpg,1,3,2,1,1,6,,,,,,,,,,,,
,,,A10JXOU89D5RXR,61,female,8,2023-01-18_14h00.46.196,perception_pilot,2022.2.4,Win32,59.87306909,,,,,2,1,3.1229,0,7,7,7,1,VERMILION_FLYCATHER_3.jpg,RED_BEARDED_BEE_EATER_1.jpg,CROWNED_PIGEON_1.jpg,PARADISE_TANAGER_4.jpg,INDIAN_BUSTARD_1.jpg,2,3,1,3,2,7,,,,,,,,,,,,
,,,A10JXOU89D5RXR,61,female,8,2023-01-18_14h00.46.196,perception_pilot,2022.2.4,Win32,59.87306909,,,,,1,1,2.4181,0,8,8,8,1,OVENBIRD_5.jpg,PURPLE_FINCH_5.jpg,GILDED_FLICKER_1.jpg,FAIRY_PENGUIN_1.jpg,JABIRU_4.jpg,3,2,1,3,1,8,,,,,,,,,,,,
,,,A10JXOU89D5RXR,61,female,8,2023-01-18_14h00.46.196,perception_pilot,2022.2.4,Win32,59.87306909,,,,,3,1,4.3567,0,9,9,9,1,SPLENDID_WREN_1.jpg,PARAKETT__AKULET_3.jpg,DOUBLE_BRESTED_CORMARANT_1.jpg,CUBAN_TODY_4.jpg,BLACK_SWAN_1.jpg,2,3,1,1,3,9,,,,,,,,,,,,
,,,A10JXOU89D5RXR,61,female,8,2023-01-18_14h00.46.196,perception_pilot,2022.2.4,Win32,59.87306909,,,,,,,,,,,,,,,,,,,,,,,,space,1.5108,,,,,,,,,,
,,,A10JXOU89D5RXR,61,female,8,2023-01-18_14h00.46.196,perception_pilot,2022.2.4,Win32,59.87306909,,,,,,,,,,,,,LESSER_ADJUTANT_4.jpg,ALTAMIRA_YELLOWTHROAT_5.jpg,RAINBOW_LORIKEET_5.jpg,FAIRY_TERN_3.jpg,DOUBLE_EYED_FIG_PARROT_4.jpg,2,3,1,1,3,0,,,3,1,2.8958,0,0,0,0,1,,
,,,A10JXOU89D5RXR,61,female,8,2023-01-18_14h00.46.196,perception_pilot,2022.2.4,Win32,59.87306909,,,,,,,,,,,,,INLAND_DOTTEREL_4.jpg,CRESTED_KINGFISHER_1.jpg,NICOBAR_PIGEON_4.jpg,ANNAS_HUMMINGBIRD_2.jpg,JANDAYA_PARAKEET_5.jpg,2,3,1,3,2,1,,,2,1,3.9953,0,1,1,1,1,,
,,,A10JXOU89D5RXR,61,female,8,2023-01-18_14h00.46.196,perception_pilot,2022.2.4,Win32,59.87306909,,,,,,,,,,,,,NORTHERN_JACANA_2.jpg,VULTURINE_GUINEAFOWL_5.jpg,CRAB_PLOVER_3.jpg,GREEN_BROADBILL_1.jpg,RED_FACED_CORMORANT_1.jpg,2,1,3,2,1,2,,,1,1,2.673,0,2,2,2,1,,
,,,A10JXOU89D5RXR,61,female,8,2023-01-18_14h00.46.196,perception_pilot,2022.2.4,Win32,59.87306909,,,,,,,,,,,,,ASIAN_CRESTED_IBIS_4.jpg,OYSTER_CATCHER_2.jpg,CANARY_2.jpg,IVORY_GULL_2.jpg,AMERICAN_KESTREL_1.jpg,1,3,2,2,3,3,,,2,0,4.7353,0,3,3,3,1,,
,,,A10JXOU89D5RXR,61,female,8,2023-01-18_14h00.46.196,perception_pilot,2022.2.4,Win32,59.87306909,,,,,,,,,,,,,RUBY_THROATED_HUMMINGBIRD_3.jpg,MYNA_5.jpg,GOLDEN_EAGLE_2.jpg,WHITE_CHEEKED_TURACO_4.jpg,NORTHERN_SHOVELER_1.jpg,2,1,3,2,1,4,,,2,0,6.9052,0,4,4,4,1,,
,,,A10JXOU89D5RXR,61,female,8,2023-01-18_14h00.46.196,perception_pilot,2022.2.4,Win32,59.87306909,,,,,,,,,,,,,right.png,right.png,left.png,up.png,right.png,,,,,1,5,,,1,1,2.2515,0,5,5,5,1,,
,,,A10JXOU89D5RXR,61,female,8,2023-01-18_14h00.46.196,perception_pilot,2022.2.4,Win32,59.87306909,,,,,,,,,,,,,PEACOCK_3.jpg,ANIANIAU_2.jpg,IBERIAN_MAGPIE_2.jpg,ANDEAN_SISKIN_5.jpg,STRAWBERRY_FINCH_4.jpg,3,1,2,1,2,6,,,2,1,5.4302,0,6,6,6,1,,
,,,A10JXOU89D5RXR,61,female,8,2023-01-18_14h00.46.196,perception_pilot,2022.2.4,Win32,59.87306909,,,,,,,,,,,,,SCARLET_TANAGER_2.jpg,LITTLE_AUK_3.jpg,CARMINE_BEE-EATER_1.jpg,CALIFORNIA_QUAIL_5.jpg,BORNEAN_LEAFBIRD_1.jpg,1,2,3,2,2,7,,,2,1,4.8798,0,7,7,7,1,,
,,,A10JXOU89D5RXR,61,female,8,2023-01-18_14h00.46.196,perception_pilot,2022.2.4,Win32,59.87306909,,,,,,,,,,,,,BREWERS_BLACKBIRD_3.jpg,PEACOCK_4.jpg,GOLDEN_CHEEKED_WARBLER_3.jpg,CAPE_LONGCLAW_2.jpg,DOUBLE_EYED_FIG_PARROT_2.jpg,2,3,1,1,3,8,,,1,0,4.8524,0,8,8,8,1,,
,,,A10JXOU89D5RXR,61,female,8,2023-01-18_14h00.46.196,perception_pilot,2022.2.4,Win32,59.87306909,,,,,,,,,,,,,WHITE_CHEEKED_TURACO_5.jpg,PYGMY_KINGFISHER_2.jpg,CHINESE_POND_HERON_1.jpg,MALAGASY_WHITE_EYE_5.jpg,SNOWY_EGRET_1.jpg,1,3,2,3,2,9,,,2,1,2.5036,0,9,9,9,1,,
,,,A10JXOU89D5RXR,61,female,8,2023-01-18_14h00.46.196,perception_pilot,2022.2.4,Win32,59.87306909,,,,,,,,,,,,,CASPIAN_TERN_1.jpg,EUROPEAN_GOLDFINCH_4.jpg,COMMON_LOON_2.jpg,BRANDT_CORMARANT_4.jpg,AMERICAN_GOLDFINCH_3.jpg,3,1,2,2,3,10,,,3,1,4.5782,0,10,10,10,1,,
,,,A10JXOU89D5RXR,61,female,8,2023-01-18_14h00.46.196,perception_pilot,2022.2.4,Win32,59.87306909,,,,,,,,,,,,,MAGPIE_GOOSE_5.jpg,OYSTER_CATCHER_3.jpg,WOOD_DUCK_5.jpg,DOUBLE_EYED_FIG_PARROT_5.jpg,HAMERKOP_1.jpg,3,1,2,3,1,11,,,2,0,5.0659,0,11,11,11,1,,
,,,A10JXOU89D5RXR,61,female,8,2023-01-18_14h00.46.196,perception_pilot,2022.2.4,Win32,59.87306909,,,,,,,,,,,,,PYGMY_KINGFISHER_5.jpg,NORTHERN_PARULA_5.jpg,GRANDALA_2.jpg,GREAT_POTOO_3.jpg,BLUE_THROATED_TOUCANET_3.jpg,1,2,3,3,3,12,,,3,1,2.4196,0,12,12,12,1,,
,,,A10JXOU89D5RXR,61,female,8,2023-01-18_14h00.46.196,perception_pilot,2022.2.4,Win32,59.87306909,,,,,,,,,,,,,SKUA_4.jpg,SNOWY_EGRET_5.jpg,PARUS_MAJOR_2.jpg,ROADRUNNER_5.jpg,BLACK-NECKED_GREBE_3.jpg,2,3,1,1,3,13,,,3,1,3.3385,0,13,13,13,1,,
,,,A10JXOU89D5RXR,61,female,8,2023-01-18_14h00.46.196,perception_pilot,2022.2.4,Win32,59.87306909,,,,,,,,,,,,,MALACHITE_KINGFISHER_2.jpg,GREEN_BROADBILL_5.jpg,INCA_TERN_2.jpg,SKUA_3.jpg,JAVA_SPARROW_5.jpg,2,1,3,3,3,14,,,1,0,4.2789,0,14,14,14,1,,
,,,A10JXOU89D5RXR,61,female,8,2023-01-18_14h00.46.196,perception_pilot,2022.2.4,Win32,59.87306909,,,,,,,,,,,,,FLAME_BOWERBIRD_3.jpg,BROWN_THRASHER_4.jpg,INDIAN_BUSTARD_2.jpg,BLACK_THROATED_WARBLER_4.jpg,QUETZAL_3.jpg,1,2,3,2,2,15,,,2,1,3.432,0,15,15,15,1,,
,,,A10JXOU89D5RXR,61,female,8,2023-01-18_14h00.46.196,perception_pilot,2022.2.4,Win32,59.87306909,,,,,,,,,,,,,HAWAIIAN_GOOSE_4.jpg,HIMALAYAN_MONAL_2.jpg,NORTHERN_GANNET_1.jpg,WATTLED_LAPWING_3.jpg,RED_BEARDED_BEE_EATER_3.jpg,2,3,1,2,1,16,,,1,1,4.2871,0,16,16,16,1,,
,,,A10JXOU89D5RXR,61,female,8,2023-01-18_14h00.46.196,perception_pilot,2022.2.4,Win32,59.87306909,,,,,,,,,,,,,NICOBAR_PIGEON_1.jpg,MYNA_4.jpg,NORTHERN_MOCKINGBIRD_4.jpg,EASTERN_BLUEBIRD_3.jpg,LITTLE_AUK_1.jpg,1,3,2,1,1,17,,,1,1,4.2797,0,17,17,17,1,,
,,,A10JXOU89D5RXR,61,female,8,2023-01-18_14h00.46.196,perception_pilot,2022.2.4,Win32,59.87306909,,,,,,,,,,,,,INCA_TERN_4.jpg,BORNEAN_BRISTLEHEAD_5.jpg,WHITE_NECKED_RAVEN_4.jpg,ELLIOTS__PHEASANT_4.jpg,SMITHS_LONGSPUR_5.jpg,3,1,2,3,1,18,,,2,0,4.4294,0,18,18,18,1,,
,,,A10JXOU89D5RXR,61,female,8,2023-01-18_14h00.46.196,perception_pilot,2022.2.4,Win32,59.87306909,,,,,,,,,,,,,TASMANIAN_HEN_5.jpg,BLACKBURNIAM_WARBLER_3.jpg,AFRICAN_EMERALD_CUCKOO_5.jpg,CREAM_COLORED_WOODPECKER_4.jpg,COPPERY_TAILED_COUCAL_1.jpg,2,1,3,1,2,19,,,2,1,4.2832,0,19,19,19,1,,
,,,A10JXOU89D5RXR,61,female,8,2023-01-18_14h00.46.196,perception_pilot,2022.2.4,Win32,59.87306909,,,,,,,,,,,,,CHUKAR_PARTRIDGE_5.jpg,OSTRICH_3.jpg,BLACK_THROATED_BUSHTIT_1.jpg,RAZORBILL_1.jpg,EMU_1.jpg,3,2,1,1,3,20,,,3,1,6.3002,0,20,20,20,1,,
,,,A10JXOU89D5RXR,61,female,8,2023-01-18_14h00.46.196,perception_pilot,2022.2.4,Win32,59.87306909,,,,,,,,,,,,,GOLDEN_CHEEKED_WARBLER_2.jpg,SPOONBILL_1.jpg,WHITE_THROATED_BEE_EATER_1.jpg,RED_HEADED_DUCK_3.jpg,AMERICAN_FLAMINGO_3.jpg,3,1,2,1,2,21,,,3,0,5.7449,0,21,21,21,1,,
,,,A10JXOU89D5RXR,61,female,8,2023-01-18_14h00.46.196,perception_pilot,2022.2.4,Win32,59.87306909,,,,,,,,,,,,,PINK_ROBIN_4.jpg,ALBATROSS_4.jpg,JACK_SNIPE_5.jpg,SPOONBILL_3.jpg,COMMON_IORA_4.jpg,2,1,3,2,1,22,,,3,0,5.2958,0,22,22,22,1,,
,,,A10JXOU89D5RXR,61,female,8,2023-01-18_14h00.46.196,perception_pilot,2022.2.4,Win32,59.87306909,,,,,,,,,,,,,ALPINE_CHOUGH_4.jpg,BOBOLINK_3.jpg,SNOWY_EGRET_2.jpg,UMBRELLA_BIRD_1.jpg,EUROPEAN_GOLDFINCH_3.jpg,1,3,2,3,2,23,,,1,0,2.9239,0,23,23,23,1,,
,,,A10JXOU89D5RXR,61,female,8,2023-01-18_14h00.46.196,perception_pilot,2022.2.4,Win32,59.87306909,,,,,,,,,,,,,NORTHERN_JACANA_3.jpg,BAR-TAILED_GODWIT_3.jpg,SHORT_BILLED_DOWITCHER_5.jpg,REGENT_BOWERBIRD_5.jpg,BANANAQUIT_3.jpg,3,2,1,3,1,24,,,1,1,1.6256,0,24,24,24,1,,
,,,A10JXOU89D5RXR,61,female,8,2023-01-18_14h00.46.196,perception_pilot,2022.2.4,Win32,59.87306909,,,,,,,,,,,,,BALI_STARLING_1.jpg,IBERIAN_MAGPIE_1.jpg,PURPLE_FINCH_2.jpg,CAPE_LONGCLAW_5.jpg,GRANDALA_5.jpg,2,1,3,3,3,25,,,1,0,4.7156,0,25,25,25,1,,
,,,A10JXOU89D5RXR,61,female,8,2023-01-18_14h00.46.196,perception_pilot,2022.2.4,Win32,59.87306909,,,,,,,,,,,,,ARARIPE_MANAKIN_4.jpg,BLACK_VULTURE_1.jpg,KIWI_3.jpg,UMBRELLA_BIRD_5.jpg,BORNEAN_LEAFBIRD_3.jpg,1,2,3,2,2,26,,,2,1,2.7379,0,26,26,26,1,,
,,,A10JXOU89D5RXR,61,female,8,2023-01-18_14h00.46.196,perception_pilot,2022.2.4,Win32,59.87306909,,,,,,,,,,,,,EASTERN_TOWEE_2.jpg,NORTHERN_BEARDLESS_TYRANNULET_5.jpg,HYACINTH_MACAW_4.jpg,SANDHILL_CRANE_2.jpg,GOLDEN_CHEEKED_WARBLER_1.jpg,2,1,3,3,3,27,,,1,0,2.1173,0,27,27,27,1,,
,,,A10JXOU89D5RXR,61,female,8,2023-01-18_14h00.46.196,perception_pilot,2022.2.4,Win32,59.87306909,,,,,,,,,,,,,right.png,right.png,right.png,up.png,left.png,,,,,3,28,,,3,1,2.3024,0,28,28,28,1,,
,,,A10JXOU89D5RXR,61,female,8,2023-01-18_14h00.46.196,perception_pilot,2022.2.4,Win32,59.87306909,,,,,,,,,,,,,RED_HEADED_WOODPECKER_5.jpg,GREAT_GRAY_OWL_5.jpg,CRIMSON_CHAT_3.jpg,COLLARED_ARACARI_1.jpg,KIWI_1.jpg,2,3,1,1,3,29,,,1,0,4.6766,0,29,29,29,1,,
,,,A10JXOU89D5RXR,61,female,8,2023-01-18_14h00.46.196,perception_pilot,2022.2.4,Win32,59.87306909,,,,,,,,,,,,,LESSER_ADJUTANT_5.jpg,GAMBELS_QUAIL_1.jpg,RED_HEADED_WOODPECKER_1.jpg,CANARY_4.jpg,AMERICAN_GOLDFINCH_1.jpg,3,2,1,2,2,30,,,2,1,3.5988,0,30,30,30,1,,
,,,A10JXOU89D5RXR,61,female,8,2023-01-18_14h00.46.196,perception_pilot,2022.2.4,Win32,59.87306909,,,,,,,,,,,,,GOLDEN_CHLOROPHONIA_5.jpg,COMMON_HOUSE_MARTIN_4.jpg,ROADRUNNER_2.jpg,INLAND_DOTTEREL_5.jpg,VERMILION_FLYCATHER_5.jpg,1,2,3,2,2,31,,,2,1,2.1501,0,31,31,31,1,,
,,,A10JXOU89D5RXR,61,female,8,2023-01-18_14h00.46.196,perception_pilot,2022.2.4,Win32,59.87306909,,,,,,,,,,,,,BARRED_PUFFBIRD_3.jpg,VEERY_4.jpg,RED_TAILED_THRUSH_2.jpg,WHITE_CHEEKED_TURACO_2.jpg,NORTHERN_CARDINAL_5.jpg,3,1,2,3,1,32,,,1,1,4.0373,0,32,32,32,1,,
,,,A10JXOU89D5RXR,61,female,8,2023-01-18_14h00.46.196,perception_pilot,2022.2.4,Win32,59.87306909,,,,,,,,,,,,,CRESTED_CARACARA_4.jpg,FAIRY_PENGUIN_5.jpg,BLUE_DACNIS_4.jpg,TOUCHAN_4.jpg,CRAB_PLOVER_5.jpg,2,3,1,1,3,33,,,2,0,6.182,0,33,33,33,1,,
,,,A10JXOU89D5RXR,61,female,8,2023-01-18_14h00.46.196,perception_pilot,2022.2.4,Win32,59.87306909,,,,,,,,,,,,,OCELLATED_TURKEY_1.jpg,CHIPPING_SPARROW_1.jpg,PURPLE_SWAMPHEN_4.jpg,KAKAPO_4.jpg,LARK_BUNTING_1.jpg,3,1,2,1,2,34,,,3,0,3.305,0,34,34,34,1,,
,,,A10JXOU89D5RXR,61,female,8,2023-01-18_14h00.46.196,perception_pilot,2022.2.4,Win32,59.87306909,,,,,,,,,,,,,DOUBLE_BRESTED_CORMARANT_5.jpg,CHINESE_POND_HERON_2.jpg,GILDED_FLICKER_2.jpg,ANHINGA_5.jpg,EURASIAN_MAGPIE_4.jpg,1,3,2,3,2,35,,,3,0,1.9547,0,35,35,35,1,,
,,,A10JXOU89D5RXR,61,female,8,2023-01-18_14h00.46.196,perception_pilot,2022.2.4,Win32,59.87306909,,,,,,,,,,,,,MYNA_1.jpg,GREY_PLOVER_4.jpg,PARADISE_TANAGER_3.jpg,SANDHILL_CRANE_4.jpg,GRAY_PARTRIDGE_5.jpg,3,1,2,2,3,36,,,3,1,2.2022,0,36,36,36,1,,
,,,A10JXOU89D5RXR,61,female,8,2023-01-18_14h00.46.196,perception_pilot,2022.2.4,Win32,59.87306909,,,,,,,,,,,,,AMERICAN_PIPIT_5.jpg,HEPATIC_TANAGER_5.jpg,GREEN_MAGPIE_1.jpg,EMU_2.jpg,AMERICAN_GOLDFINCH_5.jpg,2,1,3,3,3,37,,,1,0,1.7555,0,37,37,37,1,,
,,,A10JXOU89D5RXR,61,female,8,2023-01-18_14h00.46.196,perception_pilot,2022.2.4,Win32,59.87306909,,,,,,,,,,,,,GYRFALCON_1.jpg,ASHY_STORM_PETREL_2.jpg,CINNAMON_ATTILA_2.jpg,GREY_PLOVER_3.jpg,FAIRY_TERN_1.jpg,2,1,3,1,2,38,,,3,0,1.2962,0,38,38,38,1,,
,,,A10JXOU89D5RXR,61,female,8,2023-01-18_14h00.46.196,perception_pilot,2022.2.4,Win32,59.87306909,,,,,,,,,,,,,PARUS_MAJOR_1.jpg,CALIFORNIA_GULL_2.jpg,BLACK_SWAN_4.jpg,PINK_ROBIN_3.jpg,COMMON_POORWILL_1.jpg,2,3,1,2,1,39,,,2,0,2.4453,0,39,39,39,1,,
,,,A10JXOU89D5RXR,61,female,8,2023-01-18_14h00.46.196,perception_pilot,2022.2.4,Win32,59.87306909,,,,,,,,,,,,,IVORY_GULL_3.jpg,INDIGO_FLYCATCHER_2.jpg,SNOWY_EGRET_4.jpg,BUSH_TURKEY_1.jpg,FLAME_TANAGER_3.jpg,3,1,2,1,2,40,,,3,0,3.2178,0,40,40,40,1,,
,,,A10JXOU89D5RXR,61,female,8,2023-01-18_14h00.46.196,perception_pilot,2022.2.4,Win32,59.87306909,,,,,,,,,,,,,RUBY_THROATED_HUMMINGBIRD_2.jpg,APAPANE_4.jpg,GOLDEN_PARAKEET_2.jpg,DUSKY_ROBIN_5.jpg,SCARLET_MACAW_3.jpg,1,3,2,2,3,41,,,2,0,3.0257,0,41,41,41,1,,
,,,A10JXOU89D5RXR,61,female,8,2023-01-18_14h00.46.196,perception_pilot,2022.2.4,Win32,59.87306909,,,,,,,,,,,,,CERULEAN_WARBLER_1.jpg,AMERICAN_FLAMINGO_5.jpg,COCK_OF_THE__ROCK_2.jpg,ORIENTAL_BAY_OWL_1.jpg,BANANAQUIT_1.jpg,2,1,3,2,1,42,,,1,1,3.0148,0,42,42,42,1,,
,,,A10JXOU89D5RXR,61,female,8,2023-01-18_14h00.46.196,perception_pilot,2022.2.4,Win32,59.87306909,,,,,,,,,,,,,AFRICAN_PIED_HORNBILL_5.jpg,KIWI_4.jpg,CAPUCHINBIRD_2.jpg,ALEXANDRINE_PARAKEET_1.jpg,BORNEAN_PHEASANT_4.jpg,3,2,1,1,3,43,,,1,0,5.6238,0,43,43,43,1,,
,,,A10JXOU89D5RXR,61,female,8,2023-01-18_14h00.46.196,perception_pilot,2022.2.4,Win32,59.87306909,,,,,,,,,,,,,GREY_PLOVER_1.jpg,AMETHYST_WOODSTAR_4.jpg,BURCHELLS_COURSER_5.jpg,HYACINTH_MACAW_3.jpg,GOULDIAN_FINCH_4.jpg,3,1,2,3,1,44,,,1,1,4.3801,0,44,44,44,1,,
,,,A10JXOU89D5RXR,61,female,8,2023-01-18_14h00.46.196,perception_pilot,2022.2.4,Win32,59.87306909,,,,,,,,,,,,,LITTLE_AUK_5.jpg,ORANGE_BRESTED_BUNTING_3.jpg,SANDHILL_CRANE_3.jpg,LILAC_ROLLER_5.jpg,BEARDED_BELLBIRD_1.jpg,1,2,3,2,2,45,,,3,0,2.5567,0,45,45,45,1,,
,,,A10JXOU89D5RXR,61,female,8,2023-01-18_14h00.46.196,perception_pilot,2022.2.4,Win32,59.87306909,,,,,,,,,,,,,CASSOWARY_1.jpg,ROSY_FACED_LOVEBIRD_4.jpg,DEMOISELLE_CRANE_1.jpg,CEDAR_WAXWING_4.jpg,SCARLET_MACAW_1.jpg,3,1,2,1,2,46,,,3,0,2.4404,0,46,46,46,1,,
,,,A10JXOU89D5RXR,61,female,8,2023-01-18_14h00.46.196,perception_pilot,2022.2.4,Win32,59.87306909,,,,,,,,,,,,,EUROPEAN_TURTLE_DOVE_3.jpg,MALABAR_HORNBILL_2.jpg,PAINTED_BUNTING_3.jpg,TEAL_DUCK_2.jpg,BROWN_THRASHER_2.jpg,2,1,3,3,3,47,,,3,1,1.7943,0,47,47,47,1,,
,,,A10JXOU89D5RXR,61,female,8,2023-01-18_14h00.46.196,perception_pilot,2022.2.4,Win32,59.87306909,,,,,,,,,,,,,right.png,right.png,right.png,up.png,left.png,,,,,3,48,,,3,1,1.633,0,48,48,48,1,,
,,,A10JXOU89D5RXR,61,female,8,2023-01-18_14h00.46.196,perception_pilot,2022.2.4,Win32,59.87306909,,,,,,,,,,,,,MCKAYS_BUNTING_3.jpg,EMU_4.jpg,IWI_2.jpg,DEMOISELLE_CRANE_3.jpg,AMERICAN_GOLDFINCH_4.jpg,2,1,3,1,2,49,,,1,0,4.0661,0,49,49,49,1,,
,,,A10JXOU89D5RXR,61,female,8,2023-01-18_14h00.46.196,perception_pilot,2022.2.4,Win32,59.87306909,,,,,,,,,,,,,RUBY_THROATED_HUMMINGBIRD_1.jpg,FRIGATE_1.jpg,NORTHERN_CARDINAL_1.jpg,EURASIAN_GOLDEN_ORIOLE_5.jpg,VULTURINE_GUINEAFOWL_4.jpg,3,1,2,3,1,50,,,3,0,4.848,0,50,50,50,1,,
,,,A10JXOU89D5RXR,61,female,8,2023-01-18_14h00.46.196,perception_pilot,2022.2.4,Win32,59.87306909,,,,,,,,,,,,,RED_FACED_WARBLER_1.jpg,CAPE_GLOSSY_STARLING_2.jpg,CRESTED_OROPENDOLA_4.jpg,BLACK_VENTED_SHEARWATER_4.jpg,EMU_5.jpg,3,2,1,3,1,51,,,1,1,3.6563,0,51,51,51,1,,
,,,A10JXOU89D5RXR,61,female,8,2023-01-18_14h00.46.196,perception_pilot,2022.2.4,Win32,59.87306909,,,,,,,,,,,,,right.png,right.png,up.png,right.png,left.png,,,,,3,52,,,3,1,1.4913,0,52,52,52,1,,
,,,A10JXOU89D5RXR,61,female,8,2023-01-18_14h00.46.196,perception_pilot,2022.2.4,Win32,59.87306909,,,,,,,,,,,,,BROWN_THRASHER_3.jpg,OYSTER_CATCHER_4.jpg,RED_HEADED_WOODPECKER_2.jpg,DOUBLE_EYED_FIG_PARROT_3.jpg,BLACK_BAZA_4.jpg,2,1,3,2,1,53,,,1,1,1.8239,0,53,53,53,1,,
,,,A10JXOU89D5RXR,61,female,8,2023-01-18_14h00.46.196,perception_pilot,2022.2.4,Win32,59.87306909,,,,,,,,,,,,,SHOEBILL_3.jpg,GILDED_FLICKER_5.jpg,MALAGASY_WHITE_EYE_3.jpg,BALD_EAGLE_5.jpg,IWI_1.jpg,1,3,2,2,3,54,,,3,1,4.1998,0,54,54,54,1,,
,,,A10JXOU89D5RXR,61,female,8,2023-01-18_14h00.46.196,perception_pilot,2022.2.4,Win32,59.87306909,,,,,,,,,,,,,STRIPPED_SWALLOW_1.jpg,GO_AWAY_BIRD_5.jpg,EMPEROR_PENGUIN_5.jpg,WHITE_THROATED_BEE_EATER_5.jpg,MAGPIE_GOOSE_4.jpg,1,3,2,3,2,55,,,3,0,3.4703,0,55,55,55,1,,
,,,A10JXOU89D5RXR,61,female,8,2023-01-18_14h00.46.196,perception_pilot,2022.2.4,Win32,59.87306909,,,,,,,,,,,,,left.png,left.png,right.png,left.png,up.png,,,,,1,56,,,1,1,1.3381,0,56,56,56,1,,
,,,A10JXOU89D5RXR,61,female,8,2023-01-18_14h00.46.196,perception_pilot,2022.2.4,Win32,59.87306909,,,,,,,,,,,,,IVORY_GULL_1.jpg,WILSONS_BIRD_OF_PARADISE_4.jpg,OCELLATED_TURKEY_2.jpg,EASTERN_GOLDEN_WEAVER_5.jpg,FAIRY_TERN_4.jpg,1,2,3,1,1,57,,,2,0,1.9293,0,57,57,57,1,,
,,,A10JXOU89D5RXR,61,female,8,2023-01-18_14h00.46.196,perception_pilot,2022.2.4,Win32,59.87306909,,,,,,,,,,,,,NORTHERN_GANNET_2.jpg,PAINTED_BUNTING_5.jpg,STRAWBERRY_FINCH_1.jpg,EASTERN_TOWEE_1.jpg,MASKED_BOOBY_5.jpg,2,1,3,1,2,58,,,2,1,4.5121,0,58,58,58,1,,
,,,A10JXOU89D5RXR,61,female,8,2023-01-18_14h00.46.196,perception_pilot,2022.2.4,Win32,59.87306909,,,,,,,,,,,,,ECUADORIAN_HILLSTAR_5.jpg,CRIMSON_SUNBIRD_5.jpg,SCARLET_IBIS_2.jpg,BOBOLINK_5.jpg,GREEN_BROADBILL_4.jpg,1,2,3,3,3,59,,,1,0,4.0948,0,59,59,59,1,,
,,,A10JXOU89D5RXR,61,female,8,2023-01-18_14h00.46.196,perception_pilot,2022.2.4,Win32,59.87306909,,,,,,,,,,,,,ASIAN_DOLLARD_BIRD_2.jpg,VIOLET_GREEN_SWALLOW_4.jpg,HAWAIIAN_GOOSE_1.jpg,VERMILION_FLYCATHER_1.jpg,ALBATROSS_2.jpg,2,3,1,3,2,60,,,2,1,2.9008,0,60,60,60,1,,
,,,A10JXOU89D5RXR,61,female,8,2023-01-18_14h00.46.196,perception_pilot,2022.2.4,Win32,59.87306909,,,,,,,,,,,,,KAGU_5.jpg,EASTERN_MEADOWLARK_1.jpg,IMPERIAL_SHAQ_2.jpg,BANANAQUIT_2.jpg,ASHY_STORM_PETREL_1.jpg,3,1,2,1,2,61,,,3,0,3.507,0,61,61,61,1,,
,,,A10JXOU89D5RXR,61,female,8,2023-01-18_14h00.46.196,perception_pilot,2022.2.4,Win32,59.87306909,,,,,,,,,,,,,KILLDEAR_2.jpg,ALEXANDRINE_PARAKEET_5.jpg,AZURE_TIT_5.jpg,GOLDEN_CHLOROPHONIA_2.jpg,CAATINGA_CACHOLOTE_4.jpg,3,1,2,1,2,62,,,3,0,3.9493,0,62,62,62,1,,
,,,A10JXOU89D5RXR,61,female,8,2023-01-18_14h00.46.196,perception_pilot,2022.2.4,Win32,59.87306909,,,,,,,,,,,,,BROWN_NOODY_3.jpg,SPANGLED_COTINGA_4.jpg,GUINEA_TURACO_5.jpg,KIWI_2.jpg,COMMON_IORA_3.jpg,3,1,2,2,3,63,,,3,1,1.9408,0,63,63,63,1,,
,,,A10JXOU89D5RXR,61,female,8,2023-01-18_14h00.46.196,perception_pilot,2022.2.4,Win32,59.87306909,,,,,,,,,,,,,CRESTED_NUTHATCH_2.jpg,AFRICAN_FIREFINCH_1.jpg,GOLDEN_CHLOROPHONIA_1.jpg,CANARY_1.jpg,SCARLET_IBIS_3.jpg,2,3,1,2,1,64,,,1,1,1.8539,0,64,64,64,1,,
,,,A10JXOU89D5RXR,61,female,8,2023-01-18_14h00.46.196,perception_pilot,2022.2.4,Win32,59.87306909,,,,,,,,,,,,,,,,,,,,,,,,,,,,,,,,,,space,6.9953
