button.numClicks,button.timesOn,button.timesOff,workID,Age,Gender,Hours slept (last night),date,expName,psychopyVersion,OS,frameRate,key_resp_13.keys,key_resp_13.rt,key_resp_14.keys,key_resp_14.rt,key_resp_3.keys,key_resp_3.corr,key_resp_3.rt,demo_loop.thisRepN,demo_loop.thisTrialN,demo_loop.thisN,demo_loop.thisIndex,demo_loop.ran,target_image,target_match,option1,option2,option3,option1_layer,option2_layer,option3_layer,match_layer,correct_answer,trial_num,key_resp_15.keys,key_resp_15.rt,key_resp.keys,key_resp.corr,key_resp.rt,trials.thisRepN,trials.thisTrialN,trials.thisN,trials.thisIndex,trials.ran,key_resp_end_2.keys,key_resp_end_2.rt
1,[3.8251000003814966],[3.825200000286145],A18TJQ1OFMV8H2,30,male,8,2023-01-18_13h03.06.581,perception_pilot,2022.2.4,Win32,16.15900461,,,,,,,,,,,,,,,,,,,,,,,,,,,,,,,,,,,
,,,A18TJQ1OFMV8H2,30,male,8,2023-01-18_13h03.06.581,perception_pilot,2022.2.4,Win32,16.15900461,space,2.5149,,,,,,,,,,,,,,,,,,,,,,,,,,,,,,,,,
,,,A18TJQ1OFMV8H2,30,male,8,2023-01-18_13h03.06.581,perception_pilot,2022.2.4,Win32,16.15900461,,,space,1.9876,,,,,,,,,,,,,,,,,,,,,,,,,,,,,,,
,,,A18TJQ1OFMV8H2,30,male,8,2023-01-18_13h03.06.581,perception_pilot,2022.2.4,Win32,16.15900461,,,,,,,,,,,,,,,,,,,,,,,,,,,,,,,,,,,
,,,A18TJQ1OFMV8H2,30,male,8,2023-01-18_13h03.06.581,perception_pilot,2022.2.4,Win32,16.15900461,,,,,1,1,3.7405,0,0,0,0,1,RUFOUS_KINGFISHER_1.jpg,BLACK_VENTED_SHEARWATER_2.jpg,BANDED_STILT_3.jpg,HORNED_SUNGEM_4.jpg,MAGPIE_GOOSE_3.jpg,1,3,2,1,1,0,,,,,,,,,,,,
,,,A18TJQ1OFMV8H2,30,male,8,2023-01-18_13h03.06.581,perception_pilot,2022.2.4,Win32,16.15900461,,,,,1,1,2.1897,0,1,1,1,1,LESSER_ADJUTANT_5.jpg,RED_HEADED_WOODPECKER_1.jpg,CASPIAN_TERN_2.jpg,GAMBELS_QUAIL_1.jpg,AMERICAN_GOLDFINCH_1.jpg,3,2,1,3,1,1,,,,,,,,,,,,
,,,A18TJQ1OFMV8H2,30,male,8,2023-01-18_13h03.06.581,perception_pilot,2022.2.4,Win32,16.15900461,,,,,2,1,1.6256,0,2,2,2,1,PARUS_MAJOR_1.jpg,COMMON_POORWILL_1.jpg,CALIFORNIA_GULL_2.jpg,OSTRICH_4.jpg,PINK_ROBIN_3.jpg,2,1,3,1,2,2,,,,,,,,,,,,
,,,A18TJQ1OFMV8H2,30,male,8,2023-01-18_13h03.06.581,perception_pilot,2022.2.4,Win32,16.15900461,,,,,2,1,1.2313,0,3,3,3,1,GYRFALCON_1.jpg,FAIRY_TERN_1.jpg,CINNAMON_ATTILA_2.jpg,YELLOW_HEADED_BLACKBIRD_3.jpg,ASHY_STORM_PETREL_2.jpg,2,3,1,3,2,3,,,,,,,,,,,,
,,,A18TJQ1OFMV8H2,30,male,8,2023-01-18_13h03.06.581,perception_pilot,2022.2.4,Win32,16.15900461,,,,,3,1,0.9975,0,4,4,4,1,RUBY_THROATED_HUMMINGBIRD_2.jpg,APAPANE_4.jpg,GOLDEN_PARAKEET_2.jpg,DUSKY_ROBIN_5.jpg,SCARLET_MACAW_3.jpg,1,3,2,2,3,4,,,,,,,,,,,,
,,,A18TJQ1OFMV8H2,30,male,8,2023-01-18_13h03.06.581,perception_pilot,2022.2.4,Win32,16.15900461,,,,,3,1,2.2182,0,5,5,5,1,right.png,right.png,right.png,up.png,left.png,,,,,3,5,,,,,,,,,,,,
,,,A18TJQ1OFMV8H2,30,male,8,2023-01-18_13h03.06.581,perception_pilot,2022.2.4,Win32,16.15900461,,,,,3,1,1.7215,0,6,6,6,1,NORTHERN_JACANA_3.jpg,BANANAQUIT_3.jpg,BAR-TAILED_GODWIT_3.jpg,REGENT_BOWERBIRD_5.jpg,BEARDED_BELLBIRD_3.jpg,3,2,1,1,3,6,,,,,,,,,,,,
,,,A18TJQ1OFMV8H2,30,male,8,2023-01-18_13h03.06.581,perception_pilot,2022.2.4,Win32,16.15900461,,,,,1,1,1.7238,0,7,7,7,1,OVENBIRD_5.jpg,FAIRY_PENGUIN_1.jpg,ABBOTTS_BOOBY_2.jpg,PURPLE_FINCH_5.jpg,JABIRU_4.jpg,2,3,1,2,1,7,,,,,,,,,,,,
,,,A18TJQ1OFMV8H2,30,male,8,2023-01-18_13h03.06.581,perception_pilot,2022.2.4,Win32,16.15900461,,,,,1,1,1.2291,0,8,8,8,1,EUROPEAN_TURTLE_DOVE_3.jpg,PAINTED_BUNTING_3.jpg,CAPE_GLOSSY_STARLING_1.jpg,TEAL_DUCK_2.jpg,MALABAR_HORNBILL_2.jpg,2,1,3,2,1,8,,,,,,,,,,,,
,,,A18TJQ1OFMV8H2,30,male,8,2023-01-18_13h03.06.581,perception_pilot,2022.2.4,Win32,16.15900461,,,,,2,1,1.3988,0,9,9,9,1,TREE_SWALLOW_4.jpg,RED_FODY_3.jpg,ROBIN_3.jpg,BORNEAN_LEAFBIRD_4.jpg,RED_HEADED_DUCK_5.jpg,2,3,1,3,2,9,,,,,,,,,,,,
,,,A18TJQ1OFMV8H2,30,male,8,2023-01-18_13h03.06.581,perception_pilot,2022.2.4,Win32,16.15900461,,,,,,,,,,,,,,,,,,,,,,,,space,2.5692,,,,,,,,,,
,,,A18TJQ1OFMV8H2,30,male,8,2023-01-18_13h03.06.581,perception_pilot,2022.2.4,Win32,16.15900461,,,,,,,,,,,,,ALPINE_CHOUGH_4.jpg,BOBOLINK_3.jpg,SNOWY_EGRET_2.jpg,EUROPEAN_GOLDFINCH_3.jpg,UMBRELLA_BIRD_1.jpg,1,2,3,3,3,0,,,1,0,1.949,0,0,0,0,1,,
,,,A18TJQ1OFMV8H2,30,male,8,2023-01-18_13h03.06.581,perception_pilot,2022.2.4,Win32,16.15900461,,,,,,,,,,,,,AFRICAN_PIED_HORNBILL_5.jpg,ALEXANDRINE_PARAKEET_1.jpg,KIWI_4.jpg,CAPUCHINBIRD_2.jpg,INDIAN_PITTA_2.jpg,1,3,2,2,3,1,,,3,1,0.9931,0,1,1,1,1,,
,,,A18TJQ1OFMV8H2,30,male,8,2023-01-18_13h03.06.581,perception_pilot,2022.2.4,Win32,16.15900461,,,,,,,,,,,,,CRESTED_CARACARA_4.jpg,TOUCHAN_4.jpg,BLUE_DACNIS_4.jpg,FAIRY_PENGUIN_5.jpg,CREAM_COLORED_WOODPECKER_1.jpg,2,1,3,3,3,2,,,2,0,0.9247,0,2,2,2,1,,
,,,A18TJQ1OFMV8H2,30,male,8,2023-01-18_13h03.06.581,perception_pilot,2022.2.4,Win32,16.15900461,,,,,,,,,,,,,left.png,left.png,right.png,up.png,left.png,,,,,1,3,,,1,1,0.9883,0,3,3,3,1,,
,,,A18TJQ1OFMV8H2,30,male,8,2023-01-18_13h03.06.581,perception_pilot,2022.2.4,Win32,16.15900461,,,,,,,,,,,,,TASMANIAN_HEN_5.jpg,AFRICAN_EMERALD_CUCKOO_5.jpg,BLACKBURNIAM_WARBLER_3.jpg,COPPERY_TAILED_COUCAL_1.jpg,BORNEAN_PHEASANT_2.jpg,1,3,2,2,3,4,,,2,0,2.0223,0,4,4,4,1,,
,,,A18TJQ1OFMV8H2,30,male,8,2023-01-18_13h03.06.581,perception_pilot,2022.2.4,Win32,16.15900461,,,,,,,,,,,,,MCKAYS_BUNTING_3.jpg,AMERICAN_GOLDFINCH_4.jpg,EMU_4.jpg,PALILA_5.jpg,IWI_2.jpg,1,3,2,3,2,5,,,1,0,1.7087,0,5,5,5,1,,
,,,A18TJQ1OFMV8H2,30,male,8,2023-01-18_13h03.06.581,perception_pilot,2022.2.4,Win32,16.15900461,,,,,,,,,,,,,DOUBLE_BRESTED_CORMARANT_5.jpg,CHINESE_POND_HERON_2.jpg,GILDED_FLICKER_2.jpg,EURASIAN_MAGPIE_4.jpg,ANHINGA_5.jpg,1,2,3,3,3,6,,,2,0,1.2869,0,6,6,6,1,,
,,,A18TJQ1OFMV8H2,30,male,8,2023-01-18_13h03.06.581,perception_pilot,2022.2.4,Win32,16.15900461,,,,,,,,,,,,,GOLDEN_CHEEKED_WARBLER_2.jpg,AMERICAN_FLAMINGO_3.jpg,SPOONBILL_1.jpg,GUINEAFOWL_3.jpg,WHITE_THROATED_BEE_EATER_1.jpg,1,2,3,2,2,7,,,2,1,1.3159,0,7,7,7,1,,
,,,A18TJQ1OFMV8H2,30,male,8,2023-01-18_13h03.06.581,perception_pilot,2022.2.4,Win32,16.15900461,,,,,,,,,,,,,GILA_WOODPECKER_3.jpg,BLACK_SWAN_3.jpg,EGYPTIAN_GOOSE_3.jpg,SNOWY_OWL_4.jpg,BLACK_VULTURE_3.jpg,1,2,3,1,1,8,,,1,1,1.0927,0,8,8,8,1,,
,,,A18TJQ1OFMV8H2,30,male,8,2023-01-18_13h03.06.581,perception_pilot,2022.2.4,Win32,16.15900461,,,,,,,,,,,,,IVORY_GULL_3.jpg,INDIGO_FLYCATCHER_2.jpg,FLAME_TANAGER_3.jpg,BUSH_TURKEY_1.jpg,SNOWY_EGRET_4.jpg,2,1,3,1,2,9,,,1,0,1.4063,0,9,9,9,1,,
,,,A18TJQ1OFMV8H2,30,male,8,2023-01-18_13h03.06.581,perception_pilot,2022.2.4,Win32,16.15900461,,,,,,,,,,,,,PINK_ROBIN_4.jpg,COMMON_IORA_4.jpg,ALBATROSS_4.jpg,SPOONBILL_3.jpg,GREEN_MAGPIE_3.jpg,2,1,3,3,3,10,,,2,0,1.404,0,10,10,10,1,,
,,,A18TJQ1OFMV8H2,30,male,8,2023-01-18_13h03.06.581,perception_pilot,2022.2.4,Win32,16.15900461,,,,,,,,,,,,,INCA_TERN_4.jpg,ELLIOTS__PHEASANT_4.jpg,SMITHS_LONGSPUR_5.jpg,SNOWY_OWL_5.jpg,BORNEAN_BRISTLEHEAD_5.jpg,2,1,3,1,2,11,,,3,0,1.983,0,11,11,11,1,,
,,,A18TJQ1OFMV8H2,30,male,8,2023-01-18_13h03.06.581,perception_pilot,2022.2.4,Win32,16.15900461,,,,,,,,,,,,,EASTERN_TOWEE_2.jpg,NORTHERN_BEARDLESS_TYRANNULET_5.jpg,HYACINTH_MACAW_4.jpg,GOLDEN_CHEEKED_WARBLER_1.jpg,SANDHILL_CRANE_2.jpg,2,3,1,3,2,12,,,1,0,2.994,0,12,12,12,1,,
,,,A18TJQ1OFMV8H2,30,male,8,2023-01-18_13h03.06.581,perception_pilot,2022.2.4,Win32,16.15900461,,,,,,,,,,,,,AMERICAN_PIPIT_5.jpg,HEPATIC_TANAGER_5.jpg,GREEN_MAGPIE_1.jpg,AMERICAN_GOLDFINCH_5.jpg,EMU_2.jpg,2,3,1,3,2,13,,,2,1,1.4808,0,13,13,13,1,,
,,,A18TJQ1OFMV8H2,30,male,8,2023-01-18_13h03.06.581,perception_pilot,2022.2.4,Win32,16.15900461,,,,,,,,,,,,,GOLDEN_CHLOROPHONIA_5.jpg,ROADRUNNER_2.jpg,COMMON_HOUSE_MARTIN_4.jpg,WHIMBREL_1.jpg,VERMILION_FLYCATHER_5.jpg,2,1,3,1,2,14,,,3,0,1.0733,0,14,14,14,1,,
,,,A18TJQ1OFMV8H2,30,male,8,2023-01-18_13h03.06.581,perception_pilot,2022.2.4,Win32,16.15900461,,,,,,,,,,,,,GREY_PLOVER_1.jpg,GOULDIAN_FINCH_4.jpg,HYACINTH_MACAW_3.jpg,BORNEAN_LEAFBIRD_2.jpg,AMETHYST_WOODSTAR_4.jpg,1,2,3,2,2,15,,,2,1,0.9068,0,15,15,15,1,,
,,,A18TJQ1OFMV8H2,30,male,8,2023-01-18_13h03.06.581,perception_pilot,2022.2.4,Win32,16.15900461,,,,,,,,,,,,,INLAND_DOTTEREL_4.jpg,JANDAYA_PARAKEET_5.jpg,CRESTED_KINGFISHER_1.jpg,CALIFORNIA_CONDOR_4.jpg,NICOBAR_PIGEON_4.jpg,3,1,2,1,2,16,,,1,0,0.941,0,16,16,16,1,,
,,,A18TJQ1OFMV8H2,30,male,8,2023-01-18_13h03.06.581,perception_pilot,2022.2.4,Win32,16.15900461,,,,,,,,,,,,,INDIGO_BUNTING_1.jpg,FRIGATE_4.jpg,POMARINE_JAEGER_5.jpg,DARWINS_FLYCATCHER_2.jpg,SNOWY_PLOVER_1.jpg,1,3,2,1,1,17,,,1,1,1.0175,0,17,17,17,1,,
,,,A18TJQ1OFMV8H2,30,male,8,2023-01-18_13h03.06.581,perception_pilot,2022.2.4,Win32,16.15900461,,,,,,,,,,,,,LARK_BUNTING_2.jpg,KING_VULTURE_3.jpg,CACTUS_WREN_3.jpg,EMU_3.jpg,CHARA_DE_COLLAR_4.jpg,3,1,2,2,3,18,,,2,0,0.9063,0,18,18,18,1,,
,,,A18TJQ1OFMV8H2,30,male,8,2023-01-18_13h03.06.581,perception_pilot,2022.2.4,Win32,16.15900461,,,,,,,,,,,,,FLAME_BOWERBIRD_3.jpg,INDIAN_BUSTARD_2.jpg,QUETZAL_3.jpg,BROWN_THRASHER_4.jpg,SPOON_BILED_SANDPIPER_5.jpg,3,2,1,1,3,19,,,2,0,2.5016,0,19,19,19,1,,
,,,A18TJQ1OFMV8H2,30,male,8,2023-01-18_13h03.06.581,perception_pilot,2022.2.4,Win32,16.15900461,,,,,,,,,,,,,SCARLET_TANAGER_2.jpg,CARMINE_BEE-EATER_1.jpg,BORNEAN_LEAFBIRD_1.jpg,LITTLE_AUK_3.jpg,BIRD_OF_PARADISE_3.jpg,3,2,1,1,3,20,,,1,0,0.407,0,20,20,20,1,,
,,,A18TJQ1OFMV8H2,30,male,8,2023-01-18_13h03.06.581,perception_pilot,2022.2.4,Win32,16.15900461,,,,,,,,,,,,,GRAY_KINGBIRD_5.jpg,AFRICAN_FIREFINCH_3.jpg,COCK_OF_THE__ROCK_4.jpg,BALD_EAGLE_2.jpg,EVENING_GROSBEAK_4.jpg,2,1,3,3,3,21,,,2,0,0.2987,0,21,21,21,1,,
,,,A18TJQ1OFMV8H2,30,male,8,2023-01-18_13h03.06.581,perception_pilot,2022.2.4,Win32,16.15900461,,,,,,,,,,,,,right.png,right.png,left.png,up.png,right.png,,,,,1,22,,,3,0,1.5827,0,22,22,22,1,,
,,,A18TJQ1OFMV8H2,30,male,8,2023-01-18_13h03.06.581,perception_pilot,2022.2.4,Win32,16.15900461,,,,,,,,,,,,,CASPIAN_TERN_1.jpg,COMMON_LOON_2.jpg,EUROPEAN_GOLDFINCH_4.jpg,MASKED_BOOBY_1.jpg,BRANDT_CORMARANT_4.jpg,2,3,1,3,2,23,,,1,0,1.9042,0,23,23,23,1,,
,,,A18TJQ1OFMV8H2,30,male,8,2023-01-18_13h03.06.581,perception_pilot,2022.2.4,Win32,16.15900461,,,,,,,,,,,,,VERMILION_FLYCATHER_3.jpg,INDIAN_BUSTARD_1.jpg,RED_BEARDED_BEE_EATER_1.jpg,CROWNED_PIGEON_1.jpg,SATYR_TRAGOPAN_1.jpg,3,2,1,1,3,24,,,2,0,1.2832,0,24,24,24,1,,
,,,A18TJQ1OFMV8H2,30,male,8,2023-01-18_13h03.06.581,perception_pilot,2022.2.4,Win32,16.15900461,,,,,,,,,,,,,CASSOWARY_1.jpg,SCARLET_MACAW_1.jpg,DEMOISELLE_CRANE_1.jpg,ROSY_FACED_LOVEBIRD_4.jpg,EASTERN_ROSELLA_2.jpg,3,1,2,2,3,25,,,1,0,1.2182,0,25,25,25,1,,
,,,A18TJQ1OFMV8H2,30,male,8,2023-01-18_13h03.06.581,perception_pilot,2022.2.4,Win32,16.15900461,,,,,,,,,,,,,OCELLATED_TURKEY_1.jpg,LARK_BUNTING_1.jpg,CHIPPING_SPARROW_1.jpg,AMERICAN_KESTREL_2.jpg,PURPLE_SWAMPHEN_4.jpg,1,2,3,2,2,26,,,2,1,1.0149,0,26,26,26,1,,
,,,A18TJQ1OFMV8H2,30,male,8,2023-01-18_13h03.06.581,perception_pilot,2022.2.4,Win32,16.15900461,,,,,,,,,,,,,CRESTED_NUTHATCH_2.jpg,CANARY_1.jpg,AFRICAN_FIREFINCH_1.jpg,VERMILION_FLYCATHER_4.jpg,SCARLET_IBIS_3.jpg,2,3,1,3,2,27,,,1,0,0.6993,0,27,27,27,1,,
,,,A18TJQ1OFMV8H2,30,male,8,2023-01-18_13h03.06.581,perception_pilot,2022.2.4,Win32,16.15900461,,,,,,,,,,,,,PEACOCK_3.jpg,ANIANIAU_2.jpg,IBERIAN_MAGPIE_2.jpg,ANDEAN_SISKIN_5.jpg,STRAWBERRY_FINCH_4.jpg,3,1,2,1,2,28,,,2,1,0.9189,0,28,28,28,1,,
,,,A18TJQ1OFMV8H2,30,male,8,2023-01-18_13h03.06.581,perception_pilot,2022.2.4,Win32,16.15900461,,,,,,,,,,,,,BROWN_NOODY_3.jpg,GUINEA_TURACO_5.jpg,SPANGLED_COTINGA_4.jpg,KIWI_2.jpg,UMBRELLA_BIRD_4.jpg,2,1,3,3,3,29,,,2,0,0.6097,0,29,29,29,1,,
,,,A18TJQ1OFMV8H2,30,male,8,2023-01-18_13h03.06.581,perception_pilot,2022.2.4,Win32,16.15900461,,,,,,,,,,,,,SHOEBILL_3.jpg,GILDED_FLICKER_5.jpg,BALD_EAGLE_5.jpg,MALAGASY_WHITE_EYE_3.jpg,IWI_1.jpg,3,1,2,2,3,30,,,1,0,0.1966,0,30,30,30,1,,
,,,A18TJQ1OFMV8H2,30,male,8,2023-01-18_13h03.06.581,perception_pilot,2022.2.4,Win32,16.15900461,,,,,,,,,,,,,MAGPIE_GOOSE_5.jpg,HAMERKOP_1.jpg,LILAC_ROLLER_2.jpg,DOUBLE_EYED_FIG_PARROT_5.jpg,OYSTER_CATCHER_3.jpg,2,1,3,2,1,31,,,1,1,1.854,0,31,31,31,1,,
,,,A18TJQ1OFMV8H2,30,male,8,2023-01-18_13h03.06.581,perception_pilot,2022.2.4,Win32,16.15900461,,,,,,,,,,,,,MYNA_1.jpg,GREY_PLOVER_4.jpg,SANDHILL_CRANE_4.jpg,PARADISE_TANAGER_3.jpg,GRAY_PARTRIDGE_5.jpg,1,3,2,2,3,32,,,2,0,1.2987,0,32,32,32,1,,
,,,A18TJQ1OFMV8H2,30,male,8,2023-01-18_13h03.06.581,perception_pilot,2022.2.4,Win32,16.15900461,,,,,,,,,,,,,ASIAN_CRESTED_IBIS_4.jpg,CANARY_2.jpg,IVORY_GULL_2.jpg,OYSTER_CATCHER_2.jpg,GREAT_JACAMAR_4.jpg,3,2,1,1,3,33,,,1,0,1.9687,0,33,33,33,1,,
,,,A18TJQ1OFMV8H2,30,male,8,2023-01-18_13h03.06.581,perception_pilot,2022.2.4,Win32,16.15900461,,,,,,,,,,,,,NORTHERN_JACANA_2.jpg,VULTURINE_GUINEAFOWL_5.jpg,RED_FACED_CORMORANT_1.jpg,CRAB_PLOVER_3.jpg,GREEN_BROADBILL_1.jpg,3,2,1,2,2,34,,,2,1,1.0094,0,34,34,34,1,,
,,,A18TJQ1OFMV8H2,30,male,8,2023-01-18_13h03.06.581,perception_pilot,2022.2.4,Win32,16.15900461,,,,,,,,,,,,,ASIAN_DOLLARD_BIRD_2.jpg,VIOLET_GREEN_SWALLOW_4.jpg,HAWAIIAN_GOOSE_1.jpg,VERMILION_FLYCATHER_1.jpg,ALBATROSS_2.jpg,2,3,1,3,2,35,,,2,1,3.8823,0,35,35,35,1,,
,,,A18TJQ1OFMV8H2,30,male,8,2023-01-18_13h03.06.581,perception_pilot,2022.2.4,Win32,16.15900461,,,,,,,,,,,,,left.png,left.png,up.png,right.png,left.png,,,,,2,36,,,1,0,1.4151,0,36,36,36,1,,
,,,A18TJQ1OFMV8H2,30,male,8,2023-01-18_13h03.06.581,perception_pilot,2022.2.4,Win32,16.15900461,,,,,,,,,,,,,NICOBAR_PIGEON_1.jpg,MYNA_4.jpg,EASTERN_BLUEBIRD_3.jpg,NORTHERN_MOCKINGBIRD_4.jpg,LITTLE_AUK_1.jpg,3,1,2,1,2,37,,,2,1,0.9161,0,37,37,37,1,,
,,,A18TJQ1OFMV8H2,30,male,8,2023-01-18_13h03.06.581,perception_pilot,2022.2.4,Win32,16.15900461,,,,,,,,,,,,,NORTHERN_GANNET_2.jpg,STRAWBERRY_FINCH_1.jpg,PAINTED_BUNTING_5.jpg,VENEZUELIAN_TROUPIAL_1.jpg,MASKED_BOOBY_5.jpg,1,2,3,2,2,38,,,3,0,1.2679,0,38,38,38,1,,
,,,A18TJQ1OFMV8H2,30,male,8,2023-01-18_13h03.06.581,perception_pilot,2022.2.4,Win32,16.15900461,,,,,,,,,,,,,left.png,left.png,up.png,left.png,right.png,,,,,3,39,,,2,0,0.5344,0,39,39,39,1,,
,,,A18TJQ1OFMV8H2,30,male,8,2023-01-18_13h03.06.581,perception_pilot,2022.2.4,Win32,16.15900461,,,,,,,,,,,,,SPLENDID_WREN_1.jpg,CUBAN_TODY_4.jpg,CRESTED_KINGFISHER_4.jpg,DOUBLE_BRESTED_CORMARANT_1.jpg,PARAKETT__AKULET_3.jpg,3,2,1,3,1,40,,,1,1,0.6948,0,40,40,40,1,,
,,,A18TJQ1OFMV8H2,30,male,8,2023-01-18_13h03.06.581,perception_pilot,2022.2.4,Win32,16.15900461,,,,,,,,,,,,,RUBY_THROATED_HUMMINGBIRD_3.jpg,WHITE_CHEEKED_TURACO_4.jpg,NORTHERN_SHOVELER_1.jpg,MALABAR_HORNBILL_5.jpg,MYNA_5.jpg,3,1,2,1,2,41,,,2,1,0.869,0,41,41,41,1,,
,,,A18TJQ1OFMV8H2,30,male,8,2023-01-18_13h03.06.581,perception_pilot,2022.2.4,Win32,16.15900461,,,,,,,,,,,,,ECUADORIAN_HILLSTAR_5.jpg,SCARLET_IBIS_2.jpg,AMERICAN_FLAMINGO_1.jpg,CRIMSON_SUNBIRD_5.jpg,BOBOLINK_5.jpg,1,3,2,1,1,42,,,3,0,0.2974,0,42,42,42,1,,
,,,A18TJQ1OFMV8H2,30,male,8,2023-01-18_13h03.06.581,perception_pilot,2022.2.4,Win32,16.15900461,,,,,,,,,,,,,WHITE_CHEEKED_TURACO_5.jpg,SNOWY_EGRET_1.jpg,PYGMY_KINGFISHER_2.jpg,CHINESE_POND_HERON_1.jpg,ORIENTAL_BAY_OWL_5.jpg,3,1,2,2,3,43,,,2,0,0.9565,0,43,43,43,1,,
,,,A18TJQ1OFMV8H2,30,male,8,2023-01-18_13h03.06.581,perception_pilot,2022.2.4,Win32,16.15900461,,,,,,,,,,,,,RED_FACED_WARBLER_1.jpg,EMU_5.jpg,SPOONBILL_4.jpg,BLACK_VENTED_SHEARWATER_4.jpg,CAPE_GLOSSY_STARLING_2.jpg,1,2,3,1,1,44,,,1,1,1.6365,0,44,44,44,1,,
,,,A18TJQ1OFMV8H2,30,male,8,2023-01-18_13h03.06.581,perception_pilot,2022.2.4,Win32,16.15900461,,,,,,,,,,,,,STRIPPED_SWALLOW_1.jpg,MAGPIE_GOOSE_4.jpg,ANDEAN_GOOSE_1.jpg,EMPEROR_PENGUIN_5.jpg,GO_AWAY_BIRD_5.jpg,2,1,3,2,1,45,,,2,0,1.0526,0,45,45,45,1,,
,,,A18TJQ1OFMV8H2,30,male,8,2023-01-18_13h03.06.581,perception_pilot,2022.2.4,Win32,16.15900461,,,,,,,,,,,,,LITTLE_AUK_5.jpg,BEARDED_BELLBIRD_1.jpg,DOWNY_WOODPECKER_1.jpg,SANDHILL_CRANE_3.jpg,ORANGE_BRESTED_BUNTING_3.jpg,3,1,2,3,1,46,,,3,0,0.4276,0,46,46,46,1,,
,,,A18TJQ1OFMV8H2,30,male,8,2023-01-18_13h03.06.581,perception_pilot,2022.2.4,Win32,16.15900461,,,,,,,,,,,,,HAWAIIAN_GOOSE_4.jpg,HIMALAYAN_MONAL_2.jpg,RED_BEARDED_BEE_EATER_3.jpg,WATTLED_LAPWING_3.jpg,NORTHERN_GANNET_1.jpg,1,3,2,2,3,47,,,2,0,1.1082,0,47,47,47,1,,
,,,A18TJQ1OFMV8H2,30,male,8,2023-01-18_13h03.06.581,perception_pilot,2022.2.4,Win32,16.15900461,,,,,,,,,,,,,ARARIPE_MANAKIN_4.jpg,BORNEAN_LEAFBIRD_3.jpg,BLACK_VULTURE_1.jpg,GUINEA_TURACO_3.jpg,KIWI_3.jpg,2,3,1,3,2,48,,,1,0,1.5683,0,48,48,48,1,,
,,,A18TJQ1OFMV8H2,30,male,8,2023-01-18_13h03.06.581,perception_pilot,2022.2.4,Win32,16.15900461,,,,,,,,,,,,,KAGU_5.jpg,IMPERIAL_SHAQ_2.jpg,ASHY_STORM_PETREL_1.jpg,VICTORIA_CROWNED_PIGEON_5.jpg,EASTERN_MEADOWLARK_1.jpg,2,3,1,3,2,49,,,2,1,1.5068,0,49,49,49,1,,
,,,A18TJQ1OFMV8H2,30,male,8,2023-01-18_13h03.06.581,perception_pilot,2022.2.4,Win32,16.15900461,,,,,,,,,,,,,RED_HEADED_WOODPECKER_5.jpg,COLLARED_ARACARI_1.jpg,GREAT_GRAY_OWL_5.jpg,CRIMSON_CHAT_3.jpg,BLACKBURNIAM_WARBLER_4.jpg,1,2,3,3,3,50,,,3,1,1.1299,0,50,50,50,1,,
,,,A18TJQ1OFMV8H2,30,male,8,2023-01-18_13h03.06.581,perception_pilot,2022.2.4,Win32,16.15900461,,,,,,,,,,,,,BROWN_THRASHER_3.jpg,OYSTER_CATCHER_4.jpg,RED_HEADED_WOODPECKER_2.jpg,DOUBLE_EYED_FIG_PARROT_3.jpg,BLACK_BAZA_4.jpg,2,1,3,2,1,51,,,1,1,3.5844,0,51,51,51,1,,
,,,A18TJQ1OFMV8H2,30,male,8,2023-01-18_13h03.06.581,perception_pilot,2022.2.4,Win32,16.15900461,,,,,,,,,,,,,CERULEAN_WARBLER_1.jpg,BANANAQUIT_1.jpg,CRESTED_OROPENDOLA_5.jpg,AMERICAN_FLAMINGO_5.jpg,ORIENTAL_BAY_OWL_1.jpg,3,2,1,3,1,52,,,2,0,1.8546,0,52,52,52,1,,
,,,A18TJQ1OFMV8H2,30,male,8,2023-01-18_13h03.06.581,perception_pilot,2022.2.4,Win32,16.15900461,,,,,,,,,,,,,IVORY_GULL_1.jpg,EASTERN_GOLDEN_WEAVER_5.jpg,RED_FODY_1.jpg,FAIRY_TERN_4.jpg,WILSONS_BIRD_OF_PARADISE_4.jpg,2,3,1,2,1,53,,,3,0,1.0552,0,53,53,53,1,,
,,,A18TJQ1OFMV8H2,30,male,8,2023-01-18_13h03.06.581,perception_pilot,2022.2.4,Win32,16.15900461,,,,,,,,,,,,,SKUA_4.jpg,SNOWY_EGRET_5.jpg,ROADRUNNER_5.jpg,PARUS_MAJOR_2.jpg,BLACK-NECKED_GREBE_3.jpg,3,2,1,1,3,54,,,1,0,1.0287,0,54,54,54,1,,
,,,A18TJQ1OFMV8H2,30,male,8,2023-01-18_13h03.06.581,perception_pilot,2022.2.4,Win32,16.15900461,,,,,,,,,,,,,LESSER_ADJUTANT_4.jpg,FAIRY_TERN_3.jpg,CRAB_PLOVER_4.jpg,ALTAMIRA_YELLOWTHROAT_5.jpg,RAINBOW_LORIKEET_5.jpg,3,1,2,3,1,55,,,2,0,1.3317,0,55,55,55,1,,
,,,A18TJQ1OFMV8H2,30,male,8,2023-01-18_13h03.06.581,perception_pilot,2022.2.4,Win32,16.15900461,,,,,,,,,,,,,BREWERS_BLACKBIRD_3.jpg,GOLDEN_CHEEKED_WARBLER_3.jpg,PEACOCK_4.jpg,AMERICAN_AVOCET_5.jpg,CAPE_LONGCLAW_2.jpg,1,2,3,2,2,56,,,1,0,1.2197,0,56,56,56,1,,
,,,A18TJQ1OFMV8H2,30,male,8,2023-01-18_13h03.06.581,perception_pilot,2022.2.4,Win32,16.15900461,,,,,,,,,,,,,KILLDEAR_2.jpg,CAATINGA_CACHOLOTE_4.jpg,ALEXANDRINE_PARAKEET_5.jpg,CHATTERING_LORY_1.jpg,AZURE_TIT_5.jpg,1,2,3,2,2,57,,,3,0,0.9911,0,57,57,57,1,,
,,,A18TJQ1OFMV8H2,30,male,8,2023-01-18_13h03.06.581,perception_pilot,2022.2.4,Win32,16.15900461,,,,,,,,,,,,,BARRED_PUFFBIRD_3.jpg,WHITE_CHEEKED_TURACO_2.jpg,VEERY_4.jpg,NORTHERN_CARDINAL_5.jpg,CUBAN_TODY_3.jpg,3,2,1,1,3,58,,,2,0,0.9383,0,58,58,58,1,,
,,,A18TJQ1OFMV8H2,30,male,8,2023-01-18_13h03.06.581,perception_pilot,2022.2.4,Win32,16.15900461,,,,,,,,,,,,,CHUKAR_PARTRIDGE_5.jpg,OSTRICH_3.jpg,RAZORBILL_1.jpg,EMU_1.jpg,BLACK_THROATED_BUSHTIT_1.jpg,2,1,3,1,2,59,,,1,0,1.4168,0,59,59,59,1,,
,,,A18TJQ1OFMV8H2,30,male,8,2023-01-18_13h03.06.581,perception_pilot,2022.2.4,Win32,16.15900461,,,,,,,,,,,,,left.png,left.png,left.png,right.png,up.png,,,,,2,60,,,1,0,1.935,0,60,60,60,1,,
,,,A18TJQ1OFMV8H2,30,male,8,2023-01-18_13h03.06.581,perception_pilot,2022.2.4,Win32,16.15900461,,,,,,,,,,,,,MALACHITE_KINGFISHER_2.jpg,SKUA_3.jpg,GREEN_BROADBILL_5.jpg,GANG_GANG_COCKATOO_4.jpg,INCA_TERN_2.jpg,3,1,2,1,2,61,,,2,1,0.9195,0,61,61,61,1,,
,,,A18TJQ1OFMV8H2,30,male,8,2023-01-18_13h03.06.581,perception_pilot,2022.2.4,Win32,16.15900461,,,,,,,,,,,,,RUBY_THROATED_HUMMINGBIRD_1.jpg,VULTURINE_GUINEAFOWL_4.jpg,FRIGATE_1.jpg,BEARDED_REEDLING_3.jpg,EURASIAN_GOLDEN_ORIOLE_5.jpg,3,2,1,2,2,62,,,3,0,1.3115,0,62,62,62,1,,
,,,A18TJQ1OFMV8H2,30,male,8,2023-01-18_13h03.06.581,perception_pilot,2022.2.4,Win32,16.15900461,,,,,,,,,,,,,PYGMY_KINGFISHER_5.jpg,NORTHERN_PARULA_5.jpg,BLUE_THROATED_TOUCANET_3.jpg,GRANDALA_2.jpg,GREAT_POTOO_3.jpg,3,1,2,3,1,63,,,2,0,2.1269,0,63,63,63,1,,
,,,A18TJQ1OFMV8H2,30,male,8,2023-01-18_13h03.06.581,perception_pilot,2022.2.4,Win32,16.15900461,,,,,,,,,,,,,BALI_STARLING_1.jpg,CAPE_LONGCLAW_5.jpg,PURPLE_FINCH_2.jpg,OSTRICH_5.jpg,IBERIAN_MAGPIE_1.jpg,2,1,3,1,2,64,,,1,0,1.4353,0,64,64,64,1,,
,,,A18TJQ1OFMV8H2,30,male,8,2023-01-18_13h03.06.581,perception_pilot,2022.2.4,Win32,16.15900461,,,,,,,,,,,,,,,,,,,,,,,,,,,,,,,,,,space,27.1373
