button.numClicks,button.timesOn,button.timesOff,workID,Age,Gender,Hours slept (last night),date,expName,psychopyVersion,OS,frameRate,key_resp_13.keys,key_resp_13.rt,key_resp_14.keys,key_resp_14.rt,key_resp_3.keys,key_resp_3.corr,key_resp_3.rt,demo_loop.thisRepN,demo_loop.thisTrialN,demo_loop.thisN,demo_loop.thisIndex,demo_loop.ran,target_image,target_match,option1,option2,option3,option1_layer,option2_layer,option3_layer,match_layer,correct_answer,trial_num,key_resp_15.keys,key_resp_15.rt,key_resp.keys,key_resp.corr,key_resp.rt,trials.thisRepN,trials.thisTrialN,trials.thisN,trials.thisIndex,trials.ran,key_resp_end_2.keys,key_resp_end_2.rt
1,[32.43319999998806],[32.43330000001191],A1G50D7L1GGZRU,33,malr,8,2023-01-18_14h03.12.231,perception_pilot,2022.2.4,Win32,9.748298922,,,,,,,,,,,,,,,,,,,,,,,,,,,,,,,,,,,
,,,A1G50D7L1GGZRU,33,malr,8,2023-01-18_14h03.12.231,perception_pilot,2022.2.4,Win32,9.748298922,space,16.2366,,,,,,,,,,,,,,,,,,,,,,,,,,,,,,,,,
,,,A1G50D7L1GGZRU,33,malr,8,2023-01-18_14h03.12.231,perception_pilot,2022.2.4,Win32,9.748298922,,,space,15.5366,,,,,,,,,,,,,,,,,,,,,,,,,,,,,,,
,,,A1G50D7L1GGZRU,33,malr,8,2023-01-18_14h03.12.231,perception_pilot,2022.2.4,Win32,9.748298922,,,,,,,,,,,,,,,,,,,,,,,,,,,,,,,,,,,
,,,A1G50D7L1GGZRU,33,malr,8,2023-01-18_14h03.12.231,perception_pilot,2022.2.4,Win32,9.748298922,,,,,3,1,7.5533,0,0,0,0,1,PINK_ROBIN_4.jpg,COMMON_IORA_4.jpg,SPOONBILL_3.jpg,ALBATROSS_4.jpg,GREEN_MAGPIE_3.jpg,1,2,3,3,3,0,,,,,,,,,,,,
,,,A1G50D7L1GGZRU,33,malr,8,2023-01-18_14h03.12.231,perception_pilot,2022.2.4,Win32,9.748298922,,,,,2,1,7.2302,0,1,1,1,1,IVORY_GULL_3.jpg,SNOWY_EGRET_4.jpg,INDIGO_FLYCATCHER_2.jpg,FAN_TAILED_WIDOW_1.jpg,FLAME_TANAGER_3.jpg,1,3,2,3,2,1,,,,,,,,,,,,
,,,A1G50D7L1GGZRU,33,malr,8,2023-01-18_14h03.12.231,perception_pilot,2022.2.4,Win32,9.748298922,,,,,1,1,6.5761,0,2,2,2,1,left.png,left.png,right.png,left.png,up.png,,,,,1,2,,,,,,,,,,,,
,,,A1G50D7L1GGZRU,33,malr,8,2023-01-18_14h03.12.231,perception_pilot,2022.2.4,Win32,9.748298922,,,,,1,0,8.7732,0,3,3,3,1,RUBY_THROATED_HUMMINGBIRD_3.jpg,MYNA_5.jpg,NORTHERN_SHOVELER_1.jpg,GOLDEN_EAGLE_2.jpg,WHITE_CHEEKED_TURACO_4.jpg,3,2,1,2,2,3,,,,,,,,,,,,
,,,A1G50D7L1GGZRU,33,malr,8,2023-01-18_14h03.12.231,perception_pilot,2022.2.4,Win32,9.748298922,,,,,1,0,5.1619,0,4,4,4,1,LESSER_ADJUTANT_4.jpg,ALTAMIRA_YELLOWTHROAT_5.jpg,FAIRY_TERN_3.jpg,RAINBOW_LORIKEET_5.jpg,DOUBLE_EYED_FIG_PARROT_4.jpg,3,2,1,1,3,4,,,,,,,,,,,,
,,,A1G50D7L1GGZRU,33,malr,8,2023-01-18_14h03.12.231,perception_pilot,2022.2.4,Win32,9.748298922,,,,,1,0,3.3754,0,5,5,5,1,BARRED_PUFFBIRD_3.jpg,NORTHERN_CARDINAL_5.jpg,VEERY_4.jpg,CAPPED_HERON_5.jpg,WHITE_CHEEKED_TURACO_2.jpg,3,2,1,2,2,5,,,,,,,,,,,,
,,,A1G50D7L1GGZRU,33,malr,8,2023-01-18_14h03.12.231,perception_pilot,2022.2.4,Win32,9.748298922,,,,,1,0,5.384,0,6,6,6,1,NORTHERN_GANNET_2.jpg,PAINTED_BUNTING_5.jpg,MASKED_BOOBY_5.jpg,EASTERN_TOWEE_1.jpg,STRAWBERRY_FINCH_1.jpg,3,1,2,1,2,6,,,,,,,,,,,,
,,,A1G50D7L1GGZRU,33,malr,8,2023-01-18_14h03.12.231,perception_pilot,2022.2.4,Win32,9.748298922,,,,,2,1,2.5645,0,7,7,7,1,OCELLATED_TURKEY_1.jpg,LARK_BUNTING_1.jpg,CHIPPING_SPARROW_1.jpg,AMERICAN_KESTREL_2.jpg,PURPLE_SWAMPHEN_4.jpg,1,2,3,2,2,7,,,,,,,,,,,,
,,,A1G50D7L1GGZRU,33,malr,8,2023-01-18_14h03.12.231,perception_pilot,2022.2.4,Win32,9.748298922,,,,,2,0,3.0456,0,8,8,8,1,FLAME_BOWERBIRD_3.jpg,INDIAN_BUSTARD_2.jpg,SPOON_BILED_SANDPIPER_5.jpg,BROWN_THRASHER_4.jpg,QUETZAL_3.jpg,1,2,3,1,1,8,,,,,,,,,,,,
,,,A1G50D7L1GGZRU,33,malr,8,2023-01-18_14h03.12.231,perception_pilot,2022.2.4,Win32,9.748298922,,,,,3,0,5.745,0,9,9,9,1,GYRFALCON_1.jpg,FAIRY_TERN_1.jpg,YELLOW_HEADED_BLACKBIRD_3.jpg,ASHY_STORM_PETREL_2.jpg,CINNAMON_ATTILA_2.jpg,3,1,2,3,1,9,,,,,,,,,,,,
,,,A1G50D7L1GGZRU,33,malr,8,2023-01-18_14h03.12.231,perception_pilot,2022.2.4,Win32,9.748298922,,,,,,,,,,,,,,,,,,,,,,,,space,2.7793,,,,,,,,,,
,,,A1G50D7L1GGZRU,33,malr,8,2023-01-18_14h03.12.231,perception_pilot,2022.2.4,Win32,9.748298922,,,,,,,,,,,,,RUFOUS_KINGFISHER_1.jpg,HORNED_SUNGEM_4.jpg,BLACK_VENTED_SHEARWATER_2.jpg,MAGPIE_GOOSE_3.jpg,GREEN_JAY_4.jpg,1,2,3,3,3,0,,,1,0,3.9978,0,0,0,0,1,,
,,,A1G50D7L1GGZRU,33,malr,8,2023-01-18_14h03.12.231,perception_pilot,2022.2.4,Win32,9.748298922,,,,,,,,,,,,,STRIPPED_SWALLOW_1.jpg,EMPEROR_PENGUIN_5.jpg,GO_AWAY_BIRD_5.jpg,MAGPIE_GOOSE_4.jpg,BRANDT_CORMARANT_3.jpg,3,2,1,1,3,1,,,3,1,3.3292,0,1,1,1,1,,
,,,A1G50D7L1GGZRU,33,malr,8,2023-01-18_14h03.12.231,perception_pilot,2022.2.4,Win32,9.748298922,,,,,,,,,,,,,AFRICAN_PIED_HORNBILL_5.jpg,KIWI_4.jpg,CAPUCHINBIRD_2.jpg,BORNEAN_PHEASANT_4.jpg,ALEXANDRINE_PARAKEET_1.jpg,3,1,2,1,2,2,,,2,1,1.4788,0,2,2,2,1,,
,,,A1G50D7L1GGZRU,33,malr,8,2023-01-18_14h03.12.231,perception_pilot,2022.2.4,Win32,9.748298922,,,,,,,,,,,,,RED_FACED_WARBLER_1.jpg,CAPE_GLOSSY_STARLING_2.jpg,EMU_5.jpg,CRESTED_OROPENDOLA_4.jpg,BLACK_VENTED_SHEARWATER_4.jpg,1,3,2,3,2,3,,,1,0,1.3864,0,3,3,3,1,,
,,,A1G50D7L1GGZRU,33,malr,8,2023-01-18_14h03.12.231,perception_pilot,2022.2.4,Win32,9.748298922,,,,,,,,,,,,,CHUKAR_PARTRIDGE_5.jpg,RAZORBILL_1.jpg,OSTRICH_3.jpg,ASIAN_DOLLARD_BIRD_4.jpg,BLACK_THROATED_BUSHTIT_1.jpg,1,2,3,2,2,4,,,3,0,1.228,0,4,4,4,1,,
,,,A1G50D7L1GGZRU,33,malr,8,2023-01-18_14h03.12.231,perception_pilot,2022.2.4,Win32,9.748298922,,,,,,,,,,,,,KAGU_5.jpg,ASHY_STORM_PETREL_1.jpg,MANDRIN_DUCK_4.jpg,IMPERIAL_SHAQ_2.jpg,EASTERN_MEADOWLARK_1.jpg,2,3,1,2,1,5,,,2,0,0.9489,0,5,5,5,1,,
,,,A1G50D7L1GGZRU,33,malr,8,2023-01-18_14h03.12.231,perception_pilot,2022.2.4,Win32,9.748298922,,,,,,,,,,,,,INLAND_DOTTEREL_4.jpg,JANDAYA_PARAKEET_5.jpg,CALIFORNIA_CONDOR_4.jpg,CRESTED_KINGFISHER_1.jpg,NICOBAR_PIGEON_4.jpg,1,3,2,1,1,6,,,1,1,0.8282,0,6,6,6,1,,
,,,A1G50D7L1GGZRU,33,malr,8,2023-01-18_14h03.12.231,perception_pilot,2022.2.4,Win32,9.748298922,,,,,,,,,,,,,RUBY_THROATED_HUMMINGBIRD_2.jpg,GOLDEN_PARAKEET_2.jpg,APAPANE_4.jpg,GREEN_JAY_2.jpg,DUSKY_ROBIN_5.jpg,2,1,3,1,2,7,,,2,1,1.0293,0,7,7,7,1,,
,,,A1G50D7L1GGZRU,33,malr,8,2023-01-18_14h03.12.231,perception_pilot,2022.2.4,Win32,9.748298922,,,,,,,,,,,,,left.png,left.png,up.png,left.png,right.png,,,,,3,8,,,3,1,1.153,0,8,8,8,1,,
,,,A1G50D7L1GGZRU,33,malr,8,2023-01-18_14h03.12.231,perception_pilot,2022.2.4,Win32,9.748298922,,,,,,,,,,,,,right.png,right.png,up.png,left.png,right.png,,,,,2,9,,,3,0,2.5181,0,9,9,9,1,,
,,,A1G50D7L1GGZRU,33,malr,8,2023-01-18_14h03.12.231,perception_pilot,2022.2.4,Win32,9.748298922,,,,,,,,,,,,,INCA_TERN_4.jpg,SMITHS_LONGSPUR_5.jpg,ELLIOTS__PHEASANT_4.jpg,FASCIATED_WREN_4.jpg,BORNEAN_BRISTLEHEAD_5.jpg,1,2,3,2,2,10,,,2,1,1.5786,0,10,10,10,1,,
,,,A1G50D7L1GGZRU,33,malr,8,2023-01-18_14h03.12.231,perception_pilot,2022.2.4,Win32,9.748298922,,,,,,,,,,,,,GOLDEN_CHEEKED_WARBLER_2.jpg,WHITE_THROATED_BEE_EATER_1.jpg,SPOONBILL_1.jpg,DARJEELING_WOODPECKER_1.jpg,AMERICAN_FLAMINGO_3.jpg,1,3,2,3,2,11,,,1,0,1.0736,0,11,11,11,1,,
,,,A1G50D7L1GGZRU,33,malr,8,2023-01-18_14h03.12.231,perception_pilot,2022.2.4,Win32,9.748298922,,,,,,,,,,,,,ALPINE_CHOUGH_4.jpg,BOBOLINK_3.jpg,UMBRELLA_BIRD_1.jpg,EUROPEAN_GOLDFINCH_3.jpg,SNOWY_EGRET_2.jpg,3,2,1,3,1,12,,,2,0,0.9665,0,12,12,12,1,,
,,,A1G50D7L1GGZRU,33,malr,8,2023-01-18_14h03.12.231,perception_pilot,2022.2.4,Win32,9.748298922,,,,,,,,,,,,,KILLDEAR_2.jpg,CAATINGA_CACHOLOTE_4.jpg,ALEXANDRINE_PARAKEET_5.jpg,CHATTERING_LORY_1.jpg,AZURE_TIT_5.jpg,1,2,3,2,2,13,,,2,1,0.9118,0,13,13,13,1,,
,,,A1G50D7L1GGZRU,33,malr,8,2023-01-18_14h03.12.231,perception_pilot,2022.2.4,Win32,9.748298922,,,,,,,,,,,,,MAGPIE_GOOSE_5.jpg,OYSTER_CATCHER_3.jpg,WOOD_DUCK_5.jpg,HAMERKOP_1.jpg,DOUBLE_EYED_FIG_PARROT_5.jpg,3,2,1,3,1,14,,,1,1,0.9361,0,14,14,14,1,,
,,,A1G50D7L1GGZRU,33,malr,8,2023-01-18_14h03.12.231,perception_pilot,2022.2.4,Win32,9.748298922,,,,,,,,,,,,,SHOEBILL_3.jpg,GILDED_FLICKER_5.jpg,BALD_EAGLE_5.jpg,IWI_1.jpg,MALAGASY_WHITE_EYE_3.jpg,3,2,1,2,2,15,,,3,0,2.2023,0,15,15,15,1,,
,,,A1G50D7L1GGZRU,33,malr,8,2023-01-18_14h03.12.231,perception_pilot,2022.2.4,Win32,9.748298922,,,,,,,,,,,,,ASIAN_CRESTED_IBIS_4.jpg,IVORY_GULL_2.jpg,OYSTER_CATCHER_2.jpg,CASPIAN_TERN_4.jpg,CANARY_2.jpg,2,3,1,3,2,16,,,1,0,2.5127,0,16,16,16,1,,
,,,A1G50D7L1GGZRU,33,malr,8,2023-01-18_14h03.12.231,perception_pilot,2022.2.4,Win32,9.748298922,,,,,,,,,,,,,CERULEAN_WARBLER_1.jpg,BANANAQUIT_1.jpg,AMERICAN_FLAMINGO_5.jpg,CRESTED_OROPENDOLA_5.jpg,ORIENTAL_BAY_OWL_1.jpg,2,3,1,3,2,17,,,2,1,5.4241,0,17,17,17,1,,
,,,A1G50D7L1GGZRU,33,malr,8,2023-01-18_14h03.12.231,perception_pilot,2022.2.4,Win32,9.748298922,,,,,,,,,,,,,INDIGO_BUNTING_1.jpg,DARWINS_FLYCATCHER_2.jpg,FRIGATE_4.jpg,SNOWY_PLOVER_1.jpg,BALTIMORE_ORIOLE_4.jpg,1,2,3,3,3,18,,,3,1,2.863,0,18,18,18,1,,
,,,A1G50D7L1GGZRU,33,malr,8,2023-01-18_14h03.12.231,perception_pilot,2022.2.4,Win32,9.748298922,,,,,,,,,,,,,TREE_SWALLOW_4.jpg,ROBIN_3.jpg,CALIFORNIA_GULL_1.jpg,RED_HEADED_DUCK_5.jpg,RED_FODY_3.jpg,2,1,3,2,1,19,,,3,0,2.342,0,19,19,19,1,,
,,,A1G50D7L1GGZRU,33,malr,8,2023-01-18_14h03.12.231,perception_pilot,2022.2.4,Win32,9.748298922,,,,,,,,,,,,,VERMILION_FLYCATHER_3.jpg,RED_BEARDED_BEE_EATER_1.jpg,PARADISE_TANAGER_4.jpg,CROWNED_PIGEON_1.jpg,INDIAN_BUSTARD_1.jpg,3,2,1,3,1,20,,,1,1,2.3304,0,20,20,20,1,,
,,,A1G50D7L1GGZRU,33,malr,8,2023-01-18_14h03.12.231,perception_pilot,2022.2.4,Win32,9.748298922,,,,,,,,,,,,,ARARIPE_MANAKIN_4.jpg,BLACK_VULTURE_1.jpg,UMBRELLA_BIRD_5.jpg,KIWI_3.jpg,BORNEAN_LEAFBIRD_3.jpg,2,1,3,2,1,21,,,3,0,2.7743,0,21,21,21,1,,
,,,A1G50D7L1GGZRU,33,malr,8,2023-01-18_14h03.12.231,perception_pilot,2022.2.4,Win32,9.748298922,,,,,,,,,,,,,SKUA_4.jpg,PARUS_MAJOR_2.jpg,PURPLE_FINCH_4.jpg,SNOWY_EGRET_5.jpg,ROADRUNNER_5.jpg,2,1,3,2,1,22,,,1,1,2.4694,0,22,22,22,1,,
,,,A1G50D7L1GGZRU,33,malr,8,2023-01-18_14h03.12.231,perception_pilot,2022.2.4,Win32,9.748298922,,,,,,,,,,,,,NORTHERN_JACANA_2.jpg,RED_FACED_CORMORANT_1.jpg,VULTURINE_GUINEAFOWL_5.jpg,SCARLET_IBIS_4.jpg,GREEN_BROADBILL_1.jpg,2,3,1,3,2,23,,,3,0,2.0861,0,23,23,23,1,,
,,,A1G50D7L1GGZRU,33,malr,8,2023-01-18_14h03.12.231,perception_pilot,2022.2.4,Win32,9.748298922,,,,,,,,,,,,,OVENBIRD_5.jpg,JABIRU_4.jpg,TURQUOISE_MOTMOT_3.jpg,FAIRY_PENGUIN_1.jpg,PURPLE_FINCH_5.jpg,1,2,3,1,1,24,,,3,0,2.8237,0,24,24,24,1,,
,,,A1G50D7L1GGZRU,33,malr,8,2023-01-18_14h03.12.231,perception_pilot,2022.2.4,Win32,9.748298922,,,,,,,,,,,,,LARK_BUNTING_2.jpg,KING_VULTURE_3.jpg,CHARA_DE_COLLAR_4.jpg,EMU_3.jpg,CACTUS_WREN_3.jpg,2,1,3,2,1,25,,,3,0,1.6928,0,25,25,25,1,,
,,,A1G50D7L1GGZRU,33,malr,8,2023-01-18_14h03.12.231,perception_pilot,2022.2.4,Win32,9.748298922,,,,,,,,,,,,,PYGMY_KINGFISHER_5.jpg,GRANDALA_2.jpg,NORTHERN_PARULA_5.jpg,MIKADO__PHEASANT_5.jpg,GREAT_POTOO_3.jpg,3,1,2,1,2,26,,,1,0,1.6,0,26,26,26,1,,
,,,A1G50D7L1GGZRU,33,malr,8,2023-01-18_14h03.12.231,perception_pilot,2022.2.4,Win32,9.748298922,,,,,,,,,,,,,LITTLE_AUK_5.jpg,ORANGE_BRESTED_BUNTING_3.jpg,BEARDED_BELLBIRD_1.jpg,LILAC_ROLLER_5.jpg,SANDHILL_CRANE_3.jpg,3,2,1,2,2,27,,,2,1,1.6612,0,27,27,27,1,,
,,,A1G50D7L1GGZRU,33,malr,8,2023-01-18_14h03.12.231,perception_pilot,2022.2.4,Win32,9.748298922,,,,,,,,,,,,,CRESTED_NUTHATCH_2.jpg,CANARY_1.jpg,VERMILION_FLYCATHER_4.jpg,AFRICAN_FIREFINCH_1.jpg,SCARLET_IBIS_3.jpg,3,2,1,3,1,28,,,2,0,1.5989,0,28,28,28,1,,
,,,A1G50D7L1GGZRU,33,malr,8,2023-01-18_14h03.12.231,perception_pilot,2022.2.4,Win32,9.748298922,,,,,,,,,,,,,PARUS_MAJOR_1.jpg,PINK_ROBIN_3.jpg,CALIFORNIA_GULL_2.jpg,COMMON_POORWILL_1.jpg,FAIRY_BLUEBIRD_5.jpg,2,1,3,3,3,29,,,1,0,1.7507,0,29,29,29,1,,
,,,A1G50D7L1GGZRU,33,malr,8,2023-01-18_14h03.12.231,perception_pilot,2022.2.4,Win32,9.748298922,,,,,,,,,,,,,GILA_WOODPECKER_3.jpg,BLACK_SWAN_3.jpg,BLACK_VULTURE_3.jpg,EGYPTIAN_GOOSE_3.jpg,SNOWY_OWL_4.jpg,3,1,2,1,2,30,,,3,0,1.9328,0,30,30,30,1,,
,,,A1G50D7L1GGZRU,33,malr,8,2023-01-18_14h03.12.231,perception_pilot,2022.2.4,Win32,9.748298922,,,,,,,,,,,,,ECUADORIAN_HILLSTAR_5.jpg,BOBOLINK_5.jpg,SCARLET_IBIS_2.jpg,CRIMSON_SUNBIRD_5.jpg,CASSOWARY_2.jpg,1,3,2,2,3,31,,,1,0,2.1596,0,31,31,31,1,,
,,,A1G50D7L1GGZRU,33,malr,8,2023-01-18_14h03.12.231,perception_pilot,2022.2.4,Win32,9.748298922,,,,,,,,,,,,,SCARLET_TANAGER_2.jpg,BORNEAN_LEAFBIRD_1.jpg,BLONDE_CRESTED_WOODPECKER_3.jpg,LITTLE_AUK_3.jpg,CARMINE_BEE-EATER_1.jpg,3,2,1,3,1,32,,,2,0,1.7685,0,32,32,32,1,,
,,,A1G50D7L1GGZRU,33,malr,8,2023-01-18_14h03.12.231,perception_pilot,2022.2.4,Win32,9.748298922,,,,,,,,,,,,,BROWN_NOODY_3.jpg,SPANGLED_COTINGA_4.jpg,COMMON_IORA_3.jpg,GUINEA_TURACO_5.jpg,KIWI_2.jpg,2,3,1,2,1,33,,,2,0,1.6536,0,33,33,33,1,,
,,,A1G50D7L1GGZRU,33,malr,8,2023-01-18_14h03.12.231,perception_pilot,2022.2.4,Win32,9.748298922,,,,,,,,,,,,,EASTERN_TOWEE_2.jpg,HYACINTH_MACAW_4.jpg,NORTHERN_BEARDLESS_TYRANNULET_5.jpg,SANDHILL_CRANE_2.jpg,ANDEAN_GOOSE_3.jpg,3,1,2,2,3,34,,,1,0,2.211,0,34,34,34,1,,
,,,A1G50D7L1GGZRU,33,malr,8,2023-01-18_14h03.12.231,perception_pilot,2022.2.4,Win32,9.748298922,,,,,,,,,,,,,RED_HEADED_WOODPECKER_5.jpg,GREAT_GRAY_OWL_5.jpg,COLLARED_ARACARI_1.jpg,CRIMSON_CHAT_3.jpg,KIWI_1.jpg,3,2,1,1,3,35,,,2,0,3.2726,0,35,35,35,1,,
,,,A1G50D7L1GGZRU,33,malr,8,2023-01-18_14h03.12.231,perception_pilot,2022.2.4,Win32,9.748298922,,,,,,,,,,,,,WHITE_CHEEKED_TURACO_5.jpg,SNOWY_EGRET_1.jpg,CHINESE_POND_HERON_1.jpg,PYGMY_KINGFISHER_2.jpg,ORIENTAL_BAY_OWL_5.jpg,1,3,2,2,3,36,,,1,0,2.8555,0,36,36,36,1,,
,,,A1G50D7L1GGZRU,33,malr,8,2023-01-18_14h03.12.231,perception_pilot,2022.2.4,Win32,9.748298922,,,,,,,,,,,,,BREWERS_BLACKBIRD_3.jpg,PEACOCK_4.jpg,DOUBLE_EYED_FIG_PARROT_2.jpg,GOLDEN_CHEEKED_WARBLER_3.jpg,CAPE_LONGCLAW_2.jpg,1,2,3,1,1,37,,,3,0,2.4291,0,37,37,37,1,,
,,,A1G50D7L1GGZRU,33,malr,8,2023-01-18_14h03.12.231,perception_pilot,2022.2.4,Win32,9.748298922,,,,,,,,,,,,,left.png,left.png,up.png,right.png,left.png,,,,,2,38,,,3,0,2.907,0,38,38,38,1,,
,,,A1G50D7L1GGZRU,33,malr,8,2023-01-18_14h03.12.231,perception_pilot,2022.2.4,Win32,9.748298922,,,,,,,,,,,,,BALI_STARLING_1.jpg,CAPE_LONGCLAW_5.jpg,OSTRICH_5.jpg,IBERIAN_MAGPIE_1.jpg,PURPLE_FINCH_2.jpg,1,3,2,1,1,39,,,2,0,2.5344,0,39,39,39,1,,
,,,A1G50D7L1GGZRU,33,malr,8,2023-01-18_14h03.12.231,perception_pilot,2022.2.4,Win32,9.748298922,,,,,,,,,,,,,GRAY_KINGBIRD_5.jpg,AFRICAN_FIREFINCH_3.jpg,EVENING_GROSBEAK_4.jpg,BALD_EAGLE_2.jpg,COCK_OF_THE__ROCK_4.jpg,3,1,2,3,1,40,,,1,1,1.0693,0,40,40,40,1,,
,,,A1G50D7L1GGZRU,33,malr,8,2023-01-18_14h03.12.231,perception_pilot,2022.2.4,Win32,9.748298922,,,,,,,,,,,,,CRESTED_CARACARA_4.jpg,FAIRY_PENGUIN_5.jpg,BLUE_DACNIS_4.jpg,CRAB_PLOVER_5.jpg,TOUCHAN_4.jpg,2,1,3,1,2,41,,,2,1,2.6613,0,41,41,41,1,,
,,,A1G50D7L1GGZRU,33,malr,8,2023-01-18_14h03.12.231,perception_pilot,2022.2.4,Win32,9.748298922,,,,,,,,,,,,,MALACHITE_KINGFISHER_2.jpg,SKUA_3.jpg,INCA_TERN_2.jpg,GREEN_BROADBILL_5.jpg,GANG_GANG_COCKATOO_4.jpg,2,3,1,1,3,42,,,3,1,1.0704,0,42,42,42,1,,
,,,A1G50D7L1GGZRU,33,malr,8,2023-01-18_14h03.12.231,perception_pilot,2022.2.4,Win32,9.748298922,,,,,,,,,,,,,right.png,right.png,left.png,up.png,right.png,,,,,1,43,,,1,1,1.278,0,43,43,43,1,,
,,,A1G50D7L1GGZRU,33,malr,8,2023-01-18_14h03.12.231,perception_pilot,2022.2.4,Win32,9.748298922,,,,,,,,,,,,,EUROPEAN_TURTLE_DOVE_3.jpg,MALABAR_HORNBILL_2.jpg,PAINTED_BUNTING_3.jpg,BROWN_THRASHER_2.jpg,TEAL_DUCK_2.jpg,2,3,1,3,2,44,,,1,0,7.8993,0,44,44,44,1,,
,,,A1G50D7L1GGZRU,33,malr,8,2023-01-18_14h03.12.231,perception_pilot,2022.2.4,Win32,9.748298922,,,,,,,,,,,,,PEACOCK_3.jpg,STRAWBERRY_FINCH_4.jpg,IBERIAN_MAGPIE_2.jpg,ANIANIAU_2.jpg,RED_FODY_5.jpg,3,1,2,2,3,45,,,3,1,2.0525,0,45,45,45,1,,
,,,A1G50D7L1GGZRU,33,malr,8,2023-01-18_14h03.12.231,perception_pilot,2022.2.4,Win32,9.748298922,,,,,,,,,,,,,MYNA_1.jpg,GREY_PLOVER_4.jpg,PARADISE_TANAGER_3.jpg,SANDHILL_CRANE_4.jpg,GRAY_PARTRIDGE_5.jpg,3,1,2,2,3,46,,,3,1,2.8934,0,46,46,46,1,,
,,,A1G50D7L1GGZRU,33,malr,8,2023-01-18_14h03.12.231,perception_pilot,2022.2.4,Win32,9.748298922,,,,,,,,,,,,,BROWN_THRASHER_3.jpg,DOUBLE_EYED_FIG_PARROT_3.jpg,RED_BEARDED_BEE_EATER_4.jpg,BLACK_BAZA_4.jpg,OYSTER_CATCHER_4.jpg,1,3,2,1,1,47,,,2,0,1.5236,0,47,47,47,1,,
,,,A1G50D7L1GGZRU,33,malr,8,2023-01-18_14h03.12.231,perception_pilot,2022.2.4,Win32,9.748298922,,,,,,,,,,,,,RUBY_THROATED_HUMMINGBIRD_1.jpg,EURASIAN_GOLDEN_ORIOLE_5.jpg,BROWN_THRASHER_1.jpg,FRIGATE_1.jpg,VULTURINE_GUINEAFOWL_4.jpg,1,3,2,1,1,48,,,1,1,1.0844,0,48,48,48,1,,
,,,A1G50D7L1GGZRU,33,malr,8,2023-01-18_14h03.12.231,perception_pilot,2022.2.4,Win32,9.748298922,,,,,,,,,,,,,NORTHERN_JACANA_3.jpg,BANANAQUIT_3.jpg,BEARDED_BELLBIRD_3.jpg,REGENT_BOWERBIRD_5.jpg,BAR-TAILED_GODWIT_3.jpg,1,2,3,1,1,49,,,2,0,0.9078,0,49,49,49,1,,
,,,A1G50D7L1GGZRU,33,malr,8,2023-01-18_14h03.12.231,perception_pilot,2022.2.4,Win32,9.748298922,,,,,,,,,,,,,CASPIAN_TERN_1.jpg,EUROPEAN_GOLDFINCH_4.jpg,BRANDT_CORMARANT_4.jpg,AMERICAN_GOLDFINCH_3.jpg,COMMON_LOON_2.jpg,1,2,3,2,2,50,,,3,0,0.9698,0,50,50,50,1,,
,,,A1G50D7L1GGZRU,33,malr,8,2023-01-18_14h03.12.231,perception_pilot,2022.2.4,Win32,9.748298922,,,,,,,,,,,,,NICOBAR_PIGEON_1.jpg,EASTERN_BLUEBIRD_3.jpg,LITTLE_AUK_1.jpg,MYNA_4.jpg,ROSY_FACED_LOVEBIRD_2.jpg,2,1,3,3,3,51,,,2,0,2.5419,0,51,51,51,1,,
,,,A1G50D7L1GGZRU,33,malr,8,2023-01-18_14h03.12.231,perception_pilot,2022.2.4,Win32,9.748298922,,,,,,,,,,,,,HAWAIIAN_GOOSE_4.jpg,HIMALAYAN_MONAL_2.jpg,RED_BEARDED_BEE_EATER_3.jpg,WATTLED_LAPWING_3.jpg,NORTHERN_GANNET_1.jpg,1,3,2,2,3,52,,,2,0,1.8139,0,52,52,52,1,,
,,,A1G50D7L1GGZRU,33,malr,8,2023-01-18_14h03.12.231,perception_pilot,2022.2.4,Win32,9.748298922,,,,,,,,,,,,,left.png,left.png,right.png,up.png,left.png,,,,,1,53,,,3,0,3.699,0,53,53,53,1,,
,,,A1G50D7L1GGZRU,33,malr,8,2023-01-18_14h03.12.231,perception_pilot,2022.2.4,Win32,9.748298922,,,,,,,,,,,,,DOUBLE_BRESTED_CORMARANT_5.jpg,GILDED_FLICKER_2.jpg,EURASIAN_MAGPIE_4.jpg,CHINESE_POND_HERON_2.jpg,SNOWY_OWL_3.jpg,2,3,1,1,3,54,,,2,0,1.398,0,54,54,54,1,,
,,,A1G50D7L1GGZRU,33,malr,8,2023-01-18_14h03.12.231,perception_pilot,2022.2.4,Win32,9.748298922,,,,,,,,,,,,,ASIAN_DOLLARD_BIRD_2.jpg,VIOLET_GREEN_SWALLOW_4.jpg,VERMILION_FLYCATHER_1.jpg,ALBATROSS_2.jpg,HAWAIIAN_GOOSE_1.jpg,3,1,2,3,1,55,,,1,1,1.4105,0,55,55,55,1,,
,,,A1G50D7L1GGZRU,33,malr,8,2023-01-18_14h03.12.231,perception_pilot,2022.2.4,Win32,9.748298922,,,,,,,,,,,,,SPLENDID_WREN_1.jpg,CUBAN_TODY_4.jpg,PARAKETT__AKULET_3.jpg,DOUBLE_BRESTED_CORMARANT_1.jpg,CRESTED_KINGFISHER_4.jpg,1,2,3,3,3,56,,,3,1,1.1637,0,56,56,56,1,,
,,,A1G50D7L1GGZRU,33,malr,8,2023-01-18_14h03.12.231,perception_pilot,2022.2.4,Win32,9.748298922,,,,,,,,,,,,,GREY_PLOVER_1.jpg,AMETHYST_WOODSTAR_4.jpg,HYACINTH_MACAW_3.jpg,GOULDIAN_FINCH_4.jpg,BURCHELLS_COURSER_5.jpg,1,2,3,3,3,57,,,2,0,0.9604,0,57,57,57,1,,
,,,A1G50D7L1GGZRU,33,malr,8,2023-01-18_14h03.12.231,perception_pilot,2022.2.4,Win32,9.748298922,,,,,,,,,,,,,TASMANIAN_HEN_5.jpg,AFRICAN_EMERALD_CUCKOO_5.jpg,COPPERY_TAILED_COUCAL_1.jpg,BLACKBURNIAM_WARBLER_3.jpg,BORNEAN_PHEASANT_2.jpg,3,1,2,2,3,58,,,1,0,0.8796,0,58,58,58,1,,
,,,A1G50D7L1GGZRU,33,malr,8,2023-01-18_14h03.12.231,perception_pilot,2022.2.4,Win32,9.748298922,,,,,,,,,,,,,MCKAYS_BUNTING_3.jpg,EMU_4.jpg,AMERICAN_GOLDFINCH_4.jpg,DEMOISELLE_CRANE_3.jpg,IWI_2.jpg,3,1,2,1,2,59,,,3,0,0.8689,0,59,59,59,1,,
,,,A1G50D7L1GGZRU,33,malr,8,2023-01-18_14h03.12.231,perception_pilot,2022.2.4,Win32,9.748298922,,,,,,,,,,,,,CASSOWARY_1.jpg,ROSY_FACED_LOVEBIRD_4.jpg,SCARLET_MACAW_1.jpg,DEMOISELLE_CRANE_1.jpg,CEDAR_WAXWING_4.jpg,2,3,1,1,3,60,,,1,0,0.8139,0,60,60,60,1,,
,,,A1G50D7L1GGZRU,33,malr,8,2023-01-18_14h03.12.231,perception_pilot,2022.2.4,Win32,9.748298922,,,,,,,,,,,,,AMERICAN_PIPIT_5.jpg,GREEN_MAGPIE_1.jpg,LOGGERHEAD_SHRIKE_4.jpg,HEPATIC_TANAGER_5.jpg,EMU_2.jpg,2,3,1,2,1,61,,,2,0,0.9812,0,61,61,61,1,,
,,,A1G50D7L1GGZRU,33,malr,8,2023-01-18_14h03.12.231,perception_pilot,2022.2.4,Win32,9.748298922,,,,,,,,,,,,,LESSER_ADJUTANT_5.jpg,AMERICAN_GOLDFINCH_1.jpg,GAMBELS_QUAIL_1.jpg,RED_HEADED_WOODPECKER_1.jpg,MALAGASY_WHITE_EYE_2.jpg,2,3,1,1,3,62,,,1,0,0.9467,0,62,62,62,1,,
,,,A1G50D7L1GGZRU,33,malr,8,2023-01-18_14h03.12.231,perception_pilot,2022.2.4,Win32,9.748298922,,,,,,,,,,,,,IVORY_GULL_1.jpg,WILSONS_BIRD_OF_PARADISE_4.jpg,OCELLATED_TURKEY_2.jpg,FAIRY_TERN_4.jpg,EASTERN_GOLDEN_WEAVER_5.jpg,1,3,2,1,1,63,,,3,0,0.7954,0,63,63,63,1,,
,,,A1G50D7L1GGZRU,33,malr,8,2023-01-18_14h03.12.231,perception_pilot,2022.2.4,Win32,9.748298922,,,,,,,,,,,,,GOLDEN_CHLOROPHONIA_5.jpg,VERMILION_FLYCATHER_5.jpg,DARWINS_FLYCATCHER_3.jpg,COMMON_HOUSE_MARTIN_4.jpg,ROADRUNNER_2.jpg,3,2,1,3,1,64,,,1,1,2.4754,0,64,64,64,1,,
,,,A1G50D7L1GGZRU,33,malr,8,2023-01-18_14h03.12.231,perception_pilot,2022.2.4,Win32,9.748298922,,,,,,,,,,,,,,,,,,,,,,,,,,,,,,,,,,space,23.2934
