button.numClicks,button.timesOn,button.timesOff,workID,Age,Gender,Hours slept (last night),date,expName,psychopyVersion,OS,frameRate,key_resp_13.keys,key_resp_13.rt,key_resp_14.keys,key_resp_14.rt,key_resp_3.keys,key_resp_3.corr,key_resp_3.rt,demo_loop.thisRepN,demo_loop.thisTrialN,demo_loop.thisN,demo_loop.thisIndex,demo_loop.ran,target_image,target_match,option1,option2,option3,option1_layer,option2_layer,option3_layer,match_layer,correct_answer,trial_num,key_resp_15.keys,key_resp_15.rt,key_resp.keys,key_resp.corr,key_resp.rt,trials.thisRepN,trials.thisTrialN,trials.thisN,trials.thisIndex,trials.ran,key_resp_end_2.keys,key_resp_end_2.rt
1,[62.840299999997],[62.840399999991064],A1I7H6RDJS4EKN,67,Male,6,2023-01-18_08h02.21.211,perception_pilot,2022.2.4,MacIntel,19.99120387,,,,,,,,,,,,,,,,,,,,,,,,,,,,,,,,,,,
,,,A1I7H6RDJS4EKN,67,Male,6,2023-01-18_08h02.21.211,perception_pilot,2022.2.4,MacIntel,19.99120387,space,38.7626,,,,,,,,,,,,,,,,,,,,,,,,,,,,,,,,,
,,,A1I7H6RDJS4EKN,67,Male,6,2023-01-18_08h02.21.211,perception_pilot,2022.2.4,MacIntel,19.99120387,,,space,33.3972,,,,,,,,,,,,,,,,,,,,,,,,,,,,,,,
,,,A1I7H6RDJS4EKN,67,Male,6,2023-01-18_08h02.21.211,perception_pilot,2022.2.4,MacIntel,19.99120387,,,,,,,,,,,,,,,,,,,,,,,,,,,,,,,,,,,
,,,A1I7H6RDJS4EKN,67,Male,6,2023-01-18_08h02.21.211,perception_pilot,2022.2.4,MacIntel,19.99120387,,,,,3,0,38.4485,0,0,0,0,1,INCA_TERN_4.jpg,ELLIOTS__PHEASANT_4.jpg,SMITHS_LONGSPUR_5.jpg,SNOWY_OWL_5.jpg,BORNEAN_BRISTLEHEAD_5.jpg,2,1,3,1,2,0,,,,,,,,,,,,
,,,A1I7H6RDJS4EKN,67,Male,6,2023-01-18_08h02.21.211,perception_pilot,2022.2.4,MacIntel,19.99120387,,,,,3,1,32.378,0,1,1,1,1,EUROPEAN_TURTLE_DOVE_3.jpg,TEAL_DUCK_2.jpg,PAINTED_BUNTING_3.jpg,MALABAR_HORNBILL_2.jpg,SNOWY_EGRET_3.jpg,2,3,1,1,3,1,,,,,,,,,,,,
,,,A1I7H6RDJS4EKN,67,Male,6,2023-01-18_08h02.21.211,perception_pilot,2022.2.4,MacIntel,19.99120387,,,,,1,1,43.1991,0,2,2,2,1,AFRICAN_PIED_HORNBILL_5.jpg,ALEXANDRINE_PARAKEET_1.jpg,INDIAN_PITTA_2.jpg,KIWI_4.jpg,CAPUCHINBIRD_2.jpg,2,1,3,2,1,2,,,,,,,,,,,,
,,,A1I7H6RDJS4EKN,67,Male,6,2023-01-18_08h02.21.211,perception_pilot,2022.2.4,MacIntel,19.99120387,,,,,3,1,82.4599,0,3,3,3,1,PYGMY_KINGFISHER_5.jpg,GRANDALA_2.jpg,GREAT_POTOO_3.jpg,NORTHERN_PARULA_5.jpg,MIKADO__PHEASANT_5.jpg,2,3,1,1,3,3,,,,,,,,,,,,
,,,A1I7H6RDJS4EKN,67,Male,6,2023-01-18_08h02.21.211,perception_pilot,2022.2.4,MacIntel,19.99120387,,,,,3,0,30.0852,0,4,4,4,1,GRAY_KINGBIRD_5.jpg,AFRICAN_FIREFINCH_3.jpg,EVENING_GROSBEAK_4.jpg,BALD_EAGLE_2.jpg,COCK_OF_THE__ROCK_4.jpg,3,1,2,3,1,4,,,,,,,,,,,,
,,,A1I7H6RDJS4EKN,67,Male,6,2023-01-18_08h02.21.211,perception_pilot,2022.2.4,MacIntel,19.99120387,,,,,2,1,10.5327,0,5,5,5,1,right.png,right.png,right.png,left.png,up.png,,,,,2,5,,,,,,,,,,,,
,,,A1I7H6RDJS4EKN,67,Male,6,2023-01-18_08h02.21.211,perception_pilot,2022.2.4,MacIntel,19.99120387,,,,,3,1,56.8658,0,6,6,6,1,WHITE_CHEEKED_TURACO_5.jpg,PYGMY_KINGFISHER_2.jpg,SNOWY_EGRET_1.jpg,CHINESE_POND_HERON_1.jpg,MALAGASY_WHITE_EYE_5.jpg,2,1,3,3,3,6,,,,,,,,,,,,
,,,A1I7H6RDJS4EKN,67,Male,6,2023-01-18_08h02.21.211,perception_pilot,2022.2.4,MacIntel,19.99120387,,,,,1,1,14.2068,0,7,7,7,1,RUBY_THROATED_HUMMINGBIRD_2.jpg,APAPANE_4.jpg,SCARLET_MACAW_3.jpg,DUSKY_ROBIN_5.jpg,GOLDEN_PARAKEET_2.jpg,2,3,1,2,1,7,,,,,,,,,,,,
,,,A1I7H6RDJS4EKN,67,Male,6,2023-01-18_08h02.21.211,perception_pilot,2022.2.4,MacIntel,19.99120387,,,,,3,1,16.4758,0,8,8,8,1,NORTHERN_JACANA_3.jpg,BAR-TAILED_GODWIT_3.jpg,REGENT_BOWERBIRD_5.jpg,BANANAQUIT_3.jpg,SHORT_BILLED_DOWITCHER_5.jpg,2,1,3,3,3,8,,,,,,,,,,,,
,,,A1I7H6RDJS4EKN,67,Male,6,2023-01-18_08h02.21.211,perception_pilot,2022.2.4,MacIntel,19.99120387,,,,,2,1,32.0976,0,9,9,9,1,TASMANIAN_HEN_5.jpg,AFRICAN_EMERALD_CUCKOO_5.jpg,BLACKBURNIAM_WARBLER_3.jpg,BORNEAN_PHEASANT_2.jpg,COPPERY_TAILED_COUCAL_1.jpg,1,2,3,2,2,9,,,,,,,,,,,,
,,,A1I7H6RDJS4EKN,67,Male,6,2023-01-18_08h02.21.211,perception_pilot,2022.2.4,MacIntel,19.99120387,,,,,,,,,,,,,,,,,,,,,,,,space,2.3599,,,,,,,,,,
,,,A1I7H6RDJS4EKN,67,Male,6,2023-01-18_08h02.21.211,perception_pilot,2022.2.4,MacIntel,19.99120387,,,,,,,,,,,,,RUFOUS_KINGFISHER_1.jpg,HORNED_SUNGEM_4.jpg,BLACK_VENTED_SHEARWATER_2.jpg,MAGPIE_GOOSE_3.jpg,GREEN_JAY_4.jpg,1,2,3,3,3,0,,,3,1,15.4042,0,0,0,0,1,,
,,,A1I7H6RDJS4EKN,67,Male,6,2023-01-18_08h02.21.211,perception_pilot,2022.2.4,MacIntel,19.99120387,,,,,,,,,,,,,CRESTED_CARACARA_4.jpg,TOUCHAN_4.jpg,CREAM_COLORED_WOODPECKER_1.jpg,BLUE_DACNIS_4.jpg,FAIRY_PENGUIN_5.jpg,3,2,1,3,1,1,,,1,1,29.4032,0,1,1,1,1,,
,,,A1I7H6RDJS4EKN,67,Male,6,2023-01-18_08h02.21.211,perception_pilot,2022.2.4,MacIntel,19.99120387,,,,,,,,,,,,,NORTHERN_GANNET_2.jpg,PAINTED_BUNTING_5.jpg,STRAWBERRY_FINCH_1.jpg,EASTERN_TOWEE_1.jpg,MASKED_BOOBY_5.jpg,2,1,3,1,2,2,,,1,0,18.7104,0,2,2,2,1,,
,,,A1I7H6RDJS4EKN,67,Male,6,2023-01-18_08h02.21.211,perception_pilot,2022.2.4,MacIntel,19.99120387,,,,,,,,,,,,,PEACOCK_3.jpg,ANIANIAU_2.jpg,STRAWBERRY_FINCH_4.jpg,IBERIAN_MAGPIE_2.jpg,ANDEAN_SISKIN_5.jpg,2,3,1,1,3,3,,,3,1,26.2036,0,3,3,3,1,,
,,,A1I7H6RDJS4EKN,67,Male,6,2023-01-18_08h02.21.211,perception_pilot,2022.2.4,MacIntel,19.99120387,,,,,,,,,,,,,SKUA_4.jpg,PARUS_MAJOR_2.jpg,ROADRUNNER_5.jpg,PURPLE_FINCH_4.jpg,SNOWY_EGRET_5.jpg,3,2,1,2,2,4,,,3,0,19.7954,0,4,4,4,1,,
,,,A1I7H6RDJS4EKN,67,Male,6,2023-01-18_08h02.21.211,perception_pilot,2022.2.4,MacIntel,19.99120387,,,,,,,,,,,,,CERULEAN_WARBLER_1.jpg,ORIENTAL_BAY_OWL_1.jpg,DALMATIAN_PELICAN_5.jpg,AMERICAN_FLAMINGO_5.jpg,BANANAQUIT_1.jpg,1,2,3,1,1,5,,,3,0,17.7717,0,5,5,5,1,,
,,,A1I7H6RDJS4EKN,67,Male,6,2023-01-18_08h02.21.211,perception_pilot,2022.2.4,MacIntel,19.99120387,,,,,,,,,,,,,LESSER_ADJUTANT_5.jpg,RED_HEADED_WOODPECKER_1.jpg,GAMBELS_QUAIL_1.jpg,CASPIAN_TERN_2.jpg,AMERICAN_GOLDFINCH_1.jpg,2,3,1,3,2,6,,,3,0,21.007,0,6,6,6,1,,
,,,A1I7H6RDJS4EKN,67,Male,6,2023-01-18_08h02.21.211,perception_pilot,2022.2.4,MacIntel,19.99120387,,,,,,,,,,,,,OVENBIRD_5.jpg,FAIRY_PENGUIN_1.jpg,ABBOTTS_BOOBY_2.jpg,PURPLE_FINCH_5.jpg,JABIRU_4.jpg,2,3,1,2,1,7,,,3,0,8.5978,0,7,7,7,1,,
,,,A1I7H6RDJS4EKN,67,Male,6,2023-01-18_08h02.21.211,perception_pilot,2022.2.4,MacIntel,19.99120387,,,,,,,,,,,,,CRESTED_NUTHATCH_2.jpg,CANARY_1.jpg,VERMILION_FLYCATHER_4.jpg,AFRICAN_FIREFINCH_1.jpg,SCARLET_IBIS_3.jpg,3,2,1,3,1,8,,,1,1,18.6821,0,8,8,8,1,,
,,,A1I7H6RDJS4EKN,67,Male,6,2023-01-18_08h02.21.211,perception_pilot,2022.2.4,MacIntel,19.99120387,,,,,,,,,,,,,ECUADORIAN_HILLSTAR_5.jpg,CRIMSON_SUNBIRD_5.jpg,BOBOLINK_5.jpg,SCARLET_IBIS_2.jpg,GREEN_BROADBILL_4.jpg,2,1,3,3,3,9,,,3,1,40.3608,0,9,9,9,1,,
,,,A1I7H6RDJS4EKN,67,Male,6,2023-01-18_08h02.21.211,perception_pilot,2022.2.4,MacIntel,19.99120387,,,,,,,,,,,,,GREY_PLOVER_1.jpg,AMETHYST_WOODSTAR_4.jpg,GOULDIAN_FINCH_4.jpg,HYACINTH_MACAW_3.jpg,BURCHELLS_COURSER_5.jpg,2,1,3,3,3,10,,,3,1,6.612,0,10,10,10,1,,
,,,A1I7H6RDJS4EKN,67,Male,6,2023-01-18_08h02.21.211,perception_pilot,2022.2.4,MacIntel,19.99120387,,,,,,,,,,,,,MYNA_1.jpg,SANDHILL_CRANE_4.jpg,PARADISE_TANAGER_3.jpg,OSTRICH_2.jpg,GREY_PLOVER_4.jpg,3,1,2,1,2,11,,,3,0,11.8179,0,11,11,11,1,,
,,,A1I7H6RDJS4EKN,67,Male,6,2023-01-18_08h02.21.211,perception_pilot,2022.2.4,MacIntel,19.99120387,,,,,,,,,,,,,BALI_STARLING_1.jpg,PURPLE_FINCH_2.jpg,CAPE_LONGCLAW_5.jpg,AMERICAN_PIPIT_1.jpg,IBERIAN_MAGPIE_1.jpg,1,2,3,2,2,12,,,3,0,8.8327,0,12,12,12,1,,
,,,A1I7H6RDJS4EKN,67,Male,6,2023-01-18_08h02.21.211,perception_pilot,2022.2.4,MacIntel,19.99120387,,,,,,,,,,,,,NORTHERN_JACANA_2.jpg,GREEN_BROADBILL_1.jpg,EMERALD_TANAGER_2.jpg,RED_FACED_CORMORANT_1.jpg,VULTURINE_GUINEAFOWL_5.jpg,1,3,2,1,1,13,,,1,1,15.051,0,13,13,13,1,,
,,,A1I7H6RDJS4EKN,67,Male,6,2023-01-18_08h02.21.211,perception_pilot,2022.2.4,MacIntel,19.99120387,,,,,,,,,,,,,ASIAN_CRESTED_IBIS_4.jpg,CANARY_2.jpg,GREAT_JACAMAR_4.jpg,OYSTER_CATCHER_2.jpg,IVORY_GULL_2.jpg,1,2,3,1,1,14,,,1,1,10.2213,0,14,14,14,1,,
,,,A1I7H6RDJS4EKN,67,Male,6,2023-01-18_08h02.21.211,perception_pilot,2022.2.4,MacIntel,19.99120387,,,,,,,,,,,,,BROWN_NOODY_3.jpg,KIWI_2.jpg,GUINEA_TURACO_5.jpg,SPANGLED_COTINGA_4.jpg,PEACOCK_5.jpg,3,2,1,1,3,15,,,1,0,40.338,0,15,15,15,1,,
,,,A1I7H6RDJS4EKN,67,Male,6,2023-01-18_08h02.21.211,perception_pilot,2022.2.4,MacIntel,19.99120387,,,,,,,,,,,,,KILLDEAR_2.jpg,CAATINGA_CACHOLOTE_4.jpg,CHATTERING_LORY_1.jpg,ALEXANDRINE_PARAKEET_5.jpg,AZURE_TIT_5.jpg,2,1,3,2,1,16,,,1,1,19.6766,0,16,16,16,1,,
,,,A1I7H6RDJS4EKN,67,Male,6,2023-01-18_08h02.21.211,perception_pilot,2022.2.4,MacIntel,19.99120387,,,,,,,,,,,,,IVORY_GULL_3.jpg,INDIGO_FLYCATCHER_2.jpg,BUSH_TURKEY_1.jpg,FLAME_TANAGER_3.jpg,SNOWY_EGRET_4.jpg,1,2,3,1,1,17,,,3,0,45.5378,0,17,17,17,1,,
,,,A1I7H6RDJS4EKN,67,Male,6,2023-01-18_08h02.21.211,perception_pilot,2022.2.4,MacIntel,19.99120387,,,,,,,,,,,,,IVORY_GULL_1.jpg,WILSONS_BIRD_OF_PARADISE_4.jpg,FAIRY_TERN_4.jpg,OCELLATED_TURKEY_2.jpg,EASTERN_GOLDEN_WEAVER_5.jpg,3,1,2,1,2,18,,,2,1,14.6985,0,18,18,18,1,,
,,,A1I7H6RDJS4EKN,67,Male,6,2023-01-18_08h02.21.211,perception_pilot,2022.2.4,MacIntel,19.99120387,,,,,,,,,,,,,AMERICAN_PIPIT_5.jpg,GREEN_MAGPIE_1.jpg,HEPATIC_TANAGER_5.jpg,LOGGERHEAD_SHRIKE_4.jpg,EMU_2.jpg,3,2,1,2,2,19,,,2,1,24.3538,0,19,19,19,1,,
,,,A1I7H6RDJS4EKN,67,Male,6,2023-01-18_08h02.21.211,perception_pilot,2022.2.4,MacIntel,19.99120387,,,,,,,,,,,,,TREE_SWALLOW_4.jpg,RED_FODY_3.jpg,RED_HEADED_DUCK_5.jpg,BORNEAN_LEAFBIRD_4.jpg,ROBIN_3.jpg,1,3,2,3,2,20,,,3,0,10.0975,0,20,20,20,1,,
,,,A1I7H6RDJS4EKN,67,Male,6,2023-01-18_08h02.21.211,perception_pilot,2022.2.4,MacIntel,19.99120387,,,,,,,,,,,,,right.png,right.png,right.png,left.png,up.png,,,,,2,21,,,2,1,6.0725,0,21,21,21,1,,
,,,A1I7H6RDJS4EKN,67,Male,6,2023-01-18_08h02.21.211,perception_pilot,2022.2.4,MacIntel,19.99120387,,,,,,,,,,,,,right.png,right.png,up.png,right.png,left.png,,,,,3,22,,,3,1,6.463,0,22,22,22,1,,
,,,A1I7H6RDJS4EKN,67,Male,6,2023-01-18_08h02.21.211,perception_pilot,2022.2.4,MacIntel,19.99120387,,,,,,,,,,,,,RUBY_THROATED_HUMMINGBIRD_1.jpg,VULTURINE_GUINEAFOWL_4.jpg,FRIGATE_1.jpg,BEARDED_REEDLING_3.jpg,EURASIAN_GOLDEN_ORIOLE_5.jpg,3,2,1,2,2,23,,,2,1,31.7933,0,23,23,23,1,,
,,,A1I7H6RDJS4EKN,67,Male,6,2023-01-18_08h02.21.211,perception_pilot,2022.2.4,MacIntel,19.99120387,,,,,,,,,,,,,HAWAIIAN_GOOSE_4.jpg,WATTLED_LAPWING_3.jpg,HIMALAYAN_MONAL_2.jpg,RED_BEARDED_BEE_EATER_3.jpg,BROWN_NOODY_5.jpg,2,1,3,3,3,24,,,2,0,12.2806,0,24,24,24,1,,
,,,A1I7H6RDJS4EKN,67,Male,6,2023-01-18_08h02.21.211,perception_pilot,2022.2.4,MacIntel,19.99120387,,,,,,,,,,,,,ALPINE_CHOUGH_4.jpg,EUROPEAN_GOLDFINCH_3.jpg,SNOWY_EGRET_2.jpg,BOBOLINK_3.jpg,HOUSE_FINCH_2.jpg,1,3,2,2,3,25,,,3,1,12.8294,0,25,25,25,1,,
,,,A1I7H6RDJS4EKN,67,Male,6,2023-01-18_08h02.21.211,perception_pilot,2022.2.4,MacIntel,19.99120387,,,,,,,,,,,,,VERMILION_FLYCATHER_3.jpg,CROWNED_PIGEON_1.jpg,LITTLE_AUK_4.jpg,RED_BEARDED_BEE_EATER_1.jpg,INDIAN_BUSTARD_1.jpg,2,3,1,2,1,26,,,2,0,11.4162,0,26,26,26,1,,
,,,A1I7H6RDJS4EKN,67,Male,6,2023-01-18_08h02.21.211,perception_pilot,2022.2.4,MacIntel,19.99120387,,,,,,,,,,,,,FLAME_BOWERBIRD_3.jpg,INDIAN_BUSTARD_2.jpg,BROWN_THRASHER_4.jpg,QUETZAL_3.jpg,SPOON_BILED_SANDPIPER_5.jpg,2,3,1,1,3,27,,,2,0,34.7051,0,27,27,27,1,,
,,,A1I7H6RDJS4EKN,67,Male,6,2023-01-18_08h02.21.211,perception_pilot,2022.2.4,MacIntel,19.99120387,,,,,,,,,,,,,right.png,right.png,up.png,left.png,right.png,,,,,2,28,,,2,1,10.4657,0,28,28,28,1,,
,,,A1I7H6RDJS4EKN,67,Male,6,2023-01-18_08h02.21.211,perception_pilot,2022.2.4,MacIntel,19.99120387,,,,,,,,,,,,,SPLENDID_WREN_1.jpg,CUBAN_TODY_4.jpg,CRESTED_KINGFISHER_4.jpg,DOUBLE_BRESTED_CORMARANT_1.jpg,PARAKETT__AKULET_3.jpg,3,2,1,3,1,29,,,1,1,14.2721,0,29,29,29,1,,
,,,A1I7H6RDJS4EKN,67,Male,6,2023-01-18_08h02.21.211,perception_pilot,2022.2.4,MacIntel,19.99120387,,,,,,,,,,,,,GYRFALCON_1.jpg,CINNAMON_ATTILA_2.jpg,CAPE_ROCK_THRUSH_2.jpg,ASHY_STORM_PETREL_2.jpg,FAIRY_TERN_1.jpg,2,1,3,2,1,30,,,2,0,6.4397,0,30,30,30,1,,
,,,A1I7H6RDJS4EKN,67,Male,6,2023-01-18_08h02.21.211,perception_pilot,2022.2.4,MacIntel,19.99120387,,,,,,,,,,,,,GOLDEN_CHLOROPHONIA_5.jpg,VERMILION_FLYCATHER_5.jpg,COMMON_HOUSE_MARTIN_4.jpg,ROADRUNNER_2.jpg,DARWINS_FLYCATCHER_3.jpg,2,1,3,3,3,31,,,3,1,17.3022,0,31,31,31,1,,
,,,A1I7H6RDJS4EKN,67,Male,6,2023-01-18_08h02.21.211,perception_pilot,2022.2.4,MacIntel,19.99120387,,,,,,,,,,,,,SCARLET_TANAGER_2.jpg,BORNEAN_LEAFBIRD_1.jpg,BLONDE_CRESTED_WOODPECKER_3.jpg,CARMINE_BEE-EATER_1.jpg,LITTLE_AUK_3.jpg,3,1,2,3,1,32,,,1,1,16.2397,0,32,32,32,1,,
,,,A1I7H6RDJS4EKN,67,Male,6,2023-01-18_08h02.21.211,perception_pilot,2022.2.4,MacIntel,19.99120387,,,,,,,,,,,,,EASTERN_TOWEE_2.jpg,SANDHILL_CRANE_2.jpg,BLUE_HERON_3.jpg,HYACINTH_MACAW_4.jpg,NORTHERN_BEARDLESS_TYRANNULET_5.jpg,1,2,3,1,1,33,,,1,1,4.3697,0,33,33,33,1,,
,,,A1I7H6RDJS4EKN,67,Male,6,2023-01-18_08h02.21.211,perception_pilot,2022.2.4,MacIntel,19.99120387,,,,,,,,,,,,,RUBY_THROATED_HUMMINGBIRD_3.jpg,NORTHERN_SHOVELER_1.jpg,WALL_CREAPER_3.jpg,WHITE_CHEEKED_TURACO_4.jpg,MYNA_5.jpg,3,1,2,3,1,34,,,2,0,4.0592,0,34,34,34,1,,
,,,A1I7H6RDJS4EKN,67,Male,6,2023-01-18_08h02.21.211,perception_pilot,2022.2.4,MacIntel,19.99120387,,,,,,,,,,,,,SHOEBILL_3.jpg,GILDED_FLICKER_5.jpg,MALAGASY_WHITE_EYE_3.jpg,BALD_EAGLE_5.jpg,IWI_1.jpg,1,3,2,2,3,35,,,2,0,22.5629,0,35,35,35,1,,
,,,A1I7H6RDJS4EKN,67,Male,6,2023-01-18_08h02.21.211,perception_pilot,2022.2.4,MacIntel,19.99120387,,,,,,,,,,,,,STRIPPED_SWALLOW_1.jpg,EMPEROR_PENGUIN_5.jpg,GO_AWAY_BIRD_5.jpg,MAGPIE_GOOSE_4.jpg,BRANDT_CORMARANT_3.jpg,3,2,1,1,3,36,,,2,0,10.0479,0,36,36,36,1,,
,,,A1I7H6RDJS4EKN,67,Male,6,2023-01-18_08h02.21.211,perception_pilot,2022.2.4,MacIntel,19.99120387,,,,,,,,,,,,,KAGU_5.jpg,EASTERN_MEADOWLARK_1.jpg,BANANAQUIT_2.jpg,ASHY_STORM_PETREL_1.jpg,IMPERIAL_SHAQ_2.jpg,1,2,3,1,1,37,,,1,1,11.9179,0,37,37,37,1,,
,,,A1I7H6RDJS4EKN,67,Male,6,2023-01-18_08h02.21.211,perception_pilot,2022.2.4,MacIntel,19.99120387,,,,,,,,,,,,,ASIAN_DOLLARD_BIRD_2.jpg,HAWAIIAN_GOOSE_1.jpg,ALBATROSS_2.jpg,VIOLET_GREEN_SWALLOW_4.jpg,MCKAYS_BUNTING_1.jpg,1,3,2,2,3,38,,,3,1,6.1254,0,38,38,38,1,,
,,,A1I7H6RDJS4EKN,67,Male,6,2023-01-18_08h02.21.211,perception_pilot,2022.2.4,MacIntel,19.99120387,,,,,,,,,,,,,BARRED_PUFFBIRD_3.jpg,VEERY_4.jpg,WHITE_CHEEKED_TURACO_2.jpg,NORTHERN_CARDINAL_5.jpg,RED_TAILED_THRUSH_2.jpg,1,2,3,3,3,39,,,3,1,9.0127,0,39,39,39,1,,
,,,A1I7H6RDJS4EKN,67,Male,6,2023-01-18_08h02.21.211,perception_pilot,2022.2.4,MacIntel,19.99120387,,,,,,,,,,,,,right.png,right.png,up.png,left.png,right.png,,,,,2,40,,,2,1,3.204,0,40,40,40,1,,
,,,A1I7H6RDJS4EKN,67,Male,6,2023-01-18_08h02.21.211,perception_pilot,2022.2.4,MacIntel,19.99120387,,,,,,,,,,,,,MALACHITE_KINGFISHER_2.jpg,INCA_TERN_2.jpg,COCKATOO_2.jpg,GREEN_BROADBILL_5.jpg,SKUA_3.jpg,2,3,1,2,1,41,,,2,0,13.6484,0,41,41,41,1,,
,,,A1I7H6RDJS4EKN,67,Male,6,2023-01-18_08h02.21.211,perception_pilot,2022.2.4,MacIntel,19.99120387,,,,,,,,,,,,,INLAND_DOTTEREL_4.jpg,JANDAYA_PARAKEET_5.jpg,CALIFORNIA_CONDOR_4.jpg,NICOBAR_PIGEON_4.jpg,CRESTED_KINGFISHER_1.jpg,1,2,3,1,1,42,,,2,0,13.3852,0,42,42,42,1,,
,,,A1I7H6RDJS4EKN,67,Male,6,2023-01-18_08h02.21.211,perception_pilot,2022.2.4,MacIntel,19.99120387,,,,,,,,,,,,,MAGPIE_GOOSE_5.jpg,DOUBLE_EYED_FIG_PARROT_5.jpg,MALAGASY_WHITE_EYE_1.jpg,OYSTER_CATCHER_3.jpg,HAMERKOP_1.jpg,1,3,2,1,1,43,,,3,0,35.3901,0,43,43,43,1,,
,,,A1I7H6RDJS4EKN,67,Male,6,2023-01-18_08h02.21.211,perception_pilot,2022.2.4,MacIntel,19.99120387,,,,,,,,,,,,,CASPIAN_TERN_1.jpg,COMMON_LOON_2.jpg,EUROPEAN_GOLDFINCH_4.jpg,BRANDT_CORMARANT_4.jpg,MASKED_BOOBY_1.jpg,2,1,3,3,3,44,,,2,0,5.5456,0,44,44,44,1,,
,,,A1I7H6RDJS4EKN,67,Male,6,2023-01-18_08h02.21.211,perception_pilot,2022.2.4,MacIntel,19.99120387,,,,,,,,,,,,,LARK_BUNTING_2.jpg,CACTUS_WREN_3.jpg,KING_VULTURE_3.jpg,EMU_3.jpg,GRANDALA_4.jpg,2,1,3,3,3,45,,,3,1,3.9571,0,45,45,45,1,,
,,,A1I7H6RDJS4EKN,67,Male,6,2023-01-18_08h02.21.211,perception_pilot,2022.2.4,MacIntel,19.99120387,,,,,,,,,,,,,RED_FACED_WARBLER_1.jpg,CAPE_GLOSSY_STARLING_2.jpg,CRESTED_OROPENDOLA_4.jpg,EMU_5.jpg,BLACK_VENTED_SHEARWATER_4.jpg,3,1,2,3,1,46,,,3,0,16.3565,0,46,46,46,1,,
,,,A1I7H6RDJS4EKN,67,Male,6,2023-01-18_08h02.21.211,perception_pilot,2022.2.4,MacIntel,19.99120387,,,,,,,,,,,,,MCKAYS_BUNTING_3.jpg,IWI_2.jpg,EMU_4.jpg,PAINTED_BUNTING_1.jpg,AMERICAN_GOLDFINCH_4.jpg,1,2,3,2,2,47,,,1,0,7.0055,0,47,47,47,1,,
,,,A1I7H6RDJS4EKN,67,Male,6,2023-01-18_08h02.21.211,perception_pilot,2022.2.4,MacIntel,19.99120387,,,,,,,,,,,,,right.png,right.png,up.png,right.png,left.png,,,,,3,48,,,3,1,6.7295,0,48,48,48,1,,
,,,A1I7H6RDJS4EKN,67,Male,6,2023-01-18_08h02.21.211,perception_pilot,2022.2.4,MacIntel,19.99120387,,,,,,,,,,,,,NICOBAR_PIGEON_1.jpg,LITTLE_AUK_1.jpg,EASTERN_BLUEBIRD_3.jpg,GREY_PLOVER_5.jpg,MYNA_4.jpg,3,2,1,2,2,49,,,3,0,6.8031,0,49,49,49,1,,
,,,A1I7H6RDJS4EKN,67,Male,6,2023-01-18_08h02.21.211,perception_pilot,2022.2.4,MacIntel,19.99120387,,,,,,,,,,,,,ARARIPE_MANAKIN_4.jpg,BLACK_VULTURE_1.jpg,KIWI_3.jpg,BORNEAN_LEAFBIRD_3.jpg,UMBRELLA_BIRD_5.jpg,1,3,2,2,3,50,,,2,0,4.4035,0,50,50,50,1,,
,,,A1I7H6RDJS4EKN,67,Male,6,2023-01-18_08h02.21.211,perception_pilot,2022.2.4,MacIntel,19.99120387,,,,,,,,,,,,,RED_HEADED_WOODPECKER_5.jpg,GREAT_GRAY_OWL_5.jpg,KIWI_1.jpg,COLLARED_ARACARI_1.jpg,CRIMSON_CHAT_3.jpg,1,3,2,1,1,51,,,1,1,10.8156,0,51,51,51,1,,
,,,A1I7H6RDJS4EKN,67,Male,6,2023-01-18_08h02.21.211,perception_pilot,2022.2.4,MacIntel,19.99120387,,,,,,,,,,,,,GILA_WOODPECKER_3.jpg,BLACK_SWAN_3.jpg,EGYPTIAN_GOOSE_3.jpg,BLACK_VULTURE_3.jpg,SNOWY_OWL_4.jpg,1,3,2,1,1,52,,,1,1,2.9745,0,52,52,52,1,,
,,,A1I7H6RDJS4EKN,67,Male,6,2023-01-18_08h02.21.211,perception_pilot,2022.2.4,MacIntel,19.99120387,,,,,,,,,,,,,PARUS_MAJOR_1.jpg,PINK_ROBIN_3.jpg,FAIRY_BLUEBIRD_5.jpg,CALIFORNIA_GULL_2.jpg,COMMON_POORWILL_1.jpg,3,2,1,3,1,53,,,1,1,3.2068,0,53,53,53,1,,
,,,A1I7H6RDJS4EKN,67,Male,6,2023-01-18_08h02.21.211,perception_pilot,2022.2.4,MacIntel,19.99120387,,,,,,,,,,,,,PINK_ROBIN_4.jpg,ALBATROSS_4.jpg,COMMON_IORA_4.jpg,SPOONBILL_3.jpg,JACK_SNIPE_5.jpg,3,1,2,2,3,54,,,1,0,5.286,0,54,54,54,1,,
,,,A1I7H6RDJS4EKN,67,Male,6,2023-01-18_08h02.21.211,perception_pilot,2022.2.4,MacIntel,19.99120387,,,,,,,,,,,,,CHUKAR_PARTRIDGE_5.jpg,BLACK_THROATED_BUSHTIT_1.jpg,OSTRICH_3.jpg,PUFFIN_3.jpg,RAZORBILL_1.jpg,1,3,2,3,2,55,,,1,0,7.938,0,55,55,55,1,,
,,,A1I7H6RDJS4EKN,67,Male,6,2023-01-18_08h02.21.211,perception_pilot,2022.2.4,MacIntel,19.99120387,,,,,,,,,,,,,LESSER_ADJUTANT_4.jpg,RAINBOW_LORIKEET_5.jpg,ALTAMIRA_YELLOWTHROAT_5.jpg,FAIRY_TERN_3.jpg,CHATTERING_LORY_2.jpg,1,3,2,2,3,56,,,3,1,9.0489,0,56,56,56,1,,
,,,A1I7H6RDJS4EKN,67,Male,6,2023-01-18_08h02.21.211,perception_pilot,2022.2.4,MacIntel,19.99120387,,,,,,,,,,,,,GOLDEN_CHEEKED_WARBLER_2.jpg,SPOONBILL_1.jpg,RED_HEADED_DUCK_3.jpg,WHITE_THROATED_BEE_EATER_1.jpg,AMERICAN_FLAMINGO_3.jpg,1,3,2,1,1,57,,,1,1,8.7899,0,57,57,57,1,,
,,,A1I7H6RDJS4EKN,67,Male,6,2023-01-18_08h02.21.211,perception_pilot,2022.2.4,MacIntel,19.99120387,,,,,,,,,,,,,INDIGO_BUNTING_1.jpg,DARWINS_FLYCATCHER_2.jpg,FRIGATE_4.jpg,SNOWY_PLOVER_1.jpg,BALTIMORE_ORIOLE_4.jpg,1,2,3,3,3,58,,,3,1,13.0531,0,58,58,58,1,,
,,,A1I7H6RDJS4EKN,67,Male,6,2023-01-18_08h02.21.211,perception_pilot,2022.2.4,MacIntel,19.99120387,,,,,,,,,,,,,BREWERS_BLACKBIRD_3.jpg,GOLDEN_CHEEKED_WARBLER_3.jpg,AMERICAN_AVOCET_5.jpg,CAPE_LONGCLAW_2.jpg,PEACOCK_4.jpg,2,3,1,2,1,59,,,2,0,3.7313,0,59,59,59,1,,
,,,A1I7H6RDJS4EKN,67,Male,6,2023-01-18_08h02.21.211,perception_pilot,2022.2.4,MacIntel,19.99120387,,,,,,,,,,,,,OCELLATED_TURKEY_1.jpg,LARK_BUNTING_1.jpg,PURPLE_SWAMPHEN_4.jpg,CHIPPING_SPARROW_1.jpg,AMERICAN_KESTREL_2.jpg,3,1,2,2,3,60,,,3,1,6.8062,0,60,60,60,1,,
,,,A1I7H6RDJS4EKN,67,Male,6,2023-01-18_08h02.21.211,perception_pilot,2022.2.4,MacIntel,19.99120387,,,,,,,,,,,,,DOUBLE_BRESTED_CORMARANT_5.jpg,EURASIAN_MAGPIE_4.jpg,CHINESE_POND_HERON_2.jpg,PATAGONIAN_SIERRA_FINCH_2.jpg,GILDED_FLICKER_2.jpg,3,2,1,2,2,61,,,3,0,5.8594,0,61,61,61,1,,
,,,A1I7H6RDJS4EKN,67,Male,6,2023-01-18_08h02.21.211,perception_pilot,2022.2.4,MacIntel,19.99120387,,,,,,,,,,,,,BROWN_THRASHER_3.jpg,BLACK_BAZA_4.jpg,DOUBLE_EYED_FIG_PARROT_3.jpg,CRESTED_KINGFISHER_3.jpg,OYSTER_CATCHER_4.jpg,1,3,2,3,2,62,,,1,0,3.8323,0,62,62,62,1,,
,,,A1I7H6RDJS4EKN,67,Male,6,2023-01-18_08h02.21.211,perception_pilot,2022.2.4,MacIntel,19.99120387,,,,,,,,,,,,,CASSOWARY_1.jpg,ROSY_FACED_LOVEBIRD_4.jpg,SCARLET_MACAW_1.jpg,DEMOISELLE_CRANE_1.jpg,CEDAR_WAXWING_4.jpg,2,3,1,1,3,63,,,3,1,8.714,0,63,63,63,1,,
,,,A1I7H6RDJS4EKN,67,Male,6,2023-01-18_08h02.21.211,perception_pilot,2022.2.4,MacIntel,19.99120387,,,,,,,,,,,,,LITTLE_AUK_5.jpg,SANDHILL_CRANE_3.jpg,SCARLET_IBIS_1.jpg,BEARDED_BELLBIRD_1.jpg,ORANGE_BRESTED_BUNTING_3.jpg,1,3,2,1,1,64,,,3,0,30.9523,0,64,64,64,1,,
,,,A1I7H6RDJS4EKN,67,Male,6,2023-01-18_08h02.21.211,perception_pilot,2022.2.4,MacIntel,19.99120387,,,,,,,,,,,,,,,,,,,,,,,,,,,,,,,,,,space,15.0822
