button.numClicks,button.timesOn,button.timesOff,workID,Age,Gender,Hours slept (last night),date,expName,psychopyVersion,OS,frameRate,key_resp_13.keys,key_resp_13.rt,key_resp_14.keys,key_resp_14.rt,key_resp_3.keys,key_resp_3.corr,key_resp_3.rt,demo_loop.thisRepN,demo_loop.thisTrialN,demo_loop.thisN,demo_loop.thisIndex,demo_loop.ran,target_image,target_match,option1,option2,option3,option1_layer,option2_layer,option3_layer,match_layer,correct_answer,trial_num,key_resp_15.keys,key_resp_15.rt,key_resp.keys,key_resp.corr,key_resp.rt,trials.thisRepN,trials.thisTrialN,trials.thisN,trials.thisIndex,trials.ran,key_resp_end_2.keys,key_resp_end_2.rt
1,[77.01319999992847],[77.01319999992847],A1XK98QJU92M4E,35,female,8,2023-01-18_14h18.56.870,perception_pilot,2022.2.4,Win32,2.309687522,,,,,,,,,,,,,,,,,,,,,,,,,,,,,,,,,,,
,,,A1XK98QJU92M4E,35,female,8,2023-01-18_14h18.56.870,perception_pilot,2022.2.4,Win32,2.309687522,space,29.3518,,,,,,,,,,,,,,,,,,,,,,,,,,,,,,,,,
,,,A1XK98QJU92M4E,35,female,8,2023-01-18_14h18.56.870,perception_pilot,2022.2.4,Win32,2.309687522,,,space,19.2578,,,,,,,,,,,,,,,,,,,,,,,,,,,,,,,
,,,A1XK98QJU92M4E,35,female,8,2023-01-18_14h18.56.870,perception_pilot,2022.2.4,Win32,2.309687522,,,,,,,,,,,,,,,,,,,,,,,,,,,,,,,,,,,
,,,A1XK98QJU92M4E,35,female,8,2023-01-18_14h18.56.870,perception_pilot,2022.2.4,Win32,2.309687522,,,,,1,0,13.5755,0,0,0,0,1,ASIAN_CRESTED_IBIS_4.jpg,OYSTER_CATCHER_2.jpg,IVORY_GULL_2.jpg,CANARY_2.jpg,AMERICAN_KESTREL_1.jpg,3,1,2,2,3,0,,,,,,,,,,,,
,,,A1XK98QJU92M4E,35,female,8,2023-01-18_14h18.56.870,perception_pilot,2022.2.4,Win32,2.309687522,,,,,3,1,10.193,0,1,1,1,1,STRIPPED_SWALLOW_1.jpg,GO_AWAY_BIRD_5.jpg,EMPEROR_PENGUIN_5.jpg,MAGPIE_GOOSE_4.jpg,WHITE_THROATED_BEE_EATER_5.jpg,1,2,3,3,3,1,,,,,,,,,,,,
,,,A1XK98QJU92M4E,35,female,8,2023-01-18_14h18.56.870,perception_pilot,2022.2.4,Win32,2.309687522,,,,,2,0,12.9164,0,2,2,2,1,left.png,left.png,right.png,up.png,left.png,,,,,1,2,,,,,,,,,,,,
,,,A1XK98QJU92M4E,35,female,8,2023-01-18_14h18.56.870,perception_pilot,2022.2.4,Win32,2.309687522,,,,,1,1,9.4871,0,3,3,3,1,DOUBLE_BRESTED_CORMARANT_5.jpg,CHINESE_POND_HERON_2.jpg,ANHINGA_5.jpg,GILDED_FLICKER_2.jpg,EURASIAN_MAGPIE_4.jpg,3,1,2,3,1,3,,,,,,,,,,,,
,,,A1XK98QJU92M4E,35,female,8,2023-01-18_14h18.56.870,perception_pilot,2022.2.4,Win32,2.309687522,,,,,3,1,14.6389,0,4,4,4,1,INDIGO_BUNTING_1.jpg,FRIGATE_4.jpg,SNOWY_PLOVER_1.jpg,DARWINS_FLYCATCHER_2.jpg,POMARINE_JAEGER_5.jpg,2,3,1,1,3,4,,,,,,,,,,,,
,,,A1XK98QJU92M4E,35,female,8,2023-01-18_14h18.56.870,perception_pilot,2022.2.4,Win32,2.309687522,,,,,3,0,14.5415,0,5,5,5,1,GRAY_KINGBIRD_5.jpg,BALD_EAGLE_2.jpg,PEACOCK_1.jpg,COCK_OF_THE__ROCK_4.jpg,AFRICAN_FIREFINCH_3.jpg,1,2,3,1,1,5,,,,,,,,,,,,
,,,A1XK98QJU92M4E,35,female,8,2023-01-18_14h18.56.870,perception_pilot,2022.2.4,Win32,2.309687522,,,,,2,0,7.2546,0,6,6,6,1,GYRFALCON_1.jpg,CINNAMON_ATTILA_2.jpg,ASHY_STORM_PETREL_2.jpg,FAIRY_TERN_1.jpg,CAPE_ROCK_THRUSH_2.jpg,1,3,2,2,3,6,,,,,,,,,,,,
,,,A1XK98QJU92M4E,35,female,8,2023-01-18_14h18.56.870,perception_pilot,2022.2.4,Win32,2.309687522,,,,,3,0,14.0154,0,7,7,7,1,PYGMY_KINGFISHER_5.jpg,NORTHERN_PARULA_5.jpg,BLUE_THROATED_TOUCANET_3.jpg,GREAT_POTOO_3.jpg,GRANDALA_2.jpg,3,2,1,3,1,7,,,,,,,,,,,,
,,,A1XK98QJU92M4E,35,female,8,2023-01-18_14h18.56.870,perception_pilot,2022.2.4,Win32,2.309687522,,,,,1,1,13.583,0,8,8,8,1,ARARIPE_MANAKIN_4.jpg,BLACK_VULTURE_1.jpg,UMBRELLA_BIRD_5.jpg,BORNEAN_LEAFBIRD_3.jpg,KIWI_3.jpg,2,3,1,2,1,8,,,,,,,,,,,,
,,,A1XK98QJU92M4E,35,female,8,2023-01-18_14h18.56.870,perception_pilot,2022.2.4,Win32,2.309687522,,,,,2,0,6.8833,0,9,9,9,1,TASMANIAN_HEN_5.jpg,BLACKBURNIAM_WARBLER_3.jpg,CREAM_COLORED_WOODPECKER_4.jpg,COPPERY_TAILED_COUCAL_1.jpg,AFRICAN_EMERALD_CUCKOO_5.jpg,1,3,2,1,1,9,,,,,,,,,,,,
,,,A1XK98QJU92M4E,35,female,8,2023-01-18_14h18.56.870,perception_pilot,2022.2.4,Win32,2.309687522,,,,,,,,,,,,,,,,,,,,,,,,space,5.4851,,,,,,,,,,
,,,A1XK98QJU92M4E,35,female,8,2023-01-18_14h18.56.870,perception_pilot,2022.2.4,Win32,2.309687522,,,,,,,,,,,,,GOLDEN_CHLOROPHONIA_5.jpg,ROADRUNNER_2.jpg,VERMILION_FLYCATHER_5.jpg,WHIMBREL_1.jpg,COMMON_HOUSE_MARTIN_4.jpg,3,1,2,1,2,0,,,2,1,7.8534,0,0,0,0,1,,
,,,A1XK98QJU92M4E,35,female,8,2023-01-18_14h18.56.870,perception_pilot,2022.2.4,Win32,2.309687522,,,,,,,,,,,,,RUBY_THROATED_HUMMINGBIRD_1.jpg,FRIGATE_1.jpg,NORTHERN_CARDINAL_1.jpg,EURASIAN_GOLDEN_ORIOLE_5.jpg,VULTURINE_GUINEAFOWL_4.jpg,3,1,2,3,1,1,,,1,1,7.3496,0,1,1,1,1,,
,,,A1XK98QJU92M4E,35,female,8,2023-01-18_14h18.56.870,perception_pilot,2022.2.4,Win32,2.309687522,,,,,,,,,,,,,left.png,left.png,up.png,left.png,right.png,,,,,3,2,,,2,0,9.0167,0,2,2,2,1,,
,,,A1XK98QJU92M4E,35,female,8,2023-01-18_14h18.56.870,perception_pilot,2022.2.4,Win32,2.309687522,,,,,,,,,,,,,LESSER_ADJUTANT_5.jpg,RED_HEADED_WOODPECKER_1.jpg,CASPIAN_TERN_2.jpg,AMERICAN_GOLDFINCH_1.jpg,GAMBELS_QUAIL_1.jpg,3,1,2,3,1,3,,,3,0,10.7103,0,3,3,3,1,,
,,,A1XK98QJU92M4E,35,female,8,2023-01-18_14h18.56.870,perception_pilot,2022.2.4,Win32,2.309687522,,,,,,,,,,,,,OCELLATED_TURKEY_1.jpg,PURPLE_SWAMPHEN_4.jpg,GLOSSY_IBIS_2.jpg,CHIPPING_SPARROW_1.jpg,LARK_BUNTING_1.jpg,3,1,2,3,1,4,,,2,0,7.8181,0,4,4,4,1,,
,,,A1XK98QJU92M4E,35,female,8,2023-01-18_14h18.56.870,perception_pilot,2022.2.4,Win32,2.309687522,,,,,,,,,,,,,MCKAYS_BUNTING_3.jpg,IWI_2.jpg,PAINTED_BUNTING_1.jpg,EMU_4.jpg,AMERICAN_GOLDFINCH_4.jpg,2,1,3,2,1,5,,,3,0,7.3853,0,5,5,5,1,,
,,,A1XK98QJU92M4E,35,female,8,2023-01-18_14h18.56.870,perception_pilot,2022.2.4,Win32,2.309687522,,,,,,,,,,,,,GOLDEN_CHEEKED_WARBLER_2.jpg,WHITE_THROATED_BEE_EATER_1.jpg,SPOONBILL_1.jpg,DARJEELING_WOODPECKER_1.jpg,AMERICAN_FLAMINGO_3.jpg,1,3,2,3,2,6,,,2,1,7.802,0,6,6,6,1,,
,,,A1XK98QJU92M4E,35,female,8,2023-01-18_14h18.56.870,perception_pilot,2022.2.4,Win32,2.309687522,,,,,,,,,,,,,MYNA_1.jpg,SANDHILL_CRANE_4.jpg,OSTRICH_2.jpg,PARADISE_TANAGER_3.jpg,GREY_PLOVER_4.jpg,1,3,2,1,1,7,,,1,1,6.3131,0,7,7,7,1,,
,,,A1XK98QJU92M4E,35,female,8,2023-01-18_14h18.56.870,perception_pilot,2022.2.4,Win32,2.309687522,,,,,,,,,,,,,OVENBIRD_5.jpg,FAIRY_PENGUIN_1.jpg,JABIRU_4.jpg,PURPLE_FINCH_5.jpg,ABBOTTS_BOOBY_2.jpg,1,3,2,2,3,8,,,2,0,6.2909,0,8,8,8,1,,
,,,A1XK98QJU92M4E,35,female,8,2023-01-18_14h18.56.870,perception_pilot,2022.2.4,Win32,2.309687522,,,,,,,,,,,,,NICOBAR_PIGEON_1.jpg,MYNA_4.jpg,EASTERN_BLUEBIRD_3.jpg,NORTHERN_MOCKINGBIRD_4.jpg,LITTLE_AUK_1.jpg,3,1,2,1,2,9,,,3,0,10.5209,0,9,9,9,1,,
,,,A1XK98QJU92M4E,35,female,8,2023-01-18_14h18.56.870,perception_pilot,2022.2.4,Win32,2.309687522,,,,,,,,,,,,,PARUS_MAJOR_1.jpg,COMMON_POORWILL_1.jpg,CALIFORNIA_GULL_2.jpg,OSTRICH_4.jpg,PINK_ROBIN_3.jpg,2,1,3,1,2,10,,,2,1,8.2724,0,10,10,10,1,,
,,,A1XK98QJU92M4E,35,female,8,2023-01-18_14h18.56.870,perception_pilot,2022.2.4,Win32,2.309687522,,,,,,,,,,,,,CRESTED_CARACARA_4.jpg,TOUCHAN_4.jpg,CREAM_COLORED_WOODPECKER_1.jpg,FAIRY_PENGUIN_5.jpg,BLUE_DACNIS_4.jpg,3,1,2,3,1,11,,,1,1,7.3342,0,11,11,11,1,,
,,,A1XK98QJU92M4E,35,female,8,2023-01-18_14h18.56.870,perception_pilot,2022.2.4,Win32,2.309687522,,,,,,,,,,,,,EASTERN_TOWEE_2.jpg,NORTHERN_BEARDLESS_TYRANNULET_5.jpg,GOLDEN_CHEEKED_WARBLER_1.jpg,SANDHILL_CRANE_2.jpg,HYACINTH_MACAW_4.jpg,3,1,2,3,1,12,,,1,1,6.8744,0,12,12,12,1,,
,,,A1XK98QJU92M4E,35,female,8,2023-01-18_14h18.56.870,perception_pilot,2022.2.4,Win32,2.309687522,,,,,,,,,,,,,RUBY_THROATED_HUMMINGBIRD_2.jpg,APAPANE_4.jpg,SCARLET_MACAW_3.jpg,GOLDEN_PARAKEET_2.jpg,DUSKY_ROBIN_5.jpg,2,1,3,2,1,13,,,1,1,5.7699,0,13,13,13,1,,
,,,A1XK98QJU92M4E,35,female,8,2023-01-18_14h18.56.870,perception_pilot,2022.2.4,Win32,2.309687522,,,,,,,,,,,,,BALI_STARLING_1.jpg,CAPE_LONGCLAW_5.jpg,PURPLE_FINCH_2.jpg,IBERIAN_MAGPIE_1.jpg,OSTRICH_5.jpg,2,3,1,1,3,14,,,2,0,8.7997,0,14,14,14,1,,
,,,A1XK98QJU92M4E,35,female,8,2023-01-18_14h18.56.870,perception_pilot,2022.2.4,Win32,2.309687522,,,,,,,,,,,,,IVORY_GULL_1.jpg,EASTERN_GOLDEN_WEAVER_5.jpg,FAIRY_TERN_4.jpg,WILSONS_BIRD_OF_PARADISE_4.jpg,RED_FODY_1.jpg,3,1,2,2,3,15,,,1,0,8.4164,0,15,15,15,1,,
,,,A1XK98QJU92M4E,35,female,8,2023-01-18_14h18.56.870,perception_pilot,2022.2.4,Win32,2.309687522,,,,,,,,,,,,,VERMILION_FLYCATHER_3.jpg,INDIAN_BUSTARD_1.jpg,RED_BEARDED_BEE_EATER_1.jpg,CROWNED_PIGEON_1.jpg,SATYR_TRAGOPAN_1.jpg,3,2,1,1,3,16,,,3,1,6.2593,0,16,16,16,1,,
,,,A1XK98QJU92M4E,35,female,8,2023-01-18_14h18.56.870,perception_pilot,2022.2.4,Win32,2.309687522,,,,,,,,,,,,,NORTHERN_JACANA_2.jpg,VULTURINE_GUINEAFOWL_5.jpg,CRAB_PLOVER_3.jpg,GREEN_BROADBILL_1.jpg,RED_FACED_CORMORANT_1.jpg,2,1,3,2,1,17,,,1,1,6.3843,0,17,17,17,1,,
,,,A1XK98QJU92M4E,35,female,8,2023-01-18_14h18.56.870,perception_pilot,2022.2.4,Win32,2.309687522,,,,,,,,,,,,,GREY_PLOVER_1.jpg,HYACINTH_MACAW_3.jpg,AMETHYST_WOODSTAR_4.jpg,TURKEY_VULTURE_1.jpg,GOULDIAN_FINCH_4.jpg,3,1,2,1,2,18,,,3,0,6.2875,0,18,18,18,1,,
,,,A1XK98QJU92M4E,35,female,8,2023-01-18_14h18.56.870,perception_pilot,2022.2.4,Win32,2.309687522,,,,,,,,,,,,,CRESTED_NUTHATCH_2.jpg,CANARY_1.jpg,AFRICAN_FIREFINCH_1.jpg,SCARLET_IBIS_3.jpg,VERMILION_FLYCATHER_4.jpg,2,1,3,3,3,19,,,2,0,12.0665,0,19,19,19,1,,
,,,A1XK98QJU92M4E,35,female,8,2023-01-18_14h18.56.870,perception_pilot,2022.2.4,Win32,2.309687522,,,,,,,,,,,,,WHITE_CHEEKED_TURACO_5.jpg,PYGMY_KINGFISHER_2.jpg,MALAGASY_WHITE_EYE_5.jpg,SNOWY_EGRET_1.jpg,CHINESE_POND_HERON_1.jpg,3,2,1,3,1,20,,,3,0,4.7312,0,20,20,20,1,,
,,,A1XK98QJU92M4E,35,female,8,2023-01-18_14h18.56.870,perception_pilot,2022.2.4,Win32,2.309687522,,,,,,,,,,,,,HAWAIIAN_GOOSE_4.jpg,WATTLED_LAPWING_3.jpg,BROWN_NOODY_5.jpg,HIMALAYAN_MONAL_2.jpg,RED_BEARDED_BEE_EATER_3.jpg,3,2,1,3,1,21,,,1,1,10.9471,0,21,21,21,1,,
,,,A1XK98QJU92M4E,35,female,8,2023-01-18_14h18.56.870,perception_pilot,2022.2.4,Win32,2.309687522,,,,,,,,,,,,,CHUKAR_PARTRIDGE_5.jpg,RAZORBILL_1.jpg,OSTRICH_3.jpg,ASIAN_DOLLARD_BIRD_4.jpg,BLACK_THROATED_BUSHTIT_1.jpg,1,2,3,2,2,22,,,2,1,7.3251,0,22,22,22,1,,
,,,A1XK98QJU92M4E,35,female,8,2023-01-18_14h18.56.870,perception_pilot,2022.2.4,Win32,2.309687522,,,,,,,,,,,,,SCARLET_TANAGER_2.jpg,CARMINE_BEE-EATER_1.jpg,LITTLE_AUK_3.jpg,BORNEAN_LEAFBIRD_1.jpg,BIRD_OF_PARADISE_3.jpg,2,3,1,1,3,23,,,2,0,9.3606,0,23,23,23,1,,
,,,A1XK98QJU92M4E,35,female,8,2023-01-18_14h18.56.870,perception_pilot,2022.2.4,Win32,2.309687522,,,,,,,,,,,,,GILA_WOODPECKER_3.jpg,BLACK_SWAN_3.jpg,SNOWY_OWL_4.jpg,EGYPTIAN_GOOSE_3.jpg,BLACK_VULTURE_3.jpg,2,1,3,1,2,24,,,3,0,8.3861,0,24,24,24,1,,
,,,A1XK98QJU92M4E,35,female,8,2023-01-18_14h18.56.870,perception_pilot,2022.2.4,Win32,2.309687522,,,,,,,,,,,,,LITTLE_AUK_5.jpg,ORANGE_BRESTED_BUNTING_3.jpg,LILAC_ROLLER_5.jpg,BEARDED_BELLBIRD_1.jpg,SANDHILL_CRANE_3.jpg,2,3,1,2,1,25,,,1,1,6.8715,0,25,25,25,1,,
,,,A1XK98QJU92M4E,35,female,8,2023-01-18_14h18.56.870,perception_pilot,2022.2.4,Win32,2.309687522,,,,,,,,,,,,,INLAND_DOTTEREL_4.jpg,NICOBAR_PIGEON_4.jpg,CRESTED_KINGFISHER_1.jpg,COCK_OF_THE__ROCK_5.jpg,JANDAYA_PARAKEET_5.jpg,3,2,1,2,2,26,,,1,0,7.3637,0,26,26,26,1,,
,,,A1XK98QJU92M4E,35,female,8,2023-01-18_14h18.56.870,perception_pilot,2022.2.4,Win32,2.309687522,,,,,,,,,,,,,right.png,right.png,right.png,left.png,up.png,,,,,2,27,,,1,0,7.0408,0,27,27,27,1,,
,,,A1XK98QJU92M4E,35,female,8,2023-01-18_14h18.56.870,perception_pilot,2022.2.4,Win32,2.309687522,,,,,,,,,,,,,CASSOWARY_1.jpg,DEMOISELLE_CRANE_1.jpg,SCARLET_MACAW_1.jpg,WHITE_NECKED_RAVEN_5.jpg,ROSY_FACED_LOVEBIRD_4.jpg,2,3,1,3,2,28,,,2,1,5.7695,0,28,28,28,1,,
,,,A1XK98QJU92M4E,35,female,8,2023-01-18_14h18.56.870,perception_pilot,2022.2.4,Win32,2.309687522,,,,,,,,,,,,,TREE_SWALLOW_4.jpg,RED_FODY_3.jpg,RED_HEADED_DUCK_5.jpg,BORNEAN_LEAFBIRD_4.jpg,ROBIN_3.jpg,1,3,2,3,2,29,,,3,0,9.9839,0,29,29,29,1,,
,,,A1XK98QJU92M4E,35,female,8,2023-01-18_14h18.56.870,perception_pilot,2022.2.4,Win32,2.309687522,,,,,,,,,,,,,RUFOUS_KINGFISHER_1.jpg,HORNED_SUNGEM_4.jpg,MAGPIE_GOOSE_3.jpg,GREEN_JAY_4.jpg,BLACK_VENTED_SHEARWATER_2.jpg,2,3,1,3,2,30,,,2,1,7.9414,0,30,30,30,1,,
,,,A1XK98QJU92M4E,35,female,8,2023-01-18_14h18.56.870,perception_pilot,2022.2.4,Win32,2.309687522,,,,,,,,,,,,,ALPINE_CHOUGH_4.jpg,SNOWY_EGRET_2.jpg,AMERICAN_FLAMINGO_2.jpg,EUROPEAN_GOLDFINCH_3.jpg,BOBOLINK_3.jpg,1,2,3,1,1,31,,,2,0,5.8519,0,31,31,31,1,,
,,,A1XK98QJU92M4E,35,female,8,2023-01-18_14h18.56.870,perception_pilot,2022.2.4,Win32,2.309687522,,,,,,,,,,,,,RUBY_THROATED_HUMMINGBIRD_3.jpg,MYNA_5.jpg,GOLDEN_EAGLE_2.jpg,NORTHERN_SHOVELER_1.jpg,WHITE_CHEEKED_TURACO_4.jpg,2,3,1,2,1,32,,,1,1,10.9586,0,32,32,32,1,,
,,,A1XK98QJU92M4E,35,female,8,2023-01-18_14h18.56.870,perception_pilot,2022.2.4,Win32,2.309687522,,,,,,,,,,,,,LARK_BUNTING_2.jpg,EMU_3.jpg,CACTUS_WREN_3.jpg,KING_VULTURE_3.jpg,KING_VULTURE_5.jpg,3,2,1,1,3,33,,,1,0,1.0917,0,33,33,33,1,,
,,,A1XK98QJU92M4E,35,female,8,2023-01-18_14h18.56.870,perception_pilot,2022.2.4,Win32,2.309687522,,,,,,,,,,,,,PEACOCK_3.jpg,STRAWBERRY_FINCH_4.jpg,RED_FODY_5.jpg,ANIANIAU_2.jpg,IBERIAN_MAGPIE_2.jpg,2,1,3,2,1,34,,,1,1,9.5397,0,34,34,34,1,,
,,,A1XK98QJU92M4E,35,female,8,2023-01-18_14h18.56.870,perception_pilot,2022.2.4,Win32,2.309687522,,,,,,,,,,,,,RED_FACED_WARBLER_1.jpg,EMU_5.jpg,SPOONBILL_4.jpg,BLACK_VENTED_SHEARWATER_4.jpg,CAPE_GLOSSY_STARLING_2.jpg,1,2,3,1,1,35,,,1,1,7.9194,0,35,35,35,1,,
,,,A1XK98QJU92M4E,35,female,8,2023-01-18_14h18.56.870,perception_pilot,2022.2.4,Win32,2.309687522,,,,,,,,,,,,,BROWN_NOODY_3.jpg,SPANGLED_COTINGA_4.jpg,COMMON_IORA_3.jpg,GUINEA_TURACO_5.jpg,KIWI_2.jpg,2,3,1,2,1,36,,,2,0,6.4665,0,36,36,36,1,,
,,,A1XK98QJU92M4E,35,female,8,2023-01-18_14h18.56.870,perception_pilot,2022.2.4,Win32,2.309687522,,,,,,,,,,,,,FLAME_BOWERBIRD_3.jpg,INDIAN_BUSTARD_2.jpg,SPOON_BILED_SANDPIPER_5.jpg,BROWN_THRASHER_4.jpg,QUETZAL_3.jpg,1,2,3,1,1,37,,,3,0,10.6474,0,37,37,37,1,,
,,,A1XK98QJU92M4E,35,female,8,2023-01-18_14h18.56.870,perception_pilot,2022.2.4,Win32,2.309687522,,,,,,,,,,,,,SPLENDID_WREN_1.jpg,CUBAN_TODY_4.jpg,PARAKETT__AKULET_3.jpg,CRESTED_KINGFISHER_4.jpg,DOUBLE_BRESTED_CORMARANT_1.jpg,1,3,2,3,2,38,,,2,1,8.0328,0,38,38,38,1,,
,,,A1XK98QJU92M4E,35,female,8,2023-01-18_14h18.56.870,perception_pilot,2022.2.4,Win32,2.309687522,,,,,,,,,,,,,IVORY_GULL_3.jpg,SNOWY_EGRET_4.jpg,FLAME_TANAGER_3.jpg,INDIGO_FLYCATCHER_2.jpg,FAN_TAILED_WIDOW_1.jpg,2,1,3,3,3,39,,,2,0,8.4654,0,39,39,39,1,,
,,,A1XK98QJU92M4E,35,female,8,2023-01-18_14h18.56.870,perception_pilot,2022.2.4,Win32,2.309687522,,,,,,,,,,,,,NORTHERN_JACANA_3.jpg,BAR-TAILED_GODWIT_3.jpg,SHORT_BILLED_DOWITCHER_5.jpg,REGENT_BOWERBIRD_5.jpg,BANANAQUIT_3.jpg,3,2,1,3,1,40,,,1,1,6.3642,0,40,40,40,1,,
,,,A1XK98QJU92M4E,35,female,8,2023-01-18_14h18.56.870,perception_pilot,2022.2.4,Win32,2.309687522,,,,,,,,,,,,,LESSER_ADJUTANT_4.jpg,ALTAMIRA_YELLOWTHROAT_5.jpg,FAIRY_TERN_3.jpg,DOUBLE_EYED_FIG_PARROT_4.jpg,RAINBOW_LORIKEET_5.jpg,3,1,2,1,2,41,,,2,1,7.5502,0,41,41,41,1,,
,,,A1XK98QJU92M4E,35,female,8,2023-01-18_14h18.56.870,perception_pilot,2022.2.4,Win32,2.309687522,,,,,,,,,,,,,CERULEAN_WARBLER_1.jpg,BANANAQUIT_1.jpg,CRESTED_OROPENDOLA_5.jpg,ORIENTAL_BAY_OWL_1.jpg,AMERICAN_FLAMINGO_5.jpg,3,1,2,3,1,42,,,3,0,9.7793,0,42,42,42,1,,
,,,A1XK98QJU92M4E,35,female,8,2023-01-18_14h18.56.870,perception_pilot,2022.2.4,Win32,2.309687522,,,,,,,,,,,,,KILLDEAR_2.jpg,ALEXANDRINE_PARAKEET_5.jpg,AZURE_TIT_5.jpg,GOLDEN_CHLOROPHONIA_2.jpg,CAATINGA_CACHOLOTE_4.jpg,3,1,2,1,2,43,,,2,1,5.4133,0,43,43,43,1,,
,,,A1XK98QJU92M4E,35,female,8,2023-01-18_14h18.56.870,perception_pilot,2022.2.4,Win32,2.309687522,,,,,,,,,,,,,SKUA_4.jpg,PARUS_MAJOR_2.jpg,PURPLE_FINCH_4.jpg,ROADRUNNER_5.jpg,SNOWY_EGRET_5.jpg,2,3,1,2,1,44,,,3,0,9.3893,0,44,44,44,1,,
,,,A1XK98QJU92M4E,35,female,8,2023-01-18_14h18.56.870,perception_pilot,2022.2.4,Win32,2.309687522,,,,,,,,,,,,,PINK_ROBIN_4.jpg,ALBATROSS_4.jpg,COMMON_IORA_4.jpg,JACK_SNIPE_5.jpg,SPOONBILL_3.jpg,3,2,1,2,2,45,,,1,0,10.536,0,45,45,45,1,,
,,,A1XK98QJU92M4E,35,female,8,2023-01-18_14h18.56.870,perception_pilot,2022.2.4,Win32,2.309687522,,,,,,,,,,,,,right.png,right.png,left.png,up.png,right.png,,,,,1,46,,,2,0,4.392,0,46,46,46,1,,
,,,A1XK98QJU92M4E,35,female,8,2023-01-18_14h18.56.870,perception_pilot,2022.2.4,Win32,2.309687522,,,,,,,,,,,,,ASIAN_DOLLARD_BIRD_2.jpg,VIOLET_GREEN_SWALLOW_4.jpg,HAWAIIAN_GOOSE_1.jpg,VERMILION_FLYCATHER_1.jpg,ALBATROSS_2.jpg,2,3,1,3,2,47,,,2,1,7.8408,0,47,47,47,1,,
,,,A1XK98QJU92M4E,35,female,8,2023-01-18_14h18.56.870,perception_pilot,2022.2.4,Win32,2.309687522,,,,,,,,,,,,,SHOEBILL_3.jpg,MALAGASY_WHITE_EYE_3.jpg,BALD_EAGLE_5.jpg,EMERALD_TANAGER_3.jpg,GILDED_FLICKER_5.jpg,3,1,2,1,2,48,,,1,0,10.5371,0,48,48,48,1,,
,,,A1XK98QJU92M4E,35,female,8,2023-01-18_14h18.56.870,perception_pilot,2022.2.4,Win32,2.309687522,,,,,,,,,,,,,CASPIAN_TERN_1.jpg,EUROPEAN_GOLDFINCH_4.jpg,AMERICAN_GOLDFINCH_3.jpg,BRANDT_CORMARANT_4.jpg,COMMON_LOON_2.jpg,2,1,3,2,1,49,,,2,0,7.4745,0,49,49,49,1,,
,,,A1XK98QJU92M4E,35,female,8,2023-01-18_14h18.56.870,perception_pilot,2022.2.4,Win32,2.309687522,,,,,,,,,,,,,BARRED_PUFFBIRD_3.jpg,NORTHERN_CARDINAL_5.jpg,WHITE_CHEEKED_TURACO_2.jpg,CAPPED_HERON_5.jpg,VEERY_4.jpg,1,2,3,2,2,50,,,3,0,9.551,0,50,50,50,1,,
,,,A1XK98QJU92M4E,35,female,8,2023-01-18_14h18.56.870,perception_pilot,2022.2.4,Win32,2.309687522,,,,,,,,,,,,,AFRICAN_PIED_HORNBILL_5.jpg,KIWI_4.jpg,CAPUCHINBIRD_2.jpg,ALEXANDRINE_PARAKEET_1.jpg,BORNEAN_PHEASANT_4.jpg,3,2,1,1,3,51,,,3,1,7.3721,0,51,51,51,1,,
,,,A1XK98QJU92M4E,35,female,8,2023-01-18_14h18.56.870,perception_pilot,2022.2.4,Win32,2.309687522,,,,,,,,,,,,,BROWN_THRASHER_3.jpg,DOUBLE_EYED_FIG_PARROT_3.jpg,OYSTER_CATCHER_4.jpg,RED_BEARDED_BEE_EATER_4.jpg,BLACK_BAZA_4.jpg,2,1,3,1,2,52,,,2,1,7.8426,0,52,52,52,1,,
,,,A1XK98QJU92M4E,35,female,8,2023-01-18_14h18.56.870,perception_pilot,2022.2.4,Win32,2.309687522,,,,,,,,,,,,,left.png,left.png,up.png,left.png,right.png,,,,,3,53,,,3,1,3.8425,0,53,53,53,1,,
,,,A1XK98QJU92M4E,35,female,8,2023-01-18_14h18.56.870,perception_pilot,2022.2.4,Win32,2.309687522,,,,,,,,,,,,,NORTHERN_GANNET_2.jpg,PAINTED_BUNTING_5.jpg,EASTERN_TOWEE_1.jpg,MASKED_BOOBY_5.jpg,STRAWBERRY_FINCH_1.jpg,1,3,2,1,1,54,,,1,1,9.8314,0,54,54,54,1,,
,,,A1XK98QJU92M4E,35,female,8,2023-01-18_14h18.56.870,perception_pilot,2022.2.4,Win32,2.309687522,,,,,,,,,,,,,MALACHITE_KINGFISHER_2.jpg,INCA_TERN_2.jpg,GREEN_BROADBILL_5.jpg,SKUA_3.jpg,COCKATOO_2.jpg,3,1,2,2,3,55,,,3,1,8.9119,0,55,55,55,1,,
,,,A1XK98QJU92M4E,35,female,8,2023-01-18_14h18.56.870,perception_pilot,2022.2.4,Win32,2.309687522,,,,,,,,,,,,,BREWERS_BLACKBIRD_3.jpg,GOLDEN_CHEEKED_WARBLER_3.jpg,AMERICAN_AVOCET_5.jpg,CAPE_LONGCLAW_2.jpg,PEACOCK_4.jpg,2,3,1,2,1,56,,,1,1,8.4115,0,56,56,56,1,,
,,,A1XK98QJU92M4E,35,female,8,2023-01-18_14h18.56.870,perception_pilot,2022.2.4,Win32,2.309687522,,,,,,,,,,,,,right.png,right.png,left.png,right.png,up.png,,,,,1,57,,,2,0,3.7602,0,57,57,57,1,,
,,,A1XK98QJU92M4E,35,female,8,2023-01-18_14h18.56.870,perception_pilot,2022.2.4,Win32,2.309687522,,,,,,,,,,,,,ECUADORIAN_HILLSTAR_5.jpg,CRIMSON_SUNBIRD_5.jpg,SCARLET_IBIS_2.jpg,BOBOLINK_5.jpg,GREEN_BROADBILL_4.jpg,1,2,3,3,3,58,,,2,0,12.9898,0,58,58,58,1,,
,,,A1XK98QJU92M4E,35,female,8,2023-01-18_14h18.56.870,perception_pilot,2022.2.4,Win32,2.309687522,,,,,,,,,,,,,RED_HEADED_WOODPECKER_5.jpg,CRIMSON_CHAT_3.jpg,GREAT_GRAY_OWL_5.jpg,DAURIAN_REDSTART_5.jpg,COLLARED_ARACARI_1.jpg,1,2,3,2,2,59,,,2,1,13.045,0,59,59,59,1,,
,,,A1XK98QJU92M4E,35,female,8,2023-01-18_14h18.56.870,perception_pilot,2022.2.4,Win32,2.309687522,,,,,,,,,,,,,AMERICAN_PIPIT_5.jpg,HEPATIC_TANAGER_5.jpg,AMERICAN_GOLDFINCH_5.jpg,EMU_2.jpg,GREEN_MAGPIE_1.jpg,3,1,2,3,1,60,,,1,1,7.8094,0,60,60,60,1,,
,,,A1XK98QJU92M4E,35,female,8,2023-01-18_14h18.56.870,perception_pilot,2022.2.4,Win32,2.309687522,,,,,,,,,,,,,INCA_TERN_4.jpg,SMITHS_LONGSPUR_5.jpg,BORNEAN_BRISTLEHEAD_5.jpg,ELLIOTS__PHEASANT_4.jpg,FASCIATED_WREN_4.jpg,3,1,2,2,3,61,,,1,0,7.3234,0,61,61,61,1,,
,,,A1XK98QJU92M4E,35,female,8,2023-01-18_14h18.56.870,perception_pilot,2022.2.4,Win32,2.309687522,,,,,,,,,,,,,KAGU_5.jpg,IMPERIAL_SHAQ_2.jpg,EASTERN_MEADOWLARK_1.jpg,VICTORIA_CROWNED_PIGEON_5.jpg,ASHY_STORM_PETREL_1.jpg,1,3,2,3,2,62,,,3,0,5.3267,0,62,62,62,1,,
,,,A1XK98QJU92M4E,35,female,8,2023-01-18_14h18.56.870,perception_pilot,2022.2.4,Win32,2.309687522,,,,,,,,,,,,,EUROPEAN_TURTLE_DOVE_3.jpg,TEAL_DUCK_2.jpg,MALABAR_HORNBILL_2.jpg,PAINTED_BUNTING_3.jpg,SNOWY_EGRET_3.jpg,3,2,1,1,3,63,,,2,0,6.3706,0,63,63,63,1,,
,,,A1XK98QJU92M4E,35,female,8,2023-01-18_14h18.56.870,perception_pilot,2022.2.4,Win32,2.309687522,,,,,,,,,,,,,MAGPIE_GOOSE_5.jpg,HAMERKOP_1.jpg,DOUBLE_EYED_FIG_PARROT_5.jpg,LILAC_ROLLER_2.jpg,OYSTER_CATCHER_3.jpg,1,2,3,2,2,64,,,2,1,5.7263,0,64,64,64,1,,
,,,A1XK98QJU92M4E,35,female,8,2023-01-18_14h18.56.870,perception_pilot,2022.2.4,Win32,2.309687522,,,,,,,,,,,,,,,,,,,,,,,,,,,,,,,,,,space,187.4222
