button.numClicks,button.timesOn,button.timesOff,workID,Age,Gender,Hours slept (last night),date,expName,psychopyVersion,OS,frameRate,key_resp_13.keys,key_resp_13.rt,key_resp_14.keys,key_resp_14.rt,key_resp_3.keys,key_resp_3.corr,key_resp_3.rt,demo_loop.thisRepN,demo_loop.thisTrialN,demo_loop.thisN,demo_loop.thisIndex,demo_loop.ran,target_image,target_match,option1,option2,option3,option1_layer,option2_layer,option3_layer,match_layer,correct_answer,trial_num,key_resp_15.keys,key_resp_15.rt,key_resp.keys,key_resp.corr,key_resp.rt,trials.thisRepN,trials.thisTrialN,trials.thisN,trials.thisIndex,trials.ran,key_resp_end_2.keys,key_resp_end_2.rt
1,[3.8479999999999563],[3.8479999999999563],A1ZZ57VEX5B2OR,54,Male,8,2023-01-18_11h59.13.080,perception_pilot,2022.2.4,Win32,5.333333333,,,,,,,,,,,,,,,,,,,,,,,,,,,,,,,,,,,
,,,A1ZZ57VEX5B2OR,54,Male,8,2023-01-18_11h59.13.080,perception_pilot,2022.2.4,Win32,5.333333333,space,19.783,,,,,,,,,,,,,,,,,,,,,,,,,,,,,,,,,
,,,A1ZZ57VEX5B2OR,54,Male,8,2023-01-18_11h59.13.080,perception_pilot,2022.2.4,Win32,5.333333333,,,space,27.984,,,,,,,,,,,,,,,,,,,,,,,,,,,,,,,
,,,A1ZZ57VEX5B2OR,54,Male,8,2023-01-18_11h59.13.080,perception_pilot,2022.2.4,Win32,5.333333333,,,,,,,,,,,,,,,,,,,,,,,,,,,,,,,,,,,
,,,A1ZZ57VEX5B2OR,54,Male,8,2023-01-18_11h59.13.080,perception_pilot,2022.2.4,Win32,5.333333333,,,,,3,1,25.187,0,0,0,0,1,CRESTED_CARACARA_4.jpg,FAIRY_PENGUIN_5.jpg,TOUCHAN_4.jpg,BLUE_DACNIS_4.jpg,CRAB_PLOVER_5.jpg,3,2,1,1,3,0,,,,,,,,,,,,
,,,A1ZZ57VEX5B2OR,54,Male,8,2023-01-18_11h59.13.080,perception_pilot,2022.2.4,Win32,5.333333333,,,,,2,1,5.798,0,1,1,1,1,INDIGO_BUNTING_1.jpg,DARWINS_FLYCATCHER_2.jpg,FRIGATE_4.jpg,BALTIMORE_ORIOLE_4.jpg,SNOWY_PLOVER_1.jpg,1,3,2,3,2,1,,,,,,,,,,,,
,,,A1ZZ57VEX5B2OR,54,Male,8,2023-01-18_11h59.13.080,perception_pilot,2022.2.4,Win32,5.333333333,,,,,1,1,13.283,0,2,2,2,1,CERULEAN_WARBLER_1.jpg,BANANAQUIT_1.jpg,CRESTED_OROPENDOLA_5.jpg,AMERICAN_FLAMINGO_5.jpg,ORIENTAL_BAY_OWL_1.jpg,3,2,1,3,1,2,,,,,,,,,,,,
,,,A1ZZ57VEX5B2OR,54,Male,8,2023-01-18_11h59.13.080,perception_pilot,2022.2.4,Win32,5.333333333,,,,,2,1,9.33,0,3,3,3,1,INCA_TERN_4.jpg,SMITHS_LONGSPUR_5.jpg,ELLIOTS__PHEASANT_4.jpg,FASCIATED_WREN_4.jpg,BORNEAN_BRISTLEHEAD_5.jpg,1,2,3,2,2,3,,,,,,,,,,,,
,,,A1ZZ57VEX5B2OR,54,Male,8,2023-01-18_11h59.13.080,perception_pilot,2022.2.4,Win32,5.333333333,,,,,2,1,11.011,0,4,4,4,1,RED_HEADED_WOODPECKER_5.jpg,CRIMSON_CHAT_3.jpg,GREAT_GRAY_OWL_5.jpg,DAURIAN_REDSTART_5.jpg,COLLARED_ARACARI_1.jpg,1,2,3,2,2,4,,,,,,,,,,,,
,,,A1ZZ57VEX5B2OR,54,Male,8,2023-01-18_11h59.13.080,perception_pilot,2022.2.4,Win32,5.333333333,,,,,1,0,6.168,0,5,5,5,1,left.png,left.png,left.png,up.png,right.png,,,,,3,5,,,,,,,,,,,,
,,,A1ZZ57VEX5B2OR,54,Male,8,2023-01-18_11h59.13.080,perception_pilot,2022.2.4,Win32,5.333333333,,,,,1,1,4.678,0,6,6,6,1,SPLENDID_WREN_1.jpg,CUBAN_TODY_4.jpg,CRESTED_KINGFISHER_4.jpg,DOUBLE_BRESTED_CORMARANT_1.jpg,PARAKETT__AKULET_3.jpg,3,2,1,3,1,6,,,,,,,,,,,,
,,,A1ZZ57VEX5B2OR,54,Male,8,2023-01-18_11h59.13.080,perception_pilot,2022.2.4,Win32,5.333333333,,,,,1,0,4.638,0,7,7,7,1,GYRFALCON_1.jpg,ASHY_STORM_PETREL_2.jpg,FAIRY_TERN_1.jpg,GREY_PLOVER_3.jpg,CINNAMON_ATTILA_2.jpg,3,1,2,1,2,7,,,,,,,,,,,,
,,,A1ZZ57VEX5B2OR,54,Male,8,2023-01-18_11h59.13.080,perception_pilot,2022.2.4,Win32,5.333333333,,,,,3,0,11.563,0,8,8,8,1,SCARLET_TANAGER_2.jpg,CARMINE_BEE-EATER_1.jpg,LITTLE_AUK_3.jpg,BIRD_OF_PARADISE_3.jpg,BORNEAN_LEAFBIRD_1.jpg,2,1,3,1,2,8,,,,,,,,,,,,
,,,A1ZZ57VEX5B2OR,54,Male,8,2023-01-18_11h59.13.080,perception_pilot,2022.2.4,Win32,5.333333333,,,,,1,0,11.28,0,9,9,9,1,ARARIPE_MANAKIN_4.jpg,BLACK_VULTURE_1.jpg,BORNEAN_LEAFBIRD_3.jpg,KIWI_3.jpg,UMBRELLA_BIRD_5.jpg,3,1,2,2,3,9,,,,,,,,,,,,
,,,A1ZZ57VEX5B2OR,54,Male,8,2023-01-18_11h59.13.080,perception_pilot,2022.2.4,Win32,5.333333333,,,,,,,,,,,,,,,,,,,,,,,,space,2.69,,,,,,,,,,
,,,A1ZZ57VEX5B2OR,54,Male,8,2023-01-18_11h59.13.080,perception_pilot,2022.2.4,Win32,5.333333333,,,,,,,,,,,,,MAGPIE_GOOSE_5.jpg,DOUBLE_EYED_FIG_PARROT_5.jpg,OYSTER_CATCHER_3.jpg,MALAGASY_WHITE_EYE_1.jpg,HAMERKOP_1.jpg,3,1,2,1,2,0,,,2,1,7.506,0,0,0,0,1,,
,,,A1ZZ57VEX5B2OR,54,Male,8,2023-01-18_11h59.13.080,perception_pilot,2022.2.4,Win32,5.333333333,,,,,,,,,,,,,WHITE_CHEEKED_TURACO_5.jpg,PYGMY_KINGFISHER_2.jpg,CHINESE_POND_HERON_1.jpg,SNOWY_EGRET_1.jpg,MALAGASY_WHITE_EYE_5.jpg,1,2,3,3,3,1,,,3,1,7.005,0,1,1,1,1,,
,,,A1ZZ57VEX5B2OR,54,Male,8,2023-01-18_11h59.13.080,perception_pilot,2022.2.4,Win32,5.333333333,,,,,,,,,,,,,GOLDEN_CHLOROPHONIA_5.jpg,COMMON_HOUSE_MARTIN_4.jpg,ROADRUNNER_2.jpg,INLAND_DOTTEREL_5.jpg,VERMILION_FLYCATHER_5.jpg,1,2,3,2,2,2,,,2,1,5.435,0,2,2,2,1,,
,,,A1ZZ57VEX5B2OR,54,Male,8,2023-01-18_11h59.13.080,perception_pilot,2022.2.4,Win32,5.333333333,,,,,,,,,,,,,CASSOWARY_1.jpg,DEMOISELLE_CRANE_1.jpg,WHITE_NECKED_RAVEN_5.jpg,SCARLET_MACAW_1.jpg,ROSY_FACED_LOVEBIRD_4.jpg,3,2,1,3,1,3,,,1,1,6.604,0,3,3,3,1,,
,,,A1ZZ57VEX5B2OR,54,Male,8,2023-01-18_11h59.13.080,perception_pilot,2022.2.4,Win32,5.333333333,,,,,,,,,,,,,RED_FACED_WARBLER_1.jpg,EMU_5.jpg,SPOONBILL_4.jpg,CAPE_GLOSSY_STARLING_2.jpg,BLACK_VENTED_SHEARWATER_4.jpg,1,3,2,1,1,4,,,2,0,4.533,0,4,4,4,1,,
,,,A1ZZ57VEX5B2OR,54,Male,8,2023-01-18_11h59.13.080,perception_pilot,2022.2.4,Win32,5.333333333,,,,,,,,,,,,,right.png,right.png,left.png,right.png,up.png,,,,,1,5,,,2,0,4.343,0,5,5,5,1,,
,,,A1ZZ57VEX5B2OR,54,Male,8,2023-01-18_11h59.13.080,perception_pilot,2022.2.4,Win32,5.333333333,,,,,,,,,,,,,left.png,left.png,up.png,left.png,right.png,,,,,3,6,,,2,0,3.153,0,6,6,6,1,,
,,,A1ZZ57VEX5B2OR,54,Male,8,2023-01-18_11h59.13.080,perception_pilot,2022.2.4,Win32,5.333333333,,,,,,,,,,,,,AMERICAN_PIPIT_5.jpg,EMU_2.jpg,GREEN_MAGPIE_1.jpg,PEACOCK_2.jpg,HEPATIC_TANAGER_5.jpg,2,1,3,1,2,7,,,1,0,4.097,0,7,7,7,1,,
,,,A1ZZ57VEX5B2OR,54,Male,8,2023-01-18_11h59.13.080,perception_pilot,2022.2.4,Win32,5.333333333,,,,,,,,,,,,,BREWERS_BLACKBIRD_3.jpg,GOLDEN_CHEEKED_WARBLER_3.jpg,CAPE_LONGCLAW_2.jpg,PEACOCK_4.jpg,AMERICAN_AVOCET_5.jpg,3,1,2,2,3,8,,,1,0,3.333,0,8,8,8,1,,
,,,A1ZZ57VEX5B2OR,54,Male,8,2023-01-18_11h59.13.080,perception_pilot,2022.2.4,Win32,5.333333333,,,,,,,,,,,,,SKUA_4.jpg,ROADRUNNER_5.jpg,SNOWY_EGRET_5.jpg,PARUS_MAJOR_2.jpg,AMERICAN_WIGEON_2.jpg,1,2,3,3,3,9,,,2,0,3.972,0,9,9,9,1,,
,,,A1ZZ57VEX5B2OR,54,Male,8,2023-01-18_11h59.13.080,perception_pilot,2022.2.4,Win32,5.333333333,,,,,,,,,,,,,EASTERN_TOWEE_2.jpg,SANDHILL_CRANE_2.jpg,NORTHERN_BEARDLESS_TYRANNULET_5.jpg,HYACINTH_MACAW_4.jpg,BLUE_HERON_3.jpg,3,2,1,1,3,10,,,3,1,5.479,0,10,10,10,1,,
,,,A1ZZ57VEX5B2OR,54,Male,8,2023-01-18_11h59.13.080,perception_pilot,2022.2.4,Win32,5.333333333,,,,,,,,,,,,,PARUS_MAJOR_1.jpg,COMMON_POORWILL_1.jpg,PINK_ROBIN_3.jpg,OSTRICH_4.jpg,CALIFORNIA_GULL_2.jpg,3,1,2,1,2,11,,,1,0,4.312,0,11,11,11,1,,
,,,A1ZZ57VEX5B2OR,54,Male,8,2023-01-18_11h59.13.080,perception_pilot,2022.2.4,Win32,5.333333333,,,,,,,,,,,,,NORTHERN_GANNET_2.jpg,PAINTED_BUNTING_5.jpg,MASKED_BOOBY_5.jpg,STRAWBERRY_FINCH_1.jpg,EASTERN_TOWEE_1.jpg,3,2,1,1,3,12,,,1,0,4.108,0,12,12,12,1,,
,,,A1ZZ57VEX5B2OR,54,Male,8,2023-01-18_11h59.13.080,perception_pilot,2022.2.4,Win32,5.333333333,,,,,,,,,,,,,PINK_ROBIN_4.jpg,ALBATROSS_4.jpg,SPOONBILL_3.jpg,JACK_SNIPE_5.jpg,COMMON_IORA_4.jpg,1,2,3,2,2,13,,,2,1,10.424,0,13,13,13,1,,
,,,A1ZZ57VEX5B2OR,54,Male,8,2023-01-18_11h59.13.080,perception_pilot,2022.2.4,Win32,5.333333333,,,,,,,,,,,,,left.png,left.png,up.png,left.png,right.png,,,,,3,14,,,2,0,3.109,0,14,14,14,1,,
,,,A1ZZ57VEX5B2OR,54,Male,8,2023-01-18_11h59.13.080,perception_pilot,2022.2.4,Win32,5.333333333,,,,,,,,,,,,,AFRICAN_PIED_HORNBILL_5.jpg,CAPUCHINBIRD_2.jpg,KIWI_4.jpg,ECUADORIAN_HILLSTAR_3.jpg,ALEXANDRINE_PARAKEET_1.jpg,1,3,2,3,2,15,,,2,1,12.78,0,15,15,15,1,,
,,,A1ZZ57VEX5B2OR,54,Male,8,2023-01-18_11h59.13.080,perception_pilot,2022.2.4,Win32,5.333333333,,,,,,,,,,,,,RUFOUS_KINGFISHER_1.jpg,MAGPIE_GOOSE_3.jpg,HORNED_SUNGEM_4.jpg,BLACK_VENTED_SHEARWATER_2.jpg,COCKATOO_5.jpg,3,1,2,2,3,16,,,1,0,5.303,0,16,16,16,1,,
,,,A1ZZ57VEX5B2OR,54,Male,8,2023-01-18_11h59.13.080,perception_pilot,2022.2.4,Win32,5.333333333,,,,,,,,,,,,,CHUKAR_PARTRIDGE_5.jpg,BLACK_THROATED_BUSHTIT_1.jpg,PUFFIN_3.jpg,RAZORBILL_1.jpg,OSTRICH_3.jpg,3,2,1,3,1,17,,,1,1,6.367,0,17,17,17,1,,
,,,A1ZZ57VEX5B2OR,54,Male,8,2023-01-18_11h59.13.080,perception_pilot,2022.2.4,Win32,5.333333333,,,,,,,,,,,,,RUBY_THROATED_HUMMINGBIRD_1.jpg,VULTURINE_GUINEAFOWL_4.jpg,EURASIAN_GOLDEN_ORIOLE_5.jpg,FRIGATE_1.jpg,BEARDED_REEDLING_3.jpg,1,3,2,2,3,18,,,1,0,3.174,0,18,18,18,1,,
,,,A1ZZ57VEX5B2OR,54,Male,8,2023-01-18_11h59.13.080,perception_pilot,2022.2.4,Win32,5.333333333,,,,,,,,,,,,,GREY_PLOVER_1.jpg,AMETHYST_WOODSTAR_4.jpg,BURCHELLS_COURSER_5.jpg,HYACINTH_MACAW_3.jpg,GOULDIAN_FINCH_4.jpg,3,1,2,3,1,19,,,1,1,3.305,0,19,19,19,1,,
,,,A1ZZ57VEX5B2OR,54,Male,8,2023-01-18_11h59.13.080,perception_pilot,2022.2.4,Win32,5.333333333,,,,,,,,,,,,,IVORY_GULL_1.jpg,EASTERN_GOLDEN_WEAVER_5.jpg,FAIRY_TERN_4.jpg,RED_FODY_1.jpg,WILSONS_BIRD_OF_PARADISE_4.jpg,3,2,1,2,2,20,,,2,1,4.457,0,20,20,20,1,,
,,,A1ZZ57VEX5B2OR,54,Male,8,2023-01-18_11h59.13.080,perception_pilot,2022.2.4,Win32,5.333333333,,,,,,,,,,,,,OVENBIRD_5.jpg,PURPLE_FINCH_5.jpg,JABIRU_4.jpg,GILDED_FLICKER_1.jpg,FAIRY_PENGUIN_1.jpg,1,3,2,3,2,21,,,2,1,6.375,0,21,21,21,1,,
,,,A1ZZ57VEX5B2OR,54,Male,8,2023-01-18_11h59.13.080,perception_pilot,2022.2.4,Win32,5.333333333,,,,,,,,,,,,,BALI_STARLING_1.jpg,IBERIAN_MAGPIE_1.jpg,CAPE_LONGCLAW_5.jpg,PURPLE_FINCH_2.jpg,GRANDALA_5.jpg,1,2,3,3,3,22,,,2,0,8.267,0,22,22,22,1,,
,,,A1ZZ57VEX5B2OR,54,Male,8,2023-01-18_11h59.13.080,perception_pilot,2022.2.4,Win32,5.333333333,,,,,,,,,,,,,LESSER_ADJUTANT_4.jpg,ALTAMIRA_YELLOWTHROAT_5.jpg,FAIRY_TERN_3.jpg,DOUBLE_EYED_FIG_PARROT_4.jpg,RAINBOW_LORIKEET_5.jpg,3,1,2,1,2,23,,,2,1,12.304,0,23,23,23,1,,
,,,A1ZZ57VEX5B2OR,54,Male,8,2023-01-18_11h59.13.080,perception_pilot,2022.2.4,Win32,5.333333333,,,,,,,,,,,,,NORTHERN_JACANA_3.jpg,BAR-TAILED_GODWIT_3.jpg,SHORT_BILLED_DOWITCHER_5.jpg,BANANAQUIT_3.jpg,REGENT_BOWERBIRD_5.jpg,3,1,2,3,1,24,,,1,1,5.936,0,24,24,24,1,,
,,,A1ZZ57VEX5B2OR,54,Male,8,2023-01-18_11h59.13.080,perception_pilot,2022.2.4,Win32,5.333333333,,,,,,,,,,,,,STRIPPED_SWALLOW_1.jpg,EMPEROR_PENGUIN_5.jpg,MAGPIE_GOOSE_4.jpg,GO_AWAY_BIRD_5.jpg,BRANDT_CORMARANT_3.jpg,2,3,1,1,3,25,,,2,0,9.604,0,25,25,25,1,,
,,,A1ZZ57VEX5B2OR,54,Male,8,2023-01-18_11h59.13.080,perception_pilot,2022.2.4,Win32,5.333333333,,,,,,,,,,,,,LESSER_ADJUTANT_5.jpg,AMERICAN_GOLDFINCH_1.jpg,MALAGASY_WHITE_EYE_2.jpg,GAMBELS_QUAIL_1.jpg,RED_HEADED_WOODPECKER_1.jpg,1,2,3,1,1,26,,,1,1,10.623,0,26,26,26,1,,
,,,A1ZZ57VEX5B2OR,54,Male,8,2023-01-18_11h59.13.080,perception_pilot,2022.2.4,Win32,5.333333333,,,,,,,,,,,,,BARRED_PUFFBIRD_3.jpg,VEERY_4.jpg,WHITE_CHEEKED_TURACO_2.jpg,NORTHERN_CARDINAL_5.jpg,RED_TAILED_THRUSH_2.jpg,1,2,3,3,3,27,,,3,1,5.493,0,27,27,27,1,,
,,,A1ZZ57VEX5B2OR,54,Male,8,2023-01-18_11h59.13.080,perception_pilot,2022.2.4,Win32,5.333333333,,,,,,,,,,,,,OCELLATED_TURKEY_1.jpg,PURPLE_SWAMPHEN_4.jpg,GLOSSY_IBIS_2.jpg,LARK_BUNTING_1.jpg,CHIPPING_SPARROW_1.jpg,3,2,1,3,1,28,,,2,0,3.997,0,28,28,28,1,,
,,,A1ZZ57VEX5B2OR,54,Male,8,2023-01-18_11h59.13.080,perception_pilot,2022.2.4,Win32,5.333333333,,,,,,,,,,,,,KILLDEAR_2.jpg,ALEXANDRINE_PARAKEET_5.jpg,AZURE_TIT_5.jpg,CAATINGA_CACHOLOTE_4.jpg,GOLDEN_CHLOROPHONIA_2.jpg,3,2,1,1,3,29,,,3,1,5.355,0,29,29,29,1,,
,,,A1ZZ57VEX5B2OR,54,Male,8,2023-01-18_11h59.13.080,perception_pilot,2022.2.4,Win32,5.333333333,,,,,,,,,,,,,FLAME_BOWERBIRD_3.jpg,QUETZAL_3.jpg,BROWN_THRASHER_4.jpg,INDIAN_BUSTARD_2.jpg,GOULDIAN_FINCH_1.jpg,2,1,3,3,3,30,,,1,0,5.797,0,30,30,30,1,,
,,,A1ZZ57VEX5B2OR,54,Male,8,2023-01-18_11h59.13.080,perception_pilot,2022.2.4,Win32,5.333333333,,,,,,,,,,,,,ECUADORIAN_HILLSTAR_5.jpg,SCARLET_IBIS_2.jpg,BOBOLINK_5.jpg,CRIMSON_SUNBIRD_5.jpg,AMERICAN_FLAMINGO_1.jpg,2,3,1,1,3,31,,,3,1,4.832,0,31,31,31,1,,
,,,A1ZZ57VEX5B2OR,54,Male,8,2023-01-18_11h59.13.080,perception_pilot,2022.2.4,Win32,5.333333333,,,,,,,,,,,,,IVORY_GULL_3.jpg,INDIGO_FLYCATCHER_2.jpg,FLAME_TANAGER_3.jpg,BUSH_TURKEY_1.jpg,SNOWY_EGRET_4.jpg,2,1,3,1,2,32,,,1,0,5.441,0,32,32,32,1,,
,,,A1ZZ57VEX5B2OR,54,Male,8,2023-01-18_11h59.13.080,perception_pilot,2022.2.4,Win32,5.333333333,,,,,,,,,,,,,NORTHERN_JACANA_2.jpg,VULTURINE_GUINEAFOWL_5.jpg,CRAB_PLOVER_3.jpg,RED_FACED_CORMORANT_1.jpg,GREEN_BROADBILL_1.jpg,2,3,1,2,1,33,,,1,1,40.299,0,33,33,33,1,,
,,,A1ZZ57VEX5B2OR,54,Male,8,2023-01-18_11h59.13.080,perception_pilot,2022.2.4,Win32,5.333333333,,,,,,,,,,,,,PYGMY_KINGFISHER_5.jpg,GREAT_POTOO_3.jpg,GRANDALA_2.jpg,OYSTER_CATCHER_5.jpg,NORTHERN_PARULA_5.jpg,1,2,3,2,2,34,,,1,0,7.118,0,34,34,34,1,,
,,,A1ZZ57VEX5B2OR,54,Male,8,2023-01-18_11h59.13.080,perception_pilot,2022.2.4,Win32,5.333333333,,,,,,,,,,,,,BROWN_THRASHER_3.jpg,OYSTER_CATCHER_4.jpg,BLACK_BAZA_4.jpg,DOUBLE_EYED_FIG_PARROT_3.jpg,RED_HEADED_WOODPECKER_2.jpg,3,1,2,2,3,35,,,3,1,19.438,0,35,35,35,1,,
,,,A1ZZ57VEX5B2OR,54,Male,8,2023-01-18_11h59.13.080,perception_pilot,2022.2.4,Win32,5.333333333,,,,,,,,,,,,,DOUBLE_BRESTED_CORMARANT_5.jpg,EURASIAN_MAGPIE_4.jpg,CHINESE_POND_HERON_2.jpg,PATAGONIAN_SIERRA_FINCH_2.jpg,GILDED_FLICKER_2.jpg,3,2,1,2,2,36,,,3,0,5.402,0,36,36,36,1,,
,,,A1ZZ57VEX5B2OR,54,Male,8,2023-01-18_11h59.13.080,perception_pilot,2022.2.4,Win32,5.333333333,,,,,,,,,,,,,TASMANIAN_HEN_5.jpg,BLACKBURNIAM_WARBLER_3.jpg,COPPERY_TAILED_COUCAL_1.jpg,AFRICAN_EMERALD_CUCKOO_5.jpg,CREAM_COLORED_WOODPECKER_4.jpg,3,2,1,1,3,37,,,1,0,5.574,0,37,37,37,1,,
,,,A1ZZ57VEX5B2OR,54,Male,8,2023-01-18_11h59.13.080,perception_pilot,2022.2.4,Win32,5.333333333,,,,,,,,,,,,,RUBY_THROATED_HUMMINGBIRD_2.jpg,DUSKY_ROBIN_5.jpg,EURASIAN_MAGPIE_3.jpg,APAPANE_4.jpg,GOLDEN_PARAKEET_2.jpg,3,2,1,3,1,38,,,2,0,12.232,0,38,38,38,1,,
,,,A1ZZ57VEX5B2OR,54,Male,8,2023-01-18_11h59.13.080,perception_pilot,2022.2.4,Win32,5.333333333,,,,,,,,,,,,,VERMILION_FLYCATHER_3.jpg,CROWNED_PIGEON_1.jpg,RED_BEARDED_BEE_EATER_1.jpg,LITTLE_AUK_4.jpg,INDIAN_BUSTARD_1.jpg,3,2,1,2,2,39,,,2,1,7.557,0,39,39,39,1,,
,,,A1ZZ57VEX5B2OR,54,Male,8,2023-01-18_11h59.13.080,perception_pilot,2022.2.4,Win32,5.333333333,,,,,,,,,,,,,ASIAN_CRESTED_IBIS_4.jpg,CANARY_2.jpg,GREAT_JACAMAR_4.jpg,OYSTER_CATCHER_2.jpg,IVORY_GULL_2.jpg,1,2,3,1,1,40,,,2,0,6.557,0,40,40,40,1,,
,,,A1ZZ57VEX5B2OR,54,Male,8,2023-01-18_11h59.13.080,perception_pilot,2022.2.4,Win32,5.333333333,,,,,,,,,,,,,LARK_BUNTING_2.jpg,CACTUS_WREN_3.jpg,EMU_3.jpg,GRANDALA_4.jpg,KING_VULTURE_3.jpg,1,3,2,3,2,41,,,2,1,4.553,0,41,41,41,1,,
,,,A1ZZ57VEX5B2OR,54,Male,8,2023-01-18_11h59.13.080,perception_pilot,2022.2.4,Win32,5.333333333,,,,,,,,,,,,,KAGU_5.jpg,EASTERN_MEADOWLARK_1.jpg,BANANAQUIT_2.jpg,ASHY_STORM_PETREL_1.jpg,IMPERIAL_SHAQ_2.jpg,1,2,3,1,1,42,,,1,1,4.081,0,42,42,42,1,,
,,,A1ZZ57VEX5B2OR,54,Male,8,2023-01-18_11h59.13.080,perception_pilot,2022.2.4,Win32,5.333333333,,,,,,,,,,,,,left.png,left.png,up.png,right.png,left.png,,,,,2,43,,,3,0,4.028,0,43,43,43,1,,
,,,A1ZZ57VEX5B2OR,54,Male,8,2023-01-18_11h59.13.080,perception_pilot,2022.2.4,Win32,5.333333333,,,,,,,,,,,,,SHOEBILL_3.jpg,BALD_EAGLE_5.jpg,MALAGASY_WHITE_EYE_3.jpg,GILDED_FLICKER_5.jpg,BALD_IBIS_3.jpg,1,2,3,3,3,44,,,3,1,4.371,0,44,44,44,1,,
,,,A1ZZ57VEX5B2OR,54,Male,8,2023-01-18_11h59.13.080,perception_pilot,2022.2.4,Win32,5.333333333,,,,,,,,,,,,,HAWAIIAN_GOOSE_4.jpg,RED_BEARDED_BEE_EATER_3.jpg,DOUBLE_EYED_FIG_PARROT_1.jpg,HIMALAYAN_MONAL_2.jpg,WATTLED_LAPWING_3.jpg,1,2,3,1,1,45,,,1,1,12.196,0,45,45,45,1,,
,,,A1ZZ57VEX5B2OR,54,Male,8,2023-01-18_11h59.13.080,perception_pilot,2022.2.4,Win32,5.333333333,,,,,,,,,,,,,ASIAN_DOLLARD_BIRD_2.jpg,VIOLET_GREEN_SWALLOW_4.jpg,ALBATROSS_2.jpg,VERMILION_FLYCATHER_1.jpg,HAWAIIAN_GOOSE_1.jpg,1,3,2,3,2,46,,,2,1,26.398,0,46,46,46,1,,
,,,A1ZZ57VEX5B2OR,54,Male,8,2023-01-18_11h59.13.080,perception_pilot,2022.2.4,Win32,5.333333333,,,,,,,,,,,,,PEACOCK_3.jpg,STRAWBERRY_FINCH_4.jpg,RED_FODY_5.jpg,IBERIAN_MAGPIE_2.jpg,ANIANIAU_2.jpg,2,3,1,2,1,47,,,1,1,4.468,0,47,47,47,1,,
,,,A1ZZ57VEX5B2OR,54,Male,8,2023-01-18_11h59.13.080,perception_pilot,2022.2.4,Win32,5.333333333,,,,,,,,,,,,,INLAND_DOTTEREL_4.jpg,JANDAYA_PARAKEET_5.jpg,CALIFORNIA_CONDOR_4.jpg,CRESTED_KINGFISHER_1.jpg,NICOBAR_PIGEON_4.jpg,1,3,2,1,1,48,,,3,0,9.011,0,48,48,48,1,,
,,,A1ZZ57VEX5B2OR,54,Male,8,2023-01-18_11h59.13.080,perception_pilot,2022.2.4,Win32,5.333333333,,,,,,,,,,,,,BROWN_NOODY_3.jpg,SPANGLED_COTINGA_4.jpg,KIWI_2.jpg,COMMON_IORA_3.jpg,GUINEA_TURACO_5.jpg,1,2,3,2,2,49,,,2,1,3.409,0,49,49,49,1,,
,,,A1ZZ57VEX5B2OR,54,Male,8,2023-01-18_11h59.13.080,perception_pilot,2022.2.4,Win32,5.333333333,,,,,,,,,,,,,GOLDEN_CHEEKED_WARBLER_2.jpg,AMERICAN_FLAMINGO_3.jpg,WHITE_THROATED_BEE_EATER_1.jpg,GUINEAFOWL_3.jpg,SPOONBILL_1.jpg,3,2,1,2,2,50,,,1,0,4.498,0,50,50,50,1,,
,,,A1ZZ57VEX5B2OR,54,Male,8,2023-01-18_11h59.13.080,perception_pilot,2022.2.4,Win32,5.333333333,,,,,,,,,,,,,EUROPEAN_TURTLE_DOVE_3.jpg,PAINTED_BUNTING_3.jpg,CAPE_GLOSSY_STARLING_1.jpg,TEAL_DUCK_2.jpg,MALABAR_HORNBILL_2.jpg,2,1,3,2,1,51,,,1,1,5.688,0,51,51,51,1,,
,,,A1ZZ57VEX5B2OR,54,Male,8,2023-01-18_11h59.13.080,perception_pilot,2022.2.4,Win32,5.333333333,,,,,,,,,,,,,MALACHITE_KINGFISHER_2.jpg,INCA_TERN_2.jpg,GREEN_BROADBILL_5.jpg,SKUA_3.jpg,COCKATOO_2.jpg,3,1,2,2,3,52,,,2,0,5.47,0,52,52,52,1,,
,,,A1ZZ57VEX5B2OR,54,Male,8,2023-01-18_11h59.13.080,perception_pilot,2022.2.4,Win32,5.333333333,,,,,,,,,,,,,right.png,right.png,right.png,up.png,left.png,,,,,3,53,,,1,0,3.649,0,53,53,53,1,,
,,,A1ZZ57VEX5B2OR,54,Male,8,2023-01-18_11h59.13.080,perception_pilot,2022.2.4,Win32,5.333333333,,,,,,,,,,,,,CASPIAN_TERN_1.jpg,BRANDT_CORMARANT_4.jpg,COMMON_LOON_2.jpg,COMMON_POORWILL_4.jpg,EUROPEAN_GOLDFINCH_4.jpg,3,1,2,1,2,54,,,1,0,4.868,0,54,54,54,1,,
,,,A1ZZ57VEX5B2OR,54,Male,8,2023-01-18_11h59.13.080,perception_pilot,2022.2.4,Win32,5.333333333,,,,,,,,,,,,,ALPINE_CHOUGH_4.jpg,EUROPEAN_GOLDFINCH_3.jpg,HOUSE_FINCH_2.jpg,SNOWY_EGRET_2.jpg,BOBOLINK_3.jpg,2,1,3,2,1,55,,,1,1,4.252,0,55,55,55,1,,
,,,A1ZZ57VEX5B2OR,54,Male,8,2023-01-18_11h59.13.080,perception_pilot,2022.2.4,Win32,5.333333333,,,,,,,,,,,,,TREE_SWALLOW_4.jpg,RED_FODY_3.jpg,ROBIN_3.jpg,RED_HEADED_DUCK_5.jpg,BORNEAN_LEAFBIRD_4.jpg,2,1,3,3,3,56,,,3,1,8.839,0,56,56,56,1,,
,,,A1ZZ57VEX5B2OR,54,Male,8,2023-01-18_11h59.13.080,perception_pilot,2022.2.4,Win32,5.333333333,,,,,,,,,,,,,RUBY_THROATED_HUMMINGBIRD_3.jpg,NORTHERN_SHOVELER_1.jpg,WALL_CREAPER_3.jpg,MYNA_5.jpg,WHITE_CHEEKED_TURACO_4.jpg,3,2,1,3,1,57,,,1,1,7.25,0,57,57,57,1,,
,,,A1ZZ57VEX5B2OR,54,Male,8,2023-01-18_11h59.13.080,perception_pilot,2022.2.4,Win32,5.333333333,,,,,,,,,,,,,NICOBAR_PIGEON_1.jpg,MYNA_4.jpg,NORTHERN_MOCKINGBIRD_4.jpg,EASTERN_BLUEBIRD_3.jpg,LITTLE_AUK_1.jpg,1,3,2,1,1,58,,,2,0,5.111,0,58,58,58,1,,
,,,A1ZZ57VEX5B2OR,54,Male,8,2023-01-18_11h59.13.080,perception_pilot,2022.2.4,Win32,5.333333333,,,,,,,,,,,,,GILA_WOODPECKER_3.jpg,SNOWY_OWL_4.jpg,BLACK_SWAN_3.jpg,BLACK_VULTURE_3.jpg,ALEXANDRINE_PARAKEET_2.jpg,1,3,2,2,3,59,,,3,1,8.587,0,59,59,59,1,,
,,,A1ZZ57VEX5B2OR,54,Male,8,2023-01-18_11h59.13.080,perception_pilot,2022.2.4,Win32,5.333333333,,,,,,,,,,,,,CRESTED_NUTHATCH_2.jpg,AFRICAN_FIREFINCH_1.jpg,SCARLET_IBIS_3.jpg,CANARY_1.jpg,GOLDEN_CHLOROPHONIA_1.jpg,1,3,2,2,3,60,,,2,0,14.259,0,60,60,60,1,,
,,,A1ZZ57VEX5B2OR,54,Male,8,2023-01-18_11h59.13.080,perception_pilot,2022.2.4,Win32,5.333333333,,,,,,,,,,,,,LITTLE_AUK_5.jpg,SANDHILL_CRANE_3.jpg,ORANGE_BRESTED_BUNTING_3.jpg,SCARLET_IBIS_1.jpg,BEARDED_BELLBIRD_1.jpg,2,1,3,1,2,61,,,1,0,6.791,0,61,61,61,1,,
,,,A1ZZ57VEX5B2OR,54,Male,8,2023-01-18_11h59.13.080,perception_pilot,2022.2.4,Win32,5.333333333,,,,,,,,,,,,,MYNA_1.jpg,GREY_PLOVER_4.jpg,GRAY_PARTRIDGE_5.jpg,PARADISE_TANAGER_3.jpg,SANDHILL_CRANE_4.jpg,2,3,1,2,1,62,,,2,0,11.144,0,62,62,62,1,,
,,,A1ZZ57VEX5B2OR,54,Male,8,2023-01-18_11h59.13.080,perception_pilot,2022.2.4,Win32,5.333333333,,,,,,,,,,,,,MCKAYS_BUNTING_3.jpg,AMERICAN_GOLDFINCH_4.jpg,PALILA_5.jpg,IWI_2.jpg,EMU_4.jpg,3,2,1,3,1,63,,,1,1,4.172,0,63,63,63,1,,
,,,A1ZZ57VEX5B2OR,54,Male,8,2023-01-18_11h59.13.080,perception_pilot,2022.2.4,Win32,5.333333333,,,,,,,,,,,,,GRAY_KINGBIRD_5.jpg,AFRICAN_FIREFINCH_3.jpg,BALD_EAGLE_2.jpg,EVENING_GROSBEAK_4.jpg,COCK_OF_THE__ROCK_4.jpg,1,3,2,3,2,64,,,2,1,3.235,0,64,64,64,1,,
,,,A1ZZ57VEX5B2OR,54,Male,8,2023-01-18_11h59.13.080,perception_pilot,2022.2.4,Win32,5.333333333,,,,,,,,,,,,,,,,,,,,,,,,,,,,,,,,,,space,17.192
