button.numClicks,button.timesOn,button.timesOff,workID,Age,Gender,Hours slept (last night),date,expName,psychopyVersion,OS,frameRate,key_resp_13.keys,key_resp_13.rt,key_resp_14.keys,key_resp_14.rt,key_resp_3.keys,key_resp_3.corr,key_resp_3.rt,demo_loop.thisRepN,demo_loop.thisTrialN,demo_loop.thisN,demo_loop.thisIndex,demo_loop.ran,target_image,target_match,option1,option2,option3,option1_layer,option2_layer,option3_layer,match_layer,correct_answer,trial_num,key_resp_15.keys,key_resp_15.rt,key_resp.keys,key_resp.corr,key_resp.rt,trials.thisRepN,trials.thisTrialN,trials.thisN,trials.thisIndex,trials.ran,key_resp_end_2.keys,key_resp_end_2.rt
1,[12.330999999999989],[12.330999999999989],A2KDZLWD8RAHDM,53,MAle,8,2023-01-18_12h57.20.021,perception_pilot,2022.2.4,Win32,10.00040002,,,,,,,,,,,,,,,,,,,,,,,,,,,,,,,,,,,
,,,A2KDZLWD8RAHDM,53,MAle,8,2023-01-18_12h57.20.021,perception_pilot,2022.2.4,Win32,10.00040002,space,2.555,,,,,,,,,,,,,,,,,,,,,,,,,,,,,,,,,
,,,A2KDZLWD8RAHDM,53,MAle,8,2023-01-18_12h57.20.021,perception_pilot,2022.2.4,Win32,10.00040002,,,space,1.729,,,,,,,,,,,,,,,,,,,,,,,,,,,,,,,
,,,A2KDZLWD8RAHDM,53,MAle,8,2023-01-18_12h57.20.021,perception_pilot,2022.2.4,Win32,10.00040002,,,,,,,,,,,,,,,,,,,,,,,,,,,,,,,,,,,
,,,A2KDZLWD8RAHDM,53,MAle,8,2023-01-18_12h57.20.021,perception_pilot,2022.2.4,Win32,10.00040002,,,,,2,0,3.541,0,0,0,0,1,ECUADORIAN_HILLSTAR_5.jpg,SCARLET_IBIS_2.jpg,CRIMSON_SUNBIRD_5.jpg,BOBOLINK_5.jpg,AMERICAN_FLAMINGO_1.jpg,3,2,1,1,3,0,,,,,,,,,,,,
,,,A2KDZLWD8RAHDM,53,MAle,8,2023-01-18_12h57.20.021,perception_pilot,2022.2.4,Win32,10.00040002,,,,,2,0,3.519,0,1,1,1,1,ALPINE_CHOUGH_4.jpg,BOBOLINK_3.jpg,UMBRELLA_BIRD_1.jpg,SNOWY_EGRET_2.jpg,EUROPEAN_GOLDFINCH_3.jpg,3,1,2,3,1,1,,,,,,,,,,,,
,,,A2KDZLWD8RAHDM,53,MAle,8,2023-01-18_12h57.20.021,perception_pilot,2022.2.4,Win32,10.00040002,,,,,1,0,1.924,0,2,2,2,1,KILLDEAR_2.jpg,CAATINGA_CACHOLOTE_4.jpg,AZURE_TIT_5.jpg,ALEXANDRINE_PARAKEET_5.jpg,CHATTERING_LORY_1.jpg,3,1,2,2,3,2,,,,,,,,,,,,
,,,A2KDZLWD8RAHDM,53,MAle,8,2023-01-18_12h57.20.021,perception_pilot,2022.2.4,Win32,10.00040002,,,,,2,1,1.714,0,3,3,3,1,HAWAIIAN_GOOSE_4.jpg,WATTLED_LAPWING_3.jpg,RED_BEARDED_BEE_EATER_3.jpg,BROWN_NOODY_5.jpg,HIMALAYAN_MONAL_2.jpg,1,3,2,3,2,3,,,,,,,,,,,,
,,,A2KDZLWD8RAHDM,53,MAle,8,2023-01-18_12h57.20.021,perception_pilot,2022.2.4,Win32,10.00040002,,,,,2,0,1.573,0,4,4,4,1,LARK_BUNTING_2.jpg,KING_VULTURE_3.jpg,CHARA_DE_COLLAR_4.jpg,CACTUS_WREN_3.jpg,EMU_3.jpg,2,3,1,2,1,4,,,,,,,,,,,,
,,,A2KDZLWD8RAHDM,53,MAle,8,2023-01-18_12h57.20.021,perception_pilot,2022.2.4,Win32,10.00040002,,,,,3,1,1.824,0,5,5,5,1,right.png,right.png,up.png,right.png,left.png,,,,,3,5,,,,,,,,,,,,
,,,A2KDZLWD8RAHDM,53,MAle,8,2023-01-18_12h57.20.021,perception_pilot,2022.2.4,Win32,10.00040002,,,,,1,1,2.252,0,6,6,6,1,BROWN_THRASHER_3.jpg,DOUBLE_EYED_FIG_PARROT_3.jpg,RED_BEARDED_BEE_EATER_4.jpg,BLACK_BAZA_4.jpg,OYSTER_CATCHER_4.jpg,1,3,2,1,1,6,,,,,,,,,,,,
,,,A2KDZLWD8RAHDM,53,MAle,8,2023-01-18_12h57.20.021,perception_pilot,2022.2.4,Win32,10.00040002,,,,,1,1,1.896,0,7,7,7,1,PYGMY_KINGFISHER_5.jpg,GRANDALA_2.jpg,MIKADO__PHEASANT_5.jpg,GREAT_POTOO_3.jpg,NORTHERN_PARULA_5.jpg,1,2,3,1,1,7,,,,,,,,,,,,
,,,A2KDZLWD8RAHDM,53,MAle,8,2023-01-18_12h57.20.021,perception_pilot,2022.2.4,Win32,10.00040002,,,,,1,1,1.728,0,8,8,8,1,BARRED_PUFFBIRD_3.jpg,VEERY_4.jpg,RED_TAILED_THRUSH_2.jpg,NORTHERN_CARDINAL_5.jpg,WHITE_CHEEKED_TURACO_2.jpg,3,2,1,3,1,8,,,,,,,,,,,,
,,,A2KDZLWD8RAHDM,53,MAle,8,2023-01-18_12h57.20.021,perception_pilot,2022.2.4,Win32,10.00040002,,,,,1,1,1.743,0,9,9,9,1,ARARIPE_MANAKIN_4.jpg,BLACK_VULTURE_1.jpg,UMBRELLA_BIRD_5.jpg,BORNEAN_LEAFBIRD_3.jpg,KIWI_3.jpg,2,3,1,2,1,9,,,,,,,,,,,,
,,,A2KDZLWD8RAHDM,53,MAle,8,2023-01-18_12h57.20.021,perception_pilot,2022.2.4,Win32,10.00040002,,,,,,,,,,,,,,,,,,,,,,,,space,67.124,,,,,,,,,,
,,,A2KDZLWD8RAHDM,53,MAle,8,2023-01-18_12h57.20.021,perception_pilot,2022.2.4,Win32,10.00040002,,,,,,,,,,,,,CASSOWARY_1.jpg,DEMOISELLE_CRANE_1.jpg,ROSY_FACED_LOVEBIRD_4.jpg,SCARLET_MACAW_1.jpg,WHITE_NECKED_RAVEN_5.jpg,1,2,3,3,3,0,,,3,1,32.373,0,0,0,0,1,,
,,,A2KDZLWD8RAHDM,53,MAle,8,2023-01-18_12h57.20.021,perception_pilot,2022.2.4,Win32,10.00040002,,,,,,,,,,,,,GILA_WOODPECKER_3.jpg,SNOWY_OWL_4.jpg,BLACK_SWAN_3.jpg,ALEXANDRINE_PARAKEET_2.jpg,BLACK_VULTURE_3.jpg,1,2,3,2,2,1,,,1,0,3.412,0,1,1,1,1,,
,,,A2KDZLWD8RAHDM,53,MAle,8,2023-01-18_12h57.20.021,perception_pilot,2022.2.4,Win32,10.00040002,,,,,,,,,,,,,RUBY_THROATED_HUMMINGBIRD_3.jpg,WHITE_CHEEKED_TURACO_4.jpg,MALABAR_HORNBILL_5.jpg,NORTHERN_SHOVELER_1.jpg,MYNA_5.jpg,1,3,2,1,1,2,,,1,1,3.148,0,2,2,2,1,,
,,,A2KDZLWD8RAHDM,53,MAle,8,2023-01-18_12h57.20.021,perception_pilot,2022.2.4,Win32,10.00040002,,,,,,,,,,,,,CERULEAN_WARBLER_1.jpg,ORIENTAL_BAY_OWL_1.jpg,DALMATIAN_PELICAN_5.jpg,AMERICAN_FLAMINGO_5.jpg,BANANAQUIT_1.jpg,1,2,3,1,1,3,,,1,1,4.251,0,3,3,3,1,,
,,,A2KDZLWD8RAHDM,53,MAle,8,2023-01-18_12h57.20.021,perception_pilot,2022.2.4,Win32,10.00040002,,,,,,,,,,,,,RED_FACED_WARBLER_1.jpg,CAPE_GLOSSY_STARLING_2.jpg,EMU_5.jpg,CRESTED_OROPENDOLA_4.jpg,BLACK_VENTED_SHEARWATER_4.jpg,1,3,2,3,2,4,,,2,1,3.13,0,4,4,4,1,,
,,,A2KDZLWD8RAHDM,53,MAle,8,2023-01-18_12h57.20.021,perception_pilot,2022.2.4,Win32,10.00040002,,,,,,,,,,,,,ASIAN_DOLLARD_BIRD_2.jpg,VIOLET_GREEN_SWALLOW_4.jpg,HAWAIIAN_GOOSE_1.jpg,VERMILION_FLYCATHER_1.jpg,ALBATROSS_2.jpg,2,3,1,3,2,5,,,2,1,2.267,0,5,5,5,1,,
,,,A2KDZLWD8RAHDM,53,MAle,8,2023-01-18_12h57.20.021,perception_pilot,2022.2.4,Win32,10.00040002,,,,,,,,,,,,,MAGPIE_GOOSE_5.jpg,OYSTER_CATCHER_3.jpg,WOOD_DUCK_5.jpg,HAMERKOP_1.jpg,DOUBLE_EYED_FIG_PARROT_5.jpg,3,2,1,3,1,6,,,3,0,3.392,0,6,6,6,1,,
,,,A2KDZLWD8RAHDM,53,MAle,8,2023-01-18_12h57.20.021,perception_pilot,2022.2.4,Win32,10.00040002,,,,,,,,,,,,,BALI_STARLING_1.jpg,CAPE_LONGCLAW_5.jpg,OSTRICH_5.jpg,IBERIAN_MAGPIE_1.jpg,PURPLE_FINCH_2.jpg,1,3,2,1,1,7,,,2,0,3.784,0,7,7,7,1,,
,,,A2KDZLWD8RAHDM,53,MAle,8,2023-01-18_12h57.20.021,perception_pilot,2022.2.4,Win32,10.00040002,,,,,,,,,,,,,OCELLATED_TURKEY_1.jpg,LARK_BUNTING_1.jpg,CHIPPING_SPARROW_1.jpg,PURPLE_SWAMPHEN_4.jpg,AMERICAN_KESTREL_2.jpg,1,3,2,2,3,8,,,2,0,4.666,0,8,8,8,1,,
,,,A2KDZLWD8RAHDM,53,MAle,8,2023-01-18_12h57.20.021,perception_pilot,2022.2.4,Win32,10.00040002,,,,,,,,,,,,,RUFOUS_KINGFISHER_1.jpg,MAGPIE_GOOSE_3.jpg,BLACK_VENTED_SHEARWATER_2.jpg,COCKATOO_5.jpg,HORNED_SUNGEM_4.jpg,1,2,3,2,2,9,,,1,0,2.246,0,9,9,9,1,,
,,,A2KDZLWD8RAHDM,53,MAle,8,2023-01-18_12h57.20.021,perception_pilot,2022.2.4,Win32,10.00040002,,,,,,,,,,,,,right.png,right.png,right.png,left.png,up.png,,,,,2,10,,,2,1,2.357,0,10,10,10,1,,
,,,A2KDZLWD8RAHDM,53,MAle,8,2023-01-18_12h57.20.021,perception_pilot,2022.2.4,Win32,10.00040002,,,,,,,,,,,,,SCARLET_TANAGER_2.jpg,BORNEAN_LEAFBIRD_1.jpg,CARMINE_BEE-EATER_1.jpg,LITTLE_AUK_3.jpg,BLONDE_CRESTED_WOODPECKER_3.jpg,1,2,3,3,3,11,,,3,1,1.958,0,11,11,11,1,,
,,,A2KDZLWD8RAHDM,53,MAle,8,2023-01-18_12h57.20.021,perception_pilot,2022.2.4,Win32,10.00040002,,,,,,,,,,,,,GYRFALCON_1.jpg,FAIRY_TERN_1.jpg,CINNAMON_ATTILA_2.jpg,YELLOW_HEADED_BLACKBIRD_3.jpg,ASHY_STORM_PETREL_2.jpg,2,3,1,3,2,12,,,3,0,2.226,0,12,12,12,1,,
,,,A2KDZLWD8RAHDM,53,MAle,8,2023-01-18_12h57.20.021,perception_pilot,2022.2.4,Win32,10.00040002,,,,,,,,,,,,,CHUKAR_PARTRIDGE_5.jpg,BLACK_THROATED_BUSHTIT_1.jpg,PUFFIN_3.jpg,OSTRICH_3.jpg,RAZORBILL_1.jpg,3,1,2,3,1,13,,,1,1,3.403,0,13,13,13,1,,
,,,A2KDZLWD8RAHDM,53,MAle,8,2023-01-18_12h57.20.021,perception_pilot,2022.2.4,Win32,10.00040002,,,,,,,,,,,,,AMERICAN_PIPIT_5.jpg,GREEN_MAGPIE_1.jpg,HEPATIC_TANAGER_5.jpg,EMU_2.jpg,LOGGERHEAD_SHRIKE_4.jpg,3,1,2,2,3,14,,,3,1,1.913,0,14,14,14,1,,
,,,A2KDZLWD8RAHDM,53,MAle,8,2023-01-18_12h57.20.021,perception_pilot,2022.2.4,Win32,10.00040002,,,,,,,,,,,,,EUROPEAN_TURTLE_DOVE_3.jpg,MALABAR_HORNBILL_2.jpg,BROWN_THRASHER_2.jpg,TEAL_DUCK_2.jpg,PAINTED_BUNTING_3.jpg,3,1,2,3,1,15,,,2,0,1.957,0,15,15,15,1,,
,,,A2KDZLWD8RAHDM,53,MAle,8,2023-01-18_12h57.20.021,perception_pilot,2022.2.4,Win32,10.00040002,,,,,,,,,,,,,BROWN_NOODY_3.jpg,KIWI_2.jpg,GUINEA_TURACO_5.jpg,PEACOCK_5.jpg,SPANGLED_COTINGA_4.jpg,3,1,2,1,2,16,,,2,1,0.911,0,16,16,16,1,,
,,,A2KDZLWD8RAHDM,53,MAle,8,2023-01-18_12h57.20.021,perception_pilot,2022.2.4,Win32,10.00040002,,,,,,,,,,,,,GRAY_KINGBIRD_5.jpg,COCK_OF_THE__ROCK_4.jpg,BLACK_SWAN_5.jpg,BALD_EAGLE_2.jpg,AFRICAN_FIREFINCH_3.jpg,2,1,3,2,1,17,,,3,0,1.663,0,17,17,17,1,,
,,,A2KDZLWD8RAHDM,53,MAle,8,2023-01-18_12h57.20.021,perception_pilot,2022.2.4,Win32,10.00040002,,,,,,,,,,,,,SHOEBILL_3.jpg,MALAGASY_WHITE_EYE_3.jpg,GILDED_FLICKER_5.jpg,EMERALD_TANAGER_3.jpg,BALD_EAGLE_5.jpg,2,1,3,1,2,18,,,1,0,1.496,0,18,18,18,1,,
,,,A2KDZLWD8RAHDM,53,MAle,8,2023-01-18_12h57.20.021,perception_pilot,2022.2.4,Win32,10.00040002,,,,,,,,,,,,,BREWERS_BLACKBIRD_3.jpg,CAPE_LONGCLAW_2.jpg,AFRICAN_OYSTER_CATCHER_2.jpg,PEACOCK_4.jpg,GOLDEN_CHEEKED_WARBLER_3.jpg,3,1,2,3,1,19,,,3,0,0.86,0,19,19,19,1,,
,,,A2KDZLWD8RAHDM,53,MAle,8,2023-01-18_12h57.20.021,perception_pilot,2022.2.4,Win32,10.00040002,,,,,,,,,,,,,SPLENDID_WREN_1.jpg,DOUBLE_BRESTED_CORMARANT_1.jpg,CUBAN_TODY_4.jpg,PARAKETT__AKULET_3.jpg,BLACK_SWAN_2.jpg,3,1,2,2,3,20,,,2,0,3.577,0,20,20,20,1,,
,,,A2KDZLWD8RAHDM,53,MAle,8,2023-01-18_12h57.20.021,perception_pilot,2022.2.4,Win32,10.00040002,,,,,,,,,,,,,NORTHERN_GANNET_2.jpg,STRAWBERRY_FINCH_1.jpg,VENEZUELIAN_TROUPIAL_1.jpg,PAINTED_BUNTING_5.jpg,MASKED_BOOBY_5.jpg,2,1,3,2,1,21,,,3,0,1.112,0,21,21,21,1,,
,,,A2KDZLWD8RAHDM,53,MAle,8,2023-01-18_12h57.20.021,perception_pilot,2022.2.4,Win32,10.00040002,,,,,,,,,,,,,STRIPPED_SWALLOW_1.jpg,GO_AWAY_BIRD_5.jpg,WHITE_THROATED_BEE_EATER_5.jpg,EMPEROR_PENGUIN_5.jpg,MAGPIE_GOOSE_4.jpg,3,1,2,3,1,22,,,3,0,1.165,0,22,22,22,1,,
,,,A2KDZLWD8RAHDM,53,MAle,8,2023-01-18_12h57.20.021,perception_pilot,2022.2.4,Win32,10.00040002,,,,,,,,,,,,,INDIGO_BUNTING_1.jpg,SNOWY_PLOVER_1.jpg,DARWINS_FLYCATCHER_2.jpg,SKUA_2.jpg,FRIGATE_4.jpg,3,2,1,2,2,23,,,3,0,2.277,0,23,23,23,1,,
,,,A2KDZLWD8RAHDM,53,MAle,8,2023-01-18_12h57.20.021,perception_pilot,2022.2.4,Win32,10.00040002,,,,,,,,,,,,,LITTLE_AUK_5.jpg,SANDHILL_CRANE_3.jpg,BEARDED_BELLBIRD_1.jpg,ORANGE_BRESTED_BUNTING_3.jpg,SCARLET_IBIS_1.jpg,3,2,1,1,3,24,,,2,0,6.83,0,24,24,24,1,,
,,,A2KDZLWD8RAHDM,53,MAle,8,2023-01-18_12h57.20.021,perception_pilot,2022.2.4,Win32,10.00040002,,,,,,,,,,,,,PINK_ROBIN_4.jpg,COMMON_IORA_4.jpg,GREEN_MAGPIE_3.jpg,ALBATROSS_4.jpg,SPOONBILL_3.jpg,3,2,1,3,1,25,,,2,0,1.128,0,25,25,25,1,,
,,,A2KDZLWD8RAHDM,53,MAle,8,2023-01-18_12h57.20.021,perception_pilot,2022.2.4,Win32,10.00040002,,,,,,,,,,,,,IVORY_GULL_1.jpg,EASTERN_GOLDEN_WEAVER_5.jpg,FAIRY_TERN_4.jpg,WILSONS_BIRD_OF_PARADISE_4.jpg,RED_FODY_1.jpg,3,1,2,2,3,26,,,1,0,0.869,0,26,26,26,1,,
,,,A2KDZLWD8RAHDM,53,MAle,8,2023-01-18_12h57.20.021,perception_pilot,2022.2.4,Win32,10.00040002,,,,,,,,,,,,,RUBY_THROATED_HUMMINGBIRD_1.jpg,VULTURINE_GUINEAFOWL_4.jpg,FRIGATE_1.jpg,EURASIAN_GOLDEN_ORIOLE_5.jpg,BEARDED_REEDLING_3.jpg,3,1,2,2,3,27,,,2,0,1.623,0,27,27,27,1,,
,,,A2KDZLWD8RAHDM,53,MAle,8,2023-01-18_12h57.20.021,perception_pilot,2022.2.4,Win32,10.00040002,,,,,,,,,,,,,TASMANIAN_HEN_5.jpg,AFRICAN_EMERALD_CUCKOO_5.jpg,BLACKBURNIAM_WARBLER_3.jpg,COPPERY_TAILED_COUCAL_1.jpg,BORNEAN_PHEASANT_2.jpg,1,3,2,2,3,28,,,3,1,1.08,0,28,28,28,1,,
,,,A2KDZLWD8RAHDM,53,MAle,8,2023-01-18_12h57.20.021,perception_pilot,2022.2.4,Win32,10.00040002,,,,,,,,,,,,,SKUA_4.jpg,ROADRUNNER_5.jpg,SNOWY_EGRET_5.jpg,AMERICAN_WIGEON_2.jpg,PARUS_MAJOR_2.jpg,1,3,2,3,2,29,,,2,1,3.569,0,29,29,29,1,,
,,,A2KDZLWD8RAHDM,53,MAle,8,2023-01-18_12h57.20.021,perception_pilot,2022.2.4,Win32,10.00040002,,,,,,,,,,,,,MCKAYS_BUNTING_3.jpg,EMU_4.jpg,DEMOISELLE_CRANE_3.jpg,AMERICAN_GOLDFINCH_4.jpg,IWI_2.jpg,1,3,2,1,1,30,,,2,0,1.098,0,30,30,30,1,,
,,,A2KDZLWD8RAHDM,53,MAle,8,2023-01-18_12h57.20.021,perception_pilot,2022.2.4,Win32,10.00040002,,,,,,,,,,,,,LESSER_ADJUTANT_4.jpg,ALTAMIRA_YELLOWTHROAT_5.jpg,RAINBOW_LORIKEET_5.jpg,DOUBLE_EYED_FIG_PARROT_4.jpg,FAIRY_TERN_3.jpg,2,1,3,1,2,31,,,1,0,1.357,0,31,31,31,1,,
,,,A2KDZLWD8RAHDM,53,MAle,8,2023-01-18_12h57.20.021,perception_pilot,2022.2.4,Win32,10.00040002,,,,,,,,,,,,,NORTHERN_JACANA_2.jpg,VULTURINE_GUINEAFOWL_5.jpg,RED_FACED_CORMORANT_1.jpg,GREEN_BROADBILL_1.jpg,CRAB_PLOVER_3.jpg,3,1,2,2,3,32,,,2,0,3.621,0,32,32,32,1,,
,,,A2KDZLWD8RAHDM,53,MAle,8,2023-01-18_12h57.20.021,perception_pilot,2022.2.4,Win32,10.00040002,,,,,,,,,,,,,LESSER_ADJUTANT_5.jpg,RED_HEADED_WOODPECKER_1.jpg,CASPIAN_TERN_2.jpg,AMERICAN_GOLDFINCH_1.jpg,GAMBELS_QUAIL_1.jpg,3,1,2,3,1,33,,,3,0,2.034,0,33,33,33,1,,
,,,A2KDZLWD8RAHDM,53,MAle,8,2023-01-18_12h57.20.021,perception_pilot,2022.2.4,Win32,10.00040002,,,,,,,,,,,,,WHITE_CHEEKED_TURACO_5.jpg,SNOWY_EGRET_1.jpg,PYGMY_KINGFISHER_2.jpg,CHINESE_POND_HERON_1.jpg,ORIENTAL_BAY_OWL_5.jpg,3,1,2,2,3,34,,,2,0,4.889,0,34,34,34,1,,
,,,A2KDZLWD8RAHDM,53,MAle,8,2023-01-18_12h57.20.021,perception_pilot,2022.2.4,Win32,10.00040002,,,,,,,,,,,,,GREY_PLOVER_1.jpg,HYACINTH_MACAW_3.jpg,TURKEY_VULTURE_1.jpg,GOULDIAN_FINCH_4.jpg,AMETHYST_WOODSTAR_4.jpg,1,2,3,1,1,35,,,3,0,2.711,0,35,35,35,1,,
,,,A2KDZLWD8RAHDM,53,MAle,8,2023-01-18_12h57.20.021,perception_pilot,2022.2.4,Win32,10.00040002,,,,,,,,,,,,,PARUS_MAJOR_1.jpg,COMMON_POORWILL_1.jpg,OSTRICH_4.jpg,PINK_ROBIN_3.jpg,CALIFORNIA_GULL_2.jpg,1,3,2,1,1,36,,,1,1,1.137,0,36,36,36,1,,
,,,A2KDZLWD8RAHDM,53,MAle,8,2023-01-18_12h57.20.021,perception_pilot,2022.2.4,Win32,10.00040002,,,,,,,,,,,,,GOLDEN_CHLOROPHONIA_5.jpg,COMMON_HOUSE_MARTIN_4.jpg,VERMILION_FLYCATHER_5.jpg,ROADRUNNER_2.jpg,INLAND_DOTTEREL_5.jpg,3,1,2,2,3,37,,,1,0,2.185,0,37,37,37,1,,
,,,A2KDZLWD8RAHDM,53,MAle,8,2023-01-18_12h57.20.021,perception_pilot,2022.2.4,Win32,10.00040002,,,,,,,,,,,,,INLAND_DOTTEREL_4.jpg,JANDAYA_PARAKEET_5.jpg,CALIFORNIA_CONDOR_4.jpg,NICOBAR_PIGEON_4.jpg,CRESTED_KINGFISHER_1.jpg,1,2,3,1,1,38,,,2,0,0.556,0,38,38,38,1,,
,,,A2KDZLWD8RAHDM,53,MAle,8,2023-01-18_12h57.20.021,perception_pilot,2022.2.4,Win32,10.00040002,,,,,,,,,,,,,INCA_TERN_4.jpg,BORNEAN_BRISTLEHEAD_5.jpg,WHITE_NECKED_RAVEN_4.jpg,ELLIOTS__PHEASANT_4.jpg,SMITHS_LONGSPUR_5.jpg,3,1,2,3,1,39,,,2,0,1.123,0,39,39,39,1,,
,,,A2KDZLWD8RAHDM,53,MAle,8,2023-01-18_12h57.20.021,perception_pilot,2022.2.4,Win32,10.00040002,,,,,,,,,,,,,MYNA_1.jpg,PARADISE_TANAGER_3.jpg,SANDHILL_CRANE_4.jpg,GREY_PLOVER_4.jpg,INDIGO_BUNTING_2.jpg,1,2,3,3,3,40,,,3,1,2.851,0,40,40,40,1,,
,,,A2KDZLWD8RAHDM,53,MAle,8,2023-01-18_12h57.20.021,perception_pilot,2022.2.4,Win32,10.00040002,,,,,,,,,,,,,CRESTED_CARACARA_4.jpg,TOUCHAN_4.jpg,BLUE_DACNIS_4.jpg,FAIRY_PENGUIN_5.jpg,CREAM_COLORED_WOODPECKER_1.jpg,2,1,3,3,3,41,,,1,0,1.122,0,41,41,41,1,,
,,,A2KDZLWD8RAHDM,53,MAle,8,2023-01-18_12h57.20.021,perception_pilot,2022.2.4,Win32,10.00040002,,,,,,,,,,,,,left.png,left.png,right.png,up.png,left.png,,,,,1,42,,,2,0,1.766,0,42,42,42,1,,
,,,A2KDZLWD8RAHDM,53,MAle,8,2023-01-18_12h57.20.021,perception_pilot,2022.2.4,Win32,10.00040002,,,,,,,,,,,,,DOUBLE_BRESTED_CORMARANT_5.jpg,GILDED_FLICKER_2.jpg,SNOWY_OWL_3.jpg,CHINESE_POND_HERON_2.jpg,EURASIAN_MAGPIE_4.jpg,1,3,2,1,1,43,,,2,0,1.14,0,43,43,43,1,,
,,,A2KDZLWD8RAHDM,53,MAle,8,2023-01-18_12h57.20.021,perception_pilot,2022.2.4,Win32,10.00040002,,,,,,,,,,,,,left.png,left.png,up.png,right.png,left.png,,,,,2,44,,,1,0,0.323,0,44,44,44,1,,
,,,A2KDZLWD8RAHDM,53,MAle,8,2023-01-18_12h57.20.021,perception_pilot,2022.2.4,Win32,10.00040002,,,,,,,,,,,,,TREE_SWALLOW_4.jpg,ROBIN_3.jpg,RED_FODY_3.jpg,CALIFORNIA_GULL_1.jpg,RED_HEADED_DUCK_5.jpg,3,2,1,2,2,45,,,1,0,3.049,0,45,45,45,1,,
,,,A2KDZLWD8RAHDM,53,MAle,8,2023-01-18_12h57.20.021,perception_pilot,2022.2.4,Win32,10.00040002,,,,,,,,,,,,,OVENBIRD_5.jpg,JABIRU_4.jpg,TURQUOISE_MOTMOT_3.jpg,PURPLE_FINCH_5.jpg,FAIRY_PENGUIN_1.jpg,1,3,2,1,1,46,,,2,0,0.577,0,46,46,46,1,,
,,,A2KDZLWD8RAHDM,53,MAle,8,2023-01-18_12h57.20.021,perception_pilot,2022.2.4,Win32,10.00040002,,,,,,,,,,,,,CASPIAN_TERN_1.jpg,EUROPEAN_GOLDFINCH_4.jpg,COMMON_LOON_2.jpg,BRANDT_CORMARANT_4.jpg,AMERICAN_GOLDFINCH_3.jpg,3,1,2,2,3,47,,,2,0,1.948,0,47,47,47,1,,
,,,A2KDZLWD8RAHDM,53,MAle,8,2023-01-18_12h57.20.021,perception_pilot,2022.2.4,Win32,10.00040002,,,,,,,,,,,,,KAGU_5.jpg,EASTERN_MEADOWLARK_1.jpg,ASHY_STORM_PETREL_1.jpg,BANANAQUIT_2.jpg,IMPERIAL_SHAQ_2.jpg,2,1,3,1,2,48,,,1,0,2.482,0,48,48,48,1,,
,,,A2KDZLWD8RAHDM,53,MAle,8,2023-01-18_12h57.20.021,perception_pilot,2022.2.4,Win32,10.00040002,,,,,,,,,,,,,NORTHERN_JACANA_3.jpg,BAR-TAILED_GODWIT_3.jpg,REGENT_BOWERBIRD_5.jpg,SHORT_BILLED_DOWITCHER_5.jpg,BANANAQUIT_3.jpg,2,3,1,3,2,49,,,1,0,0.821,0,49,49,49,1,,
,,,A2KDZLWD8RAHDM,53,MAle,8,2023-01-18_12h57.20.021,perception_pilot,2022.2.4,Win32,10.00040002,,,,,,,,,,,,,VERMILION_FLYCATHER_3.jpg,RED_BEARDED_BEE_EATER_1.jpg,PARADISE_TANAGER_4.jpg,INDIAN_BUSTARD_1.jpg,CROWNED_PIGEON_1.jpg,3,1,2,3,1,50,,,2,0,0.554,0,50,50,50,1,,
,,,A2KDZLWD8RAHDM,53,MAle,8,2023-01-18_12h57.20.021,perception_pilot,2022.2.4,Win32,10.00040002,,,,,,,,,,,,,RUBY_THROATED_HUMMINGBIRD_2.jpg,GOLDEN_PARAKEET_2.jpg,APAPANE_4.jpg,DUSKY_ROBIN_5.jpg,GREEN_JAY_2.jpg,2,3,1,1,3,51,,,3,1,0.549,0,51,51,51,1,,
,,,A2KDZLWD8RAHDM,53,MAle,8,2023-01-18_12h57.20.021,perception_pilot,2022.2.4,Win32,10.00040002,,,,,,,,,,,,,PEACOCK_3.jpg,IBERIAN_MAGPIE_2.jpg,ANIANIAU_2.jpg,CHATTERING_LORY_3.jpg,STRAWBERRY_FINCH_4.jpg,1,3,2,3,2,52,,,3,0,1.954,0,52,52,52,1,,
,,,A2KDZLWD8RAHDM,53,MAle,8,2023-01-18_12h57.20.021,perception_pilot,2022.2.4,Win32,10.00040002,,,,,,,,,,,,,right.png,right.png,right.png,up.png,left.png,,,,,3,53,,,2,0,0.595,0,53,53,53,1,,
,,,A2KDZLWD8RAHDM,53,MAle,8,2023-01-18_12h57.20.021,perception_pilot,2022.2.4,Win32,10.00040002,,,,,,,,,,,,,IVORY_GULL_3.jpg,FLAME_TANAGER_3.jpg,CACTUS_WREN_1.jpg,SNOWY_EGRET_4.jpg,INDIGO_FLYCATCHER_2.jpg,2,3,1,2,1,54,,,1,1,1.936,0,54,54,54,1,,
,,,A2KDZLWD8RAHDM,53,MAle,8,2023-01-18_12h57.20.021,perception_pilot,2022.2.4,Win32,10.00040002,,,,,,,,,,,,,EASTERN_TOWEE_2.jpg,SANDHILL_CRANE_2.jpg,HYACINTH_MACAW_4.jpg,BLUE_HERON_3.jpg,NORTHERN_BEARDLESS_TYRANNULET_5.jpg,2,1,3,1,2,55,,,3,0,2.232,0,55,55,55,1,,
,,,A2KDZLWD8RAHDM,53,MAle,8,2023-01-18_12h57.20.021,perception_pilot,2022.2.4,Win32,10.00040002,,,,,,,,,,,,,CRESTED_NUTHATCH_2.jpg,AFRICAN_FIREFINCH_1.jpg,SCARLET_IBIS_3.jpg,CANARY_1.jpg,GOLDEN_CHLOROPHONIA_1.jpg,1,3,2,2,3,56,,,3,1,1.908,0,56,56,56,1,,
,,,A2KDZLWD8RAHDM,53,MAle,8,2023-01-18_12h57.20.021,perception_pilot,2022.2.4,Win32,10.00040002,,,,,,,,,,,,,MALACHITE_KINGFISHER_2.jpg,INCA_TERN_2.jpg,SKUA_3.jpg,COCKATOO_2.jpg,GREEN_BROADBILL_5.jpg,1,2,3,2,2,57,,,1,0,2.517,0,57,57,57,1,,
,,,A2KDZLWD8RAHDM,53,MAle,8,2023-01-18_12h57.20.021,perception_pilot,2022.2.4,Win32,10.00040002,,,,,,,,,,,,,FLAME_BOWERBIRD_3.jpg,BROWN_THRASHER_4.jpg,INDIAN_BUSTARD_2.jpg,BLACK_THROATED_WARBLER_4.jpg,QUETZAL_3.jpg,1,2,3,2,2,58,,,2,1,2.186,0,58,58,58,1,,
,,,A2KDZLWD8RAHDM,53,MAle,8,2023-01-18_12h57.20.021,perception_pilot,2022.2.4,Win32,10.00040002,,,,,,,,,,,,,NICOBAR_PIGEON_1.jpg,MYNA_4.jpg,EASTERN_BLUEBIRD_3.jpg,LITTLE_AUK_1.jpg,NORTHERN_MOCKINGBIRD_4.jpg,3,2,1,1,3,59,,,2,0,2.786,0,59,59,59,1,,
,,,A2KDZLWD8RAHDM,53,MAle,8,2023-01-18_12h57.20.021,perception_pilot,2022.2.4,Win32,10.00040002,,,,,,,,,,,,,left.png,left.png,left.png,right.png,up.png,,,,,2,60,,,3,0,0.877,0,60,60,60,1,,
,,,A2KDZLWD8RAHDM,53,MAle,8,2023-01-18_12h57.20.021,perception_pilot,2022.2.4,Win32,10.00040002,,,,,,,,,,,,,AFRICAN_PIED_HORNBILL_5.jpg,KIWI_4.jpg,ALEXANDRINE_PARAKEET_1.jpg,BORNEAN_PHEASANT_4.jpg,CAPUCHINBIRD_2.jpg,2,1,3,1,2,61,,,1,0,1.936,0,61,61,61,1,,
,,,A2KDZLWD8RAHDM,53,MAle,8,2023-01-18_12h57.20.021,perception_pilot,2022.2.4,Win32,10.00040002,,,,,,,,,,,,,ASIAN_CRESTED_IBIS_4.jpg,IVORY_GULL_2.jpg,OYSTER_CATCHER_2.jpg,CASPIAN_TERN_4.jpg,CANARY_2.jpg,2,3,1,3,2,62,,,2,1,3.779,0,62,62,62,1,,
,,,A2KDZLWD8RAHDM,53,MAle,8,2023-01-18_12h57.20.021,perception_pilot,2022.2.4,Win32,10.00040002,,,,,,,,,,,,,RED_HEADED_WOODPECKER_5.jpg,GREAT_GRAY_OWL_5.jpg,CRIMSON_CHAT_3.jpg,KIWI_1.jpg,COLLARED_ARACARI_1.jpg,2,1,3,1,2,63,,,3,0,0.856,0,63,63,63,1,,
,,,A2KDZLWD8RAHDM,53,MAle,8,2023-01-18_12h57.20.021,perception_pilot,2022.2.4,Win32,10.00040002,,,,,,,,,,,,,GOLDEN_CHEEKED_WARBLER_2.jpg,SPOONBILL_1.jpg,WHITE_THROATED_BEE_EATER_1.jpg,RED_HEADED_DUCK_3.jpg,AMERICAN_FLAMINGO_3.jpg,3,1,2,1,2,64,,,1,0,3.675,0,64,64,64,1,,
,,,A2KDZLWD8RAHDM,53,MAle,8,2023-01-18_12h57.20.021,perception_pilot,2022.2.4,Win32,10.00040002,,,,,,,,,,,,,,,,,,,,,,,,,,,,,,,,,,space,7.458
