button.numClicks,button.timesOn,button.timesOff,workID,Age,Gender,Hours slept (last night),date,expName,psychopyVersion,OS,frameRate,key_resp_13.keys,key_resp_13.rt,key_resp_14.keys,key_resp_14.rt,key_resp_3.keys,key_resp_3.corr,key_resp_3.rt,demo_loop.thisRepN,demo_loop.thisTrialN,demo_loop.thisN,demo_loop.thisIndex,demo_loop.ran,target_image,target_match,option1,option2,option3,option1_layer,option2_layer,option3_layer,match_layer,correct_answer,trial_num,key_resp_15.keys,key_resp_15.rt,key_resp.keys,key_resp.corr,key_resp.rt,trials.thisRepN,trials.thisTrialN,trials.thisN,trials.thisIndex,trials.ran,key_resp_end_2.keys,key_resp_end_2.rt
1,[2.358000000000004],[2.358000000000004],A2RE8G7FOGBR3W,30,Male,8,2023-01-18_13h22.24.244,perception_pilot,2022.2.4,Win32,10.66666667,,,,,,,,,,,,,,,,,,,,,,,,,,,,,,,,,,,
,,,A2RE8G7FOGBR3W,30,Male,8,2023-01-18_13h22.24.244,perception_pilot,2022.2.4,Win32,10.66666667,space,3.075,,,,,,,,,,,,,,,,,,,,,,,,,,,,,,,,,
,,,A2RE8G7FOGBR3W,30,Male,8,2023-01-18_13h22.24.244,perception_pilot,2022.2.4,Win32,10.66666667,,,space,1.743,,,,,,,,,,,,,,,,,,,,,,,,,,,,,,,
,,,A2RE8G7FOGBR3W,30,Male,8,2023-01-18_13h22.24.244,perception_pilot,2022.2.4,Win32,10.66666667,,,,,,,,,,,,,,,,,,,,,,,,,,,,,,,,,,,
,,,A2RE8G7FOGBR3W,30,Male,8,2023-01-18_13h22.24.244,perception_pilot,2022.2.4,Win32,10.66666667,,,,,1,0,8.687,0,0,0,0,1,LITTLE_AUK_5.jpg,BEARDED_BELLBIRD_1.jpg,SANDHILL_CRANE_3.jpg,ORANGE_BRESTED_BUNTING_3.jpg,DOWNY_WOODPECKER_1.jpg,1,2,3,3,3,0,,,,,,,,,,,,
,,,A2RE8G7FOGBR3W,30,Male,8,2023-01-18_13h22.24.244,perception_pilot,2022.2.4,Win32,10.66666667,,,,,2,1,4.157,0,1,1,1,1,PYGMY_KINGFISHER_5.jpg,GREAT_POTOO_3.jpg,GRANDALA_2.jpg,OYSTER_CATCHER_5.jpg,NORTHERN_PARULA_5.jpg,1,2,3,2,2,1,,,,,,,,,,,,
,,,A2RE8G7FOGBR3W,30,Male,8,2023-01-18_13h22.24.244,perception_pilot,2022.2.4,Win32,10.66666667,,,,,2,0,15.877,0,2,2,2,1,BARRED_PUFFBIRD_3.jpg,VEERY_4.jpg,RED_TAILED_THRUSH_2.jpg,NORTHERN_CARDINAL_5.jpg,WHITE_CHEEKED_TURACO_2.jpg,3,2,1,3,1,2,,,,,,,,,,,,
,,,A2RE8G7FOGBR3W,30,Male,8,2023-01-18_13h22.24.244,perception_pilot,2022.2.4,Win32,10.66666667,,,,,2,0,11.834,0,3,3,3,1,STRIPPED_SWALLOW_1.jpg,EMPEROR_PENGUIN_5.jpg,BRANDT_CORMARANT_3.jpg,MAGPIE_GOOSE_4.jpg,GO_AWAY_BIRD_5.jpg,1,2,3,1,1,3,,,,,,,,,,,,
,,,A2RE8G7FOGBR3W,30,Male,8,2023-01-18_13h22.24.244,perception_pilot,2022.2.4,Win32,10.66666667,,,,,1,0,6.194,0,4,4,4,1,VERMILION_FLYCATHER_3.jpg,CROWNED_PIGEON_1.jpg,INDIAN_BUSTARD_1.jpg,RED_BEARDED_BEE_EATER_1.jpg,LITTLE_AUK_4.jpg,1,3,2,2,3,4,,,,,,,,,,,,
,,,A2RE8G7FOGBR3W,30,Male,8,2023-01-18_13h22.24.244,perception_pilot,2022.2.4,Win32,10.66666667,,,,,2,0,4.119,0,5,5,5,1,IVORY_GULL_1.jpg,WILSONS_BIRD_OF_PARADISE_4.jpg,OCELLATED_TURKEY_2.jpg,FAIRY_TERN_4.jpg,EASTERN_GOLDEN_WEAVER_5.jpg,1,3,2,1,1,5,,,,,,,,,,,,
,,,A2RE8G7FOGBR3W,30,Male,8,2023-01-18_13h22.24.244,perception_pilot,2022.2.4,Win32,10.66666667,,,,,1,0,4.501,0,6,6,6,1,right.png,right.png,right.png,up.png,left.png,,,,,3,6,,,,,,,,,,,,
,,,A2RE8G7FOGBR3W,30,Male,8,2023-01-18_13h22.24.244,perception_pilot,2022.2.4,Win32,10.66666667,,,,,2,0,16.915,0,7,7,7,1,NORTHERN_GANNET_2.jpg,STRAWBERRY_FINCH_1.jpg,PAINTED_BUNTING_5.jpg,MASKED_BOOBY_5.jpg,VENEZUELIAN_TROUPIAL_1.jpg,1,3,2,2,3,7,,,,,,,,,,,,
,,,A2RE8G7FOGBR3W,30,Male,8,2023-01-18_13h22.24.244,perception_pilot,2022.2.4,Win32,10.66666667,,,,,3,1,29.379,0,8,8,8,1,WHITE_CHEEKED_TURACO_5.jpg,PYGMY_KINGFISHER_2.jpg,SNOWY_EGRET_1.jpg,CHINESE_POND_HERON_1.jpg,MALAGASY_WHITE_EYE_5.jpg,2,1,3,3,3,8,,,,,,,,,,,,
,,,A2RE8G7FOGBR3W,30,Male,8,2023-01-18_13h22.24.244,perception_pilot,2022.2.4,Win32,10.66666667,,,,,2,0,3.019,0,9,9,9,1,PINK_ROBIN_4.jpg,SPOONBILL_3.jpg,ALBATROSS_4.jpg,COMMON_IORA_4.jpg,BEARDED_BARBET_2.jpg,2,3,1,1,3,9,,,,,,,,,,,,
,,,A2RE8G7FOGBR3W,30,Male,8,2023-01-18_13h22.24.244,perception_pilot,2022.2.4,Win32,10.66666667,,,,,,,,,,,,,,,,,,,,,,,,space,11.437,,,,,,,,,,
,,,A2RE8G7FOGBR3W,30,Male,8,2023-01-18_13h22.24.244,perception_pilot,2022.2.4,Win32,10.66666667,,,,,,,,,,,,,GYRFALCON_1.jpg,FAIRY_TERN_1.jpg,CINNAMON_ATTILA_2.jpg,YELLOW_HEADED_BLACKBIRD_3.jpg,ASHY_STORM_PETREL_2.jpg,2,3,1,3,2,0,,,3,0,3.522,0,0,0,0,1,,
,,,A2RE8G7FOGBR3W,30,Male,8,2023-01-18_13h22.24.244,perception_pilot,2022.2.4,Win32,10.66666667,,,,,,,,,,,,,SCARLET_TANAGER_2.jpg,CARMINE_BEE-EATER_1.jpg,LITTLE_AUK_3.jpg,BIRD_OF_PARADISE_3.jpg,BORNEAN_LEAFBIRD_1.jpg,2,1,3,1,2,1,,,2,1,2.789,0,1,1,1,1,,
,,,A2RE8G7FOGBR3W,30,Male,8,2023-01-18_13h22.24.244,perception_pilot,2022.2.4,Win32,10.66666667,,,,,,,,,,,,,SHOEBILL_3.jpg,GILDED_FLICKER_5.jpg,MALAGASY_WHITE_EYE_3.jpg,IWI_1.jpg,BALD_EAGLE_5.jpg,1,2,3,2,2,2,,,3,0,4.836,0,2,2,2,1,,
,,,A2RE8G7FOGBR3W,30,Male,8,2023-01-18_13h22.24.244,perception_pilot,2022.2.4,Win32,10.66666667,,,,,,,,,,,,,CASPIAN_TERN_1.jpg,BRANDT_CORMARANT_4.jpg,COMMON_LOON_2.jpg,COMMON_POORWILL_4.jpg,EUROPEAN_GOLDFINCH_4.jpg,3,1,2,1,2,3,,,2,1,20.484,0,3,3,3,1,,
,,,A2RE8G7FOGBR3W,30,Male,8,2023-01-18_13h22.24.244,perception_pilot,2022.2.4,Win32,10.66666667,,,,,,,,,,,,,AMERICAN_PIPIT_5.jpg,GREEN_MAGPIE_1.jpg,EMU_2.jpg,HEPATIC_TANAGER_5.jpg,LOGGERHEAD_SHRIKE_4.jpg,1,3,2,2,3,4,,,1,0,1.267,0,4,4,4,1,,
,,,A2RE8G7FOGBR3W,30,Male,8,2023-01-18_13h22.24.244,perception_pilot,2022.2.4,Win32,10.66666667,,,,,,,,,,,,,GRAY_KINGBIRD_5.jpg,BALD_EAGLE_2.jpg,PEACOCK_1.jpg,COCK_OF_THE__ROCK_4.jpg,AFRICAN_FIREFINCH_3.jpg,1,2,3,1,1,5,,,3,0,3.225,0,5,5,5,1,,
,,,A2RE8G7FOGBR3W,30,Male,8,2023-01-18_13h22.24.244,perception_pilot,2022.2.4,Win32,10.66666667,,,,,,,,,,,,,MYNA_1.jpg,PARADISE_TANAGER_3.jpg,GREY_PLOVER_4.jpg,SANDHILL_CRANE_4.jpg,INDIGO_BUNTING_2.jpg,2,1,3,3,3,6,,,1,0,5.295,0,6,6,6,1,,
,,,A2RE8G7FOGBR3W,30,Male,8,2023-01-18_13h22.24.244,perception_pilot,2022.2.4,Win32,10.66666667,,,,,,,,,,,,,AFRICAN_PIED_HORNBILL_5.jpg,KIWI_4.jpg,CAPUCHINBIRD_2.jpg,ALEXANDRINE_PARAKEET_1.jpg,BORNEAN_PHEASANT_4.jpg,3,2,1,1,3,7,,,1,0,7.831,0,7,7,7,1,,
,,,A2RE8G7FOGBR3W,30,Male,8,2023-01-18_13h22.24.244,perception_pilot,2022.2.4,Win32,10.66666667,,,,,,,,,,,,,OVENBIRD_5.jpg,JABIRU_4.jpg,PURPLE_FINCH_5.jpg,TURQUOISE_MOTMOT_3.jpg,FAIRY_PENGUIN_1.jpg,3,1,2,1,2,8,,,2,1,27.75,0,8,8,8,1,,
,,,A2RE8G7FOGBR3W,30,Male,8,2023-01-18_13h22.24.244,perception_pilot,2022.2.4,Win32,10.66666667,,,,,,,,,,,,,ALPINE_CHOUGH_4.jpg,SNOWY_EGRET_2.jpg,BOBOLINK_3.jpg,AMERICAN_FLAMINGO_2.jpg,EUROPEAN_GOLDFINCH_3.jpg,3,1,2,1,2,9,,,1,0,7.486,0,9,9,9,1,,
,,,A2RE8G7FOGBR3W,30,Male,8,2023-01-18_13h22.24.244,perception_pilot,2022.2.4,Win32,10.66666667,,,,,,,,,,,,,right.png,right.png,left.png,right.png,up.png,,,,,1,10,,,2,0,10.73,0,10,10,10,1,,
,,,A2RE8G7FOGBR3W,30,Male,8,2023-01-18_13h22.24.244,perception_pilot,2022.2.4,Win32,10.66666667,,,,,,,,,,,,,MAGPIE_GOOSE_5.jpg,OYSTER_CATCHER_3.jpg,WOOD_DUCK_5.jpg,DOUBLE_EYED_FIG_PARROT_5.jpg,HAMERKOP_1.jpg,3,1,2,3,1,11,,,1,1,6.198,0,11,11,11,1,,
,,,A2RE8G7FOGBR3W,30,Male,8,2023-01-18_13h22.24.244,perception_pilot,2022.2.4,Win32,10.66666667,,,,,,,,,,,,,MCKAYS_BUNTING_3.jpg,IWI_2.jpg,EMU_4.jpg,AMERICAN_GOLDFINCH_4.jpg,PAINTED_BUNTING_1.jpg,1,3,2,2,3,12,,,3,1,3.433,0,12,12,12,1,,
,,,A2RE8G7FOGBR3W,30,Male,8,2023-01-18_13h22.24.244,perception_pilot,2022.2.4,Win32,10.66666667,,,,,,,,,,,,,RED_FACED_WARBLER_1.jpg,BLACK_VENTED_SHEARWATER_4.jpg,CAPE_GLOSSY_STARLING_2.jpg,COMMON_LOON_4.jpg,EMU_5.jpg,3,2,1,2,2,13,,,1,0,3.263,0,13,13,13,1,,
,,,A2RE8G7FOGBR3W,30,Male,8,2023-01-18_13h22.24.244,perception_pilot,2022.2.4,Win32,10.66666667,,,,,,,,,,,,,EUROPEAN_TURTLE_DOVE_3.jpg,MALABAR_HORNBILL_2.jpg,BROWN_THRASHER_2.jpg,TEAL_DUCK_2.jpg,PAINTED_BUNTING_3.jpg,3,1,2,3,1,14,,,2,0,8.51,0,14,14,14,1,,
,,,A2RE8G7FOGBR3W,30,Male,8,2023-01-18_13h22.24.244,perception_pilot,2022.2.4,Win32,10.66666667,,,,,,,,,,,,,INDIGO_BUNTING_1.jpg,DARWINS_FLYCATCHER_2.jpg,BALTIMORE_ORIOLE_4.jpg,FRIGATE_4.jpg,SNOWY_PLOVER_1.jpg,3,1,2,3,1,15,,,1,1,8.417,0,15,15,15,1,,
,,,A2RE8G7FOGBR3W,30,Male,8,2023-01-18_13h22.24.244,perception_pilot,2022.2.4,Win32,10.66666667,,,,,,,,,,,,,HAWAIIAN_GOOSE_4.jpg,RED_BEARDED_BEE_EATER_3.jpg,WATTLED_LAPWING_3.jpg,DOUBLE_EYED_FIG_PARROT_1.jpg,HIMALAYAN_MONAL_2.jpg,3,1,2,1,2,16,,,2,1,9.473,0,16,16,16,1,,
,,,A2RE8G7FOGBR3W,30,Male,8,2023-01-18_13h22.24.244,perception_pilot,2022.2.4,Win32,10.66666667,,,,,,,,,,,,,ASIAN_CRESTED_IBIS_4.jpg,IVORY_GULL_2.jpg,CANARY_2.jpg,CASPIAN_TERN_4.jpg,OYSTER_CATCHER_2.jpg,1,3,2,3,2,17,,,2,1,8.517,0,17,17,17,1,,
,,,A2RE8G7FOGBR3W,30,Male,8,2023-01-18_13h22.24.244,perception_pilot,2022.2.4,Win32,10.66666667,,,,,,,,,,,,,ARARIPE_MANAKIN_4.jpg,KIWI_3.jpg,GREAT_GRAY_OWL_4.jpg,BLACK_VULTURE_1.jpg,BORNEAN_LEAFBIRD_3.jpg,1,2,3,1,1,18,,,3,0,7.915,0,18,18,18,1,,
,,,A2RE8G7FOGBR3W,30,Male,8,2023-01-18_13h22.24.244,perception_pilot,2022.2.4,Win32,10.66666667,,,,,,,,,,,,,CERULEAN_WARBLER_1.jpg,BANANAQUIT_1.jpg,CRESTED_OROPENDOLA_5.jpg,ORIENTAL_BAY_OWL_1.jpg,AMERICAN_FLAMINGO_5.jpg,3,1,2,3,1,19,,,2,0,17.925,0,19,19,19,1,,
,,,A2RE8G7FOGBR3W,30,Male,8,2023-01-18_13h22.24.244,perception_pilot,2022.2.4,Win32,10.66666667,,,,,,,,,,,,,BREWERS_BLACKBIRD_3.jpg,PEACOCK_4.jpg,DOUBLE_EYED_FIG_PARROT_2.jpg,CAPE_LONGCLAW_2.jpg,GOLDEN_CHEEKED_WARBLER_3.jpg,1,3,2,1,1,20,,,1,1,6.621,0,20,20,20,1,,
,,,A2RE8G7FOGBR3W,30,Male,8,2023-01-18_13h22.24.244,perception_pilot,2022.2.4,Win32,10.66666667,,,,,,,,,,,,,BALI_STARLING_1.jpg,PURPLE_FINCH_2.jpg,AMERICAN_PIPIT_1.jpg,CAPE_LONGCLAW_5.jpg,IBERIAN_MAGPIE_1.jpg,2,1,3,2,1,21,,,1,1,9.632,0,21,21,21,1,,
,,,A2RE8G7FOGBR3W,30,Male,8,2023-01-18_13h22.24.244,perception_pilot,2022.2.4,Win32,10.66666667,,,,,,,,,,,,,RED_HEADED_WOODPECKER_5.jpg,COLLARED_ARACARI_1.jpg,GREAT_GRAY_OWL_5.jpg,BLACKBURNIAM_WARBLER_4.jpg,CRIMSON_CHAT_3.jpg,1,3,2,3,2,22,,,3,0,3.42,0,22,22,22,1,,
,,,A2RE8G7FOGBR3W,30,Male,8,2023-01-18_13h22.24.244,perception_pilot,2022.2.4,Win32,10.66666667,,,,,,,,,,,,,BROWN_NOODY_3.jpg,SPANGLED_COTINGA_4.jpg,COMMON_IORA_3.jpg,GUINEA_TURACO_5.jpg,KIWI_2.jpg,2,3,1,2,1,23,,,3,0,2.973,0,23,23,23,1,,
,,,A2RE8G7FOGBR3W,30,Male,8,2023-01-18_13h22.24.244,perception_pilot,2022.2.4,Win32,10.66666667,,,,,,,,,,,,,GREY_PLOVER_1.jpg,AMETHYST_WOODSTAR_4.jpg,BURCHELLS_COURSER_5.jpg,HYACINTH_MACAW_3.jpg,GOULDIAN_FINCH_4.jpg,3,1,2,3,1,24,,,1,1,2.978,0,24,24,24,1,,
,,,A2RE8G7FOGBR3W,30,Male,8,2023-01-18_13h22.24.244,perception_pilot,2022.2.4,Win32,10.66666667,,,,,,,,,,,,,OCELLATED_TURKEY_1.jpg,LARK_BUNTING_1.jpg,CHIPPING_SPARROW_1.jpg,PURPLE_SWAMPHEN_4.jpg,AMERICAN_KESTREL_2.jpg,1,3,2,2,3,25,,,3,1,4.802,0,25,25,25,1,,
,,,A2RE8G7FOGBR3W,30,Male,8,2023-01-18_13h22.24.244,perception_pilot,2022.2.4,Win32,10.66666667,,,,,,,,,,,,,SPLENDID_WREN_1.jpg,PARAKETT__AKULET_3.jpg,BLACK_SWAN_1.jpg,CUBAN_TODY_4.jpg,DOUBLE_BRESTED_CORMARANT_1.jpg,1,3,2,1,1,26,,,2,0,3.5,0,26,26,26,1,,
,,,A2RE8G7FOGBR3W,30,Male,8,2023-01-18_13h22.24.244,perception_pilot,2022.2.4,Win32,10.66666667,,,,,,,,,,,,,EASTERN_TOWEE_2.jpg,HYACINTH_MACAW_4.jpg,ANDEAN_GOOSE_3.jpg,NORTHERN_BEARDLESS_TYRANNULET_5.jpg,SANDHILL_CRANE_2.jpg,2,3,1,2,1,27,,,2,0,6.767,0,27,27,27,1,,
,,,A2RE8G7FOGBR3W,30,Male,8,2023-01-18_13h22.24.244,perception_pilot,2022.2.4,Win32,10.66666667,,,,,,,,,,,,,CHUKAR_PARTRIDGE_5.jpg,BLACK_THROATED_BUSHTIT_1.jpg,RAZORBILL_1.jpg,OSTRICH_3.jpg,PUFFIN_3.jpg,2,1,3,3,3,28,,,3,1,6.374,0,28,28,28,1,,
,,,A2RE8G7FOGBR3W,30,Male,8,2023-01-18_13h22.24.244,perception_pilot,2022.2.4,Win32,10.66666667,,,,,,,,,,,,,CRESTED_NUTHATCH_2.jpg,CANARY_1.jpg,AFRICAN_FIREFINCH_1.jpg,VERMILION_FLYCATHER_4.jpg,SCARLET_IBIS_3.jpg,2,3,1,3,2,29,,,2,1,9.988,0,29,29,29,1,,
,,,A2RE8G7FOGBR3W,30,Male,8,2023-01-18_13h22.24.244,perception_pilot,2022.2.4,Win32,10.66666667,,,,,,,,,,,,,FLAME_BOWERBIRD_3.jpg,QUETZAL_3.jpg,BROWN_THRASHER_4.jpg,GOULDIAN_FINCH_1.jpg,INDIAN_BUSTARD_2.jpg,2,3,1,3,2,30,,,2,1,6.16,0,30,30,30,1,,
,,,A2RE8G7FOGBR3W,30,Male,8,2023-01-18_13h22.24.244,perception_pilot,2022.2.4,Win32,10.66666667,,,,,,,,,,,,,NORTHERN_JACANA_3.jpg,REGENT_BOWERBIRD_5.jpg,BAR-TAILED_GODWIT_3.jpg,ASHY_THRUSHBIRD_4.jpg,BANANAQUIT_3.jpg,3,2,1,2,2,31,,,3,0,3.089,0,31,31,31,1,,
,,,A2RE8G7FOGBR3W,30,Male,8,2023-01-18_13h22.24.244,perception_pilot,2022.2.4,Win32,10.66666667,,,,,,,,,,,,,left.png,left.png,right.png,left.png,up.png,,,,,1,32,,,2,0,3.343,0,32,32,32,1,,
,,,A2RE8G7FOGBR3W,30,Male,8,2023-01-18_13h22.24.244,perception_pilot,2022.2.4,Win32,10.66666667,,,,,,,,,,,,,CASSOWARY_1.jpg,DEMOISELLE_CRANE_1.jpg,SCARLET_MACAW_1.jpg,WHITE_NECKED_RAVEN_5.jpg,ROSY_FACED_LOVEBIRD_4.jpg,2,3,1,3,2,33,,,2,1,6.466,0,33,33,33,1,,
,,,A2RE8G7FOGBR3W,30,Male,8,2023-01-18_13h22.24.244,perception_pilot,2022.2.4,Win32,10.66666667,,,,,,,,,,,,,right.png,right.png,left.png,right.png,up.png,,,,,1,34,,,2,0,32.407,0,34,34,34,1,,
,,,A2RE8G7FOGBR3W,30,Male,8,2023-01-18_13h22.24.244,perception_pilot,2022.2.4,Win32,10.66666667,,,,,,,,,,,,,NICOBAR_PIGEON_1.jpg,MYNA_4.jpg,NORTHERN_MOCKINGBIRD_4.jpg,LITTLE_AUK_1.jpg,EASTERN_BLUEBIRD_3.jpg,1,2,3,1,1,35,,,3,0,4.026,0,35,35,35,1,,
,,,A2RE8G7FOGBR3W,30,Male,8,2023-01-18_13h22.24.244,perception_pilot,2022.2.4,Win32,10.66666667,,,,,,,,,,,,,KAGU_5.jpg,IMPERIAL_SHAQ_2.jpg,ASHY_STORM_PETREL_1.jpg,VICTORIA_CROWNED_PIGEON_5.jpg,EASTERN_MEADOWLARK_1.jpg,2,3,1,3,2,36,,,3,0,6.214,0,36,36,36,1,,
,,,A2RE8G7FOGBR3W,30,Male,8,2023-01-18_13h22.24.244,perception_pilot,2022.2.4,Win32,10.66666667,,,,,,,,,,,,,IVORY_GULL_3.jpg,SNOWY_EGRET_4.jpg,FLAME_TANAGER_3.jpg,INDIGO_FLYCATCHER_2.jpg,FAN_TAILED_WIDOW_1.jpg,2,1,3,3,3,37,,,1,0,24.35,0,37,37,37,1,,
,,,A2RE8G7FOGBR3W,30,Male,8,2023-01-18_13h22.24.244,perception_pilot,2022.2.4,Win32,10.66666667,,,,,,,,,,,,,KILLDEAR_2.jpg,AZURE_TIT_5.jpg,ALEXANDRINE_PARAKEET_5.jpg,WHITE_TAILED_TROPIC_2.jpg,CAATINGA_CACHOLOTE_4.jpg,1,3,2,3,2,38,,,2,1,12.747,0,38,38,38,1,,
,,,A2RE8G7FOGBR3W,30,Male,8,2023-01-18_13h22.24.244,perception_pilot,2022.2.4,Win32,10.66666667,,,,,,,,,,,,,GOLDEN_CHLOROPHONIA_5.jpg,ROADRUNNER_2.jpg,WHIMBREL_1.jpg,COMMON_HOUSE_MARTIN_4.jpg,VERMILION_FLYCATHER_5.jpg,1,2,3,1,1,39,,,3,0,9.869,0,39,39,39,1,,
,,,A2RE8G7FOGBR3W,30,Male,8,2023-01-18_13h22.24.244,perception_pilot,2022.2.4,Win32,10.66666667,,,,,,,,,,,,,RUFOUS_KINGFISHER_1.jpg,BLACK_VENTED_SHEARWATER_2.jpg,MAGPIE_GOOSE_3.jpg,BANDED_STILT_3.jpg,HORNED_SUNGEM_4.jpg,2,1,3,1,2,40,,,2,1,8.052,0,40,40,40,1,,
,,,A2RE8G7FOGBR3W,30,Male,8,2023-01-18_13h22.24.244,perception_pilot,2022.2.4,Win32,10.66666667,,,,,,,,,,,,,left.png,left.png,left.png,up.png,right.png,,,,,3,41,,,1,0,6.491,0,41,41,41,1,,
,,,A2RE8G7FOGBR3W,30,Male,8,2023-01-18_13h22.24.244,perception_pilot,2022.2.4,Win32,10.66666667,,,,,,,,,,,,,PEACOCK_3.jpg,IBERIAN_MAGPIE_2.jpg,STRAWBERRY_FINCH_4.jpg,ANIANIAU_2.jpg,CHATTERING_LORY_3.jpg,2,1,3,3,3,42,,,1,0,7.648,0,42,42,42,1,,
,,,A2RE8G7FOGBR3W,30,Male,8,2023-01-18_13h22.24.244,perception_pilot,2022.2.4,Win32,10.66666667,,,,,,,,,,,,,INCA_TERN_4.jpg,SMITHS_LONGSPUR_5.jpg,ELLIOTS__PHEASANT_4.jpg,BORNEAN_BRISTLEHEAD_5.jpg,FASCIATED_WREN_4.jpg,1,3,2,2,3,43,,,2,0,6.087,0,43,43,43,1,,
,,,A2RE8G7FOGBR3W,30,Male,8,2023-01-18_13h22.24.244,perception_pilot,2022.2.4,Win32,10.66666667,,,,,,,,,,,,,GOLDEN_CHEEKED_WARBLER_2.jpg,WHITE_THROATED_BEE_EATER_1.jpg,AMERICAN_FLAMINGO_3.jpg,SPOONBILL_1.jpg,DARJEELING_WOODPECKER_1.jpg,2,1,3,3,3,44,,,3,1,10.976,0,44,44,44,1,,
,,,A2RE8G7FOGBR3W,30,Male,8,2023-01-18_13h22.24.244,perception_pilot,2022.2.4,Win32,10.66666667,,,,,,,,,,,,,NORTHERN_JACANA_2.jpg,VULTURINE_GUINEAFOWL_5.jpg,RED_FACED_CORMORANT_1.jpg,CRAB_PLOVER_3.jpg,GREEN_BROADBILL_1.jpg,3,2,1,2,2,45,,,1,0,3.539,0,45,45,45,1,,
,,,A2RE8G7FOGBR3W,30,Male,8,2023-01-18_13h22.24.244,perception_pilot,2022.2.4,Win32,10.66666667,,,,,,,,,,,,,LESSER_ADJUTANT_5.jpg,AMERICAN_GOLDFINCH_1.jpg,GAMBELS_QUAIL_1.jpg,MALAGASY_WHITE_EYE_2.jpg,RED_HEADED_WOODPECKER_1.jpg,2,1,3,1,2,46,,,2,1,9.118,0,46,46,46,1,,
,,,A2RE8G7FOGBR3W,30,Male,8,2023-01-18_13h22.24.244,perception_pilot,2022.2.4,Win32,10.66666667,,,,,,,,,,,,,BROWN_THRASHER_3.jpg,OYSTER_CATCHER_4.jpg,RED_HEADED_WOODPECKER_2.jpg,BLACK_BAZA_4.jpg,DOUBLE_EYED_FIG_PARROT_3.jpg,2,3,1,2,1,47,,,1,1,5.88,0,47,47,47,1,,
,,,A2RE8G7FOGBR3W,30,Male,8,2023-01-18_13h22.24.244,perception_pilot,2022.2.4,Win32,10.66666667,,,,,,,,,,,,,MALACHITE_KINGFISHER_2.jpg,SKUA_3.jpg,INCA_TERN_2.jpg,GANG_GANG_COCKATOO_4.jpg,GREEN_BROADBILL_5.jpg,2,1,3,1,2,48,,,2,1,15.435,0,48,48,48,1,,
,,,A2RE8G7FOGBR3W,30,Male,8,2023-01-18_13h22.24.244,perception_pilot,2022.2.4,Win32,10.66666667,,,,,,,,,,,,,TASMANIAN_HEN_5.jpg,COPPERY_TAILED_COUCAL_1.jpg,AUCKLAND_SHAQ_2.jpg,AFRICAN_EMERALD_CUCKOO_5.jpg,BLACKBURNIAM_WARBLER_3.jpg,3,2,1,3,1,49,,,3,0,4.644,0,49,49,49,1,,
,,,A2RE8G7FOGBR3W,30,Male,8,2023-01-18_13h22.24.244,perception_pilot,2022.2.4,Win32,10.66666667,,,,,,,,,,,,,RUBY_THROATED_HUMMINGBIRD_3.jpg,MYNA_5.jpg,NORTHERN_SHOVELER_1.jpg,GOLDEN_EAGLE_2.jpg,WHITE_CHEEKED_TURACO_4.jpg,3,2,1,2,2,50,,,1,0,4.545,0,50,50,50,1,,
,,,A2RE8G7FOGBR3W,30,Male,8,2023-01-18_13h22.24.244,perception_pilot,2022.2.4,Win32,10.66666667,,,,,,,,,,,,,left.png,left.png,left.png,up.png,right.png,,,,,3,51,,,1,0,3.461,0,51,51,51,1,,
,,,A2RE8G7FOGBR3W,30,Male,8,2023-01-18_13h22.24.244,perception_pilot,2022.2.4,Win32,10.66666667,,,,,,,,,,,,,INLAND_DOTTEREL_4.jpg,NICOBAR_PIGEON_4.jpg,JANDAYA_PARAKEET_5.jpg,COCK_OF_THE__ROCK_5.jpg,CRESTED_KINGFISHER_1.jpg,1,2,3,2,2,52,,,3,0,2.561,0,52,52,52,1,,
,,,A2RE8G7FOGBR3W,30,Male,8,2023-01-18_13h22.24.244,perception_pilot,2022.2.4,Win32,10.66666667,,,,,,,,,,,,,RUBY_THROATED_HUMMINGBIRD_2.jpg,GOLDEN_PARAKEET_2.jpg,APAPANE_4.jpg,GREEN_JAY_2.jpg,DUSKY_ROBIN_5.jpg,2,1,3,1,2,53,,,3,0,3.487,0,53,53,53,1,,
,,,A2RE8G7FOGBR3W,30,Male,8,2023-01-18_13h22.24.244,perception_pilot,2022.2.4,Win32,10.66666667,,,,,,,,,,,,,CRESTED_CARACARA_4.jpg,FAIRY_PENGUIN_5.jpg,TOUCHAN_4.jpg,CRAB_PLOVER_5.jpg,BLUE_DACNIS_4.jpg,3,1,2,1,2,54,,,2,1,4.056,0,54,54,54,1,,
,,,A2RE8G7FOGBR3W,30,Male,8,2023-01-18_13h22.24.244,perception_pilot,2022.2.4,Win32,10.66666667,,,,,,,,,,,,,TREE_SWALLOW_4.jpg,ROBIN_3.jpg,RED_FODY_3.jpg,CALIFORNIA_GULL_1.jpg,RED_HEADED_DUCK_5.jpg,3,2,1,2,2,55,,,1,0,3.788,0,55,55,55,1,,
,,,A2RE8G7FOGBR3W,30,Male,8,2023-01-18_13h22.24.244,perception_pilot,2022.2.4,Win32,10.66666667,,,,,,,,,,,,,ASIAN_DOLLARD_BIRD_2.jpg,ALBATROSS_2.jpg,HAWAIIAN_GOOSE_1.jpg,VIOLET_GREEN_SWALLOW_4.jpg,OSTRICH_1.jpg,2,3,1,1,3,56,,,1,0,4.715,0,56,56,56,1,,
,,,A2RE8G7FOGBR3W,30,Male,8,2023-01-18_13h22.24.244,perception_pilot,2022.2.4,Win32,10.66666667,,,,,,,,,,,,,RUBY_THROATED_HUMMINGBIRD_1.jpg,VULTURINE_GUINEAFOWL_4.jpg,FRIGATE_1.jpg,EURASIAN_GOLDEN_ORIOLE_5.jpg,BEARDED_REEDLING_3.jpg,3,1,2,2,3,57,,,2,0,2.953,0,57,57,57,1,,
,,,A2RE8G7FOGBR3W,30,Male,8,2023-01-18_13h22.24.244,perception_pilot,2022.2.4,Win32,10.66666667,,,,,,,,,,,,,LARK_BUNTING_2.jpg,KING_VULTURE_3.jpg,CACTUS_WREN_3.jpg,CHARA_DE_COLLAR_4.jpg,EMU_3.jpg,3,2,1,2,2,58,,,1,0,3.301,0,58,58,58,1,,
,,,A2RE8G7FOGBR3W,30,Male,8,2023-01-18_13h22.24.244,perception_pilot,2022.2.4,Win32,10.66666667,,,,,,,,,,,,,GILA_WOODPECKER_3.jpg,BLACK_SWAN_3.jpg,BLACK_VULTURE_3.jpg,SNOWY_OWL_4.jpg,EGYPTIAN_GOOSE_3.jpg,3,2,1,1,3,59,,,3,1,5.899,0,59,59,59,1,,
,,,A2RE8G7FOGBR3W,30,Male,8,2023-01-18_13h22.24.244,perception_pilot,2022.2.4,Win32,10.66666667,,,,,,,,,,,,,SKUA_4.jpg,PARUS_MAJOR_2.jpg,ROADRUNNER_5.jpg,SNOWY_EGRET_5.jpg,PURPLE_FINCH_4.jpg,3,1,2,2,3,60,,,3,1,2.538,0,60,60,60,1,,
,,,A2RE8G7FOGBR3W,30,Male,8,2023-01-18_13h22.24.244,perception_pilot,2022.2.4,Win32,10.66666667,,,,,,,,,,,,,LESSER_ADJUTANT_4.jpg,RAINBOW_LORIKEET_5.jpg,ALTAMIRA_YELLOWTHROAT_5.jpg,CHATTERING_LORY_2.jpg,FAIRY_TERN_3.jpg,1,2,3,2,2,61,,,2,1,2.126,0,61,61,61,1,,
,,,A2RE8G7FOGBR3W,30,Male,8,2023-01-18_13h22.24.244,perception_pilot,2022.2.4,Win32,10.66666667,,,,,,,,,,,,,DOUBLE_BRESTED_CORMARANT_5.jpg,EURASIAN_MAGPIE_4.jpg,CHINESE_POND_HERON_2.jpg,PATAGONIAN_SIERRA_FINCH_2.jpg,GILDED_FLICKER_2.jpg,3,2,1,2,2,62,,,1,0,2.478,0,62,62,62,1,,
,,,A2RE8G7FOGBR3W,30,Male,8,2023-01-18_13h22.24.244,perception_pilot,2022.2.4,Win32,10.66666667,,,,,,,,,,,,,PARUS_MAJOR_1.jpg,PINK_ROBIN_3.jpg,FAIRY_BLUEBIRD_5.jpg,CALIFORNIA_GULL_2.jpg,COMMON_POORWILL_1.jpg,3,2,1,3,1,63,,,3,0,3.639,0,63,63,63,1,,
,,,A2RE8G7FOGBR3W,30,Male,8,2023-01-18_13h22.24.244,perception_pilot,2022.2.4,Win32,10.66666667,,,,,,,,,,,,,ECUADORIAN_HILLSTAR_5.jpg,SCARLET_IBIS_2.jpg,BOBOLINK_5.jpg,CRIMSON_SUNBIRD_5.jpg,AMERICAN_FLAMINGO_1.jpg,2,3,1,1,3,64,,,3,1,2.432,0,64,64,64,1,,
,,,A2RE8G7FOGBR3W,30,Male,8,2023-01-18_13h22.24.244,perception_pilot,2022.2.4,Win32,10.66666667,,,,,,,,,,,,,,,,,,,,,,,,,,,,,,,,,,space,11.491
