button.numClicks,button.timesOn,button.timesOff,workID,Age,Gender,Hours slept (last night),date,expName,psychopyVersion,OS,frameRate,key_resp_13.keys,key_resp_13.rt,key_resp_14.keys,key_resp_14.rt,key_resp_3.keys,key_resp_3.corr,key_resp_3.rt,demo_loop.thisRepN,demo_loop.thisTrialN,demo_loop.thisN,demo_loop.thisIndex,demo_loop.ran,target_image,target_match,option1,option2,option3,option1_layer,option2_layer,option3_layer,match_layer,correct_answer,trial_num,key_resp_15.keys,key_resp_15.rt,key_resp.keys,key_resp.corr,key_resp.rt,trials.thisRepN,trials.thisTrialN,trials.thisN,trials.thisIndex,trials.ran,key_resp_end_2.keys,key_resp_end_2.rt
1,[1.5531000000237327],[1.5531000000237327],A304UJAE051J89,34,female,8,2023-01-18_12h23.24.610,perception_pilot,2022.2.4,Win32,28.95780847,,,,,,,,,,,,,,,,,,,,,,,,,,,,,,,,,,,
,,,A304UJAE051J89,34,female,8,2023-01-18_12h23.24.610,perception_pilot,2022.2.4,Win32,28.95780847,space,12.7254,,,,,,,,,,,,,,,,,,,,,,,,,,,,,,,,,
,,,A304UJAE051J89,34,female,8,2023-01-18_12h23.24.610,perception_pilot,2022.2.4,Win32,28.95780847,,,space,0.3001,,,,,,,,,,,,,,,,,,,,,,,,,,,,,,,
,,,A304UJAE051J89,34,female,8,2023-01-18_12h23.24.610,perception_pilot,2022.2.4,Win32,28.95780847,,,,,,,,,,,,,,,,,,,,,,,,,,,,,,,,,,,
,,,A304UJAE051J89,34,female,8,2023-01-18_12h23.24.610,perception_pilot,2022.2.4,Win32,28.95780847,,,,,3,1,5.6976,0,0,0,0,1,ASIAN_DOLLARD_BIRD_2.jpg,VIOLET_GREEN_SWALLOW_4.jpg,ALBATROSS_2.jpg,HAWAIIAN_GOOSE_1.jpg,VERMILION_FLYCATHER_1.jpg,1,2,3,3,3,0,,,,,,,,,,,,
,,,A304UJAE051J89,34,female,8,2023-01-18_12h23.24.610,perception_pilot,2022.2.4,Win32,28.95780847,,,,,1,0,2.9669,0,1,1,1,1,STRIPPED_SWALLOW_1.jpg,EMPEROR_PENGUIN_5.jpg,GO_AWAY_BIRD_5.jpg,BRANDT_CORMARANT_3.jpg,MAGPIE_GOOSE_4.jpg,3,1,2,1,2,1,,,,,,,,,,,,
,,,A304UJAE051J89,34,female,8,2023-01-18_12h23.24.610,perception_pilot,2022.2.4,Win32,28.95780847,,,,,2,1,7.0904,0,2,2,2,1,SPLENDID_WREN_1.jpg,CUBAN_TODY_4.jpg,PARAKETT__AKULET_3.jpg,CRESTED_KINGFISHER_4.jpg,DOUBLE_BRESTED_CORMARANT_1.jpg,1,3,2,3,2,2,,,,,,,,,,,,
,,,A304UJAE051J89,34,female,8,2023-01-18_12h23.24.610,perception_pilot,2022.2.4,Win32,28.95780847,,,,,3,0,1.4199,0,3,3,3,1,ASIAN_CRESTED_IBIS_4.jpg,OYSTER_CATCHER_2.jpg,AMERICAN_KESTREL_1.jpg,CANARY_2.jpg,IVORY_GULL_2.jpg,2,1,3,2,1,3,,,,,,,,,,,,
,,,A304UJAE051J89,34,female,8,2023-01-18_12h23.24.610,perception_pilot,2022.2.4,Win32,28.95780847,,,,,2,0,1.9943,0,4,4,4,1,ALPINE_CHOUGH_4.jpg,EUROPEAN_GOLDFINCH_3.jpg,HOUSE_FINCH_2.jpg,BOBOLINK_3.jpg,SNOWY_EGRET_2.jpg,2,3,1,2,1,4,,,,,,,,,,,,
,,,A304UJAE051J89,34,female,8,2023-01-18_12h23.24.610,perception_pilot,2022.2.4,Win32,28.95780847,,,,,1,0,4.0429,0,5,5,5,1,right.png,right.png,right.png,up.png,left.png,,,,,3,5,,,,,,,,,,,,
,,,A304UJAE051J89,34,female,8,2023-01-18_12h23.24.610,perception_pilot,2022.2.4,Win32,28.95780847,,,,,1,0,2.1896,0,6,6,6,1,NORTHERN_JACANA_3.jpg,BANANAQUIT_3.jpg,REGENT_BOWERBIRD_5.jpg,BEARDED_BELLBIRD_3.jpg,BAR-TAILED_GODWIT_3.jpg,2,1,3,1,2,6,,,,,,,,,,,,
,,,A304UJAE051J89,34,female,8,2023-01-18_12h23.24.610,perception_pilot,2022.2.4,Win32,28.95780847,,,,,2,1,1.8573,0,7,7,7,1,GREY_PLOVER_1.jpg,GOULDIAN_FINCH_4.jpg,HYACINTH_MACAW_3.jpg,BORNEAN_LEAFBIRD_2.jpg,AMETHYST_WOODSTAR_4.jpg,1,2,3,2,2,7,,,,,,,,,,,,
,,,A304UJAE051J89,34,female,8,2023-01-18_12h23.24.610,perception_pilot,2022.2.4,Win32,28.95780847,,,,,3,1,2.1207,0,8,8,8,1,PEACOCK_3.jpg,IBERIAN_MAGPIE_2.jpg,ANIANIAU_2.jpg,STRAWBERRY_FINCH_4.jpg,CHATTERING_LORY_3.jpg,1,2,3,3,3,8,,,,,,,,,,,,
,,,A304UJAE051J89,34,female,8,2023-01-18_12h23.24.610,perception_pilot,2022.2.4,Win32,28.95780847,,,,,1,0,1.328,0,9,9,9,1,CRESTED_CARACARA_4.jpg,FAIRY_PENGUIN_5.jpg,TOUCHAN_4.jpg,BLUE_DACNIS_4.jpg,CRAB_PLOVER_5.jpg,3,2,1,1,3,9,,,,,,,,,,,,
,,,A304UJAE051J89,34,female,8,2023-01-18_12h23.24.610,perception_pilot,2022.2.4,Win32,28.95780847,,,,,,,,,,,,,,,,,,,,,,,,space,1.5342,,,,,,,,,,
,,,A304UJAE051J89,34,female,8,2023-01-18_12h23.24.610,perception_pilot,2022.2.4,Win32,28.95780847,,,,,,,,,,,,,NORTHERN_JACANA_2.jpg,VULTURINE_GUINEAFOWL_5.jpg,GREEN_BROADBILL_1.jpg,RED_FACED_CORMORANT_1.jpg,CRAB_PLOVER_3.jpg,1,3,2,2,3,0,,,2,0,3.4875,0,0,0,0,1,,
,,,A304UJAE051J89,34,female,8,2023-01-18_12h23.24.610,perception_pilot,2022.2.4,Win32,28.95780847,,,,,,,,,,,,,BALI_STARLING_1.jpg,CAPE_LONGCLAW_5.jpg,PURPLE_FINCH_2.jpg,OSTRICH_5.jpg,IBERIAN_MAGPIE_1.jpg,2,1,3,1,2,1,,,1,0,2.248,0,1,1,1,1,,
,,,A304UJAE051J89,34,female,8,2023-01-18_12h23.24.610,perception_pilot,2022.2.4,Win32,28.95780847,,,,,,,,,,,,,VERMILION_FLYCATHER_3.jpg,CROWNED_PIGEON_1.jpg,LITTLE_AUK_4.jpg,RED_BEARDED_BEE_EATER_1.jpg,INDIAN_BUSTARD_1.jpg,2,3,1,2,1,2,,,2,0,2.0951,0,2,2,2,1,,
,,,A304UJAE051J89,34,female,8,2023-01-18_12h23.24.610,perception_pilot,2022.2.4,Win32,28.95780847,,,,,,,,,,,,,BROWN_NOODY_3.jpg,SPANGLED_COTINGA_4.jpg,COMMON_IORA_3.jpg,KIWI_2.jpg,GUINEA_TURACO_5.jpg,2,1,3,2,1,3,,,1,1,1.8461,0,3,3,3,1,,
,,,A304UJAE051J89,34,female,8,2023-01-18_12h23.24.610,perception_pilot,2022.2.4,Win32,28.95780847,,,,,,,,,,,,,HAWAIIAN_GOOSE_4.jpg,WATTLED_LAPWING_3.jpg,HIMALAYAN_MONAL_2.jpg,BROWN_NOODY_5.jpg,RED_BEARDED_BEE_EATER_3.jpg,2,3,1,3,2,4,,,1,0,1.6205,0,4,4,4,1,,
,,,A304UJAE051J89,34,female,8,2023-01-18_12h23.24.610,perception_pilot,2022.2.4,Win32,28.95780847,,,,,,,,,,,,,RUBY_THROATED_HUMMINGBIRD_2.jpg,DUSKY_ROBIN_5.jpg,GOLDEN_PARAKEET_2.jpg,APAPANE_4.jpg,EURASIAN_MAGPIE_3.jpg,1,2,3,3,3,5,,,3,1,2.7352,0,5,5,5,1,,
,,,A304UJAE051J89,34,female,8,2023-01-18_12h23.24.610,perception_pilot,2022.2.4,Win32,28.95780847,,,,,,,,,,,,,CERULEAN_WARBLER_1.jpg,AMERICAN_FLAMINGO_5.jpg,COCK_OF_THE__ROCK_2.jpg,BANANAQUIT_1.jpg,ORIENTAL_BAY_OWL_1.jpg,2,3,1,2,1,6,,,2,0,4.0147,0,6,6,6,1,,
,,,A304UJAE051J89,34,female,8,2023-01-18_12h23.24.610,perception_pilot,2022.2.4,Win32,28.95780847,,,,,,,,,,,,,INCA_TERN_4.jpg,BORNEAN_BRISTLEHEAD_5.jpg,ELLIOTS__PHEASANT_4.jpg,SMITHS_LONGSPUR_5.jpg,WHITE_NECKED_RAVEN_4.jpg,1,2,3,3,3,7,,,2,0,1.6795,0,7,7,7,1,,
,,,A304UJAE051J89,34,female,8,2023-01-18_12h23.24.610,perception_pilot,2022.2.4,Win32,28.95780847,,,,,,,,,,,,,NICOBAR_PIGEON_1.jpg,MYNA_4.jpg,LITTLE_AUK_1.jpg,NORTHERN_MOCKINGBIRD_4.jpg,EASTERN_BLUEBIRD_3.jpg,2,1,3,1,2,8,,,1,0,3.1015,0,8,8,8,1,,
,,,A304UJAE051J89,34,female,8,2023-01-18_12h23.24.610,perception_pilot,2022.2.4,Win32,28.95780847,,,,,,,,,,,,,CRESTED_NUTHATCH_2.jpg,AFRICAN_FIREFINCH_1.jpg,GOLDEN_CHLOROPHONIA_1.jpg,SCARLET_IBIS_3.jpg,CANARY_1.jpg,2,1,3,2,1,9,,,1,1,6.1624,0,9,9,9,1,,
,,,A304UJAE051J89,34,female,8,2023-01-18_12h23.24.610,perception_pilot,2022.2.4,Win32,28.95780847,,,,,,,,,,,,,RUFOUS_KINGFISHER_1.jpg,MAGPIE_GOOSE_3.jpg,BLACK_VENTED_SHEARWATER_2.jpg,HORNED_SUNGEM_4.jpg,COCKATOO_5.jpg,1,3,2,2,3,10,,,1,0,11.01,0,10,10,10,1,,
,,,A304UJAE051J89,34,female,8,2023-01-18_12h23.24.610,perception_pilot,2022.2.4,Win32,28.95780847,,,,,,,,,,,,,MAGPIE_GOOSE_5.jpg,DOUBLE_EYED_FIG_PARROT_5.jpg,OYSTER_CATCHER_3.jpg,MALAGASY_WHITE_EYE_1.jpg,HAMERKOP_1.jpg,3,1,2,1,2,11,,,1,0,1.2353,0,11,11,11,1,,
,,,A304UJAE051J89,34,female,8,2023-01-18_12h23.24.610,perception_pilot,2022.2.4,Win32,28.95780847,,,,,,,,,,,,,right.png,right.png,right.png,left.png,up.png,,,,,2,12,,,1,0,2.7723,0,12,12,12,1,,
,,,A304UJAE051J89,34,female,8,2023-01-18_12h23.24.610,perception_pilot,2022.2.4,Win32,28.95780847,,,,,,,,,,,,,AMERICAN_PIPIT_5.jpg,EMU_2.jpg,GREEN_MAGPIE_1.jpg,HEPATIC_TANAGER_5.jpg,PEACOCK_2.jpg,2,3,1,1,3,13,,,2,0,3.0892,0,13,13,13,1,,
,,,A304UJAE051J89,34,female,8,2023-01-18_12h23.24.610,perception_pilot,2022.2.4,Win32,28.95780847,,,,,,,,,,,,,EUROPEAN_TURTLE_DOVE_3.jpg,TEAL_DUCK_2.jpg,MALABAR_HORNBILL_2.jpg,SNOWY_EGRET_3.jpg,PAINTED_BUNTING_3.jpg,3,1,2,1,2,14,,,1,0,4.543,0,14,14,14,1,,
,,,A304UJAE051J89,34,female,8,2023-01-18_12h23.24.610,perception_pilot,2022.2.4,Win32,28.95780847,,,,,,,,,,,,,KAGU_5.jpg,ASHY_STORM_PETREL_1.jpg,EASTERN_MEADOWLARK_1.jpg,MANDRIN_DUCK_4.jpg,IMPERIAL_SHAQ_2.jpg,1,2,3,2,2,15,,,3,0,3.4574,0,15,15,15,1,,
,,,A304UJAE051J89,34,female,8,2023-01-18_12h23.24.610,perception_pilot,2022.2.4,Win32,28.95780847,,,,,,,,,,,,,INDIGO_BUNTING_1.jpg,FRIGATE_4.jpg,SNOWY_PLOVER_1.jpg,POMARINE_JAEGER_5.jpg,DARWINS_FLYCATCHER_2.jpg,2,1,3,1,2,16,,,1,0,2.1904,0,16,16,16,1,,
,,,A304UJAE051J89,34,female,8,2023-01-18_12h23.24.610,perception_pilot,2022.2.4,Win32,28.95780847,,,,,,,,,,,,,PARUS_MAJOR_1.jpg,COMMON_POORWILL_1.jpg,CALIFORNIA_GULL_2.jpg,OSTRICH_4.jpg,PINK_ROBIN_3.jpg,2,1,3,1,2,17,,,1,0,2.5025,0,17,17,17,1,,
,,,A304UJAE051J89,34,female,8,2023-01-18_12h23.24.610,perception_pilot,2022.2.4,Win32,28.95780847,,,,,,,,,,,,,IVORY_GULL_3.jpg,INDIGO_FLYCATCHER_2.jpg,FLAME_TANAGER_3.jpg,SNOWY_EGRET_4.jpg,BUSH_TURKEY_1.jpg,2,3,1,1,3,18,,,1,0,4.1011,0,18,18,18,1,,
,,,A304UJAE051J89,34,female,8,2023-01-18_12h23.24.610,perception_pilot,2022.2.4,Win32,28.95780847,,,,,,,,,,,,,SKUA_4.jpg,SNOWY_EGRET_5.jpg,BLACK-NECKED_GREBE_3.jpg,PARUS_MAJOR_2.jpg,ROADRUNNER_5.jpg,1,2,3,1,1,19,,,1,1,2.6823,0,19,19,19,1,,
,,,A304UJAE051J89,34,female,8,2023-01-18_12h23.24.610,perception_pilot,2022.2.4,Win32,28.95780847,,,,,,,,,,,,,LITTLE_AUK_5.jpg,BEARDED_BELLBIRD_1.jpg,ORANGE_BRESTED_BUNTING_3.jpg,DOWNY_WOODPECKER_1.jpg,SANDHILL_CRANE_3.jpg,2,3,1,3,2,20,,,2,1,1.4088,0,20,20,20,1,,
,,,A304UJAE051J89,34,female,8,2023-01-18_12h23.24.610,perception_pilot,2022.2.4,Win32,28.95780847,,,,,,,,,,,,,AFRICAN_PIED_HORNBILL_5.jpg,ALEXANDRINE_PARAKEET_1.jpg,INDIAN_PITTA_2.jpg,KIWI_4.jpg,CAPUCHINBIRD_2.jpg,2,1,3,2,1,21,,,1,1,3.5582,0,21,21,21,1,,
,,,A304UJAE051J89,34,female,8,2023-01-18_12h23.24.610,perception_pilot,2022.2.4,Win32,28.95780847,,,,,,,,,,,,,right.png,right.png,left.png,right.png,up.png,,,,,1,22,,,2,0,3.2085,0,22,22,22,1,,
,,,A304UJAE051J89,34,female,8,2023-01-18_12h23.24.610,perception_pilot,2022.2.4,Win32,28.95780847,,,,,,,,,,,,,GYRFALCON_1.jpg,ASHY_STORM_PETREL_2.jpg,CINNAMON_ATTILA_2.jpg,GREY_PLOVER_3.jpg,FAIRY_TERN_1.jpg,2,1,3,1,2,23,,,3,0,3.7441,0,23,23,23,1,,
,,,A304UJAE051J89,34,female,8,2023-01-18_12h23.24.610,perception_pilot,2022.2.4,Win32,28.95780847,,,,,,,,,,,,,TASMANIAN_HEN_5.jpg,COPPERY_TAILED_COUCAL_1.jpg,AFRICAN_EMERALD_CUCKOO_5.jpg,AUCKLAND_SHAQ_2.jpg,BLACKBURNIAM_WARBLER_3.jpg,2,3,1,3,2,24,,,2,1,2.8588,0,24,24,24,1,,
,,,A304UJAE051J89,34,female,8,2023-01-18_12h23.24.610,perception_pilot,2022.2.4,Win32,28.95780847,,,,,,,,,,,,,LESSER_ADJUTANT_4.jpg,ALTAMIRA_YELLOWTHROAT_5.jpg,FAIRY_TERN_3.jpg,RAINBOW_LORIKEET_5.jpg,DOUBLE_EYED_FIG_PARROT_4.jpg,3,2,1,1,3,25,,,1,0,2.064,0,25,25,25,1,,
,,,A304UJAE051J89,34,female,8,2023-01-18_12h23.24.610,perception_pilot,2022.2.4,Win32,28.95780847,,,,,,,,,,,,,NORTHERN_GANNET_2.jpg,STRAWBERRY_FINCH_1.jpg,PAINTED_BUNTING_5.jpg,VENEZUELIAN_TROUPIAL_1.jpg,MASKED_BOOBY_5.jpg,1,2,3,2,2,26,,,3,0,3.4569,0,26,26,26,1,,
,,,A304UJAE051J89,34,female,8,2023-01-18_12h23.24.610,perception_pilot,2022.2.4,Win32,28.95780847,,,,,,,,,,,,,RED_FACED_WARBLER_1.jpg,BLACK_VENTED_SHEARWATER_4.jpg,CAPE_GLOSSY_STARLING_2.jpg,EMU_5.jpg,COMMON_LOON_4.jpg,3,1,2,2,3,27,,,2,0,2.2436,0,27,27,27,1,,
,,,A304UJAE051J89,34,female,8,2023-01-18_12h23.24.610,perception_pilot,2022.2.4,Win32,28.95780847,,,,,,,,,,,,,DOUBLE_BRESTED_CORMARANT_5.jpg,CHINESE_POND_HERON_2.jpg,EURASIAN_MAGPIE_4.jpg,GILDED_FLICKER_2.jpg,ANHINGA_5.jpg,2,1,3,3,3,28,,,2,0,6.9387,0,28,28,28,1,,
,,,A304UJAE051J89,34,female,8,2023-01-18_12h23.24.610,perception_pilot,2022.2.4,Win32,28.95780847,,,,,,,,,,,,,OCELLATED_TURKEY_1.jpg,CHIPPING_SPARROW_1.jpg,KAKAPO_4.jpg,LARK_BUNTING_1.jpg,PURPLE_SWAMPHEN_4.jpg,1,2,3,1,1,29,,,3,0,2.9938,0,29,29,29,1,,
,,,A304UJAE051J89,34,female,8,2023-01-18_12h23.24.610,perception_pilot,2022.2.4,Win32,28.95780847,,,,,,,,,,,,,left.png,left.png,left.png,right.png,up.png,,,,,2,30,,,1,0,3.0235,0,30,30,30,1,,
,,,A304UJAE051J89,34,female,8,2023-01-18_12h23.24.610,perception_pilot,2022.2.4,Win32,28.95780847,,,,,,,,,,,,,MCKAYS_BUNTING_3.jpg,IWI_2.jpg,AMERICAN_GOLDFINCH_4.jpg,EMU_4.jpg,PAINTED_BUNTING_1.jpg,3,1,2,2,3,31,,,3,1,2.5993,0,31,31,31,1,,
,,,A304UJAE051J89,34,female,8,2023-01-18_12h23.24.610,perception_pilot,2022.2.4,Win32,28.95780847,,,,,,,,,,,,,MYNA_1.jpg,PARADISE_TANAGER_3.jpg,GREY_PLOVER_4.jpg,INDIGO_BUNTING_2.jpg,SANDHILL_CRANE_4.jpg,2,3,1,3,2,32,,,2,1,1.8173,0,32,32,32,1,,
,,,A304UJAE051J89,34,female,8,2023-01-18_12h23.24.610,perception_pilot,2022.2.4,Win32,28.95780847,,,,,,,,,,,,,FLAME_BOWERBIRD_3.jpg,INDIAN_BUSTARD_2.jpg,QUETZAL_3.jpg,BROWN_THRASHER_4.jpg,SPOON_BILED_SANDPIPER_5.jpg,3,2,1,1,3,33,,,1,0,1.3544,0,33,33,33,1,,
,,,A304UJAE051J89,34,female,8,2023-01-18_12h23.24.610,perception_pilot,2022.2.4,Win32,28.95780847,,,,,,,,,,,,,BREWERS_BLACKBIRD_3.jpg,CAPE_LONGCLAW_2.jpg,AFRICAN_OYSTER_CATCHER_2.jpg,PEACOCK_4.jpg,GOLDEN_CHEEKED_WARBLER_3.jpg,3,1,2,3,1,34,,,3,0,1.668,0,34,34,34,1,,
,,,A304UJAE051J89,34,female,8,2023-01-18_12h23.24.610,perception_pilot,2022.2.4,Win32,28.95780847,,,,,,,,,,,,,CASPIAN_TERN_1.jpg,COMMON_LOON_2.jpg,EUROPEAN_GOLDFINCH_4.jpg,MASKED_BOOBY_1.jpg,BRANDT_CORMARANT_4.jpg,2,3,1,3,2,35,,,2,1,23.7352,0,35,35,35,1,,
,,,A304UJAE051J89,34,female,8,2023-01-18_12h23.24.610,perception_pilot,2022.2.4,Win32,28.95780847,,,,,,,,,,,,,GOLDEN_CHLOROPHONIA_5.jpg,ROADRUNNER_2.jpg,VERMILION_FLYCATHER_5.jpg,COMMON_HOUSE_MARTIN_4.jpg,WHIMBREL_1.jpg,3,2,1,1,3,36,,,3,1,6.6065,0,36,36,36,1,,
,,,A304UJAE051J89,34,female,8,2023-01-18_12h23.24.610,perception_pilot,2022.2.4,Win32,28.95780847,,,,,,,,,,,,,LESSER_ADJUTANT_5.jpg,RED_HEADED_WOODPECKER_1.jpg,AMERICAN_GOLDFINCH_1.jpg,CASPIAN_TERN_2.jpg,GAMBELS_QUAIL_1.jpg,1,3,2,3,2,37,,,3,0,2.879,0,37,37,37,1,,
,,,A304UJAE051J89,34,female,8,2023-01-18_12h23.24.610,perception_pilot,2022.2.4,Win32,28.95780847,,,,,,,,,,,,,ARARIPE_MANAKIN_4.jpg,BORNEAN_LEAFBIRD_3.jpg,GUINEA_TURACO_3.jpg,BLACK_VULTURE_1.jpg,KIWI_3.jpg,3,2,1,3,1,38,,,1,1,2.4194,0,38,38,38,1,,
,,,A304UJAE051J89,34,female,8,2023-01-18_12h23.24.610,perception_pilot,2022.2.4,Win32,28.95780847,,,,,,,,,,,,,PINK_ROBIN_4.jpg,ALBATROSS_4.jpg,JACK_SNIPE_5.jpg,COMMON_IORA_4.jpg,SPOONBILL_3.jpg,2,3,1,2,1,39,,,3,0,1.6153,0,39,39,39,1,,
,,,A304UJAE051J89,34,female,8,2023-01-18_12h23.24.610,perception_pilot,2022.2.4,Win32,28.95780847,,,,,,,,,,,,,left.png,left.png,left.png,right.png,up.png,,,,,2,40,,,1,0,2.147,0,40,40,40,1,,
,,,A304UJAE051J89,34,female,8,2023-01-18_12h23.24.610,perception_pilot,2022.2.4,Win32,28.95780847,,,,,,,,,,,,,MALACHITE_KINGFISHER_2.jpg,GREEN_BROADBILL_5.jpg,JAVA_SPARROW_5.jpg,INCA_TERN_2.jpg,SKUA_3.jpg,3,2,1,3,1,41,,,1,1,3.3896,0,41,41,41,1,,
,,,A304UJAE051J89,34,female,8,2023-01-18_12h23.24.610,perception_pilot,2022.2.4,Win32,28.95780847,,,,,,,,,,,,,INLAND_DOTTEREL_4.jpg,CRESTED_KINGFISHER_1.jpg,NICOBAR_PIGEON_4.jpg,JANDAYA_PARAKEET_5.jpg,ANNAS_HUMMINGBIRD_2.jpg,2,1,3,3,3,42,,,3,1,2.2445,0,42,42,42,1,,
,,,A304UJAE051J89,34,female,8,2023-01-18_12h23.24.610,perception_pilot,2022.2.4,Win32,28.95780847,,,,,,,,,,,,,OVENBIRD_5.jpg,FAIRY_PENGUIN_1.jpg,ABBOTTS_BOOBY_2.jpg,JABIRU_4.jpg,PURPLE_FINCH_5.jpg,2,1,3,2,1,43,,,3,0,4.3312,0,43,43,43,1,,
,,,A304UJAE051J89,34,female,8,2023-01-18_12h23.24.610,perception_pilot,2022.2.4,Win32,28.95780847,,,,,,,,,,,,,RUBY_THROATED_HUMMINGBIRD_3.jpg,NORTHERN_SHOVELER_1.jpg,WALL_CREAPER_3.jpg,WHITE_CHEEKED_TURACO_4.jpg,MYNA_5.jpg,3,1,2,3,1,44,,,1,1,3.5608,0,44,44,44,1,,
,,,A304UJAE051J89,34,female,8,2023-01-18_12h23.24.610,perception_pilot,2022.2.4,Win32,28.95780847,,,,,,,,,,,,,SCARLET_TANAGER_2.jpg,LITTLE_AUK_3.jpg,CARMINE_BEE-EATER_1.jpg,BORNEAN_LEAFBIRD_1.jpg,CALIFORNIA_QUAIL_5.jpg,1,3,2,2,3,45,,,3,1,5.0655,0,45,45,45,1,,
,,,A304UJAE051J89,34,female,8,2023-01-18_12h23.24.610,perception_pilot,2022.2.4,Win32,28.95780847,,,,,,,,,,,,,EASTERN_TOWEE_2.jpg,NORTHERN_BEARDLESS_TYRANNULET_5.jpg,SANDHILL_CRANE_2.jpg,HYACINTH_MACAW_4.jpg,GOLDEN_CHEEKED_WARBLER_1.jpg,1,2,3,3,3,46,,,3,1,2.0772,0,46,46,46,1,,
,,,A304UJAE051J89,34,female,8,2023-01-18_12h23.24.610,perception_pilot,2022.2.4,Win32,28.95780847,,,,,,,,,,,,,BARRED_PUFFBIRD_3.jpg,WHITE_CHEEKED_TURACO_2.jpg,CUBAN_TODY_3.jpg,NORTHERN_CARDINAL_5.jpg,VEERY_4.jpg,1,2,3,1,1,47,,,3,0,2.9672,0,47,47,47,1,,
,,,A304UJAE051J89,34,female,8,2023-01-18_12h23.24.610,perception_pilot,2022.2.4,Win32,28.95780847,,,,,,,,,,,,,GILA_WOODPECKER_3.jpg,BLACK_SWAN_3.jpg,SNOWY_OWL_4.jpg,BLACK_VULTURE_3.jpg,EGYPTIAN_GOOSE_3.jpg,2,3,1,1,3,48,,,2,0,5.0367,0,48,48,48,1,,
,,,A304UJAE051J89,34,female,8,2023-01-18_12h23.24.610,perception_pilot,2022.2.4,Win32,28.95780847,,,,,,,,,,,,,RED_HEADED_WOODPECKER_5.jpg,CRIMSON_CHAT_3.jpg,COLLARED_ARACARI_1.jpg,DAURIAN_REDSTART_5.jpg,GREAT_GRAY_OWL_5.jpg,3,2,1,2,2,49,,,2,1,2.2555,0,49,49,49,1,,
,,,A304UJAE051J89,34,female,8,2023-01-18_12h23.24.610,perception_pilot,2022.2.4,Win32,28.95780847,,,,,,,,,,,,,GOLDEN_CHEEKED_WARBLER_2.jpg,SPOONBILL_1.jpg,WHITE_THROATED_BEE_EATER_1.jpg,RED_HEADED_DUCK_3.jpg,AMERICAN_FLAMINGO_3.jpg,3,1,2,1,2,50,,,1,0,3.3104,0,50,50,50,1,,
,,,A304UJAE051J89,34,female,8,2023-01-18_12h23.24.610,perception_pilot,2022.2.4,Win32,28.95780847,,,,,,,,,,,,,KILLDEAR_2.jpg,AZURE_TIT_5.jpg,ALEXANDRINE_PARAKEET_5.jpg,WHITE_TAILED_TROPIC_2.jpg,CAATINGA_CACHOLOTE_4.jpg,1,3,2,3,2,51,,,2,1,3.1991,0,51,51,51,1,,
,,,A304UJAE051J89,34,female,8,2023-01-18_12h23.24.610,perception_pilot,2022.2.4,Win32,28.95780847,,,,,,,,,,,,,GRAY_KINGBIRD_5.jpg,COCK_OF_THE__ROCK_4.jpg,BLACK_SWAN_5.jpg,AFRICAN_FIREFINCH_3.jpg,BALD_EAGLE_2.jpg,2,3,1,2,1,52,,,2,0,1.9901,0,52,52,52,1,,
,,,A304UJAE051J89,34,female,8,2023-01-18_12h23.24.610,perception_pilot,2022.2.4,Win32,28.95780847,,,,,,,,,,,,,SHOEBILL_3.jpg,MALAGASY_WHITE_EYE_3.jpg,GILDED_FLICKER_5.jpg,EMERALD_TANAGER_3.jpg,BALD_EAGLE_5.jpg,2,1,3,1,2,53,,,2,1,3.8934,0,53,53,53,1,,
,,,A304UJAE051J89,34,female,8,2023-01-18_12h23.24.610,perception_pilot,2022.2.4,Win32,28.95780847,,,,,,,,,,,,,ECUADORIAN_HILLSTAR_5.jpg,CRIMSON_SUNBIRD_5.jpg,BOBOLINK_5.jpg,SCARLET_IBIS_2.jpg,GREEN_BROADBILL_4.jpg,2,1,3,3,3,54,,,1,0,3.0277,0,54,54,54,1,,
,,,A304UJAE051J89,34,female,8,2023-01-18_12h23.24.610,perception_pilot,2022.2.4,Win32,28.95780847,,,,,,,,,,,,,LARK_BUNTING_2.jpg,CACTUS_WREN_3.jpg,GRANDALA_4.jpg,EMU_3.jpg,KING_VULTURE_3.jpg,3,1,2,3,1,55,,,1,1,1.8667,0,55,55,55,1,,
,,,A304UJAE051J89,34,female,8,2023-01-18_12h23.24.610,perception_pilot,2022.2.4,Win32,28.95780847,,,,,,,,,,,,,IVORY_GULL_1.jpg,FAIRY_TERN_4.jpg,BANDED_STILT_4.jpg,EASTERN_GOLDEN_WEAVER_5.jpg,WILSONS_BIRD_OF_PARADISE_4.jpg,3,2,1,3,1,56,,,1,1,1.4855,0,56,56,56,1,,
,,,A304UJAE051J89,34,female,8,2023-01-18_12h23.24.610,perception_pilot,2022.2.4,Win32,28.95780847,,,,,,,,,,,,,WHITE_CHEEKED_TURACO_5.jpg,SNOWY_EGRET_1.jpg,ORIENTAL_BAY_OWL_5.jpg,PYGMY_KINGFISHER_2.jpg,CHINESE_POND_HERON_1.jpg,2,3,1,2,1,57,,,2,0,2.5673,0,57,57,57,1,,
,,,A304UJAE051J89,34,female,8,2023-01-18_12h23.24.610,perception_pilot,2022.2.4,Win32,28.95780847,,,,,,,,,,,,,CHUKAR_PARTRIDGE_5.jpg,RAZORBILL_1.jpg,BLACK_THROATED_BUSHTIT_1.jpg,OSTRICH_3.jpg,ASIAN_DOLLARD_BIRD_4.jpg,3,1,2,2,3,58,,,1,0,5.1046,0,58,58,58,1,,
,,,A304UJAE051J89,34,female,8,2023-01-18_12h23.24.610,perception_pilot,2022.2.4,Win32,28.95780847,,,,,,,,,,,,,CASSOWARY_1.jpg,ROSY_FACED_LOVEBIRD_4.jpg,SCARLET_MACAW_1.jpg,DEMOISELLE_CRANE_1.jpg,CEDAR_WAXWING_4.jpg,2,3,1,1,3,59,,,1,0,2.1447,0,59,59,59,1,,
,,,A304UJAE051J89,34,female,8,2023-01-18_12h23.24.610,perception_pilot,2022.2.4,Win32,28.95780847,,,,,,,,,,,,,TREE_SWALLOW_4.jpg,RED_HEADED_DUCK_5.jpg,ROBIN_3.jpg,RED_FODY_3.jpg,DALMATIAN_PELICAN_3.jpg,2,3,1,1,3,60,,,2,0,8.6642,0,60,60,60,1,,
,,,A304UJAE051J89,34,female,8,2023-01-18_12h23.24.610,perception_pilot,2022.2.4,Win32,28.95780847,,,,,,,,,,,,,right.png,right.png,up.png,left.png,right.png,,,,,2,61,,,3,0,2.8224,0,61,61,61,1,,
,,,A304UJAE051J89,34,female,8,2023-01-18_12h23.24.610,perception_pilot,2022.2.4,Win32,28.95780847,,,,,,,,,,,,,RUBY_THROATED_HUMMINGBIRD_1.jpg,VULTURINE_GUINEAFOWL_4.jpg,FRIGATE_1.jpg,BEARDED_REEDLING_3.jpg,EURASIAN_GOLDEN_ORIOLE_5.jpg,3,2,1,2,2,62,,,3,0,4.6523,0,62,62,62,1,,
,,,A304UJAE051J89,34,female,8,2023-01-18_12h23.24.610,perception_pilot,2022.2.4,Win32,28.95780847,,,,,,,,,,,,,PYGMY_KINGFISHER_5.jpg,GREAT_POTOO_3.jpg,NORTHERN_PARULA_5.jpg,GRANDALA_2.jpg,OYSTER_CATCHER_5.jpg,3,1,2,2,3,63,,,2,0,2.1365,0,63,63,63,1,,
,,,A304UJAE051J89,34,female,8,2023-01-18_12h23.24.610,perception_pilot,2022.2.4,Win32,28.95780847,,,,,,,,,,,,,BROWN_THRASHER_3.jpg,BLACK_BAZA_4.jpg,CRESTED_KINGFISHER_3.jpg,DOUBLE_EYED_FIG_PARROT_3.jpg,OYSTER_CATCHER_4.jpg,3,1,2,3,1,64,,,1,1,3.3872,0,64,64,64,1,,
,,,A304UJAE051J89,34,female,8,2023-01-18_12h23.24.610,perception_pilot,2022.2.4,Win32,28.95780847,,,,,,,,,,,,,,,,,,,,,,,,,,,,,,,,,,space,8.74
