button.numClicks,button.timesOn,button.timesOff,workID,Age,Gender,Hours slept (last night),date,expName,psychopyVersion,OS,frameRate,key_resp_13.keys,key_resp_13.rt,key_resp_14.keys,key_resp_14.rt,key_resp_3.keys,key_resp_3.corr,key_resp_3.rt,demo_loop.thisRepN,demo_loop.thisTrialN,demo_loop.thisN,demo_loop.thisIndex,demo_loop.ran,target_image,target_match,option1,option2,option3,option1_layer,option2_layer,option3_layer,match_layer,correct_answer,trial_num,key_resp_15.keys,key_resp_15.rt,key_resp.keys,key_resp.corr,key_resp.rt,trials.thisRepN,trials.thisTrialN,trials.thisN,trials.thisIndex,trials.ran,key_resp_end_2.keys,key_resp_end_2.rt
1,[56.31600000000003],[56.31600000000003],A3QJ0LIK6SS3PG,47,Male,9,2023-01-18_14h56.43.714,perception_pilot,2022.2.4,Win32,5.454763645,,,,,,,,,,,,,,,,,,,,,,,,,,,,,,,,,,,
,,,A3QJ0LIK6SS3PG,47,Male,9,2023-01-18_14h56.43.714,perception_pilot,2022.2.4,Win32,5.454763645,space,7.642,,,,,,,,,,,,,,,,,,,,,,,,,,,,,,,,,
,,,A3QJ0LIK6SS3PG,47,Male,9,2023-01-18_14h56.43.714,perception_pilot,2022.2.4,Win32,5.454763645,,,space,6.13,,,,,,,,,,,,,,,,,,,,,,,,,,,,,,,
,,,A3QJ0LIK6SS3PG,47,Male,9,2023-01-18_14h56.43.714,perception_pilot,2022.2.4,Win32,5.454763645,,,,,,,,,,,,,,,,,,,,,,,,,,,,,,,,,,,
,,,A3QJ0LIK6SS3PG,47,Male,9,2023-01-18_14h56.43.714,perception_pilot,2022.2.4,Win32,5.454763645,,,,,3,0,14.261,0,0,0,0,1,MALACHITE_KINGFISHER_2.jpg,GREEN_BROADBILL_5.jpg,JAVA_SPARROW_5.jpg,INCA_TERN_2.jpg,SKUA_3.jpg,3,2,1,3,1,0,,,,,,,,,,,,
,,,A3QJ0LIK6SS3PG,47,Male,9,2023-01-18_14h56.43.714,perception_pilot,2022.2.4,Win32,5.454763645,,,,,2,1,9.622,0,1,1,1,1,ASIAN_CRESTED_IBIS_4.jpg,CANARY_2.jpg,IVORY_GULL_2.jpg,GREAT_JACAMAR_4.jpg,OYSTER_CATCHER_2.jpg,3,1,2,1,2,1,,,,,,,,,,,,
,,,A3QJ0LIK6SS3PG,47,Male,9,2023-01-18_14h56.43.714,perception_pilot,2022.2.4,Win32,5.454763645,,,,,1,0,6.503,0,2,2,2,1,ALPINE_CHOUGH_4.jpg,BOBOLINK_3.jpg,EUROPEAN_GOLDFINCH_3.jpg,SNOWY_EGRET_2.jpg,UMBRELLA_BIRD_1.jpg,2,1,3,3,3,2,,,,,,,,,,,,
,,,A3QJ0LIK6SS3PG,47,Male,9,2023-01-18_14h56.43.714,perception_pilot,2022.2.4,Win32,5.454763645,,,,,3,0,11.194,0,3,3,3,1,LARK_BUNTING_2.jpg,KING_VULTURE_3.jpg,CHARA_DE_COLLAR_4.jpg,EMU_3.jpg,CACTUS_WREN_3.jpg,2,1,3,2,1,3,,,,,,,,,,,,
,,,A3QJ0LIK6SS3PG,47,Male,9,2023-01-18_14h56.43.714,perception_pilot,2022.2.4,Win32,5.454763645,,,,,1,1,24.326,0,4,4,4,1,RUFOUS_KINGFISHER_1.jpg,HORNED_SUNGEM_4.jpg,GREEN_JAY_4.jpg,BLACK_VENTED_SHEARWATER_2.jpg,MAGPIE_GOOSE_3.jpg,3,1,2,3,1,4,,,,,,,,,,,,
,,,A3QJ0LIK6SS3PG,47,Male,9,2023-01-18_14h56.43.714,perception_pilot,2022.2.4,Win32,5.454763645,,,,,1,1,3.215,0,5,5,5,1,RUBY_THROATED_HUMMINGBIRD_1.jpg,EURASIAN_GOLDEN_ORIOLE_5.jpg,BROWN_THRASHER_1.jpg,VULTURINE_GUINEAFOWL_4.jpg,FRIGATE_1.jpg,1,2,3,1,1,5,,,,,,,,,,,,
,,,A3QJ0LIK6SS3PG,47,Male,9,2023-01-18_14h56.43.714,perception_pilot,2022.2.4,Win32,5.454763645,,,,,3,0,39.638,0,6,6,6,1,RUBY_THROATED_HUMMINGBIRD_2.jpg,APAPANE_4.jpg,GOLDEN_PARAKEET_2.jpg,SCARLET_MACAW_3.jpg,DUSKY_ROBIN_5.jpg,1,2,3,2,2,6,,,,,,,,,,,,
,,,A3QJ0LIK6SS3PG,47,Male,9,2023-01-18_14h56.43.714,perception_pilot,2022.2.4,Win32,5.454763645,,,,,1,0,16.774,0,7,7,7,1,right.png,right.png,right.png,left.png,up.png,,,,,2,7,,,,,,,,,,,,
,,,A3QJ0LIK6SS3PG,47,Male,9,2023-01-18_14h56.43.714,perception_pilot,2022.2.4,Win32,5.454763645,,,,,2,1,26.178,0,8,8,8,1,WHITE_CHEEKED_TURACO_5.jpg,CHINESE_POND_HERON_1.jpg,PYGMY_KINGFISHER_2.jpg,CHARA_DE_COLLAR_2.jpg,SNOWY_EGRET_1.jpg,3,1,2,1,2,8,,,,,,,,,,,,
,,,A3QJ0LIK6SS3PG,47,Male,9,2023-01-18_14h56.43.714,perception_pilot,2022.2.4,Win32,5.454763645,,,,,3,0,5.606,0,9,9,9,1,PYGMY_KINGFISHER_5.jpg,GREAT_POTOO_3.jpg,NORTHERN_PARULA_5.jpg,OYSTER_CATCHER_5.jpg,GRANDALA_2.jpg,3,2,1,2,2,9,,,,,,,,,,,,
,,,A3QJ0LIK6SS3PG,47,Male,9,2023-01-18_14h56.43.714,perception_pilot,2022.2.4,Win32,5.454763645,,,,,,,,,,,,,,,,,,,,,,,,space,3.379,,,,,,,,,,
,,,A3QJ0LIK6SS3PG,47,Male,9,2023-01-18_14h56.43.714,perception_pilot,2022.2.4,Win32,5.454763645,,,,,,,,,,,,,CRESTED_NUTHATCH_2.jpg,SCARLET_IBIS_3.jpg,CANARY_1.jpg,AFRICAN_FIREFINCH_1.jpg,DOUBLE_BRESTED_CORMARANT_4.jpg,3,2,1,1,3,0,,,2,0,5.595,0,0,0,0,1,,
,,,A3QJ0LIK6SS3PG,47,Male,9,2023-01-18_14h56.43.714,perception_pilot,2022.2.4,Win32,5.454763645,,,,,,,,,,,,,NICOBAR_PIGEON_1.jpg,MYNA_4.jpg,LITTLE_AUK_1.jpg,NORTHERN_MOCKINGBIRD_4.jpg,EASTERN_BLUEBIRD_3.jpg,2,1,3,1,2,1,,,1,0,4.215,0,1,1,1,1,,
,,,A3QJ0LIK6SS3PG,47,Male,9,2023-01-18_14h56.43.714,perception_pilot,2022.2.4,Win32,5.454763645,,,,,,,,,,,,,right.png,right.png,right.png,up.png,left.png,,,,,3,2,,,1,0,8.627,0,2,2,2,1,,
,,,A3QJ0LIK6SS3PG,47,Male,9,2023-01-18_14h56.43.714,perception_pilot,2022.2.4,Win32,5.454763645,,,,,,,,,,,,,NORTHERN_GANNET_2.jpg,MASKED_BOOBY_5.jpg,HOODED_MERGANSER_4.jpg,PAINTED_BUNTING_5.jpg,STRAWBERRY_FINCH_1.jpg,3,1,2,3,1,3,,,2,0,11.142,0,3,3,3,1,,
,,,A3QJ0LIK6SS3PG,47,Male,9,2023-01-18_14h56.43.714,perception_pilot,2022.2.4,Win32,5.454763645,,,,,,,,,,,,,LESSER_ADJUTANT_4.jpg,FAIRY_TERN_3.jpg,CRAB_PLOVER_4.jpg,RAINBOW_LORIKEET_5.jpg,ALTAMIRA_YELLOWTHROAT_5.jpg,3,2,1,3,1,4,,,1,1,6.294,0,4,4,4,1,,
,,,A3QJ0LIK6SS3PG,47,Male,9,2023-01-18_14h56.43.714,perception_pilot,2022.2.4,Win32,5.454763645,,,,,,,,,,,,,INCA_TERN_4.jpg,BORNEAN_BRISTLEHEAD_5.jpg,SMITHS_LONGSPUR_5.jpg,ELLIOTS__PHEASANT_4.jpg,WHITE_NECKED_RAVEN_4.jpg,2,1,3,3,3,5,,,1,0,5.239,0,5,5,5,1,,
,,,A3QJ0LIK6SS3PG,47,Male,9,2023-01-18_14h56.43.714,perception_pilot,2022.2.4,Win32,5.454763645,,,,,,,,,,,,,KILLDEAR_2.jpg,AZURE_TIT_5.jpg,CAATINGA_CACHOLOTE_4.jpg,WHITE_TAILED_TROPIC_2.jpg,ALEXANDRINE_PARAKEET_5.jpg,2,3,1,3,2,6,,,2,1,3.927,0,6,6,6,1,,
,,,A3QJ0LIK6SS3PG,47,Male,9,2023-01-18_14h56.43.714,perception_pilot,2022.2.4,Win32,5.454763645,,,,,,,,,,,,,ARARIPE_MANAKIN_4.jpg,BORNEAN_LEAFBIRD_3.jpg,KIWI_3.jpg,GUINEA_TURACO_3.jpg,BLACK_VULTURE_1.jpg,1,3,2,3,2,7,,,2,1,34.59,0,7,7,7,1,,
,,,A3QJ0LIK6SS3PG,47,Male,9,2023-01-18_14h56.43.714,perception_pilot,2022.2.4,Win32,5.454763645,,,,,,,,,,,,,DOUBLE_BRESTED_CORMARANT_5.jpg,EURASIAN_MAGPIE_4.jpg,GILDED_FLICKER_2.jpg,PATAGONIAN_SIERRA_FINCH_2.jpg,CHINESE_POND_HERON_2.jpg,1,2,3,2,2,8,,,3,0,3.569,0,8,8,8,1,,
,,,A3QJ0LIK6SS3PG,47,Male,9,2023-01-18_14h56.43.714,perception_pilot,2022.2.4,Win32,5.454763645,,,,,,,,,,,,,HAWAIIAN_GOOSE_4.jpg,RED_BEARDED_BEE_EATER_3.jpg,HIMALAYAN_MONAL_2.jpg,DOUBLE_EYED_FIG_PARROT_1.jpg,WATTLED_LAPWING_3.jpg,2,1,3,1,2,9,,,3,0,6.714,0,9,9,9,1,,
,,,A3QJ0LIK6SS3PG,47,Male,9,2023-01-18_14h56.43.714,perception_pilot,2022.2.4,Win32,5.454763645,,,,,,,,,,,,,NORTHERN_JACANA_3.jpg,BAR-TAILED_GODWIT_3.jpg,BANANAQUIT_3.jpg,REGENT_BOWERBIRD_5.jpg,SHORT_BILLED_DOWITCHER_5.jpg,1,2,3,3,3,10,,,3,1,4.841,0,10,10,10,1,,
,,,A3QJ0LIK6SS3PG,47,Male,9,2023-01-18_14h56.43.714,perception_pilot,2022.2.4,Win32,5.454763645,,,,,,,,,,,,,OVENBIRD_5.jpg,JABIRU_4.jpg,PURPLE_FINCH_5.jpg,TURQUOISE_MOTMOT_3.jpg,FAIRY_PENGUIN_1.jpg,3,1,2,1,2,11,,,1,0,6.916,0,11,11,11,1,,
,,,A3QJ0LIK6SS3PG,47,Male,9,2023-01-18_14h56.43.714,perception_pilot,2022.2.4,Win32,5.454763645,,,,,,,,,,,,,right.png,right.png,left.png,right.png,up.png,,,,,1,12,,,2,0,5.77,0,12,12,12,1,,
,,,A3QJ0LIK6SS3PG,47,Male,9,2023-01-18_14h56.43.714,perception_pilot,2022.2.4,Win32,5.454763645,,,,,,,,,,,,,BREWERS_BLACKBIRD_3.jpg,GOLDEN_CHEEKED_WARBLER_3.jpg,AMERICAN_AVOCET_5.jpg,CAPE_LONGCLAW_2.jpg,PEACOCK_4.jpg,2,3,1,2,1,13,,,2,0,3.903,0,13,13,13,1,,
,,,A3QJ0LIK6SS3PG,47,Male,9,2023-01-18_14h56.43.714,perception_pilot,2022.2.4,Win32,5.454763645,,,,,,,,,,,,,LESSER_ADJUTANT_5.jpg,AMERICAN_GOLDFINCH_1.jpg,RED_HEADED_WOODPECKER_1.jpg,MALAGASY_WHITE_EYE_2.jpg,GAMBELS_QUAIL_1.jpg,3,1,2,1,2,14,,,2,1,3.805,0,14,14,14,1,,
,,,A3QJ0LIK6SS3PG,47,Male,9,2023-01-18_14h56.43.714,perception_pilot,2022.2.4,Win32,5.454763645,,,,,,,,,,,,,OCELLATED_TURKEY_1.jpg,LARK_BUNTING_1.jpg,PURPLE_SWAMPHEN_4.jpg,AMERICAN_KESTREL_2.jpg,CHIPPING_SPARROW_1.jpg,3,2,1,2,2,15,,,3,0,4.691,0,15,15,15,1,,
,,,A3QJ0LIK6SS3PG,47,Male,9,2023-01-18_14h56.43.714,perception_pilot,2022.2.4,Win32,5.454763645,,,,,,,,,,,,,AMERICAN_PIPIT_5.jpg,EMU_2.jpg,GREEN_MAGPIE_1.jpg,HEPATIC_TANAGER_5.jpg,PEACOCK_2.jpg,2,3,1,1,3,16,,,2,0,8.627,0,16,16,16,1,,
,,,A3QJ0LIK6SS3PG,47,Male,9,2023-01-18_14h56.43.714,perception_pilot,2022.2.4,Win32,5.454763645,,,,,,,,,,,,,BARRED_PUFFBIRD_3.jpg,NORTHERN_CARDINAL_5.jpg,VEERY_4.jpg,CAPPED_HERON_5.jpg,WHITE_CHEEKED_TURACO_2.jpg,3,2,1,2,2,17,,,3,0,7.497,0,17,17,17,1,,
,,,A3QJ0LIK6SS3PG,47,Male,9,2023-01-18_14h56.43.714,perception_pilot,2022.2.4,Win32,5.454763645,,,,,,,,,,,,,GREY_PLOVER_1.jpg,GOULDIAN_FINCH_4.jpg,AMETHYST_WOODSTAR_4.jpg,BORNEAN_LEAFBIRD_2.jpg,HYACINTH_MACAW_3.jpg,3,2,1,2,2,18,,,2,1,11.339,0,18,18,18,1,,
,,,A3QJ0LIK6SS3PG,47,Male,9,2023-01-18_14h56.43.714,perception_pilot,2022.2.4,Win32,5.454763645,,,,,,,,,,,,,SPLENDID_WREN_1.jpg,DOUBLE_BRESTED_CORMARANT_1.jpg,CUBAN_TODY_4.jpg,PARAKETT__AKULET_3.jpg,BLACK_SWAN_2.jpg,3,1,2,2,3,19,,,3,1,5.473,0,19,19,19,1,,
,,,A3QJ0LIK6SS3PG,47,Male,9,2023-01-18_14h56.43.714,perception_pilot,2022.2.4,Win32,5.454763645,,,,,,,,,,,,,RED_HEADED_WOODPECKER_5.jpg,CRIMSON_CHAT_3.jpg,DAURIAN_REDSTART_5.jpg,COLLARED_ARACARI_1.jpg,GREAT_GRAY_OWL_5.jpg,2,3,1,2,1,20,,,1,1,2.807,0,20,20,20,1,,
,,,A3QJ0LIK6SS3PG,47,Male,9,2023-01-18_14h56.43.714,perception_pilot,2022.2.4,Win32,5.454763645,,,,,,,,,,,,,ASIAN_DOLLARD_BIRD_2.jpg,HAWAIIAN_GOOSE_1.jpg,MCKAYS_BUNTING_1.jpg,ALBATROSS_2.jpg,VIOLET_GREEN_SWALLOW_4.jpg,2,1,3,2,1,21,,,1,1,3.132,0,21,21,21,1,,
,,,A3QJ0LIK6SS3PG,47,Male,9,2023-01-18_14h56.43.714,perception_pilot,2022.2.4,Win32,5.454763645,,,,,,,,,,,,,CRESTED_CARACARA_4.jpg,TOUCHAN_4.jpg,FAIRY_PENGUIN_5.jpg,CREAM_COLORED_WOODPECKER_1.jpg,BLUE_DACNIS_4.jpg,1,3,2,3,2,22,,,2,1,4.686,0,22,22,22,1,,
,,,A3QJ0LIK6SS3PG,47,Male,9,2023-01-18_14h56.43.714,perception_pilot,2022.2.4,Win32,5.454763645,,,,,,,,,,,,,GOLDEN_CHEEKED_WARBLER_2.jpg,SPOONBILL_1.jpg,RED_HEADED_DUCK_3.jpg,WHITE_THROATED_BEE_EATER_1.jpg,AMERICAN_FLAMINGO_3.jpg,1,3,2,1,1,23,,,3,0,4.369,0,23,23,23,1,,
,,,A3QJ0LIK6SS3PG,47,Male,9,2023-01-18_14h56.43.714,perception_pilot,2022.2.4,Win32,5.454763645,,,,,,,,,,,,,ECUADORIAN_HILLSTAR_5.jpg,BOBOLINK_5.jpg,CRIMSON_SUNBIRD_5.jpg,SCARLET_IBIS_2.jpg,CASSOWARY_2.jpg,3,1,2,2,3,24,,,1,0,3.956,0,24,24,24,1,,
,,,A3QJ0LIK6SS3PG,47,Male,9,2023-01-18_14h56.43.714,perception_pilot,2022.2.4,Win32,5.454763645,,,,,,,,,,,,,RED_FACED_WARBLER_1.jpg,EMU_5.jpg,BLACK_VENTED_SHEARWATER_4.jpg,SPOONBILL_4.jpg,CAPE_GLOSSY_STARLING_2.jpg,2,1,3,1,2,25,,,3,0,3.381,0,25,25,25,1,,
,,,A3QJ0LIK6SS3PG,47,Male,9,2023-01-18_14h56.43.714,perception_pilot,2022.2.4,Win32,5.454763645,,,,,,,,,,,,,MAGPIE_GOOSE_5.jpg,OYSTER_CATCHER_3.jpg,WOOD_DUCK_5.jpg,DOUBLE_EYED_FIG_PARROT_5.jpg,HAMERKOP_1.jpg,3,1,2,3,1,26,,,1,1,3.841,0,26,26,26,1,,
,,,A3QJ0LIK6SS3PG,47,Male,9,2023-01-18_14h56.43.714,perception_pilot,2022.2.4,Win32,5.454763645,,,,,,,,,,,,,TREE_SWALLOW_4.jpg,ROBIN_3.jpg,CALIFORNIA_GULL_1.jpg,RED_FODY_3.jpg,RED_HEADED_DUCK_5.jpg,2,3,1,2,1,27,,,2,0,7.641,0,27,27,27,1,,
,,,A3QJ0LIK6SS3PG,47,Male,9,2023-01-18_14h56.43.714,perception_pilot,2022.2.4,Win32,5.454763645,,,,,,,,,,,,,EASTERN_TOWEE_2.jpg,SANDHILL_CRANE_2.jpg,HYACINTH_MACAW_4.jpg,NORTHERN_BEARDLESS_TYRANNULET_5.jpg,BLUE_HERON_3.jpg,2,3,1,1,3,28,,,2,0,4.692,0,28,28,28,1,,
,,,A3QJ0LIK6SS3PG,47,Male,9,2023-01-18_14h56.43.714,perception_pilot,2022.2.4,Win32,5.454763645,,,,,,,,,,,,,SKUA_4.jpg,ROADRUNNER_5.jpg,SNOWY_EGRET_5.jpg,PARUS_MAJOR_2.jpg,AMERICAN_WIGEON_2.jpg,1,2,3,3,3,29,,,3,1,5.532,0,29,29,29,1,,
,,,A3QJ0LIK6SS3PG,47,Male,9,2023-01-18_14h56.43.714,perception_pilot,2022.2.4,Win32,5.454763645,,,,,,,,,,,,,STRIPPED_SWALLOW_1.jpg,GO_AWAY_BIRD_5.jpg,EMPEROR_PENGUIN_5.jpg,MAGPIE_GOOSE_4.jpg,WHITE_THROATED_BEE_EATER_5.jpg,1,2,3,3,3,30,,,3,1,4.813,0,30,30,30,1,,
,,,A3QJ0LIK6SS3PG,47,Male,9,2023-01-18_14h56.43.714,perception_pilot,2022.2.4,Win32,5.454763645,,,,,,,,,,,,,INDIGO_BUNTING_1.jpg,DARWINS_FLYCATCHER_2.jpg,SNOWY_PLOVER_1.jpg,FRIGATE_4.jpg,BALTIMORE_ORIOLE_4.jpg,2,1,3,3,3,31,,,3,1,3.544,0,31,31,31,1,,
,,,A3QJ0LIK6SS3PG,47,Male,9,2023-01-18_14h56.43.714,perception_pilot,2022.2.4,Win32,5.454763645,,,,,,,,,,,,,EUROPEAN_TURTLE_DOVE_3.jpg,PAINTED_BUNTING_3.jpg,MALABAR_HORNBILL_2.jpg,TEAL_DUCK_2.jpg,CAPE_GLOSSY_STARLING_1.jpg,3,1,2,2,3,32,,,3,1,7.845,0,32,32,32,1,,
,,,A3QJ0LIK6SS3PG,47,Male,9,2023-01-18_14h56.43.714,perception_pilot,2022.2.4,Win32,5.454763645,,,,,,,,,,,,,SHOEBILL_3.jpg,GILDED_FLICKER_5.jpg,MALAGASY_WHITE_EYE_3.jpg,IWI_1.jpg,BALD_EAGLE_5.jpg,1,2,3,2,2,33,,,2,1,6.342,0,33,33,33,1,,
,,,A3QJ0LIK6SS3PG,47,Male,9,2023-01-18_14h56.43.714,perception_pilot,2022.2.4,Win32,5.454763645,,,,,,,,,,,,,MCKAYS_BUNTING_3.jpg,AMERICAN_GOLDFINCH_4.jpg,IWI_2.jpg,PALILA_5.jpg,EMU_4.jpg,2,3,1,3,2,34,,,2,1,2.839,0,34,34,34,1,,
,,,A3QJ0LIK6SS3PG,47,Male,9,2023-01-18_14h56.43.714,perception_pilot,2022.2.4,Win32,5.454763645,,,,,,,,,,,,,GRAY_KINGBIRD_5.jpg,COCK_OF_THE__ROCK_4.jpg,BALD_EAGLE_2.jpg,BLACK_SWAN_5.jpg,AFRICAN_FIREFINCH_3.jpg,1,2,3,2,2,35,,,3,0,4.912,0,35,35,35,1,,
,,,A3QJ0LIK6SS3PG,47,Male,9,2023-01-18_14h56.43.714,perception_pilot,2022.2.4,Win32,5.454763645,,,,,,,,,,,,,CASPIAN_TERN_1.jpg,BRANDT_CORMARANT_4.jpg,COMMON_LOON_2.jpg,EUROPEAN_GOLDFINCH_4.jpg,COMMON_POORWILL_4.jpg,3,2,1,1,3,36,,,1,0,4.078,0,36,36,36,1,,
,,,A3QJ0LIK6SS3PG,47,Male,9,2023-01-18_14h56.43.714,perception_pilot,2022.2.4,Win32,5.454763645,,,,,,,,,,,,,GILA_WOODPECKER_3.jpg,BLACK_VULTURE_3.jpg,SNOWY_OWL_4.jpg,BLACK_SWAN_3.jpg,AZURE_TANAGER_1.jpg,2,1,3,3,3,37,,,2,0,7.773,0,37,37,37,1,,
,,,A3QJ0LIK6SS3PG,47,Male,9,2023-01-18_14h56.43.714,perception_pilot,2022.2.4,Win32,5.454763645,,,,,,,,,,,,,PARUS_MAJOR_1.jpg,CALIFORNIA_GULL_2.jpg,BLACK_SWAN_4.jpg,PINK_ROBIN_3.jpg,COMMON_POORWILL_1.jpg,2,3,1,2,1,38,,,3,0,5.707,0,38,38,38,1,,
,,,A3QJ0LIK6SS3PG,47,Male,9,2023-01-18_14h56.43.714,perception_pilot,2022.2.4,Win32,5.454763645,,,,,,,,,,,,,PEACOCK_3.jpg,STRAWBERRY_FINCH_4.jpg,RED_FODY_5.jpg,ANIANIAU_2.jpg,IBERIAN_MAGPIE_2.jpg,2,1,3,2,1,39,,,2,0,149.292,0,39,39,39,1,,
,,,A3QJ0LIK6SS3PG,47,Male,9,2023-01-18_14h56.43.714,perception_pilot,2022.2.4,Win32,5.454763645,,,,,,,,,,,,,FLAME_BOWERBIRD_3.jpg,QUETZAL_3.jpg,GOULDIAN_FINCH_1.jpg,BROWN_THRASHER_4.jpg,INDIAN_BUSTARD_2.jpg,3,2,1,3,1,40,,,1,1,2.859,0,40,40,40,1,,
,,,A3QJ0LIK6SS3PG,47,Male,9,2023-01-18_14h56.43.714,perception_pilot,2022.2.4,Win32,5.454763645,,,,,,,,,,,,,BROWN_THRASHER_3.jpg,DOUBLE_EYED_FIG_PARROT_3.jpg,RED_BEARDED_BEE_EATER_4.jpg,OYSTER_CATCHER_4.jpg,BLACK_BAZA_4.jpg,1,2,3,1,1,41,,,1,1,2.836,0,41,41,41,1,,
,,,A3QJ0LIK6SS3PG,47,Male,9,2023-01-18_14h56.43.714,perception_pilot,2022.2.4,Win32,5.454763645,,,,,,,,,,,,,left.png,left.png,right.png,up.png,left.png,,,,,1,42,,,3,0,4.028,0,42,42,42,1,,
,,,A3QJ0LIK6SS3PG,47,Male,9,2023-01-18_14h56.43.714,perception_pilot,2022.2.4,Win32,5.454763645,,,,,,,,,,,,,GYRFALCON_1.jpg,CINNAMON_ATTILA_2.jpg,ASHY_STORM_PETREL_2.jpg,CAPE_ROCK_THRUSH_2.jpg,FAIRY_TERN_1.jpg,1,2,3,2,2,43,,,2,1,2.983,0,43,43,43,1,,
,,,A3QJ0LIK6SS3PG,47,Male,9,2023-01-18_14h56.43.714,perception_pilot,2022.2.4,Win32,5.454763645,,,,,,,,,,,,,right.png,right.png,up.png,right.png,left.png,,,,,3,44,,,2,0,4.505,0,44,44,44,1,,
,,,A3QJ0LIK6SS3PG,47,Male,9,2023-01-18_14h56.43.714,perception_pilot,2022.2.4,Win32,5.454763645,,,,,,,,,,,,,AFRICAN_PIED_HORNBILL_5.jpg,ALEXANDRINE_PARAKEET_1.jpg,INDIAN_PITTA_2.jpg,KIWI_4.jpg,CAPUCHINBIRD_2.jpg,2,1,3,2,1,45,,,1,1,7.286,0,45,45,45,1,,
,,,A3QJ0LIK6SS3PG,47,Male,9,2023-01-18_14h56.43.714,perception_pilot,2022.2.4,Win32,5.454763645,,,,,,,,,,,,,IVORY_GULL_1.jpg,WILSONS_BIRD_OF_PARADISE_4.jpg,OCELLATED_TURKEY_2.jpg,FAIRY_TERN_4.jpg,EASTERN_GOLDEN_WEAVER_5.jpg,1,3,2,1,1,46,,,2,0,6.2,0,46,46,46,1,,
,,,A3QJ0LIK6SS3PG,47,Male,9,2023-01-18_14h56.43.714,perception_pilot,2022.2.4,Win32,5.454763645,,,,,,,,,,,,,INLAND_DOTTEREL_4.jpg,CRESTED_KINGFISHER_1.jpg,JANDAYA_PARAKEET_5.jpg,ANNAS_HUMMINGBIRD_2.jpg,NICOBAR_PIGEON_4.jpg,1,3,2,3,2,47,,,2,1,8.528,0,47,47,47,1,,
,,,A3QJ0LIK6SS3PG,47,Male,9,2023-01-18_14h56.43.714,perception_pilot,2022.2.4,Win32,5.454763645,,,,,,,,,,,,,CASSOWARY_1.jpg,ROSY_FACED_LOVEBIRD_4.jpg,DEMOISELLE_CRANE_1.jpg,CEDAR_WAXWING_4.jpg,SCARLET_MACAW_1.jpg,3,1,2,1,2,48,,,3,0,6.029,0,48,48,48,1,,
,,,A3QJ0LIK6SS3PG,47,Male,9,2023-01-18_14h56.43.714,perception_pilot,2022.2.4,Win32,5.454763645,,,,,,,,,,,,,CHUKAR_PARTRIDGE_5.jpg,OSTRICH_3.jpg,RAZORBILL_1.jpg,EMU_1.jpg,BLACK_THROATED_BUSHTIT_1.jpg,2,1,3,1,2,49,,,2,1,8.559,0,49,49,49,1,,
,,,A3QJ0LIK6SS3PG,47,Male,9,2023-01-18_14h56.43.714,perception_pilot,2022.2.4,Win32,5.454763645,,,,,,,,,,,,,SCARLET_TANAGER_2.jpg,BORNEAN_LEAFBIRD_1.jpg,LITTLE_AUK_3.jpg,CARMINE_BEE-EATER_1.jpg,BLONDE_CRESTED_WOODPECKER_3.jpg,2,1,3,3,3,50,,,2,0,7.395,0,50,50,50,1,,
,,,A3QJ0LIK6SS3PG,47,Male,9,2023-01-18_14h56.43.714,perception_pilot,2022.2.4,Win32,5.454763645,,,,,,,,,,,,,GOLDEN_CHLOROPHONIA_5.jpg,COMMON_HOUSE_MARTIN_4.jpg,INLAND_DOTTEREL_5.jpg,VERMILION_FLYCATHER_5.jpg,ROADRUNNER_2.jpg,2,3,1,2,1,51,,,2,0,3.096,0,51,51,51,1,,
,,,A3QJ0LIK6SS3PG,47,Male,9,2023-01-18_14h56.43.714,perception_pilot,2022.2.4,Win32,5.454763645,,,,,,,,,,,,,right.png,right.png,right.png,left.png,up.png,,,,,2,52,,,1,0,3.585,0,52,52,52,1,,
,,,A3QJ0LIK6SS3PG,47,Male,9,2023-01-18_14h56.43.714,perception_pilot,2022.2.4,Win32,5.454763645,,,,,,,,,,,,,TASMANIAN_HEN_5.jpg,AFRICAN_EMERALD_CUCKOO_5.jpg,BORNEAN_PHEASANT_2.jpg,COPPERY_TAILED_COUCAL_1.jpg,BLACKBURNIAM_WARBLER_3.jpg,2,3,1,2,1,53,,,2,0,5.108,0,53,53,53,1,,
,,,A3QJ0LIK6SS3PG,47,Male,9,2023-01-18_14h56.43.714,perception_pilot,2022.2.4,Win32,5.454763645,,,,,,,,,,,,,VERMILION_FLYCATHER_3.jpg,RED_BEARDED_BEE_EATER_1.jpg,INDIAN_BUSTARD_1.jpg,CROWNED_PIGEON_1.jpg,PARADISE_TANAGER_4.jpg,1,2,3,3,3,54,,,3,1,3.539,0,54,54,54,1,,
,,,A3QJ0LIK6SS3PG,47,Male,9,2023-01-18_14h56.43.714,perception_pilot,2022.2.4,Win32,5.454763645,,,,,,,,,,,,,CERULEAN_WARBLER_1.jpg,BANANAQUIT_1.jpg,AMERICAN_FLAMINGO_5.jpg,ORIENTAL_BAY_OWL_1.jpg,CRESTED_OROPENDOLA_5.jpg,2,1,3,3,3,55,,,3,1,6.129,0,55,55,55,1,,
,,,A3QJ0LIK6SS3PG,47,Male,9,2023-01-18_14h56.43.714,perception_pilot,2022.2.4,Win32,5.454763645,,,,,,,,,,,,,BROWN_NOODY_3.jpg,KIWI_2.jpg,SPANGLED_COTINGA_4.jpg,PEACOCK_5.jpg,GUINEA_TURACO_5.jpg,2,1,3,1,2,56,,,3,0,4.3,0,56,56,56,1,,
,,,A3QJ0LIK6SS3PG,47,Male,9,2023-01-18_14h56.43.714,perception_pilot,2022.2.4,Win32,5.454763645,,,,,,,,,,,,,BALI_STARLING_1.jpg,CAPE_LONGCLAW_5.jpg,OSTRICH_5.jpg,IBERIAN_MAGPIE_1.jpg,PURPLE_FINCH_2.jpg,1,3,2,1,1,57,,,2,0,2.185,0,57,57,57,1,,
,,,A3QJ0LIK6SS3PG,47,Male,9,2023-01-18_14h56.43.714,perception_pilot,2022.2.4,Win32,5.454763645,,,,,,,,,,,,,MYNA_1.jpg,GREY_PLOVER_4.jpg,PARADISE_TANAGER_3.jpg,SANDHILL_CRANE_4.jpg,GRAY_PARTRIDGE_5.jpg,3,1,2,2,3,58,,,2,0,6.842,0,58,58,58,1,,
,,,A3QJ0LIK6SS3PG,47,Male,9,2023-01-18_14h56.43.714,perception_pilot,2022.2.4,Win32,5.454763645,,,,,,,,,,,,,NORTHERN_JACANA_2.jpg,GREEN_BROADBILL_1.jpg,EMERALD_TANAGER_2.jpg,RED_FACED_CORMORANT_1.jpg,VULTURINE_GUINEAFOWL_5.jpg,1,3,2,1,1,59,,,3,0,4.726,0,59,59,59,1,,
,,,A3QJ0LIK6SS3PG,47,Male,9,2023-01-18_14h56.43.714,perception_pilot,2022.2.4,Win32,5.454763645,,,,,,,,,,,,,IVORY_GULL_3.jpg,INDIGO_FLYCATCHER_2.jpg,BUSH_TURKEY_1.jpg,FLAME_TANAGER_3.jpg,SNOWY_EGRET_4.jpg,1,2,3,1,1,60,,,2,0,4.216,0,60,60,60,1,,
,,,A3QJ0LIK6SS3PG,47,Male,9,2023-01-18_14h56.43.714,perception_pilot,2022.2.4,Win32,5.454763645,,,,,,,,,,,,,KAGU_5.jpg,IMPERIAL_SHAQ_2.jpg,VICTORIA_CROWNED_PIGEON_5.jpg,ASHY_STORM_PETREL_1.jpg,EASTERN_MEADOWLARK_1.jpg,3,2,1,3,1,61,,,1,1,3.679,0,61,61,61,1,,
,,,A3QJ0LIK6SS3PG,47,Male,9,2023-01-18_14h56.43.714,perception_pilot,2022.2.4,Win32,5.454763645,,,,,,,,,,,,,PINK_ROBIN_4.jpg,COMMON_IORA_4.jpg,SPOONBILL_3.jpg,GREEN_MAGPIE_3.jpg,ALBATROSS_4.jpg,1,3,2,3,2,62,,,2,1,2.468,0,62,62,62,1,,
,,,A3QJ0LIK6SS3PG,47,Male,9,2023-01-18_14h56.43.714,perception_pilot,2022.2.4,Win32,5.454763645,,,,,,,,,,,,,LITTLE_AUK_5.jpg,SANDHILL_CRANE_3.jpg,ORANGE_BRESTED_BUNTING_3.jpg,SCARLET_IBIS_1.jpg,BEARDED_BELLBIRD_1.jpg,2,1,3,1,2,63,,,3,0,5.533,0,63,63,63,1,,
,,,A3QJ0LIK6SS3PG,47,Male,9,2023-01-18_14h56.43.714,perception_pilot,2022.2.4,Win32,5.454763645,,,,,,,,,,,,,RUBY_THROATED_HUMMINGBIRD_3.jpg,WHITE_CHEEKED_TURACO_4.jpg,MYNA_5.jpg,NORTHERN_SHOVELER_1.jpg,MALABAR_HORNBILL_5.jpg,2,3,1,1,3,64,,,1,0,5.983,0,64,64,64,1,,
,,,A3QJ0LIK6SS3PG,47,Male,9,2023-01-18_14h56.43.714,perception_pilot,2022.2.4,Win32,5.454763645,,,,,,,,,,,,,,,,,,,,,,,,,,,,,,,,,,space,16.007
