button.numClicks,button.timesOn,button.timesOff,workID,Age,Gender,Hours slept (last night),date,expName,psychopyVersion,OS,frameRate,key_resp_13.keys,key_resp_13.rt,key_resp_14.keys,key_resp_14.rt,key_resp_3.keys,key_resp_3.corr,key_resp_3.rt,demo_loop.thisRepN,demo_loop.thisTrialN,demo_loop.thisN,demo_loop.thisIndex,demo_loop.ran,target_image,target_match,option1,option2,option3,option1_layer,option2_layer,option3_layer,match_layer,correct_answer,trial_num,key_resp_15.keys,key_resp_15.rt,key_resp.keys,key_resp.corr,key_resp.rt,trials.thisRepN,trials.thisTrialN,trials.thisN,trials.thisIndex,trials.ran,key_resp_end_2.keys,key_resp_end_2.rt
1,[2.223100000381521],[2.22319999980931],A47T7R7B44WFH,63,MALE,8,2023-01-18_13h29.27.451,perception_pilot,2022.2.4,Win32,11.03862415,,,,,,,,,,,,,,,,,,,,,,,,,,,,,,,,,,,
,,,A47T7R7B44WFH,63,MALE,8,2023-01-18_13h29.27.451,perception_pilot,2022.2.4,Win32,11.03862415,space,1.840400001,,,,,,,,,,,,,,,,,,,,,,,,,,,,,,,,,
,,,A47T7R7B44WFH,63,MALE,8,2023-01-18_13h29.27.451,perception_pilot,2022.2.4,Win32,11.03862415,,,space,1.2718,,,,,,,,,,,,,,,,,,,,,,,,,,,,,,,
,,,A47T7R7B44WFH,63,MALE,8,2023-01-18_13h29.27.451,perception_pilot,2022.2.4,Win32,11.03862415,,,,,,,,,,,,,,,,,,,,,,,,,,,,,,,,,,,
,,,A47T7R7B44WFH,63,MALE,8,2023-01-18_13h29.27.451,perception_pilot,2022.2.4,Win32,11.03862415,,,,,2,1,9.0262,0,0,0,0,1,LARK_BUNTING_2.jpg,KING_VULTURE_3.jpg,EMU_3.jpg,CHARA_DE_COLLAR_4.jpg,CACTUS_WREN_3.jpg,1,2,3,2,2,0,,,,,,,,,,,,
,,,A47T7R7B44WFH,63,MALE,8,2023-01-18_13h29.27.451,perception_pilot,2022.2.4,Win32,11.03862415,,,,,3,0,10.6287,0,1,1,1,1,ARARIPE_MANAKIN_4.jpg,BLACK_VULTURE_1.jpg,KIWI_3.jpg,UMBRELLA_BIRD_5.jpg,BORNEAN_LEAFBIRD_3.jpg,1,2,3,2,2,1,,,,,,,,,,,,
,,,A47T7R7B44WFH,63,MALE,8,2023-01-18_13h29.27.451,perception_pilot,2022.2.4,Win32,11.03862415,,,,,2,0,5.2614,0,2,2,2,1,BALI_STARLING_1.jpg,CAPE_LONGCLAW_5.jpg,OSTRICH_5.jpg,PURPLE_FINCH_2.jpg,IBERIAN_MAGPIE_1.jpg,1,2,3,1,1,2,,,,,,,,,,,,
,,,A47T7R7B44WFH,63,MALE,8,2023-01-18_13h29.27.451,perception_pilot,2022.2.4,Win32,11.03862415,,,,,2,1,8.5885,0,3,3,3,1,SHOEBILL_3.jpg,BALD_EAGLE_5.jpg,MALAGASY_WHITE_EYE_3.jpg,BALD_IBIS_3.jpg,GILDED_FLICKER_5.jpg,1,3,2,3,2,3,,,,,,,,,,,,
,,,A47T7R7B44WFH,63,MALE,8,2023-01-18_13h29.27.451,perception_pilot,2022.2.4,Win32,11.03862415,,,,,1,0,6.0358,0,4,4,4,1,BARRED_PUFFBIRD_3.jpg,VEERY_4.jpg,WHITE_CHEEKED_TURACO_2.jpg,NORTHERN_CARDINAL_5.jpg,RED_TAILED_THRUSH_2.jpg,1,2,3,3,3,4,,,,,,,,,,,,
,,,A47T7R7B44WFH,63,MALE,8,2023-01-18_13h29.27.451,perception_pilot,2022.2.4,Win32,11.03862415,,,,,3,1,4.5304,0,5,5,5,1,BROWN_THRASHER_3.jpg,BLACK_BAZA_4.jpg,DOUBLE_EYED_FIG_PARROT_3.jpg,OYSTER_CATCHER_4.jpg,CRESTED_KINGFISHER_3.jpg,1,2,3,3,3,5,,,,,,,,,,,,
,,,A47T7R7B44WFH,63,MALE,8,2023-01-18_13h29.27.451,perception_pilot,2022.2.4,Win32,11.03862415,,,,,3,0,5.2006,0,6,6,6,1,left.png,left.png,up.png,right.png,left.png,,,,,2,6,,,,,,,,,,,,
,,,A47T7R7B44WFH,63,MALE,8,2023-01-18_13h29.27.451,perception_pilot,2022.2.4,Win32,11.03862415,,,,,1,0,5.3991,0,7,7,7,1,GREY_PLOVER_1.jpg,HYACINTH_MACAW_3.jpg,GOULDIAN_FINCH_4.jpg,AMETHYST_WOODSTAR_4.jpg,TURKEY_VULTURE_1.jpg,2,3,1,1,3,7,,,,,,,,,,,,
,,,A47T7R7B44WFH,63,MALE,8,2023-01-18_13h29.27.451,perception_pilot,2022.2.4,Win32,11.03862415,,,,,3,0,5.502299999,0,8,8,8,1,OVENBIRD_5.jpg,FAIRY_PENGUIN_1.jpg,JABIRU_4.jpg,ABBOTTS_BOOBY_2.jpg,PURPLE_FINCH_5.jpg,1,2,3,2,2,8,,,,,,,,,,,,
,,,A47T7R7B44WFH,63,MALE,8,2023-01-18_13h29.27.451,perception_pilot,2022.2.4,Win32,11.03862415,,,,,3,0,10.7738,0,9,9,9,1,KAGU_5.jpg,EASTERN_MEADOWLARK_1.jpg,IMPERIAL_SHAQ_2.jpg,BANANAQUIT_2.jpg,ASHY_STORM_PETREL_1.jpg,3,1,2,1,2,9,,,,,,,,,,,,
,,,A47T7R7B44WFH,63,MALE,8,2023-01-18_13h29.27.451,perception_pilot,2022.2.4,Win32,11.03862415,,,,,,,,,,,,,,,,,,,,,,,,space,2.1087,,,,,,,,,,
,,,A47T7R7B44WFH,63,MALE,8,2023-01-18_13h29.27.451,perception_pilot,2022.2.4,Win32,11.03862415,,,,,,,,,,,,,BREWERS_BLACKBIRD_3.jpg,PEACOCK_4.jpg,CAPE_LONGCLAW_2.jpg,GOLDEN_CHEEKED_WARBLER_3.jpg,DOUBLE_EYED_FIG_PARROT_2.jpg,3,2,1,1,3,0,,,2,0,4.2182,0,0,0,0,1,,
,,,A47T7R7B44WFH,63,MALE,8,2023-01-18_13h29.27.451,perception_pilot,2022.2.4,Win32,11.03862415,,,,,,,,,,,,,NICOBAR_PIGEON_1.jpg,LITTLE_AUK_1.jpg,GREY_PLOVER_5.jpg,MYNA_4.jpg,EASTERN_BLUEBIRD_3.jpg,2,1,3,2,1,1,,,2,0,4.8295,0,1,1,1,1,,
,,,A47T7R7B44WFH,63,MALE,8,2023-01-18_13h29.27.451,perception_pilot,2022.2.4,Win32,11.03862415,,,,,,,,,,,,,INLAND_DOTTEREL_4.jpg,NICOBAR_PIGEON_4.jpg,JANDAYA_PARAKEET_5.jpg,COCK_OF_THE__ROCK_5.jpg,CRESTED_KINGFISHER_1.jpg,1,2,3,2,2,2,,,3,0,3.714799999,0,2,2,2,1,,
,,,A47T7R7B44WFH,63,MALE,8,2023-01-18_13h29.27.451,perception_pilot,2022.2.4,Win32,11.03862415,,,,,,,,,,,,,ASIAN_CRESTED_IBIS_4.jpg,OYSTER_CATCHER_2.jpg,CANARY_2.jpg,IVORY_GULL_2.jpg,AMERICAN_KESTREL_1.jpg,1,3,2,2,3,3,,,2,0,4.7338,0,3,3,3,1,,
,,,A47T7R7B44WFH,63,MALE,8,2023-01-18_13h29.27.451,perception_pilot,2022.2.4,Win32,11.03862415,,,,,,,,,,,,,MAGPIE_GOOSE_5.jpg,OYSTER_CATCHER_3.jpg,DOUBLE_EYED_FIG_PARROT_5.jpg,WOOD_DUCK_5.jpg,HAMERKOP_1.jpg,1,3,2,3,2,4,,,3,0,3.455,0,4,4,4,1,,
,,,A47T7R7B44WFH,63,MALE,8,2023-01-18_13h29.27.451,perception_pilot,2022.2.4,Win32,11.03862415,,,,,,,,,,,,,SPLENDID_WREN_1.jpg,CUBAN_TODY_4.jpg,PARAKETT__AKULET_3.jpg,DOUBLE_BRESTED_CORMARANT_1.jpg,CRESTED_KINGFISHER_4.jpg,1,2,3,3,3,5,,,3,1,3.6192,0,5,5,5,1,,
,,,A47T7R7B44WFH,63,MALE,8,2023-01-18_13h29.27.451,perception_pilot,2022.2.4,Win32,11.03862415,,,,,,,,,,,,,GOLDEN_CHEEKED_WARBLER_2.jpg,WHITE_THROATED_BEE_EATER_1.jpg,DARJEELING_WOODPECKER_1.jpg,AMERICAN_FLAMINGO_3.jpg,SPOONBILL_1.jpg,3,2,1,3,1,6,,,1,1,3.3209,0,6,6,6,1,,
,,,A47T7R7B44WFH,63,MALE,8,2023-01-18_13h29.27.451,perception_pilot,2022.2.4,Win32,11.03862415,,,,,,,,,,,,,EASTERN_TOWEE_2.jpg,SANDHILL_CRANE_2.jpg,BLUE_HERON_3.jpg,HYACINTH_MACAW_4.jpg,NORTHERN_BEARDLESS_TYRANNULET_5.jpg,1,2,3,1,1,7,,,3,0,6.3952,0,7,7,7,1,,
,,,A47T7R7B44WFH,63,MALE,8,2023-01-18_13h29.27.451,perception_pilot,2022.2.4,Win32,11.03862415,,,,,,,,,,,,,AFRICAN_PIED_HORNBILL_5.jpg,CAPUCHINBIRD_2.jpg,ALEXANDRINE_PARAKEET_1.jpg,ECUADORIAN_HILLSTAR_3.jpg,KIWI_4.jpg,2,3,1,3,2,8,,,1,0,2.6623,0,8,8,8,1,,
,,,A47T7R7B44WFH,63,MALE,8,2023-01-18_13h29.27.451,perception_pilot,2022.2.4,Win32,11.03862415,,,,,,,,,,,,,CRESTED_CARACARA_4.jpg,BLUE_DACNIS_4.jpg,TOUCHAN_4.jpg,FAIRY_PENGUIN_5.jpg,PARADISE_TANAGER_1.jpg,3,1,2,2,3,9,,,2,0,0.828,0,9,9,9,1,,
,,,A47T7R7B44WFH,63,MALE,8,2023-01-18_13h29.27.451,perception_pilot,2022.2.4,Win32,11.03862415,,,,,,,,,,,,,IVORY_GULL_3.jpg,INDIGO_FLYCATCHER_2.jpg,SNOWY_EGRET_4.jpg,BUSH_TURKEY_1.jpg,FLAME_TANAGER_3.jpg,3,1,2,1,2,10,,,3,0,1.074799999,0,10,10,10,1,,
,,,A47T7R7B44WFH,63,MALE,8,2023-01-18_13h29.27.451,perception_pilot,2022.2.4,Win32,11.03862415,,,,,,,,,,,,,GOLDEN_CHLOROPHONIA_5.jpg,VERMILION_FLYCATHER_5.jpg,ROADRUNNER_2.jpg,DARWINS_FLYCATCHER_3.jpg,COMMON_HOUSE_MARTIN_4.jpg,1,3,2,3,2,11,,,2,1,0.694599999,0,11,11,11,1,,
,,,A47T7R7B44WFH,63,MALE,8,2023-01-18_13h29.27.451,perception_pilot,2022.2.4,Win32,11.03862415,,,,,,,,,,,,,GYRFALCON_1.jpg,ASHY_STORM_PETREL_2.jpg,GREY_PLOVER_3.jpg,CINNAMON_ATTILA_2.jpg,FAIRY_TERN_1.jpg,1,2,3,1,1,12,,,1,1,0.9534,0,12,12,12,1,,
,,,A47T7R7B44WFH,63,MALE,8,2023-01-18_13h29.27.451,perception_pilot,2022.2.4,Win32,11.03862415,,,,,,,,,,,,,GRAY_KINGBIRD_5.jpg,AFRICAN_FIREFINCH_3.jpg,COCK_OF_THE__ROCK_4.jpg,EVENING_GROSBEAK_4.jpg,BALD_EAGLE_2.jpg,2,3,1,3,2,13,,,1,0,1.2312,0,13,13,13,1,,
,,,A47T7R7B44WFH,63,MALE,8,2023-01-18_13h29.27.451,perception_pilot,2022.2.4,Win32,11.03862415,,,,,,,,,,,,,WHITE_CHEEKED_TURACO_5.jpg,PYGMY_KINGFISHER_2.jpg,MALAGASY_WHITE_EYE_5.jpg,CHINESE_POND_HERON_1.jpg,SNOWY_EGRET_1.jpg,3,1,2,3,1,14,,,1,1,0.4461,0,14,14,14,1,,
,,,A47T7R7B44WFH,63,MALE,8,2023-01-18_13h29.27.451,perception_pilot,2022.2.4,Win32,11.03862415,,,,,,,,,,,,,ASIAN_DOLLARD_BIRD_2.jpg,VIOLET_GREEN_SWALLOW_4.jpg,VERMILION_FLYCATHER_1.jpg,ALBATROSS_2.jpg,HAWAIIAN_GOOSE_1.jpg,3,1,2,3,1,15,,,2,0,0.1488,0,15,15,15,1,,
,,,A47T7R7B44WFH,63,MALE,8,2023-01-18_13h29.27.451,perception_pilot,2022.2.4,Win32,11.03862415,,,,,,,,,,,,,ECUADORIAN_HILLSTAR_5.jpg,CRIMSON_SUNBIRD_5.jpg,SCARLET_IBIS_2.jpg,BOBOLINK_5.jpg,GREEN_BROADBILL_4.jpg,1,2,3,3,3,16,,,1,0,0.2899,0,16,16,16,1,,
,,,A47T7R7B44WFH,63,MALE,8,2023-01-18_13h29.27.451,perception_pilot,2022.2.4,Win32,11.03862415,,,,,,,,,,,,,MCKAYS_BUNTING_3.jpg,EMU_4.jpg,IWI_2.jpg,AMERICAN_GOLDFINCH_4.jpg,DEMOISELLE_CRANE_3.jpg,2,3,1,1,3,17,,,3,1,0.4119,0,17,17,17,1,,
,,,A47T7R7B44WFH,63,MALE,8,2023-01-18_13h29.27.451,perception_pilot,2022.2.4,Win32,11.03862415,,,,,,,,,,,,,TREE_SWALLOW_4.jpg,RED_HEADED_DUCK_5.jpg,ROBIN_3.jpg,RED_FODY_3.jpg,DALMATIAN_PELICAN_3.jpg,2,3,1,1,3,18,,,3,1,0.144599999,0,18,18,18,1,,
,,,A47T7R7B44WFH,63,MALE,8,2023-01-18_13h29.27.451,perception_pilot,2022.2.4,Win32,11.03862415,,,,,,,,,,,,,OCELLATED_TURKEY_1.jpg,LARK_BUNTING_1.jpg,PURPLE_SWAMPHEN_4.jpg,CHIPPING_SPARROW_1.jpg,AMERICAN_KESTREL_2.jpg,3,1,2,2,3,19,,,2,0,0.1398,0,19,19,19,1,,
,,,A47T7R7B44WFH,63,MALE,8,2023-01-18_13h29.27.451,perception_pilot,2022.2.4,Win32,11.03862415,,,,,,,,,,,,,right.png,right.png,right.png,up.png,left.png,,,,,3,20,,,1,0,0.187799999,0,20,20,20,1,,
,,,A47T7R7B44WFH,63,MALE,8,2023-01-18_13h29.27.451,perception_pilot,2022.2.4,Win32,11.03862415,,,,,,,,,,,,,right.png,right.png,up.png,right.png,left.png,,,,,3,21,,,1,0,0.4574,0,21,21,21,1,,
,,,A47T7R7B44WFH,63,MALE,8,2023-01-18_13h29.27.451,perception_pilot,2022.2.4,Win32,11.03862415,,,,,,,,,,,,,RUFOUS_KINGFISHER_1.jpg,BLACK_VENTED_SHEARWATER_2.jpg,MAGPIE_GOOSE_3.jpg,BANDED_STILT_3.jpg,HORNED_SUNGEM_4.jpg,2,1,3,1,2,22,,,2,1,0.1486,0,22,22,22,1,,
,,,A47T7R7B44WFH,63,MALE,8,2023-01-18_13h29.27.451,perception_pilot,2022.2.4,Win32,11.03862415,,,,,,,,,,,,,LITTLE_AUK_5.jpg,ORANGE_BRESTED_BUNTING_3.jpg,LILAC_ROLLER_5.jpg,BEARDED_BELLBIRD_1.jpg,SANDHILL_CRANE_3.jpg,2,3,1,2,1,23,,,3,0,0.2833,0,23,23,23,1,,
,,,A47T7R7B44WFH,63,MALE,8,2023-01-18_13h29.27.451,perception_pilot,2022.2.4,Win32,11.03862415,,,,,,,,,,,,,VERMILION_FLYCATHER_3.jpg,INDIAN_BUSTARD_1.jpg,CROWNED_PIGEON_1.jpg,SATYR_TRAGOPAN_1.jpg,RED_BEARDED_BEE_EATER_1.jpg,2,1,3,1,2,24,,,2,1,0.1423,0,24,24,24,1,,
,,,A47T7R7B44WFH,63,MALE,8,2023-01-18_13h29.27.451,perception_pilot,2022.2.4,Win32,11.03862415,,,,,,,,,,,,,CRESTED_NUTHATCH_2.jpg,CANARY_1.jpg,VERMILION_FLYCATHER_4.jpg,SCARLET_IBIS_3.jpg,AFRICAN_FIREFINCH_1.jpg,3,1,2,3,1,25,,,3,0,0.143099999,0,25,25,25,1,,
,,,A47T7R7B44WFH,63,MALE,8,2023-01-18_13h29.27.451,perception_pilot,2022.2.4,Win32,11.03862415,,,,,,,,,,,,,RED_FACED_WARBLER_1.jpg,BLACK_VENTED_SHEARWATER_4.jpg,CAPE_GLOSSY_STARLING_2.jpg,EMU_5.jpg,COMMON_LOON_4.jpg,3,1,2,2,3,26,,,1,0,0.2975,0,26,26,26,1,,
,,,A47T7R7B44WFH,63,MALE,8,2023-01-18_13h29.27.451,perception_pilot,2022.2.4,Win32,11.03862415,,,,,,,,,,,,,INDIGO_BUNTING_1.jpg,FRIGATE_4.jpg,POMARINE_JAEGER_5.jpg,SNOWY_PLOVER_1.jpg,DARWINS_FLYCATCHER_2.jpg,1,2,3,1,1,27,,,1,1,0.1445,0,27,27,27,1,,
,,,A47T7R7B44WFH,63,MALE,8,2023-01-18_13h29.27.451,perception_pilot,2022.2.4,Win32,11.03862415,,,,,,,,,,,,,CASPIAN_TERN_1.jpg,EUROPEAN_GOLDFINCH_4.jpg,BRANDT_CORMARANT_4.jpg,COMMON_LOON_2.jpg,AMERICAN_GOLDFINCH_3.jpg,1,3,2,2,3,28,,,2,0,0.1537,0,28,28,28,1,,
,,,A47T7R7B44WFH,63,MALE,8,2023-01-18_13h29.27.451,perception_pilot,2022.2.4,Win32,11.03862415,,,,,,,,,,,,,left.png,left.png,up.png,left.png,right.png,,,,,3,29,,,2,0,0.2089,0,29,29,29,1,,
,,,A47T7R7B44WFH,63,MALE,8,2023-01-18_13h29.27.451,perception_pilot,2022.2.4,Win32,11.03862415,,,,,,,,,,,,,LESSER_ADJUTANT_4.jpg,ALTAMIRA_YELLOWTHROAT_5.jpg,RAINBOW_LORIKEET_5.jpg,FAIRY_TERN_3.jpg,DOUBLE_EYED_FIG_PARROT_4.jpg,2,3,1,1,3,30,,,1,0,0.1435,0,30,30,30,1,,
,,,A47T7R7B44WFH,63,MALE,8,2023-01-18_13h29.27.451,perception_pilot,2022.2.4,Win32,11.03862415,,,,,,,,,,,,,HAWAIIAN_GOOSE_4.jpg,RED_BEARDED_BEE_EATER_3.jpg,HIMALAYAN_MONAL_2.jpg,DOUBLE_EYED_FIG_PARROT_1.jpg,WATTLED_LAPWING_3.jpg,2,1,3,1,2,31,,,1,0,0.150900001,0,31,31,31,1,,
,,,A47T7R7B44WFH,63,MALE,8,2023-01-18_13h29.27.451,perception_pilot,2022.2.4,Win32,11.03862415,,,,,,,,,,,,,CHUKAR_PARTRIDGE_5.jpg,BLACK_THROATED_BUSHTIT_1.jpg,PUFFIN_3.jpg,RAZORBILL_1.jpg,OSTRICH_3.jpg,3,2,1,3,1,32,,,1,1,0.1441,0,32,32,32,1,,
,,,A47T7R7B44WFH,63,MALE,8,2023-01-18_13h29.27.451,perception_pilot,2022.2.4,Win32,11.03862415,,,,,,,,,,,,,SCARLET_TANAGER_2.jpg,LITTLE_AUK_3.jpg,CALIFORNIA_QUAIL_5.jpg,CARMINE_BEE-EATER_1.jpg,BORNEAN_LEAFBIRD_1.jpg,2,1,3,2,1,33,,,3,0,0.1413,0,33,33,33,1,,
,,,A47T7R7B44WFH,63,MALE,8,2023-01-18_13h29.27.451,perception_pilot,2022.2.4,Win32,11.03862415,,,,,,,,,,,,,EUROPEAN_TURTLE_DOVE_3.jpg,PAINTED_BUNTING_3.jpg,TEAL_DUCK_2.jpg,CAPE_GLOSSY_STARLING_1.jpg,MALABAR_HORNBILL_2.jpg,1,2,3,2,2,34,,,3,0,0.141799999,0,34,34,34,1,,
,,,A47T7R7B44WFH,63,MALE,8,2023-01-18_13h29.27.451,perception_pilot,2022.2.4,Win32,11.03862415,,,,,,,,,,,,,FLAME_BOWERBIRD_3.jpg,BROWN_THRASHER_4.jpg,INDIAN_BUSTARD_2.jpg,QUETZAL_3.jpg,BLACK_THROATED_WARBLER_4.jpg,1,3,2,2,3,35,,,3,1,0.146,0,35,35,35,1,,
,,,A47T7R7B44WFH,63,MALE,8,2023-01-18_13h29.27.451,perception_pilot,2022.2.4,Win32,11.03862415,,,,,,,,,,,,,KILLDEAR_2.jpg,ALEXANDRINE_PARAKEET_5.jpg,AZURE_TIT_5.jpg,CAATINGA_CACHOLOTE_4.jpg,GOLDEN_CHLOROPHONIA_2.jpg,3,2,1,1,3,36,,,3,1,0.149,0,36,36,36,1,,
,,,A47T7R7B44WFH,63,MALE,8,2023-01-18_13h29.27.451,perception_pilot,2022.2.4,Win32,11.03862415,,,,,,,,,,,,,GILA_WOODPECKER_3.jpg,BLACK_VULTURE_3.jpg,SNOWY_OWL_4.jpg,BLACK_SWAN_3.jpg,AZURE_TANAGER_1.jpg,2,1,3,3,3,37,,,2,0,0.1506,0,37,37,37,1,,
,,,A47T7R7B44WFH,63,MALE,8,2023-01-18_13h29.27.451,perception_pilot,2022.2.4,Win32,11.03862415,,,,,,,,,,,,,RED_HEADED_WOODPECKER_5.jpg,COLLARED_ARACARI_1.jpg,BLACKBURNIAM_WARBLER_4.jpg,CRIMSON_CHAT_3.jpg,GREAT_GRAY_OWL_5.jpg,3,2,1,3,1,38,,,2,0,0.145099999,0,38,38,38,1,,
,,,A47T7R7B44WFH,63,MALE,8,2023-01-18_13h29.27.451,perception_pilot,2022.2.4,Win32,11.03862415,,,,,,,,,,,,,RUBY_THROATED_HUMMINGBIRD_2.jpg,DUSKY_ROBIN_5.jpg,APAPANE_4.jpg,EURASIAN_MAGPIE_3.jpg,GOLDEN_PARAKEET_2.jpg,2,3,1,3,2,39,,,2,1,0.1467,0,39,39,39,1,,
,,,A47T7R7B44WFH,63,MALE,8,2023-01-18_13h29.27.451,perception_pilot,2022.2.4,Win32,11.03862415,,,,,,,,,,,,,BROWN_NOODY_3.jpg,SPANGLED_COTINGA_4.jpg,COMMON_IORA_3.jpg,GUINEA_TURACO_5.jpg,KIWI_2.jpg,2,3,1,2,1,40,,,1,1,0.1553,0,40,40,40,1,,
,,,A47T7R7B44WFH,63,MALE,8,2023-01-18_13h29.27.451,perception_pilot,2022.2.4,Win32,11.03862415,,,,,,,,,,,,,left.png,left.png,up.png,right.png,left.png,,,,,2,41,,,1,0,0.2168,0,41,41,41,1,,
,,,A47T7R7B44WFH,63,MALE,8,2023-01-18_13h29.27.451,perception_pilot,2022.2.4,Win32,11.03862415,,,,,,,,,,,,,PYGMY_KINGFISHER_5.jpg,GRANDALA_2.jpg,GREAT_POTOO_3.jpg,NORTHERN_PARULA_5.jpg,MIKADO__PHEASANT_5.jpg,2,3,1,1,3,42,,,3,1,0.1541,0,42,42,42,1,,
,,,A47T7R7B44WFH,63,MALE,8,2023-01-18_13h29.27.451,perception_pilot,2022.2.4,Win32,11.03862415,,,,,,,,,,,,,INCA_TERN_4.jpg,ELLIOTS__PHEASANT_4.jpg,SNOWY_OWL_5.jpg,SMITHS_LONGSPUR_5.jpg,BORNEAN_BRISTLEHEAD_5.jpg,1,2,3,1,1,43,,,3,0,0.2796,0,43,43,43,1,,
,,,A47T7R7B44WFH,63,MALE,8,2023-01-18_13h29.27.451,perception_pilot,2022.2.4,Win32,11.03862415,,,,,,,,,,,,,ALPINE_CHOUGH_4.jpg,BOBOLINK_3.jpg,EUROPEAN_GOLDFINCH_3.jpg,UMBRELLA_BIRD_1.jpg,SNOWY_EGRET_2.jpg,2,3,1,3,2,44,,,2,1,0.3046,0,44,44,44,1,,
,,,A47T7R7B44WFH,63,MALE,8,2023-01-18_13h29.27.451,perception_pilot,2022.2.4,Win32,11.03862415,,,,,,,,,,,,,AMERICAN_PIPIT_5.jpg,EMU_2.jpg,PEACOCK_2.jpg,HEPATIC_TANAGER_5.jpg,GREEN_MAGPIE_1.jpg,1,3,2,1,1,45,,,1,1,0.161299999,0,45,45,45,1,,
,,,A47T7R7B44WFH,63,MALE,8,2023-01-18_13h29.27.451,perception_pilot,2022.2.4,Win32,11.03862415,,,,,,,,,,,,,DOUBLE_BRESTED_CORMARANT_5.jpg,GILDED_FLICKER_2.jpg,SNOWY_OWL_3.jpg,CHINESE_POND_HERON_2.jpg,EURASIAN_MAGPIE_4.jpg,1,3,2,1,1,46,,,1,1,0.289599999,0,46,46,46,1,,
,,,A47T7R7B44WFH,63,MALE,8,2023-01-18_13h29.27.451,perception_pilot,2022.2.4,Win32,11.03862415,,,,,,,,,,,,,PEACOCK_3.jpg,ANIANIAU_2.jpg,IBERIAN_MAGPIE_2.jpg,STRAWBERRY_FINCH_4.jpg,ANDEAN_SISKIN_5.jpg,3,2,1,1,3,47,,,2,0,0.1588,0,47,47,47,1,,
,,,A47T7R7B44WFH,63,MALE,8,2023-01-18_13h29.27.451,perception_pilot,2022.2.4,Win32,11.03862415,,,,,,,,,,,,,RUBY_THROATED_HUMMINGBIRD_3.jpg,NORTHERN_SHOVELER_1.jpg,WALL_CREAPER_3.jpg,MYNA_5.jpg,WHITE_CHEEKED_TURACO_4.jpg,3,2,1,3,1,48,,,3,0,0.1472,0,48,48,48,1,,
,,,A47T7R7B44WFH,63,MALE,8,2023-01-18_13h29.27.451,perception_pilot,2022.2.4,Win32,11.03862415,,,,,,,,,,,,,CERULEAN_WARBLER_1.jpg,BANANAQUIT_1.jpg,CRESTED_OROPENDOLA_5.jpg,ORIENTAL_BAY_OWL_1.jpg,AMERICAN_FLAMINGO_5.jpg,3,1,2,3,1,49,,,3,0,0.1546,0,49,49,49,1,,
,,,A47T7R7B44WFH,63,MALE,8,2023-01-18_13h29.27.451,perception_pilot,2022.2.4,Win32,11.03862415,,,,,,,,,,,,,STRIPPED_SWALLOW_1.jpg,EMPEROR_PENGUIN_5.jpg,MAGPIE_GOOSE_4.jpg,GO_AWAY_BIRD_5.jpg,BRANDT_CORMARANT_3.jpg,2,3,1,1,3,50,,,1,0,0.1464,0,50,50,50,1,,
,,,A47T7R7B44WFH,63,MALE,8,2023-01-18_13h29.27.451,perception_pilot,2022.2.4,Win32,11.03862415,,,,,,,,,,,,,left.png,left.png,up.png,left.png,right.png,,,,,3,51,,,2,0,0.1931,0,51,51,51,1,,
,,,A47T7R7B44WFH,63,MALE,8,2023-01-18_13h29.27.451,perception_pilot,2022.2.4,Win32,11.03862415,,,,,,,,,,,,,MALACHITE_KINGFISHER_2.jpg,GREEN_BROADBILL_5.jpg,SKUA_3.jpg,JAVA_SPARROW_5.jpg,INCA_TERN_2.jpg,1,3,2,3,2,52,,,2,1,0.148200001,0,52,52,52,1,,
,,,A47T7R7B44WFH,63,MALE,8,2023-01-18_13h29.27.451,perception_pilot,2022.2.4,Win32,11.03862415,,,,,,,,,,,,,SKUA_4.jpg,ROADRUNNER_5.jpg,AMERICAN_WIGEON_2.jpg,SNOWY_EGRET_5.jpg,PARUS_MAJOR_2.jpg,3,1,2,3,1,53,,,1,1,0.1456,0,53,53,53,1,,
,,,A47T7R7B44WFH,63,MALE,8,2023-01-18_13h29.27.451,perception_pilot,2022.2.4,Win32,11.03862415,,,,,,,,,,,,,LESSER_ADJUTANT_5.jpg,GAMBELS_QUAIL_1.jpg,RED_HEADED_WOODPECKER_1.jpg,CANARY_4.jpg,AMERICAN_GOLDFINCH_1.jpg,3,2,1,2,2,54,,,3,0,0.2943,0,54,54,54,1,,
,,,A47T7R7B44WFH,63,MALE,8,2023-01-18_13h29.27.451,perception_pilot,2022.2.4,Win32,11.03862415,,,,,,,,,,,,,MYNA_1.jpg,GREY_PLOVER_4.jpg,GRAY_PARTRIDGE_5.jpg,SANDHILL_CRANE_4.jpg,PARADISE_TANAGER_3.jpg,2,1,3,2,1,55,,,3,0,0.1484,0,55,55,55,1,,
,,,A47T7R7B44WFH,63,MALE,8,2023-01-18_13h29.27.451,perception_pilot,2022.2.4,Win32,11.03862415,,,,,,,,,,,,,NORTHERN_GANNET_2.jpg,STRAWBERRY_FINCH_1.jpg,VENEZUELIAN_TROUPIAL_1.jpg,PAINTED_BUNTING_5.jpg,MASKED_BOOBY_5.jpg,2,1,3,2,1,56,,,2,0,0.433200001,0,56,56,56,1,,
,,,A47T7R7B44WFH,63,MALE,8,2023-01-18_13h29.27.451,perception_pilot,2022.2.4,Win32,11.03862415,,,,,,,,,,,,,PINK_ROBIN_4.jpg,ALBATROSS_4.jpg,COMMON_IORA_4.jpg,SPOONBILL_3.jpg,JACK_SNIPE_5.jpg,3,1,2,2,3,57,,,2,0,0.1433,0,57,57,57,1,,
,,,A47T7R7B44WFH,63,MALE,8,2023-01-18_13h29.27.451,perception_pilot,2022.2.4,Win32,11.03862415,,,,,,,,,,,,,TASMANIAN_HEN_5.jpg,AFRICAN_EMERALD_CUCKOO_5.jpg,BORNEAN_PHEASANT_2.jpg,COPPERY_TAILED_COUCAL_1.jpg,BLACKBURNIAM_WARBLER_3.jpg,2,3,1,2,1,58,,,2,0,0.1462,0,58,58,58,1,,
,,,A47T7R7B44WFH,63,MALE,8,2023-01-18_13h29.27.451,perception_pilot,2022.2.4,Win32,11.03862415,,,,,,,,,,,,,IVORY_GULL_1.jpg,EASTERN_GOLDEN_WEAVER_5.jpg,WILSONS_BIRD_OF_PARADISE_4.jpg,RED_FODY_1.jpg,FAIRY_TERN_4.jpg,1,2,3,2,2,59,,,1,0,0.1443,0,59,59,59,1,,
,,,A47T7R7B44WFH,63,MALE,8,2023-01-18_13h29.27.451,perception_pilot,2022.2.4,Win32,11.03862415,,,,,,,,,,,,,NORTHERN_JACANA_3.jpg,BANANAQUIT_3.jpg,REGENT_BOWERBIRD_5.jpg,BAR-TAILED_GODWIT_3.jpg,BEARDED_BELLBIRD_3.jpg,2,3,1,1,3,60,,,1,0,0.1463,0,60,60,60,1,,
,,,A47T7R7B44WFH,63,MALE,8,2023-01-18_13h29.27.451,perception_pilot,2022.2.4,Win32,11.03862415,,,,,,,,,,,,,RUBY_THROATED_HUMMINGBIRD_1.jpg,VULTURINE_GUINEAFOWL_4.jpg,EURASIAN_GOLDEN_ORIOLE_5.jpg,BEARDED_REEDLING_3.jpg,FRIGATE_1.jpg,1,2,3,2,2,61,,,2,1,0.1514,0,61,61,61,1,,
,,,A47T7R7B44WFH,63,MALE,8,2023-01-18_13h29.27.451,perception_pilot,2022.2.4,Win32,11.03862415,,,,,,,,,,,,,PARUS_MAJOR_1.jpg,PINK_ROBIN_3.jpg,COMMON_POORWILL_1.jpg,FAIRY_BLUEBIRD_5.jpg,CALIFORNIA_GULL_2.jpg,1,3,2,3,2,62,,,3,0,1.193400001,0,62,62,62,1,,
,,,A47T7R7B44WFH,63,MALE,8,2023-01-18_13h29.27.451,perception_pilot,2022.2.4,Win32,11.03862415,,,,,,,,,,,,,CASSOWARY_1.jpg,SCARLET_MACAW_1.jpg,DEMOISELLE_CRANE_1.jpg,EASTERN_ROSELLA_2.jpg,ROSY_FACED_LOVEBIRD_4.jpg,3,2,1,2,2,63,,,2,1,0.5907,0,63,63,63,1,,
,,,A47T7R7B44WFH,63,MALE,8,2023-01-18_13h29.27.451,perception_pilot,2022.2.4,Win32,11.03862415,,,,,,,,,,,,,NORTHERN_JACANA_2.jpg,GREEN_BROADBILL_1.jpg,VULTURINE_GUINEAFOWL_5.jpg,EMERALD_TANAGER_2.jpg,RED_FACED_CORMORANT_1.jpg,2,1,3,1,2,64,,,3,0,1.0979,0,64,64,64,1,,
,,,A47T7R7B44WFH,63,MALE,8,2023-01-18_13h29.27.451,perception_pilot,2022.2.4,Win32,11.03862415,,,,,,,,,,,,,,,,,,,,,,,,,,,,,,,,,,space,11.0614
