button.numClicks,button.timesOn,button.timesOff,workID,Age,Gender,Hours slept (last night),date,expName,psychopyVersion,OS,frameRate,key_resp_13.keys,key_resp_13.rt,key_resp_14.keys,key_resp_14.rt,key_resp_3.keys,key_resp_3.corr,key_resp_3.rt,demo_loop.thisRepN,demo_loop.thisTrialN,demo_loop.thisN,demo_loop.thisIndex,demo_loop.ran,target_image,target_match,option1,option2,option3,option1_layer,option2_layer,option3_layer,match_layer,correct_answer,trial_num,key_resp_15.keys,key_resp_15.rt,key_resp.keys,key_resp.corr,key_resp.rt,trials.thisRepN,trials.thisTrialN,trials.thisN,trials.thisIndex,trials.ran,key_resp_end_2.keys,key_resp_end_2.rt
1,[13.713599999904659],[13.71369999980925],A8B41DKV45LO7,36,MALE,8,2023-01-18_13h27.36.574,perception_pilot,2022.2.4,Win32,8.072784223,,,,,,,,,,,,,,,,,,,,,,,,,,,,,,,,,,,
,,,A8B41DKV45LO7,36,MALE,8,2023-01-18_13h27.36.574,perception_pilot,2022.2.4,Win32,8.072784223,space,3.6871,,,,,,,,,,,,,,,,,,,,,,,,,,,,,,,,,
,,,A8B41DKV45LO7,36,MALE,8,2023-01-18_13h27.36.574,perception_pilot,2022.2.4,Win32,8.072784223,,,space,1.609,,,,,,,,,,,,,,,,,,,,,,,,,,,,,,,
,,,A8B41DKV45LO7,36,MALE,8,2023-01-18_13h27.36.574,perception_pilot,2022.2.4,Win32,8.072784223,,,,,,,,,,,,,,,,,,,,,,,,,,,,,,,,,,,
,,,A8B41DKV45LO7,36,MALE,8,2023-01-18_13h27.36.574,perception_pilot,2022.2.4,Win32,8.072784223,,,,,2,1,4.5531,0,0,0,0,1,CRESTED_NUTHATCH_2.jpg,CANARY_1.jpg,AFRICAN_FIREFINCH_1.jpg,VERMILION_FLYCATHER_4.jpg,SCARLET_IBIS_3.jpg,2,3,1,3,2,0,,,,,,,,,,,,
,,,A8B41DKV45LO7,36,MALE,8,2023-01-18_13h27.36.574,perception_pilot,2022.2.4,Win32,8.072784223,,,,,1,1,0.8246,0,1,1,1,1,EUROPEAN_TURTLE_DOVE_3.jpg,PAINTED_BUNTING_3.jpg,CAPE_GLOSSY_STARLING_1.jpg,MALABAR_HORNBILL_2.jpg,TEAL_DUCK_2.jpg,2,3,1,2,1,1,,,,,,,,,,,,
,,,A8B41DKV45LO7,36,MALE,8,2023-01-18_13h27.36.574,perception_pilot,2022.2.4,Win32,8.072784223,,,,,3,0,1.3717,0,2,2,2,1,ASIAN_CRESTED_IBIS_4.jpg,OYSTER_CATCHER_2.jpg,AMERICAN_KESTREL_1.jpg,IVORY_GULL_2.jpg,CANARY_2.jpg,2,3,1,2,1,2,,,,,,,,,,,,
,,,A8B41DKV45LO7,36,MALE,8,2023-01-18_13h27.36.574,perception_pilot,2022.2.4,Win32,8.072784223,,,,,2,0,0.6831,0,3,3,3,1,left.png,left.png,left.png,up.png,right.png,,,,,3,3,,,,,,,,,,,,
,,,A8B41DKV45LO7,36,MALE,8,2023-01-18_13h27.36.574,perception_pilot,2022.2.4,Win32,8.072784223,,,,,1,0,0.7935,0,4,4,4,1,DOUBLE_BRESTED_CORMARANT_5.jpg,GILDED_FLICKER_2.jpg,CHINESE_POND_HERON_2.jpg,EURASIAN_MAGPIE_4.jpg,SNOWY_OWL_3.jpg,3,2,1,1,3,4,,,,,,,,,,,,
,,,A8B41DKV45LO7,36,MALE,8,2023-01-18_13h27.36.574,perception_pilot,2022.2.4,Win32,8.072784223,,,,,2,0,0.7997,0,5,5,5,1,TREE_SWALLOW_4.jpg,ROBIN_3.jpg,CALIFORNIA_GULL_1.jpg,RED_HEADED_DUCK_5.jpg,RED_FODY_3.jpg,2,1,3,2,1,5,,,,,,,,,,,,
,,,A8B41DKV45LO7,36,MALE,8,2023-01-18_13h27.36.574,perception_pilot,2022.2.4,Win32,8.072784223,,,,,2,0,0.8474,0,6,6,6,1,OVENBIRD_5.jpg,PURPLE_FINCH_5.jpg,FAIRY_PENGUIN_1.jpg,JABIRU_4.jpg,GILDED_FLICKER_1.jpg,2,1,3,3,3,6,,,,,,,,,,,,
,,,A8B41DKV45LO7,36,MALE,8,2023-01-18_13h27.36.574,perception_pilot,2022.2.4,Win32,8.072784223,,,,,1,0,0.8629,0,7,7,7,1,GOLDEN_CHLOROPHONIA_5.jpg,ROADRUNNER_2.jpg,VERMILION_FLYCATHER_5.jpg,WHIMBREL_1.jpg,COMMON_HOUSE_MARTIN_4.jpg,3,1,2,1,2,7,,,,,,,,,,,,
,,,A8B41DKV45LO7,36,MALE,8,2023-01-18_13h27.36.574,perception_pilot,2022.2.4,Win32,8.072784223,,,,,3,0,0.8396,0,8,8,8,1,RED_FACED_WARBLER_1.jpg,EMU_5.jpg,SPOONBILL_4.jpg,CAPE_GLOSSY_STARLING_2.jpg,BLACK_VENTED_SHEARWATER_4.jpg,1,3,2,1,1,8,,,,,,,,,,,,
,,,A8B41DKV45LO7,36,MALE,8,2023-01-18_13h27.36.574,perception_pilot,2022.2.4,Win32,8.072784223,,,,,2,1,0.7673,0,9,9,9,1,INLAND_DOTTEREL_4.jpg,CRESTED_KINGFISHER_1.jpg,NICOBAR_PIGEON_4.jpg,ANNAS_HUMMINGBIRD_2.jpg,JANDAYA_PARAKEET_5.jpg,2,3,1,3,2,9,,,,,,,,,,,,
,,,A8B41DKV45LO7,36,MALE,8,2023-01-18_13h27.36.574,perception_pilot,2022.2.4,Win32,8.072784223,,,,,,,,,,,,,,,,,,,,,,,,space,1.3288,,,,,,,,,,
,,,A8B41DKV45LO7,36,MALE,8,2023-01-18_13h27.36.574,perception_pilot,2022.2.4,Win32,8.072784223,,,,,,,,,,,,,PINK_ROBIN_4.jpg,ALBATROSS_4.jpg,SPOONBILL_3.jpg,COMMON_IORA_4.jpg,JACK_SNIPE_5.jpg,1,3,2,2,3,0,,,2,0,2.5136,0,0,0,0,1,,
,,,A8B41DKV45LO7,36,MALE,8,2023-01-18_13h27.36.574,perception_pilot,2022.2.4,Win32,8.072784223,,,,,,,,,,,,,OCELLATED_TURKEY_1.jpg,LARK_BUNTING_1.jpg,AMERICAN_KESTREL_2.jpg,CHIPPING_SPARROW_1.jpg,PURPLE_SWAMPHEN_4.jpg,2,1,3,2,1,1,,,1,1,0.8235,0,1,1,1,1,,
,,,A8B41DKV45LO7,36,MALE,8,2023-01-18_13h27.36.574,perception_pilot,2022.2.4,Win32,8.072784223,,,,,,,,,,,,,NORTHERN_GANNET_2.jpg,STRAWBERRY_FINCH_1.jpg,VENEZUELIAN_TROUPIAL_1.jpg,PAINTED_BUNTING_5.jpg,MASKED_BOOBY_5.jpg,2,1,3,2,1,2,,,3,0,1.0042,0,2,2,2,1,,
,,,A8B41DKV45LO7,36,MALE,8,2023-01-18_13h27.36.574,perception_pilot,2022.2.4,Win32,8.072784223,,,,,,,,,,,,,CASSOWARY_1.jpg,ROSY_FACED_LOVEBIRD_4.jpg,SCARLET_MACAW_1.jpg,CEDAR_WAXWING_4.jpg,DEMOISELLE_CRANE_1.jpg,2,1,3,1,2,3,,,2,1,0.8127,0,3,3,3,1,,
,,,A8B41DKV45LO7,36,MALE,8,2023-01-18_13h27.36.574,perception_pilot,2022.2.4,Win32,8.072784223,,,,,,,,,,,,,SCARLET_TANAGER_2.jpg,CARMINE_BEE-EATER_1.jpg,BIRD_OF_PARADISE_3.jpg,BORNEAN_LEAFBIRD_1.jpg,LITTLE_AUK_3.jpg,1,3,2,1,1,4,,,1,1,0.8464,0,4,4,4,1,,
,,,A8B41DKV45LO7,36,MALE,8,2023-01-18_13h27.36.574,perception_pilot,2022.2.4,Win32,8.072784223,,,,,,,,,,,,,GRAY_KINGBIRD_5.jpg,COCK_OF_THE__ROCK_4.jpg,AFRICAN_FIREFINCH_3.jpg,BLACK_SWAN_5.jpg,BALD_EAGLE_2.jpg,3,2,1,2,2,5,,,2,1,0.7998,0,5,5,5,1,,
,,,A8B41DKV45LO7,36,MALE,8,2023-01-18_13h27.36.574,perception_pilot,2022.2.4,Win32,8.072784223,,,,,,,,,,,,,right.png,right.png,left.png,up.png,right.png,,,,,1,6,,,3,0,0.9465,0,6,6,6,1,,
,,,A8B41DKV45LO7,36,MALE,8,2023-01-18_13h27.36.574,perception_pilot,2022.2.4,Win32,8.072784223,,,,,,,,,,,,,left.png,left.png,left.png,up.png,right.png,,,,,3,7,,,2,0,0.7571,0,7,7,7,1,,
,,,A8B41DKV45LO7,36,MALE,8,2023-01-18_13h27.36.574,perception_pilot,2022.2.4,Win32,8.072784223,,,,,,,,,,,,,RED_HEADED_WOODPECKER_5.jpg,COLLARED_ARACARI_1.jpg,GREAT_GRAY_OWL_5.jpg,BLACKBURNIAM_WARBLER_4.jpg,CRIMSON_CHAT_3.jpg,1,3,2,3,2,8,,,1,0,0.9271,0,8,8,8,1,,
,,,A8B41DKV45LO7,36,MALE,8,2023-01-18_13h27.36.574,perception_pilot,2022.2.4,Win32,8.072784223,,,,,,,,,,,,,STRIPPED_SWALLOW_1.jpg,EMPEROR_PENGUIN_5.jpg,MAGPIE_GOOSE_4.jpg,BRANDT_CORMARANT_3.jpg,GO_AWAY_BIRD_5.jpg,2,1,3,1,2,9,,,2,1,0.7358,0,9,9,9,1,,
,,,A8B41DKV45LO7,36,MALE,8,2023-01-18_13h27.36.574,perception_pilot,2022.2.4,Win32,8.072784223,,,,,,,,,,,,,left.png,left.png,right.png,left.png,up.png,,,,,1,10,,,3,0,0.6442,0,10,10,10,1,,
,,,A8B41DKV45LO7,36,MALE,8,2023-01-18_13h27.36.574,perception_pilot,2022.2.4,Win32,8.072784223,,,,,,,,,,,,,LARK_BUNTING_2.jpg,KING_VULTURE_3.jpg,CHARA_DE_COLLAR_4.jpg,EMU_3.jpg,CACTUS_WREN_3.jpg,2,1,3,2,1,11,,,2,0,0.7929,0,11,11,11,1,,
,,,A8B41DKV45LO7,36,MALE,8,2023-01-18_13h27.36.574,perception_pilot,2022.2.4,Win32,8.072784223,,,,,,,,,,,,,NORTHERN_JACANA_2.jpg,GREEN_BROADBILL_1.jpg,EMERALD_TANAGER_2.jpg,VULTURINE_GUINEAFOWL_5.jpg,RED_FACED_CORMORANT_1.jpg,1,2,3,1,1,12,,,1,1,0.5698,0,12,12,12,1,,
,,,A8B41DKV45LO7,36,MALE,8,2023-01-18_13h27.36.574,perception_pilot,2022.2.4,Win32,8.072784223,,,,,,,,,,,,,BROWN_THRASHER_3.jpg,BLACK_BAZA_4.jpg,DOUBLE_EYED_FIG_PARROT_3.jpg,CRESTED_KINGFISHER_3.jpg,OYSTER_CATCHER_4.jpg,1,3,2,3,2,13,,,3,0,0.7387,0,13,13,13,1,,
,,,A8B41DKV45LO7,36,MALE,8,2023-01-18_13h27.36.574,perception_pilot,2022.2.4,Win32,8.072784223,,,,,,,,,,,,,EASTERN_TOWEE_2.jpg,HYACINTH_MACAW_4.jpg,ANDEAN_GOOSE_3.jpg,NORTHERN_BEARDLESS_TYRANNULET_5.jpg,SANDHILL_CRANE_2.jpg,2,3,1,2,1,14,,,2,0,0.7983,0,14,14,14,1,,
,,,A8B41DKV45LO7,36,MALE,8,2023-01-18_13h27.36.574,perception_pilot,2022.2.4,Win32,8.072784223,,,,,,,,,,,,,FLAME_BOWERBIRD_3.jpg,QUETZAL_3.jpg,BROWN_THRASHER_4.jpg,INDIAN_BUSTARD_2.jpg,GOULDIAN_FINCH_1.jpg,2,1,3,3,3,15,,,1,0,0.9637,0,15,15,15,1,,
,,,A8B41DKV45LO7,36,MALE,8,2023-01-18_13h27.36.574,perception_pilot,2022.2.4,Win32,8.072784223,,,,,,,,,,,,,GOLDEN_CHEEKED_WARBLER_2.jpg,SPOONBILL_1.jpg,AMERICAN_FLAMINGO_3.jpg,WHITE_THROATED_BEE_EATER_1.jpg,RED_HEADED_DUCK_3.jpg,2,3,1,1,3,16,,,2,0,0.787,0,16,16,16,1,,
,,,A8B41DKV45LO7,36,MALE,8,2023-01-18_13h27.36.574,perception_pilot,2022.2.4,Win32,8.072784223,,,,,,,,,,,,,WHITE_CHEEKED_TURACO_5.jpg,SNOWY_EGRET_1.jpg,PYGMY_KINGFISHER_2.jpg,ORIENTAL_BAY_OWL_5.jpg,CHINESE_POND_HERON_1.jpg,3,2,1,2,2,17,,,3,0,1.0461,0,17,17,17,1,,
,,,A8B41DKV45LO7,36,MALE,8,2023-01-18_13h27.36.574,perception_pilot,2022.2.4,Win32,8.072784223,,,,,,,,,,,,,BREWERS_BLACKBIRD_3.jpg,CAPE_LONGCLAW_2.jpg,AFRICAN_OYSTER_CATCHER_2.jpg,PEACOCK_4.jpg,GOLDEN_CHEEKED_WARBLER_3.jpg,3,1,2,3,1,18,,,2,0,0.7361,0,18,18,18,1,,
,,,A8B41DKV45LO7,36,MALE,8,2023-01-18_13h27.36.574,perception_pilot,2022.2.4,Win32,8.072784223,,,,,,,,,,,,,NICOBAR_PIGEON_1.jpg,EASTERN_BLUEBIRD_3.jpg,LITTLE_AUK_1.jpg,MYNA_4.jpg,ROSY_FACED_LOVEBIRD_2.jpg,2,1,3,3,3,19,,,1,0,0.8078,0,19,19,19,1,,
,,,A8B41DKV45LO7,36,MALE,8,2023-01-18_13h27.36.574,perception_pilot,2022.2.4,Win32,8.072784223,,,,,,,,,,,,,MCKAYS_BUNTING_3.jpg,AMERICAN_GOLDFINCH_4.jpg,PALILA_5.jpg,IWI_2.jpg,EMU_4.jpg,3,2,1,3,1,20,,,2,0,1.3005,0,20,20,20,1,,
,,,A8B41DKV45LO7,36,MALE,8,2023-01-18_13h27.36.574,perception_pilot,2022.2.4,Win32,8.072784223,,,,,,,,,,,,,LESSER_ADJUTANT_4.jpg,RAINBOW_LORIKEET_5.jpg,ALTAMIRA_YELLOWTHROAT_5.jpg,CHATTERING_LORY_2.jpg,FAIRY_TERN_3.jpg,1,2,3,2,2,21,,,1,0,1.343,0,21,21,21,1,,
,,,A8B41DKV45LO7,36,MALE,8,2023-01-18_13h27.36.574,perception_pilot,2022.2.4,Win32,8.072784223,,,,,,,,,,,,,RUFOUS_KINGFISHER_1.jpg,HORNED_SUNGEM_4.jpg,GREEN_JAY_4.jpg,MAGPIE_GOOSE_3.jpg,BLACK_VENTED_SHEARWATER_2.jpg,3,2,1,3,1,22,,,3,0,1.0052,0,22,22,22,1,,
,,,A8B41DKV45LO7,36,MALE,8,2023-01-18_13h27.36.574,perception_pilot,2022.2.4,Win32,8.072784223,,,,,,,,,,,,,BROWN_NOODY_3.jpg,SPANGLED_COTINGA_4.jpg,COMMON_IORA_3.jpg,GUINEA_TURACO_5.jpg,KIWI_2.jpg,2,3,1,2,1,23,,,2,0,0.5615,0,23,23,23,1,,
,,,A8B41DKV45LO7,36,MALE,8,2023-01-18_13h27.36.574,perception_pilot,2022.2.4,Win32,8.072784223,,,,,,,,,,,,,PARUS_MAJOR_1.jpg,CALIFORNIA_GULL_2.jpg,COMMON_POORWILL_1.jpg,BLACK_SWAN_4.jpg,PINK_ROBIN_3.jpg,1,2,3,2,2,24,,,1,0,0.8394,0,24,24,24,1,,
,,,A8B41DKV45LO7,36,MALE,8,2023-01-18_13h27.36.574,perception_pilot,2022.2.4,Win32,8.072784223,,,,,,,,,,,,,KILLDEAR_2.jpg,CAATINGA_CACHOLOTE_4.jpg,ALEXANDRINE_PARAKEET_5.jpg,AZURE_TIT_5.jpg,CHATTERING_LORY_1.jpg,1,3,2,2,3,25,,,1,0,1.4263,0,25,25,25,1,,
,,,A8B41DKV45LO7,36,MALE,8,2023-01-18_13h27.36.574,perception_pilot,2022.2.4,Win32,8.072784223,,,,,,,,,,,,,left.png,left.png,right.png,up.png,left.png,,,,,1,26,,,2,0,0.6622,0,26,26,26,1,,
,,,A8B41DKV45LO7,36,MALE,8,2023-01-18_13h27.36.574,perception_pilot,2022.2.4,Win32,8.072784223,,,,,,,,,,,,,KAGU_5.jpg,IMPERIAL_SHAQ_2.jpg,ASHY_STORM_PETREL_1.jpg,EASTERN_MEADOWLARK_1.jpg,VICTORIA_CROWNED_PIGEON_5.jpg,2,1,3,3,3,27,,,3,1,0.9221,0,27,27,27,1,,
,,,A8B41DKV45LO7,36,MALE,8,2023-01-18_13h27.36.574,perception_pilot,2022.2.4,Win32,8.072784223,,,,,,,,,,,,,BARRED_PUFFBIRD_3.jpg,WHITE_CHEEKED_TURACO_2.jpg,CUBAN_TODY_3.jpg,NORTHERN_CARDINAL_5.jpg,VEERY_4.jpg,1,2,3,1,1,28,,,2,0,0.795,0,28,28,28,1,,
,,,A8B41DKV45LO7,36,MALE,8,2023-01-18_13h27.36.574,perception_pilot,2022.2.4,Win32,8.072784223,,,,,,,,,,,,,GYRFALCON_1.jpg,FAIRY_TERN_1.jpg,CINNAMON_ATTILA_2.jpg,ASHY_STORM_PETREL_2.jpg,YELLOW_HEADED_BLACKBIRD_3.jpg,2,1,3,3,3,29,,,1,0,0.9618,0,29,29,29,1,,
,,,A8B41DKV45LO7,36,MALE,8,2023-01-18_13h27.36.574,perception_pilot,2022.2.4,Win32,8.072784223,,,,,,,,,,,,,GILA_WOODPECKER_3.jpg,BLACK_SWAN_3.jpg,BLACK_VULTURE_3.jpg,EGYPTIAN_GOOSE_3.jpg,SNOWY_OWL_4.jpg,3,1,2,1,2,30,,,2,1,0.7238,0,30,30,30,1,,
,,,A8B41DKV45LO7,36,MALE,8,2023-01-18_13h27.36.574,perception_pilot,2022.2.4,Win32,8.072784223,,,,,,,,,,,,,AMERICAN_PIPIT_5.jpg,HEPATIC_TANAGER_5.jpg,AMERICAN_GOLDFINCH_5.jpg,EMU_2.jpg,GREEN_MAGPIE_1.jpg,3,1,2,3,1,31,,,3,0,0.7734,0,31,31,31,1,,
,,,A8B41DKV45LO7,36,MALE,8,2023-01-18_13h27.36.574,perception_pilot,2022.2.4,Win32,8.072784223,,,,,,,,,,,,,RUBY_THROATED_HUMMINGBIRD_2.jpg,APAPANE_4.jpg,GOLDEN_PARAKEET_2.jpg,DUSKY_ROBIN_5.jpg,SCARLET_MACAW_3.jpg,1,3,2,2,3,32,,,2,0,0.9796,0,32,32,32,1,,
,,,A8B41DKV45LO7,36,MALE,8,2023-01-18_13h27.36.574,perception_pilot,2022.2.4,Win32,8.072784223,,,,,,,,,,,,,VERMILION_FLYCATHER_3.jpg,RED_BEARDED_BEE_EATER_1.jpg,CROWNED_PIGEON_1.jpg,PARADISE_TANAGER_4.jpg,INDIAN_BUSTARD_1.jpg,2,3,1,3,2,33,,,1,0,0.5435,0,33,33,33,1,,
,,,A8B41DKV45LO7,36,MALE,8,2023-01-18_13h27.36.574,perception_pilot,2022.2.4,Win32,8.072784223,,,,,,,,,,,,,INDIGO_BUNTING_1.jpg,FRIGATE_4.jpg,SNOWY_PLOVER_1.jpg,DARWINS_FLYCATCHER_2.jpg,POMARINE_JAEGER_5.jpg,2,3,1,1,3,34,,,2,0,0.8079,0,34,34,34,1,,
,,,A8B41DKV45LO7,36,MALE,8,2023-01-18_13h27.36.574,perception_pilot,2022.2.4,Win32,8.072784223,,,,,,,,,,,,,PEACOCK_3.jpg,STRAWBERRY_FINCH_4.jpg,IBERIAN_MAGPIE_2.jpg,RED_FODY_5.jpg,ANIANIAU_2.jpg,3,2,1,2,2,35,,,1,0,0.675,0,35,35,35,1,,
,,,A8B41DKV45LO7,36,MALE,8,2023-01-18_13h27.36.574,perception_pilot,2022.2.4,Win32,8.072784223,,,,,,,,,,,,,IVORY_GULL_3.jpg,FLAME_TANAGER_3.jpg,CACTUS_WREN_1.jpg,SNOWY_EGRET_4.jpg,INDIGO_FLYCATCHER_2.jpg,2,3,1,2,1,36,,,2,0,0.6107,0,36,36,36,1,,
,,,A8B41DKV45LO7,36,MALE,8,2023-01-18_13h27.36.574,perception_pilot,2022.2.4,Win32,8.072784223,,,,,,,,,,,,,RUBY_THROATED_HUMMINGBIRD_1.jpg,EURASIAN_GOLDEN_ORIOLE_5.jpg,VULTURINE_GUINEAFOWL_4.jpg,BROWN_THRASHER_1.jpg,FRIGATE_1.jpg,2,1,3,1,2,37,,,1,0,1.3171,0,37,37,37,1,,
,,,A8B41DKV45LO7,36,MALE,8,2023-01-18_13h27.36.574,perception_pilot,2022.2.4,Win32,8.072784223,,,,,,,,,,,,,BALI_STARLING_1.jpg,IBERIAN_MAGPIE_1.jpg,GRANDALA_5.jpg,PURPLE_FINCH_2.jpg,CAPE_LONGCLAW_5.jpg,3,2,1,3,1,38,,,1,1,1.1478,0,38,38,38,1,,
,,,A8B41DKV45LO7,36,MALE,8,2023-01-18_13h27.36.574,perception_pilot,2022.2.4,Win32,8.072784223,,,,,,,,,,,,,HAWAIIAN_GOOSE_4.jpg,RED_BEARDED_BEE_EATER_3.jpg,HIMALAYAN_MONAL_2.jpg,DOUBLE_EYED_FIG_PARROT_1.jpg,WATTLED_LAPWING_3.jpg,2,1,3,1,2,39,,,2,1,0.6271,0,39,39,39,1,,
,,,A8B41DKV45LO7,36,MALE,8,2023-01-18_13h27.36.574,perception_pilot,2022.2.4,Win32,8.072784223,,,,,,,,,,,,,CERULEAN_WARBLER_1.jpg,ORIENTAL_BAY_OWL_1.jpg,AMERICAN_FLAMINGO_5.jpg,BANANAQUIT_1.jpg,DALMATIAN_PELICAN_5.jpg,2,3,1,1,3,40,,,3,1,0.7793,0,40,40,40,1,,
,,,A8B41DKV45LO7,36,MALE,8,2023-01-18_13h27.36.574,perception_pilot,2022.2.4,Win32,8.072784223,,,,,,,,,,,,,ASIAN_DOLLARD_BIRD_2.jpg,HAWAIIAN_GOOSE_1.jpg,ALBATROSS_2.jpg,VIOLET_GREEN_SWALLOW_4.jpg,MCKAYS_BUNTING_1.jpg,1,3,2,2,3,41,,,2,0,0.7767,0,41,41,41,1,,
,,,A8B41DKV45LO7,36,MALE,8,2023-01-18_13h27.36.574,perception_pilot,2022.2.4,Win32,8.072784223,,,,,,,,,,,,,MYNA_1.jpg,PARADISE_TANAGER_3.jpg,SANDHILL_CRANE_4.jpg,GREY_PLOVER_4.jpg,INDIGO_BUNTING_2.jpg,1,2,3,3,3,42,,,2,0,0.937,0,42,42,42,1,,
,,,A8B41DKV45LO7,36,MALE,8,2023-01-18_13h27.36.574,perception_pilot,2022.2.4,Win32,8.072784223,,,,,,,,,,,,,TASMANIAN_HEN_5.jpg,BLACKBURNIAM_WARBLER_3.jpg,COPPERY_TAILED_COUCAL_1.jpg,CREAM_COLORED_WOODPECKER_4.jpg,AFRICAN_EMERALD_CUCKOO_5.jpg,3,1,2,1,2,43,,,2,1,1.4683,0,43,43,43,1,,
,,,A8B41DKV45LO7,36,MALE,8,2023-01-18_13h27.36.574,perception_pilot,2022.2.4,Win32,8.072784223,,,,,,,,,,,,,INCA_TERN_4.jpg,SMITHS_LONGSPUR_5.jpg,BORNEAN_BRISTLEHEAD_5.jpg,ELLIOTS__PHEASANT_4.jpg,FASCIATED_WREN_4.jpg,3,1,2,2,3,44,,,3,1,1.5567,0,44,44,44,1,,
,,,A8B41DKV45LO7,36,MALE,8,2023-01-18_13h27.36.574,perception_pilot,2022.2.4,Win32,8.072784223,,,,,,,,,,,,,MAGPIE_GOOSE_5.jpg,DOUBLE_EYED_FIG_PARROT_5.jpg,OYSTER_CATCHER_3.jpg,MALAGASY_WHITE_EYE_1.jpg,HAMERKOP_1.jpg,3,1,2,1,2,45,,,1,0,0.9381,0,45,45,45,1,,
,,,A8B41DKV45LO7,36,MALE,8,2023-01-18_13h27.36.574,perception_pilot,2022.2.4,Win32,8.072784223,,,,,,,,,,,,,SHOEBILL_3.jpg,MALAGASY_WHITE_EYE_3.jpg,BALD_EAGLE_5.jpg,GILDED_FLICKER_5.jpg,EMERALD_TANAGER_3.jpg,3,2,1,1,3,46,,,2,0,0.5935,0,46,46,46,1,,
,,,A8B41DKV45LO7,36,MALE,8,2023-01-18_13h27.36.574,perception_pilot,2022.2.4,Win32,8.072784223,,,,,,,,,,,,,LESSER_ADJUTANT_5.jpg,AMERICAN_GOLDFINCH_1.jpg,GAMBELS_QUAIL_1.jpg,MALAGASY_WHITE_EYE_2.jpg,RED_HEADED_WOODPECKER_1.jpg,2,1,3,1,2,47,,,2,1,2.5362,0,47,47,47,1,,
,,,A8B41DKV45LO7,36,MALE,8,2023-01-18_13h27.36.574,perception_pilot,2022.2.4,Win32,8.072784223,,,,,,,,,,,,,ALPINE_CHOUGH_4.jpg,BOBOLINK_3.jpg,UMBRELLA_BIRD_1.jpg,SNOWY_EGRET_2.jpg,EUROPEAN_GOLDFINCH_3.jpg,3,1,2,3,1,48,,,2,0,0.1965,0,48,48,48,1,,
,,,A8B41DKV45LO7,36,MALE,8,2023-01-18_13h27.36.574,perception_pilot,2022.2.4,Win32,8.072784223,,,,,,,,,,,,,CASPIAN_TERN_1.jpg,COMMON_LOON_2.jpg,MASKED_BOOBY_1.jpg,EUROPEAN_GOLDFINCH_4.jpg,BRANDT_CORMARANT_4.jpg,3,2,1,3,1,49,,,2,0,1.8888,0,49,49,49,1,,
,,,A8B41DKV45LO7,36,MALE,8,2023-01-18_13h27.36.574,perception_pilot,2022.2.4,Win32,8.072784223,,,,,,,,,,,,,GREY_PLOVER_1.jpg,AMETHYST_WOODSTAR_4.jpg,GOULDIAN_FINCH_4.jpg,BURCHELLS_COURSER_5.jpg,HYACINTH_MACAW_3.jpg,2,3,1,3,2,50,,,3,0,0.7337,0,50,50,50,1,,
,,,A8B41DKV45LO7,36,MALE,8,2023-01-18_13h27.36.574,perception_pilot,2022.2.4,Win32,8.072784223,,,,,,,,,,,,,ARARIPE_MANAKIN_4.jpg,BLACK_VULTURE_1.jpg,UMBRELLA_BIRD_5.jpg,KIWI_3.jpg,BORNEAN_LEAFBIRD_3.jpg,2,1,3,2,1,51,,,1,1,2.0443,0,51,51,51,1,,
,,,A8B41DKV45LO7,36,MALE,8,2023-01-18_13h27.36.574,perception_pilot,2022.2.4,Win32,8.072784223,,,,,,,,,,,,,LITTLE_AUK_5.jpg,SANDHILL_CRANE_3.jpg,ORANGE_BRESTED_BUNTING_3.jpg,SCARLET_IBIS_1.jpg,BEARDED_BELLBIRD_1.jpg,2,1,3,1,2,52,,,3,0,0.5469,0,52,52,52,1,,
,,,A8B41DKV45LO7,36,MALE,8,2023-01-18_13h27.36.574,perception_pilot,2022.2.4,Win32,8.072784223,,,,,,,,,,,,,SPLENDID_WREN_1.jpg,DOUBLE_BRESTED_CORMARANT_1.jpg,BLACK_SWAN_2.jpg,CUBAN_TODY_4.jpg,PARAKETT__AKULET_3.jpg,2,3,1,2,1,53,,,1,1,1.0849,0,53,53,53,1,,
,,,A8B41DKV45LO7,36,MALE,8,2023-01-18_13h27.36.574,perception_pilot,2022.2.4,Win32,8.072784223,,,,,,,,,,,,,MALACHITE_KINGFISHER_2.jpg,GREEN_BROADBILL_5.jpg,JAVA_SPARROW_5.jpg,SKUA_3.jpg,INCA_TERN_2.jpg,3,1,2,3,1,54,,,1,1,0.743,0,54,54,54,1,,
,,,A8B41DKV45LO7,36,MALE,8,2023-01-18_13h27.36.574,perception_pilot,2022.2.4,Win32,8.072784223,,,,,,,,,,,,,CRESTED_CARACARA_4.jpg,TOUCHAN_4.jpg,FAIRY_PENGUIN_5.jpg,CREAM_COLORED_WOODPECKER_1.jpg,BLUE_DACNIS_4.jpg,1,3,2,3,2,55,,,1,0,2.0923,0,55,55,55,1,,
,,,A8B41DKV45LO7,36,MALE,8,2023-01-18_13h27.36.574,perception_pilot,2022.2.4,Win32,8.072784223,,,,,,,,,,,,,CHUKAR_PARTRIDGE_5.jpg,BLACK_THROATED_BUSHTIT_1.jpg,PUFFIN_3.jpg,OSTRICH_3.jpg,RAZORBILL_1.jpg,3,1,2,3,1,56,,,1,1,0.5226,0,56,56,56,1,,
,,,A8B41DKV45LO7,36,MALE,8,2023-01-18_13h27.36.574,perception_pilot,2022.2.4,Win32,8.072784223,,,,,,,,,,,,,PYGMY_KINGFISHER_5.jpg,GRANDALA_2.jpg,MIKADO__PHEASANT_5.jpg,NORTHERN_PARULA_5.jpg,GREAT_POTOO_3.jpg,1,3,2,1,1,57,,,1,1,2.5468,0,57,57,57,1,,
,,,A8B41DKV45LO7,36,MALE,8,2023-01-18_13h27.36.574,perception_pilot,2022.2.4,Win32,8.072784223,,,,,,,,,,,,,RUBY_THROATED_HUMMINGBIRD_3.jpg,MYNA_5.jpg,GOLDEN_EAGLE_2.jpg,NORTHERN_SHOVELER_1.jpg,WHITE_CHEEKED_TURACO_4.jpg,2,3,1,2,1,58,,,1,1,0.1944,0,58,58,58,1,,
,,,A8B41DKV45LO7,36,MALE,8,2023-01-18_13h27.36.574,perception_pilot,2022.2.4,Win32,8.072784223,,,,,,,,,,,,,SKUA_4.jpg,SNOWY_EGRET_5.jpg,PARUS_MAJOR_2.jpg,BLACK-NECKED_GREBE_3.jpg,ROADRUNNER_5.jpg,2,1,3,1,2,59,,,1,0,1.3859,0,59,59,59,1,,
,,,A8B41DKV45LO7,36,MALE,8,2023-01-18_13h27.36.574,perception_pilot,2022.2.4,Win32,8.072784223,,,,,,,,,,,,,ECUADORIAN_HILLSTAR_5.jpg,SCARLET_IBIS_2.jpg,CRIMSON_SUNBIRD_5.jpg,AMERICAN_FLAMINGO_1.jpg,BOBOLINK_5.jpg,3,1,2,1,2,60,,,3,0,0.6852,0,60,60,60,1,,
,,,A8B41DKV45LO7,36,MALE,8,2023-01-18_13h27.36.574,perception_pilot,2022.2.4,Win32,8.072784223,,,,,,,,,,,,,right.png,right.png,right.png,up.png,left.png,,,,,3,61,,,3,1,3.6029,0,61,61,61,1,,
,,,A8B41DKV45LO7,36,MALE,8,2023-01-18_13h27.36.574,perception_pilot,2022.2.4,Win32,8.072784223,,,,,,,,,,,,,AFRICAN_PIED_HORNBILL_5.jpg,ALEXANDRINE_PARAKEET_1.jpg,CAPUCHINBIRD_2.jpg,KIWI_4.jpg,INDIAN_PITTA_2.jpg,3,1,2,2,3,62,,,2,0,0.7072,0,62,62,62,1,,
,,,A8B41DKV45LO7,36,MALE,8,2023-01-18_13h27.36.574,perception_pilot,2022.2.4,Win32,8.072784223,,,,,,,,,,,,,IVORY_GULL_1.jpg,WILSONS_BIRD_OF_PARADISE_4.jpg,OCELLATED_TURKEY_2.jpg,FAIRY_TERN_4.jpg,EASTERN_GOLDEN_WEAVER_5.jpg,1,3,2,1,1,63,,,3,0,0.6959,0,63,63,63,1,,
,,,A8B41DKV45LO7,36,MALE,8,2023-01-18_13h27.36.574,perception_pilot,2022.2.4,Win32,8.072784223,,,,,,,,,,,,,NORTHERN_JACANA_3.jpg,BAR-TAILED_GODWIT_3.jpg,SHORT_BILLED_DOWITCHER_5.jpg,REGENT_BOWERBIRD_5.jpg,BANANAQUIT_3.jpg,3,2,1,3,1,64,,,3,0,0.7927,0,64,64,64,1,,
,,,A8B41DKV45LO7,36,MALE,8,2023-01-18_13h27.36.574,perception_pilot,2022.2.4,Win32,8.072784223,,,,,,,,,,,,,,,,,,,,,,,,,,,,,,,,,,space,8.3009
