button.numClicks,button.timesOn,button.timesOff,workID,Age,Gender,Hours slept (last night),date,expName,psychopyVersion,OS,frameRate,key_resp_13.keys,key_resp_13.rt,key_resp_14.keys,key_resp_14.rt,key_resp_3.keys,key_resp_3.corr,key_resp_3.rt,demo_loop.thisRepN,demo_loop.thisTrialN,demo_loop.thisN,demo_loop.thisIndex,demo_loop.ran,target_image,target_match,option1,option2,option3,option1_layer,option2_layer,option3_layer,match_layer,correct_answer,trial_num,key_resp_15.keys,key_resp_15.rt,key_resp.keys,key_resp.corr,key_resp.rt,trials.thisRepN,trials.thisTrialN,trials.thisN,trials.thisIndex,trials.ran,key_resp_end_2.keys,key_resp_end_2.rt
1,[7.037900000095362],[7.037900000095362],ADNZW2B8WEZ0Z,25,male,8,2023-01-18_13h14.25.028,perception_pilot,2022.2.4,Win32,11.09471559,,,,,,,,,,,,,,,,,,,,,,,,,,,,,,,,,,,
,,,ADNZW2B8WEZ0Z,25,male,8,2023-01-18_13h14.25.028,perception_pilot,2022.2.4,Win32,11.09471559,space,9.8635,,,,,,,,,,,,,,,,,,,,,,,,,,,,,,,,,
,,,ADNZW2B8WEZ0Z,25,male,8,2023-01-18_13h14.25.028,perception_pilot,2022.2.4,Win32,11.09471559,,,space,31.2278,,,,,,,,,,,,,,,,,,,,,,,,,,,,,,,
,,,ADNZW2B8WEZ0Z,25,male,8,2023-01-18_13h14.25.028,perception_pilot,2022.2.4,Win32,11.09471559,,,,,,,,,,,,,,,,,,,,,,,,,,,,,,,,,,,
,,,ADNZW2B8WEZ0Z,25,male,8,2023-01-18_13h14.25.028,perception_pilot,2022.2.4,Win32,11.09471559,,,,,3,1,37.6406,0,0,0,0,1,SPLENDID_WREN_1.jpg,PARAKETT__AKULET_3.jpg,DOUBLE_BRESTED_CORMARANT_1.jpg,CUBAN_TODY_4.jpg,BLACK_SWAN_1.jpg,2,3,1,1,3,0,,,,,,,,,,,,
,,,ADNZW2B8WEZ0Z,25,male,8,2023-01-18_13h14.25.028,perception_pilot,2022.2.4,Win32,11.09471559,,,,,2,1,9.9434,0,1,1,1,1,DOUBLE_BRESTED_CORMARANT_5.jpg,GILDED_FLICKER_2.jpg,EURASIAN_MAGPIE_4.jpg,SNOWY_OWL_3.jpg,CHINESE_POND_HERON_2.jpg,2,1,3,1,2,1,,,,,,,,,,,,
,,,ADNZW2B8WEZ0Z,25,male,8,2023-01-18_13h14.25.028,perception_pilot,2022.2.4,Win32,11.09471559,,,,,3,1,13.6896,0,2,2,2,1,ARARIPE_MANAKIN_4.jpg,BORNEAN_LEAFBIRD_3.jpg,KIWI_3.jpg,BLACK_VULTURE_1.jpg,GUINEA_TURACO_3.jpg,1,2,3,3,3,2,,,,,,,,,,,,
,,,ADNZW2B8WEZ0Z,25,male,8,2023-01-18_13h14.25.028,perception_pilot,2022.2.4,Win32,11.09471559,,,,,1,1,13.6814,0,3,3,3,1,NICOBAR_PIGEON_1.jpg,LITTLE_AUK_1.jpg,GREY_PLOVER_5.jpg,EASTERN_BLUEBIRD_3.jpg,MYNA_4.jpg,2,3,1,2,1,3,,,,,,,,,,,,
,,,ADNZW2B8WEZ0Z,25,male,8,2023-01-18_13h14.25.028,perception_pilot,2022.2.4,Win32,11.09471559,,,,,3,1,16.1222,0,4,4,4,1,left.png,left.png,left.png,up.png,right.png,,,,,3,4,,,,,,,,,,,,
,,,ADNZW2B8WEZ0Z,25,male,8,2023-01-18_13h14.25.028,perception_pilot,2022.2.4,Win32,11.09471559,,,,,3,1,13.1218,0,5,5,5,1,INCA_TERN_4.jpg,BORNEAN_BRISTLEHEAD_5.jpg,SMITHS_LONGSPUR_5.jpg,ELLIOTS__PHEASANT_4.jpg,WHITE_NECKED_RAVEN_4.jpg,2,1,3,3,3,5,,,,,,,,,,,,
,,,ADNZW2B8WEZ0Z,25,male,8,2023-01-18_13h14.25.028,perception_pilot,2022.2.4,Win32,11.09471559,,,,,3,1,3.6425,0,6,6,6,1,ASIAN_DOLLARD_BIRD_2.jpg,VIOLET_GREEN_SWALLOW_4.jpg,ALBATROSS_2.jpg,HAWAIIAN_GOOSE_1.jpg,VERMILION_FLYCATHER_1.jpg,1,2,3,3,3,6,,,,,,,,,,,,
,,,ADNZW2B8WEZ0Z,25,male,8,2023-01-18_13h14.25.028,perception_pilot,2022.2.4,Win32,11.09471559,,,,,3,1,5.3029,0,7,7,7,1,RUBY_THROATED_HUMMINGBIRD_2.jpg,APAPANE_4.jpg,DUSKY_ROBIN_5.jpg,GOLDEN_PARAKEET_2.jpg,SCARLET_MACAW_3.jpg,3,1,2,2,3,7,,,,,,,,,,,,
,,,ADNZW2B8WEZ0Z,25,male,8,2023-01-18_13h14.25.028,perception_pilot,2022.2.4,Win32,11.09471559,,,,,1,1,4.1112,0,8,8,8,1,GREY_PLOVER_1.jpg,HYACINTH_MACAW_3.jpg,TURKEY_VULTURE_1.jpg,AMETHYST_WOODSTAR_4.jpg,GOULDIAN_FINCH_4.jpg,1,3,2,1,1,8,,,,,,,,,,,,
,,,ADNZW2B8WEZ0Z,25,male,8,2023-01-18_13h14.25.028,perception_pilot,2022.2.4,Win32,11.09471559,,,,,3,1,6.9708,0,9,9,9,1,KAGU_5.jpg,ASHY_STORM_PETREL_1.jpg,EASTERN_MEADOWLARK_1.jpg,IMPERIAL_SHAQ_2.jpg,MANDRIN_DUCK_4.jpg,1,3,2,2,3,9,,,,,,,,,,,,
,,,ADNZW2B8WEZ0Z,25,male,8,2023-01-18_13h14.25.028,perception_pilot,2022.2.4,Win32,11.09471559,,,,,,,,,,,,,,,,,,,,,,,,space,1.9763,,,,,,,,,,
,,,ADNZW2B8WEZ0Z,25,male,8,2023-01-18_13h14.25.028,perception_pilot,2022.2.4,Win32,11.09471559,,,,,,,,,,,,,WHITE_CHEEKED_TURACO_5.jpg,SNOWY_EGRET_1.jpg,PYGMY_KINGFISHER_2.jpg,CHINESE_POND_HERON_1.jpg,ORIENTAL_BAY_OWL_5.jpg,3,1,2,2,3,0,,,1,0,18.8422,0,0,0,0,1,,
,,,ADNZW2B8WEZ0Z,25,male,8,2023-01-18_13h14.25.028,perception_pilot,2022.2.4,Win32,11.09471559,,,,,,,,,,,,,INLAND_DOTTEREL_4.jpg,NICOBAR_PIGEON_4.jpg,CRESTED_KINGFISHER_1.jpg,JANDAYA_PARAKEET_5.jpg,COCK_OF_THE__ROCK_5.jpg,3,1,2,2,3,1,,,2,0,23.0122,0,1,1,1,1,,
,,,ADNZW2B8WEZ0Z,25,male,8,2023-01-18_13h14.25.028,perception_pilot,2022.2.4,Win32,11.09471559,,,,,,,,,,,,,EASTERN_TOWEE_2.jpg,NORTHERN_BEARDLESS_TYRANNULET_5.jpg,HYACINTH_MACAW_4.jpg,GOLDEN_CHEEKED_WARBLER_1.jpg,SANDHILL_CRANE_2.jpg,2,3,1,3,2,2,,,2,1,3.8644,0,2,2,2,1,,
,,,ADNZW2B8WEZ0Z,25,male,8,2023-01-18_13h14.25.028,perception_pilot,2022.2.4,Win32,11.09471559,,,,,,,,,,,,,CERULEAN_WARBLER_1.jpg,AMERICAN_FLAMINGO_5.jpg,COCK_OF_THE__ROCK_2.jpg,BANANAQUIT_1.jpg,ORIENTAL_BAY_OWL_1.jpg,2,3,1,2,1,3,,,2,0,11.7769,0,3,3,3,1,,
,,,ADNZW2B8WEZ0Z,25,male,8,2023-01-18_13h14.25.028,perception_pilot,2022.2.4,Win32,11.09471559,,,,,,,,,,,,,LARK_BUNTING_2.jpg,KING_VULTURE_3.jpg,EMU_3.jpg,CACTUS_WREN_3.jpg,CHARA_DE_COLLAR_4.jpg,1,3,2,2,3,4,,,3,1,13.1828,0,4,4,4,1,,
,,,ADNZW2B8WEZ0Z,25,male,8,2023-01-18_13h14.25.028,perception_pilot,2022.2.4,Win32,11.09471559,,,,,,,,,,,,,PEACOCK_3.jpg,ANIANIAU_2.jpg,IBERIAN_MAGPIE_2.jpg,STRAWBERRY_FINCH_4.jpg,ANDEAN_SISKIN_5.jpg,3,2,1,1,3,5,,,3,1,2.5369,0,5,5,5,1,,
,,,ADNZW2B8WEZ0Z,25,male,8,2023-01-18_13h14.25.028,perception_pilot,2022.2.4,Win32,11.09471559,,,,,,,,,,,,,SKUA_4.jpg,PARUS_MAJOR_2.jpg,PURPLE_FINCH_4.jpg,SNOWY_EGRET_5.jpg,ROADRUNNER_5.jpg,2,1,3,2,1,6,,,1,1,5.2809,0,6,6,6,1,,
,,,ADNZW2B8WEZ0Z,25,male,8,2023-01-18_13h14.25.028,perception_pilot,2022.2.4,Win32,11.09471559,,,,,,,,,,,,,BALI_STARLING_1.jpg,CAPE_LONGCLAW_5.jpg,IBERIAN_MAGPIE_1.jpg,PURPLE_FINCH_2.jpg,OSTRICH_5.jpg,3,2,1,1,3,7,,,2,0,12.6979,0,7,7,7,1,,
,,,ADNZW2B8WEZ0Z,25,male,8,2023-01-18_13h14.25.028,perception_pilot,2022.2.4,Win32,11.09471559,,,,,,,,,,,,,BREWERS_BLACKBIRD_3.jpg,CAPE_LONGCLAW_2.jpg,AFRICAN_OYSTER_CATCHER_2.jpg,PEACOCK_4.jpg,GOLDEN_CHEEKED_WARBLER_3.jpg,3,1,2,3,1,8,,,1,1,5.6265,0,8,8,8,1,,
,,,ADNZW2B8WEZ0Z,25,male,8,2023-01-18_13h14.25.028,perception_pilot,2022.2.4,Win32,11.09471559,,,,,,,,,,,,,GOLDEN_CHLOROPHONIA_5.jpg,COMMON_HOUSE_MARTIN_4.jpg,INLAND_DOTTEREL_5.jpg,ROADRUNNER_2.jpg,VERMILION_FLYCATHER_5.jpg,2,1,3,2,1,9,,,1,1,3.3131,0,9,9,9,1,,
,,,ADNZW2B8WEZ0Z,25,male,8,2023-01-18_13h14.25.028,perception_pilot,2022.2.4,Win32,11.09471559,,,,,,,,,,,,,GYRFALCON_1.jpg,ASHY_STORM_PETREL_2.jpg,GREY_PLOVER_3.jpg,FAIRY_TERN_1.jpg,CINNAMON_ATTILA_2.jpg,1,3,2,1,1,10,,,1,1,7.8236,0,10,10,10,1,,
,,,ADNZW2B8WEZ0Z,25,male,8,2023-01-18_13h14.25.028,perception_pilot,2022.2.4,Win32,11.09471559,,,,,,,,,,,,,right.png,right.png,right.png,left.png,up.png,,,,,2,11,,,2,1,4.1389,0,11,11,11,1,,
,,,ADNZW2B8WEZ0Z,25,male,8,2023-01-18_13h14.25.028,perception_pilot,2022.2.4,Win32,11.09471559,,,,,,,,,,,,,ASIAN_CRESTED_IBIS_4.jpg,CANARY_2.jpg,OYSTER_CATCHER_2.jpg,IVORY_GULL_2.jpg,GREAT_JACAMAR_4.jpg,2,3,1,1,3,12,,,1,0,2.5395,0,12,12,12,1,,
,,,ADNZW2B8WEZ0Z,25,male,8,2023-01-18_13h14.25.028,perception_pilot,2022.2.4,Win32,11.09471559,,,,,,,,,,,,,LITTLE_AUK_5.jpg,ORANGE_BRESTED_BUNTING_3.jpg,LILAC_ROLLER_5.jpg,SANDHILL_CRANE_3.jpg,BEARDED_BELLBIRD_1.jpg,2,1,3,2,1,13,,,3,0,9.796,0,13,13,13,1,,
,,,ADNZW2B8WEZ0Z,25,male,8,2023-01-18_13h14.25.028,perception_pilot,2022.2.4,Win32,11.09471559,,,,,,,,,,,,,right.png,right.png,right.png,left.png,up.png,,,,,2,14,,,2,1,2.3719,0,14,14,14,1,,
,,,ADNZW2B8WEZ0Z,25,male,8,2023-01-18_13h14.25.028,perception_pilot,2022.2.4,Win32,11.09471559,,,,,,,,,,,,,VERMILION_FLYCATHER_3.jpg,CROWNED_PIGEON_1.jpg,LITTLE_AUK_4.jpg,INDIAN_BUSTARD_1.jpg,RED_BEARDED_BEE_EATER_1.jpg,2,1,3,2,1,15,,,1,1,113.0546,0,15,15,15,1,,
,,,ADNZW2B8WEZ0Z,25,male,8,2023-01-18_13h14.25.028,perception_pilot,2022.2.4,Win32,11.09471559,,,,,,,,,,,,,RED_FACED_WARBLER_1.jpg,BLACK_VENTED_SHEARWATER_4.jpg,CAPE_GLOSSY_STARLING_2.jpg,COMMON_LOON_4.jpg,EMU_5.jpg,3,2,1,2,2,16,,,3,0,2.7436,0,16,16,16,1,,
,,,ADNZW2B8WEZ0Z,25,male,8,2023-01-18_13h14.25.028,perception_pilot,2022.2.4,Win32,11.09471559,,,,,,,,,,,,,CRESTED_NUTHATCH_2.jpg,SCARLET_IBIS_3.jpg,CANARY_1.jpg,DOUBLE_BRESTED_CORMARANT_4.jpg,AFRICAN_FIREFINCH_1.jpg,3,1,2,1,2,17,,,3,0,4.6847,0,17,17,17,1,,
,,,ADNZW2B8WEZ0Z,25,male,8,2023-01-18_13h14.25.028,perception_pilot,2022.2.4,Win32,11.09471559,,,,,,,,,,,,,PARUS_MAJOR_1.jpg,PINK_ROBIN_3.jpg,FAIRY_BLUEBIRD_5.jpg,COMMON_POORWILL_1.jpg,CALIFORNIA_GULL_2.jpg,3,1,2,3,1,18,,,3,0,5.0884,0,18,18,18,1,,
,,,ADNZW2B8WEZ0Z,25,male,8,2023-01-18_13h14.25.028,perception_pilot,2022.2.4,Win32,11.09471559,,,,,,,,,,,,,KILLDEAR_2.jpg,CAATINGA_CACHOLOTE_4.jpg,ALEXANDRINE_PARAKEET_5.jpg,AZURE_TIT_5.jpg,CHATTERING_LORY_1.jpg,1,3,2,2,3,19,,,2,0,112.65,0,19,19,19,1,,
,,,ADNZW2B8WEZ0Z,25,male,8,2023-01-18_13h14.25.028,perception_pilot,2022.2.4,Win32,11.09471559,,,,,,,,,,,,,SCARLET_TANAGER_2.jpg,BORNEAN_LEAFBIRD_1.jpg,BLONDE_CRESTED_WOODPECKER_3.jpg,CARMINE_BEE-EATER_1.jpg,LITTLE_AUK_3.jpg,3,1,2,3,1,20,,,2,0,1.736,0,20,20,20,1,,
,,,ADNZW2B8WEZ0Z,25,male,8,2023-01-18_13h14.25.028,perception_pilot,2022.2.4,Win32,11.09471559,,,,,,,,,,,,,left.png,left.png,up.png,right.png,left.png,,,,,2,21,,,2,1,2.3632,0,21,21,21,1,,
,,,ADNZW2B8WEZ0Z,25,male,8,2023-01-18_13h14.25.028,perception_pilot,2022.2.4,Win32,11.09471559,,,,,,,,,,,,,MALACHITE_KINGFISHER_2.jpg,GREEN_BROADBILL_5.jpg,INCA_TERN_2.jpg,SKUA_3.jpg,JAVA_SPARROW_5.jpg,2,1,3,3,3,22,,,3,1,6.6677,0,22,22,22,1,,
,,,ADNZW2B8WEZ0Z,25,male,8,2023-01-18_13h14.25.028,perception_pilot,2022.2.4,Win32,11.09471559,,,,,,,,,,,,,RUBY_THROATED_HUMMINGBIRD_3.jpg,NORTHERN_SHOVELER_1.jpg,MYNA_5.jpg,WHITE_CHEEKED_TURACO_4.jpg,WALL_CREAPER_3.jpg,2,1,3,3,3,23,,,1,0,2.8956,0,23,23,23,1,,
,,,ADNZW2B8WEZ0Z,25,male,8,2023-01-18_13h14.25.028,perception_pilot,2022.2.4,Win32,11.09471559,,,,,,,,,,,,,AMERICAN_PIPIT_5.jpg,GREEN_MAGPIE_1.jpg,LOGGERHEAD_SHRIKE_4.jpg,HEPATIC_TANAGER_5.jpg,EMU_2.jpg,2,3,1,2,1,24,,,1,1,2.0277,0,24,24,24,1,,
,,,ADNZW2B8WEZ0Z,25,male,8,2023-01-18_13h14.25.028,perception_pilot,2022.2.4,Win32,11.09471559,,,,,,,,,,,,,MCKAYS_BUNTING_3.jpg,EMU_4.jpg,AMERICAN_GOLDFINCH_4.jpg,DEMOISELLE_CRANE_3.jpg,IWI_2.jpg,3,1,2,1,2,25,,,2,1,2.2199,0,25,25,25,1,,
,,,ADNZW2B8WEZ0Z,25,male,8,2023-01-18_13h14.25.028,perception_pilot,2022.2.4,Win32,11.09471559,,,,,,,,,,,,,GOLDEN_CHEEKED_WARBLER_2.jpg,WHITE_THROATED_BEE_EATER_1.jpg,DARJEELING_WOODPECKER_1.jpg,SPOONBILL_1.jpg,AMERICAN_FLAMINGO_3.jpg,3,1,2,3,1,26,,,1,1,3.207,0,26,26,26,1,,
,,,ADNZW2B8WEZ0Z,25,male,8,2023-01-18_13h14.25.028,perception_pilot,2022.2.4,Win32,11.09471559,,,,,,,,,,,,,STRIPPED_SWALLOW_1.jpg,GO_AWAY_BIRD_5.jpg,MAGPIE_GOOSE_4.jpg,EMPEROR_PENGUIN_5.jpg,WHITE_THROATED_BEE_EATER_5.jpg,2,1,3,3,3,27,,,3,1,16.7328,0,27,27,27,1,,
,,,ADNZW2B8WEZ0Z,25,male,8,2023-01-18_13h14.25.028,perception_pilot,2022.2.4,Win32,11.09471559,,,,,,,,,,,,,ECUADORIAN_HILLSTAR_5.jpg,SCARLET_IBIS_2.jpg,CRIMSON_SUNBIRD_5.jpg,BOBOLINK_5.jpg,AMERICAN_FLAMINGO_1.jpg,3,2,1,1,3,28,,,3,1,1.7389,0,28,28,28,1,,
,,,ADNZW2B8WEZ0Z,25,male,8,2023-01-18_13h14.25.028,perception_pilot,2022.2.4,Win32,11.09471559,,,,,,,,,,,,,ALPINE_CHOUGH_4.jpg,BOBOLINK_3.jpg,UMBRELLA_BIRD_1.jpg,EUROPEAN_GOLDFINCH_3.jpg,SNOWY_EGRET_2.jpg,3,2,1,3,1,29,,,1,1,3.6525,0,29,29,29,1,,
,,,ADNZW2B8WEZ0Z,25,male,8,2023-01-18_13h14.25.028,perception_pilot,2022.2.4,Win32,11.09471559,,,,,,,,,,,,,GILA_WOODPECKER_3.jpg,BLACK_VULTURE_3.jpg,BLACK_SWAN_3.jpg,SNOWY_OWL_4.jpg,AZURE_TANAGER_1.jpg,1,2,3,3,3,30,,,2,0,2.1154,0,30,30,30,1,,
,,,ADNZW2B8WEZ0Z,25,male,8,2023-01-18_13h14.25.028,perception_pilot,2022.2.4,Win32,11.09471559,,,,,,,,,,,,,BARRED_PUFFBIRD_3.jpg,NORTHERN_CARDINAL_5.jpg,VEERY_4.jpg,WHITE_CHEEKED_TURACO_2.jpg,CAPPED_HERON_5.jpg,3,1,2,2,3,31,,,1,0,4.3242,0,31,31,31,1,,
,,,ADNZW2B8WEZ0Z,25,male,8,2023-01-18_13h14.25.028,perception_pilot,2022.2.4,Win32,11.09471559,,,,,,,,,,,,,CHUKAR_PARTRIDGE_5.jpg,OSTRICH_3.jpg,RAZORBILL_1.jpg,BLACK_THROATED_BUSHTIT_1.jpg,EMU_1.jpg,2,3,1,1,3,32,,,3,1,2.5227,0,32,32,32,1,,
,,,ADNZW2B8WEZ0Z,25,male,8,2023-01-18_13h14.25.028,perception_pilot,2022.2.4,Win32,11.09471559,,,,,,,,,,,,,FLAME_BOWERBIRD_3.jpg,INDIAN_BUSTARD_2.jpg,BROWN_THRASHER_4.jpg,QUETZAL_3.jpg,SPOON_BILED_SANDPIPER_5.jpg,2,3,1,1,3,33,,,2,0,3.0816,0,33,33,33,1,,
,,,ADNZW2B8WEZ0Z,25,male,8,2023-01-18_13h14.25.028,perception_pilot,2022.2.4,Win32,11.09471559,,,,,,,,,,,,,HAWAIIAN_GOOSE_4.jpg,RED_BEARDED_BEE_EATER_3.jpg,WATTLED_LAPWING_3.jpg,DOUBLE_EYED_FIG_PARROT_1.jpg,HIMALAYAN_MONAL_2.jpg,3,1,2,1,2,34,,,2,1,3.4387,0,34,34,34,1,,
,,,ADNZW2B8WEZ0Z,25,male,8,2023-01-18_13h14.25.028,perception_pilot,2022.2.4,Win32,11.09471559,,,,,,,,,,,,,NORTHERN_GANNET_2.jpg,PAINTED_BUNTING_5.jpg,STRAWBERRY_FINCH_1.jpg,MASKED_BOOBY_5.jpg,EASTERN_TOWEE_1.jpg,2,3,1,1,3,35,,,2,0,3.47,0,35,35,35,1,,
,,,ADNZW2B8WEZ0Z,25,male,8,2023-01-18_13h14.25.028,perception_pilot,2022.2.4,Win32,11.09471559,,,,,,,,,,,,,TREE_SWALLOW_4.jpg,ROBIN_3.jpg,RED_FODY_3.jpg,RED_HEADED_DUCK_5.jpg,CALIFORNIA_GULL_1.jpg,3,1,2,2,3,36,,,1,0,2.8728,0,36,36,36,1,,
,,,ADNZW2B8WEZ0Z,25,male,8,2023-01-18_13h14.25.028,perception_pilot,2022.2.4,Win32,11.09471559,,,,,,,,,,,,,TASMANIAN_HEN_5.jpg,COPPERY_TAILED_COUCAL_1.jpg,AUCKLAND_SHAQ_2.jpg,AFRICAN_EMERALD_CUCKOO_5.jpg,BLACKBURNIAM_WARBLER_3.jpg,3,2,1,3,1,37,,,1,1,8.3224,0,37,37,37,1,,
,,,ADNZW2B8WEZ0Z,25,male,8,2023-01-18_13h14.25.028,perception_pilot,2022.2.4,Win32,11.09471559,,,,,,,,,,,,,CASSOWARY_1.jpg,ROSY_FACED_LOVEBIRD_4.jpg,CEDAR_WAXWING_4.jpg,SCARLET_MACAW_1.jpg,DEMOISELLE_CRANE_1.jpg,1,2,3,1,1,38,,,2,0,2.0155,0,38,38,38,1,,
,,,ADNZW2B8WEZ0Z,25,male,8,2023-01-18_13h14.25.028,perception_pilot,2022.2.4,Win32,11.09471559,,,,,,,,,,,,,SHOEBILL_3.jpg,GILDED_FLICKER_5.jpg,IWI_1.jpg,MALAGASY_WHITE_EYE_3.jpg,BALD_EAGLE_5.jpg,2,1,3,2,1,39,,,1,1,3.8938,0,39,39,39,1,,
,,,ADNZW2B8WEZ0Z,25,male,8,2023-01-18_13h14.25.028,perception_pilot,2022.2.4,Win32,11.09471559,,,,,,,,,,,,,RED_HEADED_WOODPECKER_5.jpg,CRIMSON_CHAT_3.jpg,COLLARED_ARACARI_1.jpg,GREAT_GRAY_OWL_5.jpg,DAURIAN_REDSTART_5.jpg,3,1,2,2,3,40,,,3,1,2.3108,0,40,40,40,1,,
,,,ADNZW2B8WEZ0Z,25,male,8,2023-01-18_13h14.25.028,perception_pilot,2022.2.4,Win32,11.09471559,,,,,,,,,,,,,LESSER_ADJUTANT_5.jpg,RED_HEADED_WOODPECKER_1.jpg,GAMBELS_QUAIL_1.jpg,CASPIAN_TERN_2.jpg,AMERICAN_GOLDFINCH_1.jpg,2,3,1,3,2,41,,,2,1,3.6043,0,41,41,41,1,,
,,,ADNZW2B8WEZ0Z,25,male,8,2023-01-18_13h14.25.028,perception_pilot,2022.2.4,Win32,11.09471559,,,,,,,,,,,,,BROWN_THRASHER_3.jpg,OYSTER_CATCHER_4.jpg,DOUBLE_EYED_FIG_PARROT_3.jpg,RED_HEADED_WOODPECKER_2.jpg,BLACK_BAZA_4.jpg,1,2,3,2,2,42,,,2,1,2.453,0,42,42,42,1,,
,,,ADNZW2B8WEZ0Z,25,male,8,2023-01-18_13h14.25.028,perception_pilot,2022.2.4,Win32,11.09471559,,,,,,,,,,,,,BROWN_NOODY_3.jpg,SPANGLED_COTINGA_4.jpg,KIWI_2.jpg,COMMON_IORA_3.jpg,GUINEA_TURACO_5.jpg,1,2,3,2,2,43,,,2,1,3.9859,0,43,43,43,1,,
,,,ADNZW2B8WEZ0Z,25,male,8,2023-01-18_13h14.25.028,perception_pilot,2022.2.4,Win32,11.09471559,,,,,,,,,,,,,GRAY_KINGBIRD_5.jpg,BALD_EAGLE_2.jpg,COCK_OF_THE__ROCK_4.jpg,AFRICAN_FIREFINCH_3.jpg,PEACOCK_1.jpg,2,3,1,1,3,44,,,2,0,2.7983,0,44,44,44,1,,
,,,ADNZW2B8WEZ0Z,25,male,8,2023-01-18_13h14.25.028,perception_pilot,2022.2.4,Win32,11.09471559,,,,,,,,,,,,,IVORY_GULL_1.jpg,EASTERN_GOLDEN_WEAVER_5.jpg,FAIRY_TERN_4.jpg,RED_FODY_1.jpg,WILSONS_BIRD_OF_PARADISE_4.jpg,3,2,1,2,2,45,,,2,1,19.9221,0,45,45,45,1,,
,,,ADNZW2B8WEZ0Z,25,male,8,2023-01-18_13h14.25.028,perception_pilot,2022.2.4,Win32,11.09471559,,,,,,,,,,,,,CRESTED_CARACARA_4.jpg,TOUCHAN_4.jpg,BLUE_DACNIS_4.jpg,CREAM_COLORED_WOODPECKER_1.jpg,FAIRY_PENGUIN_5.jpg,2,3,1,3,2,46,,,2,1,12.3112,0,46,46,46,1,,
,,,ADNZW2B8WEZ0Z,25,male,8,2023-01-18_13h14.25.028,perception_pilot,2022.2.4,Win32,11.09471559,,,,,,,,,,,,,RUFOUS_KINGFISHER_1.jpg,HORNED_SUNGEM_4.jpg,MAGPIE_GOOSE_3.jpg,GREEN_JAY_4.jpg,BLACK_VENTED_SHEARWATER_2.jpg,2,3,1,3,2,47,,,2,1,6.1932,0,47,47,47,1,,
,,,ADNZW2B8WEZ0Z,25,male,8,2023-01-18_13h14.25.028,perception_pilot,2022.2.4,Win32,11.09471559,,,,,,,,,,,,,LESSER_ADJUTANT_4.jpg,ALTAMIRA_YELLOWTHROAT_5.jpg,DOUBLE_EYED_FIG_PARROT_4.jpg,RAINBOW_LORIKEET_5.jpg,FAIRY_TERN_3.jpg,1,2,3,1,1,48,,,3,0,5.2307,0,48,48,48,1,,
,,,ADNZW2B8WEZ0Z,25,male,8,2023-01-18_13h14.25.028,perception_pilot,2022.2.4,Win32,11.09471559,,,,,,,,,,,,,right.png,right.png,up.png,left.png,right.png,,,,,2,49,,,2,1,3.1661,0,49,49,49,1,,
,,,ADNZW2B8WEZ0Z,25,male,8,2023-01-18_13h14.25.028,perception_pilot,2022.2.4,Win32,11.09471559,,,,,,,,,,,,,CASPIAN_TERN_1.jpg,EUROPEAN_GOLDFINCH_4.jpg,AMERICAN_GOLDFINCH_3.jpg,COMMON_LOON_2.jpg,BRANDT_CORMARANT_4.jpg,2,3,1,2,1,50,,,1,1,2.818,0,50,50,50,1,,
,,,ADNZW2B8WEZ0Z,25,male,8,2023-01-18_13h14.25.028,perception_pilot,2022.2.4,Win32,11.09471559,,,,,,,,,,,,,OVENBIRD_5.jpg,JABIRU_4.jpg,PURPLE_FINCH_5.jpg,TURQUOISE_MOTMOT_3.jpg,FAIRY_PENGUIN_1.jpg,3,1,2,1,2,51,,,1,0,48.1875,0,51,51,51,1,,
,,,ADNZW2B8WEZ0Z,25,male,8,2023-01-18_13h14.25.028,perception_pilot,2022.2.4,Win32,11.09471559,,,,,,,,,,,,,RUBY_THROATED_HUMMINGBIRD_1.jpg,VULTURINE_GUINEAFOWL_4.jpg,FRIGATE_1.jpg,EURASIAN_GOLDEN_ORIOLE_5.jpg,BEARDED_REEDLING_3.jpg,3,1,2,2,3,52,,,1,0,10.2489,0,52,52,52,1,,
,,,ADNZW2B8WEZ0Z,25,male,8,2023-01-18_13h14.25.028,perception_pilot,2022.2.4,Win32,11.09471559,,,,,,,,,,,,,PYGMY_KINGFISHER_5.jpg,GRANDALA_2.jpg,NORTHERN_PARULA_5.jpg,GREAT_POTOO_3.jpg,MIKADO__PHEASANT_5.jpg,3,2,1,1,3,53,,,2,0,3.4221,0,53,53,53,1,,
,,,ADNZW2B8WEZ0Z,25,male,8,2023-01-18_13h14.25.028,perception_pilot,2022.2.4,Win32,11.09471559,,,,,,,,,,,,,NORTHERN_JACANA_2.jpg,RED_FACED_CORMORANT_1.jpg,VULTURINE_GUINEAFOWL_5.jpg,SCARLET_IBIS_4.jpg,GREEN_BROADBILL_1.jpg,2,3,1,3,2,54,,,2,1,5.8766,0,54,54,54,1,,
,,,ADNZW2B8WEZ0Z,25,male,8,2023-01-18_13h14.25.028,perception_pilot,2022.2.4,Win32,11.09471559,,,,,,,,,,,,,IVORY_GULL_3.jpg,SNOWY_EGRET_4.jpg,INDIGO_FLYCATCHER_2.jpg,FAN_TAILED_WIDOW_1.jpg,FLAME_TANAGER_3.jpg,1,3,2,3,2,55,,,1,0,2.0323,0,55,55,55,1,,
,,,ADNZW2B8WEZ0Z,25,male,8,2023-01-18_13h14.25.028,perception_pilot,2022.2.4,Win32,11.09471559,,,,,,,,,,,,,OCELLATED_TURKEY_1.jpg,PURPLE_SWAMPHEN_4.jpg,LARK_BUNTING_1.jpg,CHIPPING_SPARROW_1.jpg,GLOSSY_IBIS_2.jpg,2,1,3,3,3,56,,,3,1,4.2887,0,56,56,56,1,,
,,,ADNZW2B8WEZ0Z,25,male,8,2023-01-18_13h14.25.028,perception_pilot,2022.2.4,Win32,11.09471559,,,,,,,,,,,,,MYNA_1.jpg,SANDHILL_CRANE_4.jpg,OSTRICH_2.jpg,PARADISE_TANAGER_3.jpg,GREY_PLOVER_4.jpg,1,3,2,1,1,57,,,1,1,7.0272,0,57,57,57,1,,
,,,ADNZW2B8WEZ0Z,25,male,8,2023-01-18_13h14.25.028,perception_pilot,2022.2.4,Win32,11.09471559,,,,,,,,,,,,,PINK_ROBIN_4.jpg,SPOONBILL_3.jpg,BEARDED_BARBET_2.jpg,COMMON_IORA_4.jpg,ALBATROSS_4.jpg,1,3,2,1,1,58,,,2,0,2.7889,0,58,58,58,1,,
,,,ADNZW2B8WEZ0Z,25,male,8,2023-01-18_13h14.25.028,perception_pilot,2022.2.4,Win32,11.09471559,,,,,,,,,,,,,INDIGO_BUNTING_1.jpg,DARWINS_FLYCATCHER_2.jpg,FRIGATE_4.jpg,BALTIMORE_ORIOLE_4.jpg,SNOWY_PLOVER_1.jpg,1,3,2,3,2,59,,,2,1,1.7381,0,59,59,59,1,,
,,,ADNZW2B8WEZ0Z,25,male,8,2023-01-18_13h14.25.028,perception_pilot,2022.2.4,Win32,11.09471559,,,,,,,,,,,,,AFRICAN_PIED_HORNBILL_5.jpg,KIWI_4.jpg,BORNEAN_PHEASANT_4.jpg,CAPUCHINBIRD_2.jpg,ALEXANDRINE_PARAKEET_1.jpg,1,3,2,1,1,60,,,2,0,4.4548,0,60,60,60,1,,
,,,ADNZW2B8WEZ0Z,25,male,8,2023-01-18_13h14.25.028,perception_pilot,2022.2.4,Win32,11.09471559,,,,,,,,,,,,,EUROPEAN_TURTLE_DOVE_3.jpg,MALABAR_HORNBILL_2.jpg,TEAL_DUCK_2.jpg,BROWN_THRASHER_2.jpg,PAINTED_BUNTING_3.jpg,1,3,2,3,2,61,,,2,1,3.893,0,61,61,61,1,,
,,,ADNZW2B8WEZ0Z,25,male,8,2023-01-18_13h14.25.028,perception_pilot,2022.2.4,Win32,11.09471559,,,,,,,,,,,,,MAGPIE_GOOSE_5.jpg,OYSTER_CATCHER_3.jpg,WOOD_DUCK_5.jpg,DOUBLE_EYED_FIG_PARROT_5.jpg,HAMERKOP_1.jpg,3,1,2,3,1,62,,,1,1,1.9455,0,62,62,62,1,,
,,,ADNZW2B8WEZ0Z,25,male,8,2023-01-18_13h14.25.028,perception_pilot,2022.2.4,Win32,11.09471559,,,,,,,,,,,,,NORTHERN_JACANA_3.jpg,BANANAQUIT_3.jpg,BEARDED_BELLBIRD_3.jpg,BAR-TAILED_GODWIT_3.jpg,REGENT_BOWERBIRD_5.jpg,1,3,2,1,1,63,,,3,0,4.3038,0,63,63,63,1,,
,,,ADNZW2B8WEZ0Z,25,male,8,2023-01-18_13h14.25.028,perception_pilot,2022.2.4,Win32,11.09471559,,,,,,,,,,,,,right.png,right.png,right.png,left.png,up.png,,,,,2,64,,,2,1,3.3794,0,64,64,64,1,,
,,,ADNZW2B8WEZ0Z,25,male,8,2023-01-18_13h14.25.028,perception_pilot,2022.2.4,Win32,11.09471559,,,,,,,,,,,,,,,,,,,,,,,,,,,,,,,,,,space,26.8728
