button.numClicks,button.timesOn,button.timesOff,workID,Age,Gender,Hours slept (last night),date,expName,psychopyVersion,OS,frameRate,key_resp_13.keys,key_resp_13.rt,key_resp_14.keys,key_resp_14.rt,key_resp_3.keys,key_resp_3.corr,key_resp_3.rt,demo_loop.thisRepN,demo_loop.thisTrialN,demo_loop.thisN,demo_loop.thisIndex,demo_loop.ran,target_image,target_match,option1,option2,option3,option1_layer,option2_layer,option3_layer,match_layer,correct_answer,trial_num,key_resp_15.keys,key_resp_15.rt,key_resp.keys,key_resp.corr,key_resp.rt,trials.thisRepN,trials.thisTrialN,trials.thisN,trials.thisIndex,trials.ran,key_resp_end_2.keys,key_resp_end_2.rt
1,[4.375500000000002],[4.375700000002979],AG9LMLEPXP2YC,27,Male,7,2023-01-18_13h18.05.965,perception_pilot,2022.2.4,Win32,239.8656752,,,,,,,,,,,,,,,,,,,,,,,,,,,,,,,,,,,
,,,AG9LMLEPXP2YC,27,Male,7,2023-01-18_13h18.05.965,perception_pilot,2022.2.4,Win32,239.8656752,space,11.0975,,,,,,,,,,,,,,,,,,,,,,,,,,,,,,,,,
,,,AG9LMLEPXP2YC,27,Male,7,2023-01-18_13h18.05.965,perception_pilot,2022.2.4,Win32,239.8656752,,,space,1.3113,,,,,,,,,,,,,,,,,,,,,,,,,,,,,,,
,,,AG9LMLEPXP2YC,27,Male,7,2023-01-18_13h18.05.965,perception_pilot,2022.2.4,Win32,239.8656752,,,,,,,,,,,,,,,,,,,,,,,,,,,,,,,,,,,
,,,AG9LMLEPXP2YC,27,Male,7,2023-01-18_13h18.05.965,perception_pilot,2022.2.4,Win32,239.8656752,,,,,1,0,3.0455,0,0,0,0,1,SCARLET_TANAGER_2.jpg,BORNEAN_LEAFBIRD_1.jpg,CARMINE_BEE-EATER_1.jpg,BLONDE_CRESTED_WOODPECKER_3.jpg,LITTLE_AUK_3.jpg,1,3,2,3,2,0,,,,,,,,,,,,
,,,AG9LMLEPXP2YC,27,Male,7,2023-01-18_13h18.05.965,perception_pilot,2022.2.4,Win32,239.8656752,,,,,1,0,5.5117,0,1,1,1,1,RED_HEADED_WOODPECKER_5.jpg,GREAT_GRAY_OWL_5.jpg,CRIMSON_CHAT_3.jpg,COLLARED_ARACARI_1.jpg,KIWI_1.jpg,2,3,1,1,3,1,,,,,,,,,,,,
,,,AG9LMLEPXP2YC,27,Male,7,2023-01-18_13h18.05.965,perception_pilot,2022.2.4,Win32,239.8656752,,,,,1,1,1.0482,0,2,2,2,1,PYGMY_KINGFISHER_5.jpg,GRANDALA_2.jpg,MIKADO__PHEASANT_5.jpg,NORTHERN_PARULA_5.jpg,GREAT_POTOO_3.jpg,1,3,2,1,1,2,,,,,,,,,,,,
,,,AG9LMLEPXP2YC,27,Male,7,2023-01-18_13h18.05.965,perception_pilot,2022.2.4,Win32,239.8656752,,,,,2,1,1.7536,0,3,3,3,1,IVORY_GULL_3.jpg,SNOWY_EGRET_4.jpg,INDIGO_FLYCATCHER_2.jpg,FAN_TAILED_WIDOW_1.jpg,FLAME_TANAGER_3.jpg,1,3,2,3,2,3,,,,,,,,,,,,
,,,AG9LMLEPXP2YC,27,Male,7,2023-01-18_13h18.05.965,perception_pilot,2022.2.4,Win32,239.8656752,,,,,2,0,1.629,0,4,4,4,1,GREY_PLOVER_1.jpg,GOULDIAN_FINCH_4.jpg,BORNEAN_LEAFBIRD_2.jpg,AMETHYST_WOODSTAR_4.jpg,HYACINTH_MACAW_3.jpg,2,3,1,2,1,4,,,,,,,,,,,,
,,,AG9LMLEPXP2YC,27,Male,7,2023-01-18_13h18.05.965,perception_pilot,2022.2.4,Win32,239.8656752,,,,,2,0,2.8974,0,5,5,5,1,right.png,right.png,up.png,right.png,left.png,,,,,3,5,,,,,,,,,,,,
,,,AG9LMLEPXP2YC,27,Male,7,2023-01-18_13h18.05.965,perception_pilot,2022.2.4,Win32,239.8656752,,,,,2,0,7.609,0,6,6,6,1,NORTHERN_GANNET_2.jpg,PAINTED_BUNTING_5.jpg,EASTERN_TOWEE_1.jpg,STRAWBERRY_FINCH_1.jpg,MASKED_BOOBY_5.jpg,1,2,3,1,1,6,,,,,,,,,,,,
,,,AG9LMLEPXP2YC,27,Male,7,2023-01-18_13h18.05.965,perception_pilot,2022.2.4,Win32,239.8656752,,,,,2,0,4.8718,0,7,7,7,1,OCELLATED_TURKEY_1.jpg,LARK_BUNTING_1.jpg,PURPLE_SWAMPHEN_4.jpg,CHIPPING_SPARROW_1.jpg,AMERICAN_KESTREL_2.jpg,3,1,2,2,3,7,,,,,,,,,,,,
,,,AG9LMLEPXP2YC,27,Male,7,2023-01-18_13h18.05.965,perception_pilot,2022.2.4,Win32,239.8656752,,,,,2,1,1.108,0,8,8,8,1,CASPIAN_TERN_1.jpg,EUROPEAN_GOLDFINCH_4.jpg,COMMON_LOON_2.jpg,AMERICAN_GOLDFINCH_3.jpg,BRANDT_CORMARANT_4.jpg,3,2,1,2,2,8,,,,,,,,,,,,
,,,AG9LMLEPXP2YC,27,Male,7,2023-01-18_13h18.05.965,perception_pilot,2022.2.4,Win32,239.8656752,,,,,3,1,2.9507,0,9,9,9,1,ASIAN_DOLLARD_BIRD_2.jpg,VIOLET_GREEN_SWALLOW_4.jpg,ALBATROSS_2.jpg,HAWAIIAN_GOOSE_1.jpg,VERMILION_FLYCATHER_1.jpg,1,2,3,3,3,9,,,,,,,,,,,,
,,,AG9LMLEPXP2YC,27,Male,7,2023-01-18_13h18.05.965,perception_pilot,2022.2.4,Win32,239.8656752,,,,,,,,,,,,,,,,,,,,,,,,space,0.89,,,,,,,,,,
,,,AG9LMLEPXP2YC,27,Male,7,2023-01-18_13h18.05.965,perception_pilot,2022.2.4,Win32,239.8656752,,,,,,,,,,,,,SPLENDID_WREN_1.jpg,CUBAN_TODY_4.jpg,CRESTED_KINGFISHER_4.jpg,PARAKETT__AKULET_3.jpg,DOUBLE_BRESTED_CORMARANT_1.jpg,3,1,2,3,1,0,,,2,0,8.5727,0,0,0,0,1,,
,,,AG9LMLEPXP2YC,27,Male,7,2023-01-18_13h18.05.965,perception_pilot,2022.2.4,Win32,239.8656752,,,,,,,,,,,,,PEACOCK_3.jpg,IBERIAN_MAGPIE_2.jpg,ANIANIAU_2.jpg,CHATTERING_LORY_3.jpg,STRAWBERRY_FINCH_4.jpg,1,3,2,3,2,1,,,2,1,1.1374,0,1,1,1,1,,
,,,AG9LMLEPXP2YC,27,Male,7,2023-01-18_13h18.05.965,perception_pilot,2022.2.4,Win32,239.8656752,,,,,,,,,,,,,HAWAIIAN_GOOSE_4.jpg,WATTLED_LAPWING_3.jpg,RED_BEARDED_BEE_EATER_3.jpg,BROWN_NOODY_5.jpg,HIMALAYAN_MONAL_2.jpg,1,3,2,3,2,2,,,2,1,1.9256,0,2,2,2,1,,
,,,AG9LMLEPXP2YC,27,Male,7,2023-01-18_13h18.05.965,perception_pilot,2022.2.4,Win32,239.8656752,,,,,,,,,,,,,GOLDEN_CHLOROPHONIA_5.jpg,ROADRUNNER_2.jpg,WHIMBREL_1.jpg,VERMILION_FLYCATHER_5.jpg,COMMON_HOUSE_MARTIN_4.jpg,1,3,2,1,1,3,,,1,1,4.813,0,3,3,3,1,,
,,,AG9LMLEPXP2YC,27,Male,7,2023-01-18_13h18.05.965,perception_pilot,2022.2.4,Win32,239.8656752,,,,,,,,,,,,,BROWN_NOODY_3.jpg,GUINEA_TURACO_5.jpg,SPANGLED_COTINGA_4.jpg,KIWI_2.jpg,UMBRELLA_BIRD_4.jpg,2,1,3,3,3,4,,,3,1,3.5561,0,4,4,4,1,,
,,,AG9LMLEPXP2YC,27,Male,7,2023-01-18_13h18.05.965,perception_pilot,2022.2.4,Win32,239.8656752,,,,,,,,,,,,,MAGPIE_GOOSE_5.jpg,OYSTER_CATCHER_3.jpg,WOOD_DUCK_5.jpg,DOUBLE_EYED_FIG_PARROT_5.jpg,HAMERKOP_1.jpg,3,1,2,3,1,5,,,1,1,1.1788,0,5,5,5,1,,
,,,AG9LMLEPXP2YC,27,Male,7,2023-01-18_13h18.05.965,perception_pilot,2022.2.4,Win32,239.8656752,,,,,,,,,,,,,RUBY_THROATED_HUMMINGBIRD_2.jpg,GOLDEN_PARAKEET_2.jpg,GREEN_JAY_2.jpg,APAPANE_4.jpg,DUSKY_ROBIN_5.jpg,1,2,3,1,1,6,,,2,0,2.1701,0,6,6,6,1,,
,,,AG9LMLEPXP2YC,27,Male,7,2023-01-18_13h18.05.965,perception_pilot,2022.2.4,Win32,239.8656752,,,,,,,,,,,,,NORTHERN_JACANA_3.jpg,BAR-TAILED_GODWIT_3.jpg,SHORT_BILLED_DOWITCHER_5.jpg,BANANAQUIT_3.jpg,REGENT_BOWERBIRD_5.jpg,3,1,2,3,1,7,,,1,1,1.0665,0,7,7,7,1,,
,,,AG9LMLEPXP2YC,27,Male,7,2023-01-18_13h18.05.965,perception_pilot,2022.2.4,Win32,239.8656752,,,,,,,,,,,,,CHUKAR_PARTRIDGE_5.jpg,OSTRICH_3.jpg,RAZORBILL_1.jpg,BLACK_THROATED_BUSHTIT_1.jpg,EMU_1.jpg,2,3,1,1,3,8,,,3,1,2.2729,0,8,8,8,1,,
,,,AG9LMLEPXP2YC,27,Male,7,2023-01-18_13h18.05.965,perception_pilot,2022.2.4,Win32,239.8656752,,,,,,,,,,,,,SKUA_4.jpg,ROADRUNNER_5.jpg,SNOWY_EGRET_5.jpg,AMERICAN_WIGEON_2.jpg,PARUS_MAJOR_2.jpg,1,3,2,3,2,9,,,2,1,4.0627,0,9,9,9,1,,
,,,AG9LMLEPXP2YC,27,Male,7,2023-01-18_13h18.05.965,perception_pilot,2022.2.4,Win32,239.8656752,,,,,,,,,,,,,ASIAN_CRESTED_IBIS_4.jpg,OYSTER_CATCHER_2.jpg,CANARY_2.jpg,AMERICAN_KESTREL_1.jpg,IVORY_GULL_2.jpg,1,2,3,2,2,10,,,2,1,1.8628,0,10,10,10,1,,
,,,AG9LMLEPXP2YC,27,Male,7,2023-01-18_13h18.05.965,perception_pilot,2022.2.4,Win32,239.8656752,,,,,,,,,,,,,right.png,right.png,left.png,up.png,right.png,,,,,1,11,,,3,0,1.5514,0,11,11,11,1,,
,,,AG9LMLEPXP2YC,27,Male,7,2023-01-18_13h18.05.965,perception_pilot,2022.2.4,Win32,239.8656752,,,,,,,,,,,,,KILLDEAR_2.jpg,ALEXANDRINE_PARAKEET_5.jpg,CAATINGA_CACHOLOTE_4.jpg,AZURE_TIT_5.jpg,GOLDEN_CHLOROPHONIA_2.jpg,2,3,1,1,3,12,,,3,1,3.5038,0,12,12,12,1,,
,,,AG9LMLEPXP2YC,27,Male,7,2023-01-18_13h18.05.965,perception_pilot,2022.2.4,Win32,239.8656752,,,,,,,,,,,,,GRAY_KINGBIRD_5.jpg,BALD_EAGLE_2.jpg,PEACOCK_1.jpg,COCK_OF_THE__ROCK_4.jpg,AFRICAN_FIREFINCH_3.jpg,1,2,3,1,1,13,,,3,0,5.6734,0,13,13,13,1,,
,,,AG9LMLEPXP2YC,27,Male,7,2023-01-18_13h18.05.965,perception_pilot,2022.2.4,Win32,239.8656752,,,,,,,,,,,,,RUBY_THROATED_HUMMINGBIRD_3.jpg,NORTHERN_SHOVELER_1.jpg,WALL_CREAPER_3.jpg,WHITE_CHEEKED_TURACO_4.jpg,MYNA_5.jpg,3,1,2,3,1,14,,,3,0,1.6191,0,14,14,14,1,,
,,,AG9LMLEPXP2YC,27,Male,7,2023-01-18_13h18.05.965,perception_pilot,2022.2.4,Win32,239.8656752,,,,,,,,,,,,,EUROPEAN_TURTLE_DOVE_3.jpg,PAINTED_BUNTING_3.jpg,TEAL_DUCK_2.jpg,MALABAR_HORNBILL_2.jpg,CAPE_GLOSSY_STARLING_1.jpg,1,3,2,2,3,15,,,1,0,0.8713,0,15,15,15,1,,
,,,AG9LMLEPXP2YC,27,Male,7,2023-01-18_13h18.05.965,perception_pilot,2022.2.4,Win32,239.8656752,,,,,,,,,,,,,KAGU_5.jpg,IMPERIAL_SHAQ_2.jpg,EASTERN_MEADOWLARK_1.jpg,VICTORIA_CROWNED_PIGEON_5.jpg,ASHY_STORM_PETREL_1.jpg,1,3,2,3,2,16,,,2,1,10.3962,0,16,16,16,1,,
,,,AG9LMLEPXP2YC,27,Male,7,2023-01-18_13h18.05.965,perception_pilot,2022.2.4,Win32,239.8656752,,,,,,,,,,,,,right.png,right.png,left.png,up.png,right.png,,,,,1,17,,,1,1,1.6019,0,17,17,17,1,,
,,,AG9LMLEPXP2YC,27,Male,7,2023-01-18_13h18.05.965,perception_pilot,2022.2.4,Win32,239.8656752,,,,,,,,,,,,,left.png,left.png,right.png,up.png,left.png,,,,,1,18,,,3,0,2.055,0,18,18,18,1,,
,,,AG9LMLEPXP2YC,27,Male,7,2023-01-18_13h18.05.965,perception_pilot,2022.2.4,Win32,239.8656752,,,,,,,,,,,,,FLAME_BOWERBIRD_3.jpg,QUETZAL_3.jpg,INDIAN_BUSTARD_2.jpg,BROWN_THRASHER_4.jpg,GOULDIAN_FINCH_1.jpg,1,2,3,3,3,19,,,3,1,1.5291,0,19,19,19,1,,
,,,AG9LMLEPXP2YC,27,Male,7,2023-01-18_13h18.05.965,perception_pilot,2022.2.4,Win32,239.8656752,,,,,,,,,,,,,GOLDEN_CHEEKED_WARBLER_2.jpg,SPOONBILL_1.jpg,AMERICAN_FLAMINGO_3.jpg,RED_HEADED_DUCK_3.jpg,WHITE_THROATED_BEE_EATER_1.jpg,2,1,3,1,2,20,,,2,1,2.5887,0,20,20,20,1,,
,,,AG9LMLEPXP2YC,27,Male,7,2023-01-18_13h18.05.965,perception_pilot,2022.2.4,Win32,239.8656752,,,,,,,,,,,,,STRIPPED_SWALLOW_1.jpg,MAGPIE_GOOSE_4.jpg,GO_AWAY_BIRD_5.jpg,ANDEAN_GOOSE_1.jpg,EMPEROR_PENGUIN_5.jpg,3,2,1,2,2,21,,,2,1,4.8094,0,21,21,21,1,,
,,,AG9LMLEPXP2YC,27,Male,7,2023-01-18_13h18.05.965,perception_pilot,2022.2.4,Win32,239.8656752,,,,,,,,,,,,,CRESTED_CARACARA_4.jpg,TOUCHAN_4.jpg,BLUE_DACNIS_4.jpg,CREAM_COLORED_WOODPECKER_1.jpg,FAIRY_PENGUIN_5.jpg,2,3,1,3,2,22,,,2,1,4.4703,0,22,22,22,1,,
,,,AG9LMLEPXP2YC,27,Male,7,2023-01-18_13h18.05.965,perception_pilot,2022.2.4,Win32,239.8656752,,,,,,,,,,,,,MCKAYS_BUNTING_3.jpg,EMU_4.jpg,IWI_2.jpg,AMERICAN_GOLDFINCH_4.jpg,DEMOISELLE_CRANE_3.jpg,2,3,1,1,3,23,,,3,1,1.1518,0,23,23,23,1,,
,,,AG9LMLEPXP2YC,27,Male,7,2023-01-18_13h18.05.965,perception_pilot,2022.2.4,Win32,239.8656752,,,,,,,,,,,,,LITTLE_AUK_5.jpg,ORANGE_BRESTED_BUNTING_3.jpg,LILAC_ROLLER_5.jpg,BEARDED_BELLBIRD_1.jpg,SANDHILL_CRANE_3.jpg,2,3,1,2,1,24,,,1,1,1.2426,0,24,24,24,1,,
,,,AG9LMLEPXP2YC,27,Male,7,2023-01-18_13h18.05.965,perception_pilot,2022.2.4,Win32,239.8656752,,,,,,,,,,,,,TREE_SWALLOW_4.jpg,ROBIN_3.jpg,RED_HEADED_DUCK_5.jpg,CALIFORNIA_GULL_1.jpg,RED_FODY_3.jpg,1,2,3,2,2,25,,,3,0,2.0742,0,25,25,25,1,,
,,,AG9LMLEPXP2YC,27,Male,7,2023-01-18_13h18.05.965,perception_pilot,2022.2.4,Win32,239.8656752,,,,,,,,,,,,,ECUADORIAN_HILLSTAR_5.jpg,BOBOLINK_5.jpg,CRIMSON_SUNBIRD_5.jpg,CASSOWARY_2.jpg,SCARLET_IBIS_2.jpg,3,2,1,2,2,26,,,2,1,2.7647,0,26,26,26,1,,
,,,AG9LMLEPXP2YC,27,Male,7,2023-01-18_13h18.05.965,perception_pilot,2022.2.4,Win32,239.8656752,,,,,,,,,,,,,ARARIPE_MANAKIN_4.jpg,BLACK_VULTURE_1.jpg,UMBRELLA_BIRD_5.jpg,BORNEAN_LEAFBIRD_3.jpg,KIWI_3.jpg,2,3,1,2,1,27,,,1,1,1.8753,0,27,27,27,1,,
,,,AG9LMLEPXP2YC,27,Male,7,2023-01-18_13h18.05.965,perception_pilot,2022.2.4,Win32,239.8656752,,,,,,,,,,,,,right.png,right.png,right.png,left.png,up.png,,,,,2,28,,,1,0,1.1969,0,28,28,28,1,,
,,,AG9LMLEPXP2YC,27,Male,7,2023-01-18_13h18.05.965,perception_pilot,2022.2.4,Win32,239.8656752,,,,,,,,,,,,,RED_FACED_WARBLER_1.jpg,BLACK_VENTED_SHEARWATER_4.jpg,EMU_5.jpg,COMMON_LOON_4.jpg,CAPE_GLOSSY_STARLING_2.jpg,1,2,3,2,2,29,,,2,1,5.3739,0,29,29,29,1,,
,,,AG9LMLEPXP2YC,27,Male,7,2023-01-18_13h18.05.965,perception_pilot,2022.2.4,Win32,239.8656752,,,,,,,,,,,,,NORTHERN_JACANA_2.jpg,VULTURINE_GUINEAFOWL_5.jpg,GREEN_BROADBILL_1.jpg,RED_FACED_CORMORANT_1.jpg,CRAB_PLOVER_3.jpg,1,3,2,2,3,30,,,2,0,4.1752,0,30,30,30,1,,
,,,AG9LMLEPXP2YC,27,Male,7,2023-01-18_13h18.05.965,perception_pilot,2022.2.4,Win32,239.8656752,,,,,,,,,,,,,IVORY_GULL_1.jpg,FAIRY_TERN_4.jpg,EASTERN_GOLDEN_WEAVER_5.jpg,BANDED_STILT_4.jpg,WILSONS_BIRD_OF_PARADISE_4.jpg,2,3,1,3,2,31,,,2,1,1.8449,0,31,31,31,1,,
,,,AG9LMLEPXP2YC,27,Male,7,2023-01-18_13h18.05.965,perception_pilot,2022.2.4,Win32,239.8656752,,,,,,,,,,,,,VERMILION_FLYCATHER_3.jpg,CROWNED_PIGEON_1.jpg,LITTLE_AUK_4.jpg,INDIAN_BUSTARD_1.jpg,RED_BEARDED_BEE_EATER_1.jpg,2,1,3,2,1,32,,,1,1,1.7905,0,32,32,32,1,,
,,,AG9LMLEPXP2YC,27,Male,7,2023-01-18_13h18.05.965,perception_pilot,2022.2.4,Win32,239.8656752,,,,,,,,,,,,,CRESTED_NUTHATCH_2.jpg,AFRICAN_FIREFINCH_1.jpg,CANARY_1.jpg,GOLDEN_CHLOROPHONIA_1.jpg,SCARLET_IBIS_3.jpg,3,2,1,2,2,33,,,3,0,0.9389,0,33,33,33,1,,
,,,AG9LMLEPXP2YC,27,Male,7,2023-01-18_13h18.05.965,perception_pilot,2022.2.4,Win32,239.8656752,,,,,,,,,,,,,BARRED_PUFFBIRD_3.jpg,VEERY_4.jpg,WHITE_CHEEKED_TURACO_2.jpg,NORTHERN_CARDINAL_5.jpg,RED_TAILED_THRUSH_2.jpg,1,2,3,3,3,34,,,2,0,0.5965,0,34,34,34,1,,
,,,AG9LMLEPXP2YC,27,Male,7,2023-01-18_13h18.05.965,perception_pilot,2022.2.4,Win32,239.8656752,,,,,,,,,,,,,MALACHITE_KINGFISHER_2.jpg,GREEN_BROADBILL_5.jpg,INCA_TERN_2.jpg,JAVA_SPARROW_5.jpg,SKUA_3.jpg,2,3,1,3,2,35,,,1,0,2.7832,0,35,35,35,1,,
,,,AG9LMLEPXP2YC,27,Male,7,2023-01-18_13h18.05.965,perception_pilot,2022.2.4,Win32,239.8656752,,,,,,,,,,,,,SHOEBILL_3.jpg,GILDED_FLICKER_5.jpg,MALAGASY_WHITE_EYE_3.jpg,IWI_1.jpg,BALD_EAGLE_5.jpg,1,2,3,2,2,36,,,2,1,0.8707,0,36,36,36,1,,
,,,AG9LMLEPXP2YC,27,Male,7,2023-01-18_13h18.05.965,perception_pilot,2022.2.4,Win32,239.8656752,,,,,,,,,,,,,PINK_ROBIN_4.jpg,SPOONBILL_3.jpg,COMMON_IORA_4.jpg,BEARDED_BARBET_2.jpg,ALBATROSS_4.jpg,3,1,2,1,2,37,,,3,0,2.3735,0,37,37,37,1,,
,,,AG9LMLEPXP2YC,27,Male,7,2023-01-18_13h18.05.965,perception_pilot,2022.2.4,Win32,239.8656752,,,,,,,,,,,,,NICOBAR_PIGEON_1.jpg,MYNA_4.jpg,LITTLE_AUK_1.jpg,EASTERN_BLUEBIRD_3.jpg,NORTHERN_MOCKINGBIRD_4.jpg,2,3,1,1,3,38,,,1,0,1.4929,0,38,38,38,1,,
,,,AG9LMLEPXP2YC,27,Male,7,2023-01-18_13h18.05.965,perception_pilot,2022.2.4,Win32,239.8656752,,,,,,,,,,,,,PARUS_MAJOR_1.jpg,CALIFORNIA_GULL_2.jpg,BLACK_SWAN_4.jpg,COMMON_POORWILL_1.jpg,PINK_ROBIN_3.jpg,2,1,3,2,1,39,,,2,0,1.3627,0,39,39,39,1,,
,,,AG9LMLEPXP2YC,27,Male,7,2023-01-18_13h18.05.965,perception_pilot,2022.2.4,Win32,239.8656752,,,,,,,,,,,,,BREWERS_BLACKBIRD_3.jpg,CAPE_LONGCLAW_2.jpg,GOLDEN_CHEEKED_WARBLER_3.jpg,AFRICAN_OYSTER_CATCHER_2.jpg,PEACOCK_4.jpg,2,3,1,3,2,40,,,1,0,2.9577,0,40,40,40,1,,
,,,AG9LMLEPXP2YC,27,Male,7,2023-01-18_13h18.05.965,perception_pilot,2022.2.4,Win32,239.8656752,,,,,,,,,,,,,LARK_BUNTING_2.jpg,CACTUS_WREN_3.jpg,EMU_3.jpg,GRANDALA_4.jpg,KING_VULTURE_3.jpg,1,3,2,3,2,41,,,2,1,1.0054,0,41,41,41,1,,
,,,AG9LMLEPXP2YC,27,Male,7,2023-01-18_13h18.05.965,perception_pilot,2022.2.4,Win32,239.8656752,,,,,,,,,,,,,BALI_STARLING_1.jpg,CAPE_LONGCLAW_5.jpg,IBERIAN_MAGPIE_1.jpg,OSTRICH_5.jpg,PURPLE_FINCH_2.jpg,3,1,2,1,2,42,,,3,0,1.5304,0,42,42,42,1,,
,,,AG9LMLEPXP2YC,27,Male,7,2023-01-18_13h18.05.965,perception_pilot,2022.2.4,Win32,239.8656752,,,,,,,,,,,,,INLAND_DOTTEREL_4.jpg,NICOBAR_PIGEON_4.jpg,CRESTED_KINGFISHER_1.jpg,JANDAYA_PARAKEET_5.jpg,COCK_OF_THE__ROCK_5.jpg,3,1,2,2,3,43,,,1,0,1.3503,0,43,43,43,1,,
,,,AG9LMLEPXP2YC,27,Male,7,2023-01-18_13h18.05.965,perception_pilot,2022.2.4,Win32,239.8656752,,,,,,,,,,,,,CASSOWARY_1.jpg,ROSY_FACED_LOVEBIRD_4.jpg,DEMOISELLE_CRANE_1.jpg,CEDAR_WAXWING_4.jpg,SCARLET_MACAW_1.jpg,3,1,2,1,2,44,,,3,0,1.0674,0,44,44,44,1,,
,,,AG9LMLEPXP2YC,27,Male,7,2023-01-18_13h18.05.965,perception_pilot,2022.2.4,Win32,239.8656752,,,,,,,,,,,,,GYRFALCON_1.jpg,CINNAMON_ATTILA_2.jpg,CAPE_ROCK_THRUSH_2.jpg,FAIRY_TERN_1.jpg,ASHY_STORM_PETREL_2.jpg,2,3,1,2,1,45,,,1,1,2.1824,0,45,45,45,1,,
,,,AG9LMLEPXP2YC,27,Male,7,2023-01-18_13h18.05.965,perception_pilot,2022.2.4,Win32,239.8656752,,,,,,,,,,,,,right.png,right.png,right.png,left.png,up.png,,,,,2,46,,,1,0,1.095,0,46,46,46,1,,
,,,AG9LMLEPXP2YC,27,Male,7,2023-01-18_13h18.05.965,perception_pilot,2022.2.4,Win32,239.8656752,,,,,,,,,,,,,TASMANIAN_HEN_5.jpg,COPPERY_TAILED_COUCAL_1.jpg,AFRICAN_EMERALD_CUCKOO_5.jpg,BLACKBURNIAM_WARBLER_3.jpg,AUCKLAND_SHAQ_2.jpg,2,1,3,3,3,47,,,3,1,1.3433,0,47,47,47,1,,
,,,AG9LMLEPXP2YC,27,Male,7,2023-01-18_13h18.05.965,perception_pilot,2022.2.4,Win32,239.8656752,,,,,,,,,,,,,RUBY_THROATED_HUMMINGBIRD_1.jpg,FRIGATE_1.jpg,NORTHERN_CARDINAL_1.jpg,VULTURINE_GUINEAFOWL_4.jpg,EURASIAN_GOLDEN_ORIOLE_5.jpg,3,2,1,3,1,48,,,2,0,0.2311,0,48,48,48,1,,
,,,AG9LMLEPXP2YC,27,Male,7,2023-01-18_13h18.05.965,perception_pilot,2022.2.4,Win32,239.8656752,,,,,,,,,,,,,MYNA_1.jpg,PARADISE_TANAGER_3.jpg,SANDHILL_CRANE_4.jpg,INDIGO_BUNTING_2.jpg,GREY_PLOVER_4.jpg,1,3,2,3,2,49,,,2,1,0.2337,0,49,49,49,1,,
,,,AG9LMLEPXP2YC,27,Male,7,2023-01-18_13h18.05.965,perception_pilot,2022.2.4,Win32,239.8656752,,,,,,,,,,,,,INCA_TERN_4.jpg,SMITHS_LONGSPUR_5.jpg,BORNEAN_BRISTLEHEAD_5.jpg,FASCIATED_WREN_4.jpg,ELLIOTS__PHEASANT_4.jpg,3,2,1,2,2,50,,,1,0,0.2714,0,50,50,50,1,,
,,,AG9LMLEPXP2YC,27,Male,7,2023-01-18_13h18.05.965,perception_pilot,2022.2.4,Win32,239.8656752,,,,,,,,,,,,,BROWN_THRASHER_3.jpg,OYSTER_CATCHER_4.jpg,BLACK_BAZA_4.jpg,DOUBLE_EYED_FIG_PARROT_3.jpg,RED_HEADED_WOODPECKER_2.jpg,3,1,2,2,3,51,,,3,1,1.1363,0,51,51,51,1,,
,,,AG9LMLEPXP2YC,27,Male,7,2023-01-18_13h18.05.965,perception_pilot,2022.2.4,Win32,239.8656752,,,,,,,,,,,,,DOUBLE_BRESTED_CORMARANT_5.jpg,GILDED_FLICKER_2.jpg,CHINESE_POND_HERON_2.jpg,SNOWY_OWL_3.jpg,EURASIAN_MAGPIE_4.jpg,3,1,2,1,2,52,,,1,0,0.909,0,52,52,52,1,,
,,,AG9LMLEPXP2YC,27,Male,7,2023-01-18_13h18.05.965,perception_pilot,2022.2.4,Win32,239.8656752,,,,,,,,,,,,,RUFOUS_KINGFISHER_1.jpg,BLACK_VENTED_SHEARWATER_2.jpg,HORNED_SUNGEM_4.jpg,BANDED_STILT_3.jpg,MAGPIE_GOOSE_3.jpg,3,1,2,1,2,53,,,1,0,4.0919,0,53,53,53,1,,
,,,AG9LMLEPXP2YC,27,Male,7,2023-01-18_13h18.05.965,perception_pilot,2022.2.4,Win32,239.8656752,,,,,,,,,,,,,AMERICAN_PIPIT_5.jpg,EMU_2.jpg,GREEN_MAGPIE_1.jpg,HEPATIC_TANAGER_5.jpg,PEACOCK_2.jpg,2,3,1,1,3,54,,,2,0,5.6964,0,54,54,54,1,,
,,,AG9LMLEPXP2YC,27,Male,7,2023-01-18_13h18.05.965,perception_pilot,2022.2.4,Win32,239.8656752,,,,,,,,,,,,,AFRICAN_PIED_HORNBILL_5.jpg,KIWI_4.jpg,BORNEAN_PHEASANT_4.jpg,CAPUCHINBIRD_2.jpg,ALEXANDRINE_PARAKEET_1.jpg,1,3,2,1,1,55,,,2,0,1.6962,0,55,55,55,1,,
,,,AG9LMLEPXP2YC,27,Male,7,2023-01-18_13h18.05.965,perception_pilot,2022.2.4,Win32,239.8656752,,,,,,,,,,,,,GILA_WOODPECKER_3.jpg,SNOWY_OWL_4.jpg,ALEXANDRINE_PARAKEET_2.jpg,BLACK_VULTURE_3.jpg,BLACK_SWAN_3.jpg,2,3,1,2,1,56,,,1,1,12.4794,0,56,56,56,1,,
,,,AG9LMLEPXP2YC,27,Male,7,2023-01-18_13h18.05.965,perception_pilot,2022.2.4,Win32,239.8656752,,,,,,,,,,,,,CERULEAN_WARBLER_1.jpg,ORIENTAL_BAY_OWL_1.jpg,AMERICAN_FLAMINGO_5.jpg,BANANAQUIT_1.jpg,DALMATIAN_PELICAN_5.jpg,2,3,1,1,3,57,,,2,0,3.5036,0,57,57,57,1,,
,,,AG9LMLEPXP2YC,27,Male,7,2023-01-18_13h18.05.965,perception_pilot,2022.2.4,Win32,239.8656752,,,,,,,,,,,,,INDIGO_BUNTING_1.jpg,FRIGATE_4.jpg,SNOWY_PLOVER_1.jpg,POMARINE_JAEGER_5.jpg,DARWINS_FLYCATCHER_2.jpg,2,1,3,1,2,58,,,2,1,1.1621,0,58,58,58,1,,
,,,AG9LMLEPXP2YC,27,Male,7,2023-01-18_13h18.05.965,perception_pilot,2022.2.4,Win32,239.8656752,,,,,,,,,,,,,OVENBIRD_5.jpg,PURPLE_FINCH_5.jpg,JABIRU_4.jpg,FAIRY_PENGUIN_1.jpg,GILDED_FLICKER_1.jpg,1,2,3,3,3,59,,,3,1,1.4845,0,59,59,59,1,,
,,,AG9LMLEPXP2YC,27,Male,7,2023-01-18_13h18.05.965,perception_pilot,2022.2.4,Win32,239.8656752,,,,,,,,,,,,,EASTERN_TOWEE_2.jpg,SANDHILL_CRANE_2.jpg,NORTHERN_BEARDLESS_TYRANNULET_5.jpg,BLUE_HERON_3.jpg,HYACINTH_MACAW_4.jpg,3,1,2,1,2,60,,,2,1,1.8978,0,60,60,60,1,,
,,,AG9LMLEPXP2YC,27,Male,7,2023-01-18_13h18.05.965,perception_pilot,2022.2.4,Win32,239.8656752,,,,,,,,,,,,,LESSER_ADJUTANT_5.jpg,GAMBELS_QUAIL_1.jpg,AMERICAN_GOLDFINCH_1.jpg,CANARY_4.jpg,RED_HEADED_WOODPECKER_1.jpg,1,2,3,2,2,61,,,2,1,2.7891,0,61,61,61,1,,
,,,AG9LMLEPXP2YC,27,Male,7,2023-01-18_13h18.05.965,perception_pilot,2022.2.4,Win32,239.8656752,,,,,,,,,,,,,ALPINE_CHOUGH_4.jpg,SNOWY_EGRET_2.jpg,EUROPEAN_GOLDFINCH_3.jpg,AMERICAN_FLAMINGO_2.jpg,BOBOLINK_3.jpg,2,1,3,1,2,62,,,3,0,1.4498,0,62,62,62,1,,
,,,AG9LMLEPXP2YC,27,Male,7,2023-01-18_13h18.05.965,perception_pilot,2022.2.4,Win32,239.8656752,,,,,,,,,,,,,LESSER_ADJUTANT_4.jpg,ALTAMIRA_YELLOWTHROAT_5.jpg,RAINBOW_LORIKEET_5.jpg,FAIRY_TERN_3.jpg,DOUBLE_EYED_FIG_PARROT_4.jpg,2,3,1,1,3,63,,,2,0,2.2442,0,63,63,63,1,,
,,,AG9LMLEPXP2YC,27,Male,7,2023-01-18_13h18.05.965,perception_pilot,2022.2.4,Win32,239.8656752,,,,,,,,,,,,,WHITE_CHEEKED_TURACO_5.jpg,SNOWY_EGRET_1.jpg,PYGMY_KINGFISHER_2.jpg,CHINESE_POND_HERON_1.jpg,ORIENTAL_BAY_OWL_5.jpg,3,1,2,2,3,64,,,2,0,5.7342,0,64,64,64,1,,
,,,AG9LMLEPXP2YC,27,Male,7,2023-01-18_13h18.05.965,perception_pilot,2022.2.4,Win32,239.8656752,,,,,,,,,,,,,,,,,,,,,,,,,,,,,,,,,,space,3.6422
