button.numClicks,button.timesOn,button.timesOff,workID,Age,Gender,Hours slept (last night),date,expName,psychopyVersion,OS,frameRate,key_resp_13.keys,key_resp_13.rt,key_resp_14.keys,key_resp_14.rt,key_resp_3.keys,key_resp_3.corr,key_resp_3.rt,demo_loop.thisRepN,demo_loop.thisTrialN,demo_loop.thisN,demo_loop.thisIndex,demo_loop.ran,target_image,target_match,option1,option2,option3,option1_layer,option2_layer,option3_layer,match_layer,correct_answer,trial_num,key_resp_15.keys,key_resp_15.rt,key_resp.keys,key_resp.corr,key_resp.rt,trials.thisRepN,trials.thisTrialN,trials.thisN,trials.thisIndex,trials.ran,key_resp_end_2.keys,key_resp_end_2.rt
1,[7.182999999999993],[7.182999999999993],ALTJ8ONS93XVL,28,female,10,2023-01-18_16h08.21.719,perception_pilot,2022.2.4,Win32,4,,,,,,,,,,,,,,,,,,,,,,,,,,,,,,,,,,,
,,,ALTJ8ONS93XVL,28,female,10,2023-01-18_16h08.21.719,perception_pilot,2022.2.4,Win32,4,space,16.796,,,,,,,,,,,,,,,,,,,,,,,,,,,,,,,,,
,,,ALTJ8ONS93XVL,28,female,10,2023-01-18_16h08.21.719,perception_pilot,2022.2.4,Win32,4,,,space,1.616,,,,,,,,,,,,,,,,,,,,,,,,,,,,,,,
,,,ALTJ8ONS93XVL,28,female,10,2023-01-18_16h08.21.719,perception_pilot,2022.2.4,Win32,4,,,,,,,,,,,,,,,,,,,,,,,,,,,,,,,,,,,
,,,ALTJ8ONS93XVL,28,female,10,2023-01-18_16h08.21.719,perception_pilot,2022.2.4,Win32,4,,,,,1,1,33.533,0,0,0,0,1,VERMILION_FLYCATHER_3.jpg,INDIAN_BUSTARD_1.jpg,SATYR_TRAGOPAN_1.jpg,RED_BEARDED_BEE_EATER_1.jpg,CROWNED_PIGEON_1.jpg,1,3,2,1,1,0,,,,,,,,,,,,
,,,ALTJ8ONS93XVL,28,female,10,2023-01-18_16h08.21.719,perception_pilot,2022.2.4,Win32,4,,,,,2,1,1.492,0,1,1,1,1,FLAME_BOWERBIRD_3.jpg,QUETZAL_3.jpg,INDIAN_BUSTARD_2.jpg,GOULDIAN_FINCH_1.jpg,BROWN_THRASHER_4.jpg,1,3,2,3,2,1,,,,,,,,,,,,
,,,ALTJ8ONS93XVL,28,female,10,2023-01-18_16h08.21.719,perception_pilot,2022.2.4,Win32,4,,,,,3,0,2.107,0,2,2,2,1,RUBY_THROATED_HUMMINGBIRD_3.jpg,WHITE_CHEEKED_TURACO_4.jpg,NORTHERN_SHOVELER_1.jpg,MALABAR_HORNBILL_5.jpg,MYNA_5.jpg,3,1,2,1,2,2,,,,,,,,,,,,
,,,ALTJ8ONS93XVL,28,female,10,2023-01-18_16h08.21.719,perception_pilot,2022.2.4,Win32,4,,,,,2,0,1.979,0,3,3,3,1,HAWAIIAN_GOOSE_4.jpg,RED_BEARDED_BEE_EATER_3.jpg,HIMALAYAN_MONAL_2.jpg,WATTLED_LAPWING_3.jpg,DOUBLE_EYED_FIG_PARROT_1.jpg,2,3,1,1,3,3,,,,,,,,,,,,
,,,ALTJ8ONS93XVL,28,female,10,2023-01-18_16h08.21.719,perception_pilot,2022.2.4,Win32,4,,,,,1,0,1.834,0,4,4,4,1,ASIAN_DOLLARD_BIRD_2.jpg,HAWAIIAN_GOOSE_1.jpg,VIOLET_GREEN_SWALLOW_4.jpg,MCKAYS_BUNTING_1.jpg,ALBATROSS_2.jpg,3,2,1,2,2,4,,,,,,,,,,,,
,,,ALTJ8ONS93XVL,28,female,10,2023-01-18_16h08.21.719,perception_pilot,2022.2.4,Win32,4,,,,,2,1,2.183,0,5,5,5,1,OVENBIRD_5.jpg,FAIRY_PENGUIN_1.jpg,JABIRU_4.jpg,ABBOTTS_BOOBY_2.jpg,PURPLE_FINCH_5.jpg,1,2,3,2,2,5,,,,,,,,,,,,
,,,ALTJ8ONS93XVL,28,female,10,2023-01-18_16h08.21.719,perception_pilot,2022.2.4,Win32,4,,,,,2,0,1.781,0,6,6,6,1,INCA_TERN_4.jpg,BORNEAN_BRISTLEHEAD_5.jpg,WHITE_NECKED_RAVEN_4.jpg,SMITHS_LONGSPUR_5.jpg,ELLIOTS__PHEASANT_4.jpg,3,2,1,3,1,6,,,,,,,,,,,,
,,,ALTJ8ONS93XVL,28,female,10,2023-01-18_16h08.21.719,perception_pilot,2022.2.4,Win32,4,,,,,1,0,1.448,0,7,7,7,1,ASIAN_CRESTED_IBIS_4.jpg,OYSTER_CATCHER_2.jpg,CANARY_2.jpg,IVORY_GULL_2.jpg,AMERICAN_KESTREL_1.jpg,1,3,2,2,3,7,,,,,,,,,,,,
,,,ALTJ8ONS93XVL,28,female,10,2023-01-18_16h08.21.719,perception_pilot,2022.2.4,Win32,4,,,,,1,1,2.871,0,8,8,8,1,right.png,right.png,left.png,right.png,up.png,,,,,1,8,,,,,,,,,,,,
,,,ALTJ8ONS93XVL,28,female,10,2023-01-18_16h08.21.719,perception_pilot,2022.2.4,Win32,4,,,,,2,1,3.255,0,9,9,9,1,BROWN_NOODY_3.jpg,GUINEA_TURACO_5.jpg,KIWI_2.jpg,UMBRELLA_BIRD_4.jpg,SPANGLED_COTINGA_4.jpg,1,3,2,3,2,9,,,,,,,,,,,,
,,,ALTJ8ONS93XVL,28,female,10,2023-01-18_16h08.21.719,perception_pilot,2022.2.4,Win32,4,,,,,,,,,,,,,,,,,,,,,,,,space,5.532,,,,,,,,,,
,,,ALTJ8ONS93XVL,28,female,10,2023-01-18_16h08.21.719,perception_pilot,2022.2.4,Win32,4,,,,,,,,,,,,,PINK_ROBIN_4.jpg,ALBATROSS_4.jpg,COMMON_IORA_4.jpg,JACK_SNIPE_5.jpg,SPOONBILL_3.jpg,3,2,1,2,2,0,,,2,1,5.252,0,0,0,0,1,,
,,,ALTJ8ONS93XVL,28,female,10,2023-01-18_16h08.21.719,perception_pilot,2022.2.4,Win32,4,,,,,,,,,,,,,RUFOUS_KINGFISHER_1.jpg,BLACK_VENTED_SHEARWATER_2.jpg,BANDED_STILT_3.jpg,MAGPIE_GOOSE_3.jpg,HORNED_SUNGEM_4.jpg,1,2,3,1,1,1,,,2,0,4.522,0,1,1,1,1,,
,,,ALTJ8ONS93XVL,28,female,10,2023-01-18_16h08.21.719,perception_pilot,2022.2.4,Win32,4,,,,,,,,,,,,,LITTLE_AUK_5.jpg,BEARDED_BELLBIRD_1.jpg,SANDHILL_CRANE_3.jpg,ORANGE_BRESTED_BUNTING_3.jpg,DOWNY_WOODPECKER_1.jpg,1,2,3,3,3,2,,,2,0,3.803,0,2,2,2,1,,
,,,ALTJ8ONS93XVL,28,female,10,2023-01-18_16h08.21.719,perception_pilot,2022.2.4,Win32,4,,,,,,,,,,,,,CERULEAN_WARBLER_1.jpg,AMERICAN_FLAMINGO_5.jpg,ORIENTAL_BAY_OWL_1.jpg,BANANAQUIT_1.jpg,COCK_OF_THE__ROCK_2.jpg,1,3,2,2,3,3,,,2,0,0.304,0,3,3,3,1,,
,,,ALTJ8ONS93XVL,28,female,10,2023-01-18_16h08.21.719,perception_pilot,2022.2.4,Win32,4,,,,,,,,,,,,,BALI_STARLING_1.jpg,IBERIAN_MAGPIE_1.jpg,CAPE_LONGCLAW_5.jpg,GRANDALA_5.jpg,PURPLE_FINCH_2.jpg,1,3,2,3,2,4,,,1,0,0.328,0,4,4,4,1,,
,,,ALTJ8ONS93XVL,28,female,10,2023-01-18_16h08.21.719,perception_pilot,2022.2.4,Win32,4,,,,,,,,,,,,,NORTHERN_JACANA_2.jpg,RED_FACED_CORMORANT_1.jpg,GREEN_BROADBILL_1.jpg,SCARLET_IBIS_4.jpg,VULTURINE_GUINEAFOWL_5.jpg,1,3,2,3,2,5,,,2,1,0.281,0,5,5,5,1,,
,,,ALTJ8ONS93XVL,28,female,10,2023-01-18_16h08.21.719,perception_pilot,2022.2.4,Win32,4,,,,,,,,,,,,,RED_FACED_WARBLER_1.jpg,EMU_5.jpg,CAPE_GLOSSY_STARLING_2.jpg,BLACK_VENTED_SHEARWATER_4.jpg,SPOONBILL_4.jpg,3,2,1,1,3,6,,,2,0,0.268,0,6,6,6,1,,
,,,ALTJ8ONS93XVL,28,female,10,2023-01-18_16h08.21.719,perception_pilot,2022.2.4,Win32,4,,,,,,,,,,,,,EASTERN_TOWEE_2.jpg,HYACINTH_MACAW_4.jpg,ANDEAN_GOOSE_3.jpg,SANDHILL_CRANE_2.jpg,NORTHERN_BEARDLESS_TYRANNULET_5.jpg,2,1,3,2,1,7,,,3,0,0.338,0,7,7,7,1,,
,,,ALTJ8ONS93XVL,28,female,10,2023-01-18_16h08.21.719,perception_pilot,2022.2.4,Win32,4,,,,,,,,,,,,,KILLDEAR_2.jpg,CAATINGA_CACHOLOTE_4.jpg,CHATTERING_LORY_1.jpg,ALEXANDRINE_PARAKEET_5.jpg,AZURE_TIT_5.jpg,2,1,3,2,1,8,,,2,0,0.54,0,8,8,8,1,,
,,,ALTJ8ONS93XVL,28,female,10,2023-01-18_16h08.21.719,perception_pilot,2022.2.4,Win32,4,,,,,,,,,,,,,ARARIPE_MANAKIN_4.jpg,KIWI_3.jpg,BORNEAN_LEAFBIRD_3.jpg,BLACK_VULTURE_1.jpg,GREAT_GRAY_OWL_4.jpg,3,2,1,1,3,9,,,3,1,1.055,0,9,9,9,1,,
,,,ALTJ8ONS93XVL,28,female,10,2023-01-18_16h08.21.719,perception_pilot,2022.2.4,Win32,4,,,,,,,,,,,,,RUBY_THROATED_HUMMINGBIRD_2.jpg,DUSKY_ROBIN_5.jpg,GOLDEN_PARAKEET_2.jpg,APAPANE_4.jpg,EURASIAN_MAGPIE_3.jpg,1,2,3,3,3,10,,,2,0,0.291,0,10,10,10,1,,
,,,ALTJ8ONS93XVL,28,female,10,2023-01-18_16h08.21.719,perception_pilot,2022.2.4,Win32,4,,,,,,,,,,,,,TREE_SWALLOW_4.jpg,ROBIN_3.jpg,RED_FODY_3.jpg,CALIFORNIA_GULL_1.jpg,RED_HEADED_DUCK_5.jpg,3,2,1,2,2,11,,,3,0,0.309,0,11,11,11,1,,
,,,ALTJ8ONS93XVL,28,female,10,2023-01-18_16h08.21.719,perception_pilot,2022.2.4,Win32,4,,,,,,,,,,,,,IVORY_GULL_3.jpg,SNOWY_EGRET_4.jpg,INDIGO_FLYCATCHER_2.jpg,FLAME_TANAGER_3.jpg,FAN_TAILED_WIDOW_1.jpg,1,2,3,3,3,12,,,2,0,0.259,0,12,12,12,1,,
,,,ALTJ8ONS93XVL,28,female,10,2023-01-18_16h08.21.719,perception_pilot,2022.2.4,Win32,4,,,,,,,,,,,,,CASSOWARY_1.jpg,DEMOISELLE_CRANE_1.jpg,WHITE_NECKED_RAVEN_5.jpg,ROSY_FACED_LOVEBIRD_4.jpg,SCARLET_MACAW_1.jpg,3,1,2,3,1,13,,,3,0,0.251,0,13,13,13,1,,
,,,ALTJ8ONS93XVL,28,female,10,2023-01-18_16h08.21.719,perception_pilot,2022.2.4,Win32,4,,,,,,,,,,,,,SHOEBILL_3.jpg,GILDED_FLICKER_5.jpg,MALAGASY_WHITE_EYE_3.jpg,IWI_1.jpg,BALD_EAGLE_5.jpg,1,2,3,2,2,14,,,1,0,0.304,0,14,14,14,1,,
,,,ALTJ8ONS93XVL,28,female,10,2023-01-18_16h08.21.719,perception_pilot,2022.2.4,Win32,4,,,,,,,,,,,,,SPLENDID_WREN_1.jpg,DOUBLE_BRESTED_CORMARANT_1.jpg,CUBAN_TODY_4.jpg,BLACK_SWAN_2.jpg,PARAKETT__AKULET_3.jpg,3,2,1,2,2,15,,,2,1,0.719,0,15,15,15,1,,
,,,ALTJ8ONS93XVL,28,female,10,2023-01-18_16h08.21.719,perception_pilot,2022.2.4,Win32,4,,,,,,,,,,,,,NORTHERN_GANNET_2.jpg,PAINTED_BUNTING_5.jpg,EASTERN_TOWEE_1.jpg,STRAWBERRY_FINCH_1.jpg,MASKED_BOOBY_5.jpg,1,2,3,1,1,16,,,2,0,2.542,0,16,16,16,1,,
,,,ALTJ8ONS93XVL,28,female,10,2023-01-18_16h08.21.719,perception_pilot,2022.2.4,Win32,4,,,,,,,,,,,,,SKUA_4.jpg,PARUS_MAJOR_2.jpg,ROADRUNNER_5.jpg,SNOWY_EGRET_5.jpg,PURPLE_FINCH_4.jpg,3,1,2,2,3,17,,,3,1,1.692,0,17,17,17,1,,
,,,ALTJ8ONS93XVL,28,female,10,2023-01-18_16h08.21.719,perception_pilot,2022.2.4,Win32,4,,,,,,,,,,,,,GRAY_KINGBIRD_5.jpg,COCK_OF_THE__ROCK_4.jpg,AFRICAN_FIREFINCH_3.jpg,BALD_EAGLE_2.jpg,BLACK_SWAN_5.jpg,3,1,2,2,3,18,,,1,0,1.711,0,18,18,18,1,,
,,,ALTJ8ONS93XVL,28,female,10,2023-01-18_16h08.21.719,perception_pilot,2022.2.4,Win32,4,,,,,,,,,,,,,BARRED_PUFFBIRD_3.jpg,WHITE_CHEEKED_TURACO_2.jpg,NORTHERN_CARDINAL_5.jpg,CUBAN_TODY_3.jpg,VEERY_4.jpg,2,1,3,1,2,19,,,3,0,1.673,0,19,19,19,1,,
,,,ALTJ8ONS93XVL,28,female,10,2023-01-18_16h08.21.719,perception_pilot,2022.2.4,Win32,4,,,,,,,,,,,,,LARK_BUNTING_2.jpg,CACTUS_WREN_3.jpg,GRANDALA_4.jpg,EMU_3.jpg,KING_VULTURE_3.jpg,3,1,2,3,1,20,,,1,1,1.582,0,20,20,20,1,,
,,,ALTJ8ONS93XVL,28,female,10,2023-01-18_16h08.21.719,perception_pilot,2022.2.4,Win32,4,,,,,,,,,,,,,left.png,left.png,up.png,right.png,left.png,,,,,2,21,,,3,0,1.544,0,21,21,21,1,,
,,,ALTJ8ONS93XVL,28,female,10,2023-01-18_16h08.21.719,perception_pilot,2022.2.4,Win32,4,,,,,,,,,,,,,GOLDEN_CHEEKED_WARBLER_2.jpg,WHITE_THROATED_BEE_EATER_1.jpg,SPOONBILL_1.jpg,DARJEELING_WOODPECKER_1.jpg,AMERICAN_FLAMINGO_3.jpg,1,3,2,3,2,22,,,1,0,1.713,0,22,22,22,1,,
,,,ALTJ8ONS93XVL,28,female,10,2023-01-18_16h08.21.719,perception_pilot,2022.2.4,Win32,4,,,,,,,,,,,,,MAGPIE_GOOSE_5.jpg,HAMERKOP_1.jpg,OYSTER_CATCHER_3.jpg,DOUBLE_EYED_FIG_PARROT_5.jpg,LILAC_ROLLER_2.jpg,3,1,2,2,3,23,,,2,0,1.375,0,23,23,23,1,,
,,,ALTJ8ONS93XVL,28,female,10,2023-01-18_16h08.21.719,perception_pilot,2022.2.4,Win32,4,,,,,,,,,,,,,GILA_WOODPECKER_3.jpg,BLACK_SWAN_3.jpg,EGYPTIAN_GOOSE_3.jpg,BLACK_VULTURE_3.jpg,SNOWY_OWL_4.jpg,1,3,2,1,1,24,,,2,0,0.239,0,24,24,24,1,,
,,,ALTJ8ONS93XVL,28,female,10,2023-01-18_16h08.21.719,perception_pilot,2022.2.4,Win32,4,,,,,,,,,,,,,MCKAYS_BUNTING_3.jpg,EMU_4.jpg,IWI_2.jpg,DEMOISELLE_CRANE_3.jpg,AMERICAN_GOLDFINCH_4.jpg,2,1,3,1,2,25,,,3,0,0.84,0,25,25,25,1,,
,,,ALTJ8ONS93XVL,28,female,10,2023-01-18_16h08.21.719,perception_pilot,2022.2.4,Win32,4,,,,,,,,,,,,,AMERICAN_PIPIT_5.jpg,HEPATIC_TANAGER_5.jpg,AMERICAN_GOLDFINCH_5.jpg,GREEN_MAGPIE_1.jpg,EMU_2.jpg,3,2,1,3,1,26,,,3,0,0.369,0,26,26,26,1,,
,,,ALTJ8ONS93XVL,28,female,10,2023-01-18_16h08.21.719,perception_pilot,2022.2.4,Win32,4,,,,,,,,,,,,,GREY_PLOVER_1.jpg,GOULDIAN_FINCH_4.jpg,HYACINTH_MACAW_3.jpg,BORNEAN_LEAFBIRD_2.jpg,AMETHYST_WOODSTAR_4.jpg,1,2,3,2,2,27,,,1,0,0.287,0,27,27,27,1,,
,,,ALTJ8ONS93XVL,28,female,10,2023-01-18_16h08.21.719,perception_pilot,2022.2.4,Win32,4,,,,,,,,,,,,,NORTHERN_JACANA_3.jpg,REGENT_BOWERBIRD_5.jpg,BAR-TAILED_GODWIT_3.jpg,ASHY_THRUSHBIRD_4.jpg,BANANAQUIT_3.jpg,3,2,1,2,2,28,,,3,0,0.3,0,28,28,28,1,,
,,,ALTJ8ONS93XVL,28,female,10,2023-01-18_16h08.21.719,perception_pilot,2022.2.4,Win32,4,,,,,,,,,,,,,MALACHITE_KINGFISHER_2.jpg,GREEN_BROADBILL_5.jpg,JAVA_SPARROW_5.jpg,SKUA_3.jpg,INCA_TERN_2.jpg,3,1,2,3,1,29,,,2,0,0.572,0,29,29,29,1,,
,,,ALTJ8ONS93XVL,28,female,10,2023-01-18_16h08.21.719,perception_pilot,2022.2.4,Win32,4,,,,,,,,,,,,,BREWERS_BLACKBIRD_3.jpg,CAPE_LONGCLAW_2.jpg,PEACOCK_4.jpg,AFRICAN_OYSTER_CATCHER_2.jpg,GOLDEN_CHEEKED_WARBLER_3.jpg,1,3,2,3,2,30,,,1,0,0.286,0,30,30,30,1,,
,,,ALTJ8ONS93XVL,28,female,10,2023-01-18_16h08.21.719,perception_pilot,2022.2.4,Win32,4,,,,,,,,,,,,,TASMANIAN_HEN_5.jpg,COPPERY_TAILED_COUCAL_1.jpg,BLACKBURNIAM_WARBLER_3.jpg,AFRICAN_EMERALD_CUCKOO_5.jpg,AUCKLAND_SHAQ_2.jpg,1,2,3,3,3,31,,,1,0,0.273,0,31,31,31,1,,
,,,ALTJ8ONS93XVL,28,female,10,2023-01-18_16h08.21.719,perception_pilot,2022.2.4,Win32,4,,,,,,,,,,,,,right.png,right.png,up.png,left.png,right.png,,,,,2,32,,,2,1,0.372,0,32,32,32,1,,
,,,ALTJ8ONS93XVL,28,female,10,2023-01-18_16h08.21.719,perception_pilot,2022.2.4,Win32,4,,,,,,,,,,,,,CRESTED_NUTHATCH_2.jpg,SCARLET_IBIS_3.jpg,AFRICAN_FIREFINCH_1.jpg,DOUBLE_BRESTED_CORMARANT_4.jpg,CANARY_1.jpg,2,1,3,1,2,33,,,2,1,1.318,0,33,33,33,1,,
,,,ALTJ8ONS93XVL,28,female,10,2023-01-18_16h08.21.719,perception_pilot,2022.2.4,Win32,4,,,,,,,,,,,,,LESSER_ADJUTANT_5.jpg,AMERICAN_GOLDFINCH_1.jpg,GAMBELS_QUAIL_1.jpg,MALAGASY_WHITE_EYE_2.jpg,RED_HEADED_WOODPECKER_1.jpg,2,1,3,1,2,34,,,3,0,0.549,0,34,34,34,1,,
,,,ALTJ8ONS93XVL,28,female,10,2023-01-18_16h08.21.719,perception_pilot,2022.2.4,Win32,4,,,,,,,,,,,,,STRIPPED_SWALLOW_1.jpg,MAGPIE_GOOSE_4.jpg,EMPEROR_PENGUIN_5.jpg,ANDEAN_GOOSE_1.jpg,GO_AWAY_BIRD_5.jpg,1,2,3,2,2,35,,,1,0,0.283,0,35,35,35,1,,
,,,ALTJ8ONS93XVL,28,female,10,2023-01-18_16h08.21.719,perception_pilot,2022.2.4,Win32,4,,,,,,,,,,,,,INDIGO_BUNTING_1.jpg,FRIGATE_4.jpg,SNOWY_PLOVER_1.jpg,POMARINE_JAEGER_5.jpg,DARWINS_FLYCATCHER_2.jpg,2,1,3,1,2,36,,,2,1,0.709,0,36,36,36,1,,
,,,ALTJ8ONS93XVL,28,female,10,2023-01-18_16h08.21.719,perception_pilot,2022.2.4,Win32,4,,,,,,,,,,,,,CHUKAR_PARTRIDGE_5.jpg,BLACK_THROATED_BUSHTIT_1.jpg,OSTRICH_3.jpg,PUFFIN_3.jpg,RAZORBILL_1.jpg,1,3,2,3,2,37,,,3,0,0.268,0,37,37,37,1,,
,,,ALTJ8ONS93XVL,28,female,10,2023-01-18_16h08.21.719,perception_pilot,2022.2.4,Win32,4,,,,,,,,,,,,,GYRFALCON_1.jpg,FAIRY_TERN_1.jpg,CINNAMON_ATTILA_2.jpg,YELLOW_HEADED_BLACKBIRD_3.jpg,ASHY_STORM_PETREL_2.jpg,2,3,1,3,2,38,,,2,1,0.299,0,38,38,38,1,,
,,,ALTJ8ONS93XVL,28,female,10,2023-01-18_16h08.21.719,perception_pilot,2022.2.4,Win32,4,,,,,,,,,,,,,WHITE_CHEEKED_TURACO_5.jpg,CHINESE_POND_HERON_1.jpg,SNOWY_EGRET_1.jpg,PYGMY_KINGFISHER_2.jpg,CHARA_DE_COLLAR_2.jpg,2,3,1,1,3,39,,,3,1,0.553,0,39,39,39,1,,
,,,ALTJ8ONS93XVL,28,female,10,2023-01-18_16h08.21.719,perception_pilot,2022.2.4,Win32,4,,,,,,,,,,,,,PARUS_MAJOR_1.jpg,PINK_ROBIN_3.jpg,COMMON_POORWILL_1.jpg,CALIFORNIA_GULL_2.jpg,FAIRY_BLUEBIRD_5.jpg,1,2,3,3,3,40,,,3,1,0.281,0,40,40,40,1,,
,,,ALTJ8ONS93XVL,28,female,10,2023-01-18_16h08.21.719,perception_pilot,2022.2.4,Win32,4,,,,,,,,,,,,,LESSER_ADJUTANT_4.jpg,FAIRY_TERN_3.jpg,RAINBOW_LORIKEET_5.jpg,ALTAMIRA_YELLOWTHROAT_5.jpg,CRAB_PLOVER_4.jpg,2,1,3,3,3,41,,,3,1,0.358,0,41,41,41,1,,
,,,ALTJ8ONS93XVL,28,female,10,2023-01-18_16h08.21.719,perception_pilot,2022.2.4,Win32,4,,,,,,,,,,,,,GOLDEN_CHLOROPHONIA_5.jpg,ROADRUNNER_2.jpg,WHIMBREL_1.jpg,COMMON_HOUSE_MARTIN_4.jpg,VERMILION_FLYCATHER_5.jpg,1,2,3,1,1,42,,,3,0,0.336,0,42,42,42,1,,
,,,ALTJ8ONS93XVL,28,female,10,2023-01-18_16h08.21.719,perception_pilot,2022.2.4,Win32,4,,,,,,,,,,,,,CRESTED_CARACARA_4.jpg,BLUE_DACNIS_4.jpg,FAIRY_PENGUIN_5.jpg,PARADISE_TANAGER_1.jpg,TOUCHAN_4.jpg,1,2,3,2,2,43,,,3,0,0.312,0,43,43,43,1,,
,,,ALTJ8ONS93XVL,28,female,10,2023-01-18_16h08.21.719,perception_pilot,2022.2.4,Win32,4,,,,,,,,,,,,,CASPIAN_TERN_1.jpg,BRANDT_CORMARANT_4.jpg,COMMON_LOON_2.jpg,COMMON_POORWILL_4.jpg,EUROPEAN_GOLDFINCH_4.jpg,3,1,2,1,2,44,,,3,0,0.271,0,44,44,44,1,,
,,,ALTJ8ONS93XVL,28,female,10,2023-01-18_16h08.21.719,perception_pilot,2022.2.4,Win32,4,,,,,,,,,,,,,NICOBAR_PIGEON_1.jpg,LITTLE_AUK_1.jpg,GREY_PLOVER_5.jpg,EASTERN_BLUEBIRD_3.jpg,MYNA_4.jpg,2,3,1,2,1,45,,,3,0,0.33,0,45,45,45,1,,
,,,ALTJ8ONS93XVL,28,female,10,2023-01-18_16h08.21.719,perception_pilot,2022.2.4,Win32,4,,,,,,,,,,,,,PYGMY_KINGFISHER_5.jpg,GRANDALA_2.jpg,MIKADO__PHEASANT_5.jpg,GREAT_POTOO_3.jpg,NORTHERN_PARULA_5.jpg,1,2,3,1,1,46,,,3,0,0.271,0,46,46,46,1,,
,,,ALTJ8ONS93XVL,28,female,10,2023-01-18_16h08.21.719,perception_pilot,2022.2.4,Win32,4,,,,,,,,,,,,,INLAND_DOTTEREL_4.jpg,NICOBAR_PIGEON_4.jpg,JANDAYA_PARAKEET_5.jpg,COCK_OF_THE__ROCK_5.jpg,CRESTED_KINGFISHER_1.jpg,1,2,3,2,2,47,,,3,0,0.245,0,47,47,47,1,,
,,,ALTJ8ONS93XVL,28,female,10,2023-01-18_16h08.21.719,perception_pilot,2022.2.4,Win32,4,,,,,,,,,,,,,IVORY_GULL_1.jpg,WILSONS_BIRD_OF_PARADISE_4.jpg,EASTERN_GOLDEN_WEAVER_5.jpg,OCELLATED_TURKEY_2.jpg,FAIRY_TERN_4.jpg,2,1,3,1,2,48,,,1,0,0.314,0,48,48,48,1,,
,,,ALTJ8ONS93XVL,28,female,10,2023-01-18_16h08.21.719,perception_pilot,2022.2.4,Win32,4,,,,,,,,,,,,,right.png,right.png,up.png,left.png,right.png,,,,,2,49,,,1,0,0.315,0,49,49,49,1,,
,,,ALTJ8ONS93XVL,28,female,10,2023-01-18_16h08.21.719,perception_pilot,2022.2.4,Win32,4,,,,,,,,,,,,,PEACOCK_3.jpg,IBERIAN_MAGPIE_2.jpg,STRAWBERRY_FINCH_4.jpg,ANIANIAU_2.jpg,CHATTERING_LORY_3.jpg,2,1,3,3,3,50,,,1,0,0.705,0,50,50,50,1,,
,,,ALTJ8ONS93XVL,28,female,10,2023-01-18_16h08.21.719,perception_pilot,2022.2.4,Win32,4,,,,,,,,,,,,,RUBY_THROATED_HUMMINGBIRD_1.jpg,FRIGATE_1.jpg,EURASIAN_GOLDEN_ORIOLE_5.jpg,NORTHERN_CARDINAL_1.jpg,VULTURINE_GUINEAFOWL_4.jpg,1,3,2,3,2,51,,,2,1,0.409,0,51,51,51,1,,
,,,ALTJ8ONS93XVL,28,female,10,2023-01-18_16h08.21.719,perception_pilot,2022.2.4,Win32,4,,,,,,,,,,,,,MYNA_1.jpg,GREY_PLOVER_4.jpg,SANDHILL_CRANE_4.jpg,GRAY_PARTRIDGE_5.jpg,PARADISE_TANAGER_3.jpg,1,2,3,2,2,52,,,1,0,0.523,0,52,52,52,1,,
,,,ALTJ8ONS93XVL,28,female,10,2023-01-18_16h08.21.719,perception_pilot,2022.2.4,Win32,4,,,,,,,,,,,,,BROWN_THRASHER_3.jpg,DOUBLE_EYED_FIG_PARROT_3.jpg,OYSTER_CATCHER_4.jpg,BLACK_BAZA_4.jpg,RED_BEARDED_BEE_EATER_4.jpg,2,3,1,1,3,53,,,1,0,0.329,0,53,53,53,1,,
,,,ALTJ8ONS93XVL,28,female,10,2023-01-18_16h08.21.719,perception_pilot,2022.2.4,Win32,4,,,,,,,,,,,,,AFRICAN_PIED_HORNBILL_5.jpg,ALEXANDRINE_PARAKEET_1.jpg,KIWI_4.jpg,INDIAN_PITTA_2.jpg,CAPUCHINBIRD_2.jpg,1,2,3,2,2,54,,,3,0,0.618,0,54,54,54,1,,
,,,ALTJ8ONS93XVL,28,female,10,2023-01-18_16h08.21.719,perception_pilot,2022.2.4,Win32,4,,,,,,,,,,,,,KAGU_5.jpg,ASHY_STORM_PETREL_1.jpg,MANDRIN_DUCK_4.jpg,IMPERIAL_SHAQ_2.jpg,EASTERN_MEADOWLARK_1.jpg,2,3,1,2,1,55,,,3,0,0.276,0,55,55,55,1,,
,,,ALTJ8ONS93XVL,28,female,10,2023-01-18_16h08.21.719,perception_pilot,2022.2.4,Win32,4,,,,,,,,,,,,,SCARLET_TANAGER_2.jpg,CARMINE_BEE-EATER_1.jpg,BORNEAN_LEAFBIRD_1.jpg,BIRD_OF_PARADISE_3.jpg,LITTLE_AUK_3.jpg,3,1,2,1,2,56,,,3,0,1.775,0,56,56,56,1,,
,,,ALTJ8ONS93XVL,28,female,10,2023-01-18_16h08.21.719,perception_pilot,2022.2.4,Win32,4,,,,,,,,,,,,,EUROPEAN_TURTLE_DOVE_3.jpg,TEAL_DUCK_2.jpg,MALABAR_HORNBILL_2.jpg,PAINTED_BUNTING_3.jpg,SNOWY_EGRET_3.jpg,3,2,1,1,3,57,,,3,1,0.278,0,57,57,57,1,,
,,,ALTJ8ONS93XVL,28,female,10,2023-01-18_16h08.21.719,perception_pilot,2022.2.4,Win32,4,,,,,,,,,,,,,OCELLATED_TURKEY_1.jpg,LARK_BUNTING_1.jpg,PURPLE_SWAMPHEN_4.jpg,AMERICAN_KESTREL_2.jpg,CHIPPING_SPARROW_1.jpg,3,2,1,2,2,58,,,1,0,0.568,0,58,58,58,1,,
,,,ALTJ8ONS93XVL,28,female,10,2023-01-18_16h08.21.719,perception_pilot,2022.2.4,Win32,4,,,,,,,,,,,,,DOUBLE_BRESTED_CORMARANT_5.jpg,GILDED_FLICKER_2.jpg,EURASIAN_MAGPIE_4.jpg,CHINESE_POND_HERON_2.jpg,SNOWY_OWL_3.jpg,2,3,1,1,3,59,,,1,0,0.291,0,59,59,59,1,,
,,,ALTJ8ONS93XVL,28,female,10,2023-01-18_16h08.21.719,perception_pilot,2022.2.4,Win32,4,,,,,,,,,,,,,right.png,right.png,up.png,left.png,right.png,,,,,2,60,,,1,0,0.358,0,60,60,60,1,,
,,,ALTJ8ONS93XVL,28,female,10,2023-01-18_16h08.21.719,perception_pilot,2022.2.4,Win32,4,,,,,,,,,,,,,ECUADORIAN_HILLSTAR_5.jpg,CRIMSON_SUNBIRD_5.jpg,GREEN_BROADBILL_4.jpg,BOBOLINK_5.jpg,SCARLET_IBIS_2.jpg,3,2,1,3,1,61,,,3,0,0.309,0,61,61,61,1,,
,,,ALTJ8ONS93XVL,28,female,10,2023-01-18_16h08.21.719,perception_pilot,2022.2.4,Win32,4,,,,,,,,,,,,,RED_HEADED_WOODPECKER_5.jpg,COLLARED_ARACARI_1.jpg,BLACKBURNIAM_WARBLER_4.jpg,CRIMSON_CHAT_3.jpg,GREAT_GRAY_OWL_5.jpg,3,2,1,3,1,62,,,2,0,1.165,0,62,62,62,1,,
,,,ALTJ8ONS93XVL,28,female,10,2023-01-18_16h08.21.719,perception_pilot,2022.2.4,Win32,4,,,,,,,,,,,,,ALPINE_CHOUGH_4.jpg,SNOWY_EGRET_2.jpg,BOBOLINK_3.jpg,EUROPEAN_GOLDFINCH_3.jpg,AMERICAN_FLAMINGO_2.jpg,3,2,1,1,3,63,,,2,0,0.399,0,63,63,63,1,,
,,,ALTJ8ONS93XVL,28,female,10,2023-01-18_16h08.21.719,perception_pilot,2022.2.4,Win32,4,,,,,,,,,,,,,right.png,right.png,up.png,left.png,right.png,,,,,2,64,,,2,1,0.347,0,64,64,64,1,,
,,,ALTJ8ONS93XVL,28,female,10,2023-01-18_16h08.21.719,perception_pilot,2022.2.4,Win32,4,,,,,,,,,,,,,,,,,,,,,,,,,,,,,,,,,,space,45.941
