button.numClicks,button.timesOn,button.timesOff,workID,Age,Gender,Hours slept (last night),date,expName,psychopyVersion,OS,frameRate,key_resp_13.keys,key_resp_13.rt,key_resp_14.keys,key_resp_14.rt,key_resp_3.keys,key_resp_3.corr,key_resp_3.rt,demo_loop.thisRepN,demo_loop.thisTrialN,demo_loop.thisN,demo_loop.thisIndex,demo_loop.ran,target_image,target_match,option1,option2,option3,option1_layer,option2_layer,option3_layer,match_layer,correct_answer,trial_num,key_resp_15.keys,key_resp_15.rt,key_resp.keys,key_resp.corr,key_resp.rt,trials.thisRepN,trials.thisTrialN,trials.thisN,trials.thisIndex,trials.ran,key_resp_end_2.keys,key_resp_end_2.rt
1,[13.36499999999998],[13.36499999999998],AWWBF2RVU8HNM,37,Male,8,2023-01-18_12h58.24.919,perception_pilot,2022.2.4,Win32,10.00040002,,,,,,,,,,,,,,,,,,,,,,,,,,,,,,,,,,,
,,,AWWBF2RVU8HNM,37,Male,8,2023-01-18_12h58.24.919,perception_pilot,2022.2.4,Win32,10.00040002,space,35.568,,,,,,,,,,,,,,,,,,,,,,,,,,,,,,,,,
,,,AWWBF2RVU8HNM,37,Male,8,2023-01-18_12h58.24.919,perception_pilot,2022.2.4,Win32,10.00040002,,,space,22.314,,,,,,,,,,,,,,,,,,,,,,,,,,,,,,,
,,,AWWBF2RVU8HNM,37,Male,8,2023-01-18_12h58.24.919,perception_pilot,2022.2.4,Win32,10.00040002,,,,,,,,,,,,,,,,,,,,,,,,,,,,,,,,,,,
,,,AWWBF2RVU8HNM,37,Male,8,2023-01-18_12h58.24.919,perception_pilot,2022.2.4,Win32,10.00040002,,,,,2,1,11.815,0,0,0,0,1,CHUKAR_PARTRIDGE_5.jpg,OSTRICH_3.jpg,BLACK_THROATED_BUSHTIT_1.jpg,EMU_1.jpg,RAZORBILL_1.jpg,3,1,2,1,2,0,,,,,,,,,,,,
,,,AWWBF2RVU8HNM,37,Male,8,2023-01-18_12h58.24.919,perception_pilot,2022.2.4,Win32,10.00040002,,,,,3,0,11.464,0,1,1,1,1,OCELLATED_TURKEY_1.jpg,PURPLE_SWAMPHEN_4.jpg,GLOSSY_IBIS_2.jpg,CHIPPING_SPARROW_1.jpg,LARK_BUNTING_1.jpg,3,1,2,3,1,1,,,,,,,,,,,,
,,,AWWBF2RVU8HNM,37,Male,8,2023-01-18_12h58.24.919,perception_pilot,2022.2.4,Win32,10.00040002,,,,,1,0,8.356,0,2,2,2,1,BALI_STARLING_1.jpg,IBERIAN_MAGPIE_1.jpg,PURPLE_FINCH_2.jpg,GRANDALA_5.jpg,CAPE_LONGCLAW_5.jpg,2,3,1,3,2,2,,,,,,,,,,,,
,,,AWWBF2RVU8HNM,37,Male,8,2023-01-18_12h58.24.919,perception_pilot,2022.2.4,Win32,10.00040002,,,,,3,1,5.601,0,3,3,3,1,left.png,left.png,left.png,up.png,right.png,,,,,3,3,,,,,,,,,,,,
,,,AWWBF2RVU8HNM,37,Male,8,2023-01-18_12h58.24.919,perception_pilot,2022.2.4,Win32,10.00040002,,,,,2,1,3.849,0,4,4,4,1,NICOBAR_PIGEON_1.jpg,EASTERN_BLUEBIRD_3.jpg,MYNA_4.jpg,ROSY_FACED_LOVEBIRD_2.jpg,LITTLE_AUK_1.jpg,1,3,2,3,2,4,,,,,,,,,,,,
,,,AWWBF2RVU8HNM,37,Male,8,2023-01-18_12h58.24.919,perception_pilot,2022.2.4,Win32,10.00040002,,,,,3,1,4.798,0,5,5,5,1,WHITE_CHEEKED_TURACO_5.jpg,SNOWY_EGRET_1.jpg,CHINESE_POND_HERON_1.jpg,PYGMY_KINGFISHER_2.jpg,ORIENTAL_BAY_OWL_5.jpg,1,3,2,2,3,5,,,,,,,,,,,,
,,,AWWBF2RVU8HNM,37,Male,8,2023-01-18_12h58.24.919,perception_pilot,2022.2.4,Win32,10.00040002,,,,,1,1,3.932,0,6,6,6,1,SCARLET_TANAGER_2.jpg,CARMINE_BEE-EATER_1.jpg,BIRD_OF_PARADISE_3.jpg,LITTLE_AUK_3.jpg,BORNEAN_LEAFBIRD_1.jpg,1,2,3,1,1,6,,,,,,,,,,,,
,,,AWWBF2RVU8HNM,37,Male,8,2023-01-18_12h58.24.919,perception_pilot,2022.2.4,Win32,10.00040002,,,,,3,1,3.604,0,7,7,7,1,PARUS_MAJOR_1.jpg,CALIFORNIA_GULL_2.jpg,COMMON_POORWILL_1.jpg,PINK_ROBIN_3.jpg,BLACK_SWAN_4.jpg,1,3,2,2,3,7,,,,,,,,,,,,
,,,AWWBF2RVU8HNM,37,Male,8,2023-01-18_12h58.24.919,perception_pilot,2022.2.4,Win32,10.00040002,,,,,2,1,4.347,0,8,8,8,1,EUROPEAN_TURTLE_DOVE_3.jpg,PAINTED_BUNTING_3.jpg,MALABAR_HORNBILL_2.jpg,CAPE_GLOSSY_STARLING_1.jpg,TEAL_DUCK_2.jpg,3,2,1,2,2,8,,,,,,,,,,,,
,,,AWWBF2RVU8HNM,37,Male,8,2023-01-18_12h58.24.919,perception_pilot,2022.2.4,Win32,10.00040002,,,,,2,1,1.683,0,9,9,9,1,RUBY_THROATED_HUMMINGBIRD_3.jpg,WHITE_CHEEKED_TURACO_4.jpg,MYNA_5.jpg,MALABAR_HORNBILL_5.jpg,NORTHERN_SHOVELER_1.jpg,2,1,3,1,2,9,,,,,,,,,,,,
,,,AWWBF2RVU8HNM,37,Male,8,2023-01-18_12h58.24.919,perception_pilot,2022.2.4,Win32,10.00040002,,,,,,,,,,,,,,,,,,,,,,,,space,2.963,,,,,,,,,,
,,,AWWBF2RVU8HNM,37,Male,8,2023-01-18_12h58.24.919,perception_pilot,2022.2.4,Win32,10.00040002,,,,,,,,,,,,,IVORY_GULL_3.jpg,FLAME_TANAGER_3.jpg,SNOWY_EGRET_4.jpg,INDIGO_FLYCATCHER_2.jpg,CACTUS_WREN_1.jpg,3,1,2,2,3,0,,,1,0,5.471,0,0,0,0,1,,
,,,AWWBF2RVU8HNM,37,Male,8,2023-01-18_12h58.24.919,perception_pilot,2022.2.4,Win32,10.00040002,,,,,,,,,,,,,STRIPPED_SWALLOW_1.jpg,MAGPIE_GOOSE_4.jpg,ANDEAN_GOOSE_1.jpg,EMPEROR_PENGUIN_5.jpg,GO_AWAY_BIRD_5.jpg,2,1,3,2,1,1,,,3,0,6.389,0,1,1,1,1,,
,,,AWWBF2RVU8HNM,37,Male,8,2023-01-18_12h58.24.919,perception_pilot,2022.2.4,Win32,10.00040002,,,,,,,,,,,,,GRAY_KINGBIRD_5.jpg,AFRICAN_FIREFINCH_3.jpg,COCK_OF_THE__ROCK_4.jpg,BALD_EAGLE_2.jpg,EVENING_GROSBEAK_4.jpg,2,1,3,3,3,2,,,2,0,11.47,0,2,2,2,1,,
,,,AWWBF2RVU8HNM,37,Male,8,2023-01-18_12h58.24.919,perception_pilot,2022.2.4,Win32,10.00040002,,,,,,,,,,,,,GOLDEN_CHLOROPHONIA_5.jpg,VERMILION_FLYCATHER_5.jpg,DARWINS_FLYCATCHER_3.jpg,ROADRUNNER_2.jpg,COMMON_HOUSE_MARTIN_4.jpg,3,1,2,3,1,3,,,2,0,9.38,0,3,3,3,1,,
,,,AWWBF2RVU8HNM,37,Male,8,2023-01-18_12h58.24.919,perception_pilot,2022.2.4,Win32,10.00040002,,,,,,,,,,,,,INLAND_DOTTEREL_4.jpg,NICOBAR_PIGEON_4.jpg,CRESTED_KINGFISHER_1.jpg,COCK_OF_THE__ROCK_5.jpg,JANDAYA_PARAKEET_5.jpg,3,2,1,2,2,4,,,1,0,5.686,0,4,4,4,1,,
,,,AWWBF2RVU8HNM,37,Male,8,2023-01-18_12h58.24.919,perception_pilot,2022.2.4,Win32,10.00040002,,,,,,,,,,,,,ASIAN_DOLLARD_BIRD_2.jpg,HAWAIIAN_GOOSE_1.jpg,VIOLET_GREEN_SWALLOW_4.jpg,MCKAYS_BUNTING_1.jpg,ALBATROSS_2.jpg,3,2,1,2,2,5,,,3,0,6.662,0,5,5,5,1,,
,,,AWWBF2RVU8HNM,37,Male,8,2023-01-18_12h58.24.919,perception_pilot,2022.2.4,Win32,10.00040002,,,,,,,,,,,,,TASMANIAN_HEN_5.jpg,COPPERY_TAILED_COUCAL_1.jpg,BLACKBURNIAM_WARBLER_3.jpg,AUCKLAND_SHAQ_2.jpg,AFRICAN_EMERALD_CUCKOO_5.jpg,1,3,2,3,2,6,,,2,1,6.588,0,6,6,6,1,,
,,,AWWBF2RVU8HNM,37,Male,8,2023-01-18_12h58.24.919,perception_pilot,2022.2.4,Win32,10.00040002,,,,,,,,,,,,,BREWERS_BLACKBIRD_3.jpg,GOLDEN_CHEEKED_WARBLER_3.jpg,AMERICAN_AVOCET_5.jpg,PEACOCK_4.jpg,CAPE_LONGCLAW_2.jpg,2,1,3,2,1,7,,,2,0,2.607,0,7,7,7,1,,
,,,AWWBF2RVU8HNM,37,Male,8,2023-01-18_12h58.24.919,perception_pilot,2022.2.4,Win32,10.00040002,,,,,,,,,,,,,BROWN_THRASHER_3.jpg,OYSTER_CATCHER_4.jpg,DOUBLE_EYED_FIG_PARROT_3.jpg,RED_HEADED_WOODPECKER_2.jpg,BLACK_BAZA_4.jpg,1,2,3,2,2,8,,,1,0,3.352,0,8,8,8,1,,
,,,AWWBF2RVU8HNM,37,Male,8,2023-01-18_12h58.24.919,perception_pilot,2022.2.4,Win32,10.00040002,,,,,,,,,,,,,right.png,right.png,left.png,right.png,up.png,,,,,1,9,,,1,1,2.066,0,9,9,9,1,,
,,,AWWBF2RVU8HNM,37,Male,8,2023-01-18_12h58.24.919,perception_pilot,2022.2.4,Win32,10.00040002,,,,,,,,,,,,,VERMILION_FLYCATHER_3.jpg,CROWNED_PIGEON_1.jpg,LITTLE_AUK_4.jpg,INDIAN_BUSTARD_1.jpg,RED_BEARDED_BEE_EATER_1.jpg,2,1,3,2,1,10,,,2,0,4.576,0,10,10,10,1,,
,,,AWWBF2RVU8HNM,37,Male,8,2023-01-18_12h58.24.919,perception_pilot,2022.2.4,Win32,10.00040002,,,,,,,,,,,,,NORTHERN_JACANA_2.jpg,RED_FACED_CORMORANT_1.jpg,VULTURINE_GUINEAFOWL_5.jpg,SCARLET_IBIS_4.jpg,GREEN_BROADBILL_1.jpg,2,3,1,3,2,11,,,1,0,4.165,0,11,11,11,1,,
,,,AWWBF2RVU8HNM,37,Male,8,2023-01-18_12h58.24.919,perception_pilot,2022.2.4,Win32,10.00040002,,,,,,,,,,,,,MCKAYS_BUNTING_3.jpg,AMERICAN_GOLDFINCH_4.jpg,EMU_4.jpg,PALILA_5.jpg,IWI_2.jpg,1,3,2,3,2,12,,,1,0,4.741,0,12,12,12,1,,
,,,AWWBF2RVU8HNM,37,Male,8,2023-01-18_12h58.24.919,perception_pilot,2022.2.4,Win32,10.00040002,,,,,,,,,,,,,AFRICAN_PIED_HORNBILL_5.jpg,KIWI_4.jpg,BORNEAN_PHEASANT_4.jpg,CAPUCHINBIRD_2.jpg,ALEXANDRINE_PARAKEET_1.jpg,1,3,2,1,1,13,,,3,0,7.96,0,13,13,13,1,,
,,,AWWBF2RVU8HNM,37,Male,8,2023-01-18_12h58.24.919,perception_pilot,2022.2.4,Win32,10.00040002,,,,,,,,,,,,,AMERICAN_PIPIT_5.jpg,EMU_2.jpg,PEACOCK_2.jpg,HEPATIC_TANAGER_5.jpg,GREEN_MAGPIE_1.jpg,1,3,2,1,1,14,,,1,1,4.403,0,14,14,14,1,,
,,,AWWBF2RVU8HNM,37,Male,8,2023-01-18_12h58.24.919,perception_pilot,2022.2.4,Win32,10.00040002,,,,,,,,,,,,,BROWN_NOODY_3.jpg,KIWI_2.jpg,PEACOCK_5.jpg,SPANGLED_COTINGA_4.jpg,GUINEA_TURACO_5.jpg,1,2,3,1,1,15,,,1,1,1.684,0,15,15,15,1,,
,,,AWWBF2RVU8HNM,37,Male,8,2023-01-18_12h58.24.919,perception_pilot,2022.2.4,Win32,10.00040002,,,,,,,,,,,,,CERULEAN_WARBLER_1.jpg,ORIENTAL_BAY_OWL_1.jpg,DALMATIAN_PELICAN_5.jpg,BANANAQUIT_1.jpg,AMERICAN_FLAMINGO_5.jpg,1,3,2,1,1,16,,,2,0,4.835,0,16,16,16,1,,
,,,AWWBF2RVU8HNM,37,Male,8,2023-01-18_12h58.24.919,perception_pilot,2022.2.4,Win32,10.00040002,,,,,,,,,,,,,MALACHITE_KINGFISHER_2.jpg,INCA_TERN_2.jpg,SKUA_3.jpg,COCKATOO_2.jpg,GREEN_BROADBILL_5.jpg,1,2,3,2,2,17,,,1,0,3.38,0,17,17,17,1,,
,,,AWWBF2RVU8HNM,37,Male,8,2023-01-18_12h58.24.919,perception_pilot,2022.2.4,Win32,10.00040002,,,,,,,,,,,,,DOUBLE_BRESTED_CORMARANT_5.jpg,CHINESE_POND_HERON_2.jpg,GILDED_FLICKER_2.jpg,ANHINGA_5.jpg,EURASIAN_MAGPIE_4.jpg,1,3,2,3,2,18,,,1,0,1.47,0,18,18,18,1,,
,,,AWWBF2RVU8HNM,37,Male,8,2023-01-18_12h58.24.919,perception_pilot,2022.2.4,Win32,10.00040002,,,,,,,,,,,,,CRESTED_NUTHATCH_2.jpg,AFRICAN_FIREFINCH_1.jpg,CANARY_1.jpg,GOLDEN_CHLOROPHONIA_1.jpg,SCARLET_IBIS_3.jpg,3,2,1,2,2,19,,,2,1,1.001,0,19,19,19,1,,
,,,AWWBF2RVU8HNM,37,Male,8,2023-01-18_12h58.24.919,perception_pilot,2022.2.4,Win32,10.00040002,,,,,,,,,,,,,GILA_WOODPECKER_3.jpg,BLACK_VULTURE_3.jpg,AZURE_TANAGER_1.jpg,BLACK_SWAN_3.jpg,SNOWY_OWL_4.jpg,3,1,2,3,1,20,,,3,0,0.671,0,20,20,20,1,,
,,,AWWBF2RVU8HNM,37,Male,8,2023-01-18_12h58.24.919,perception_pilot,2022.2.4,Win32,10.00040002,,,,,,,,,,,,,CRESTED_CARACARA_4.jpg,BLUE_DACNIS_4.jpg,TOUCHAN_4.jpg,PARADISE_TANAGER_1.jpg,FAIRY_PENGUIN_5.jpg,3,2,1,2,2,21,,,1,0,1.003,0,21,21,21,1,,
,,,AWWBF2RVU8HNM,37,Male,8,2023-01-18_12h58.24.919,perception_pilot,2022.2.4,Win32,10.00040002,,,,,,,,,,,,,LESSER_ADJUTANT_4.jpg,RAINBOW_LORIKEET_5.jpg,CHATTERING_LORY_2.jpg,ALTAMIRA_YELLOWTHROAT_5.jpg,FAIRY_TERN_3.jpg,2,1,3,2,1,22,,,3,0,0.995,0,22,22,22,1,,
,,,AWWBF2RVU8HNM,37,Male,8,2023-01-18_12h58.24.919,perception_pilot,2022.2.4,Win32,10.00040002,,,,,,,,,,,,,CASSOWARY_1.jpg,ROSY_FACED_LOVEBIRD_4.jpg,CEDAR_WAXWING_4.jpg,SCARLET_MACAW_1.jpg,DEMOISELLE_CRANE_1.jpg,1,2,3,1,1,23,,,3,0,1.244,0,23,23,23,1,,
,,,AWWBF2RVU8HNM,37,Male,8,2023-01-18_12h58.24.919,perception_pilot,2022.2.4,Win32,10.00040002,,,,,,,,,,,,,GREY_PLOVER_1.jpg,HYACINTH_MACAW_3.jpg,AMETHYST_WOODSTAR_4.jpg,TURKEY_VULTURE_1.jpg,GOULDIAN_FINCH_4.jpg,3,1,2,1,2,24,,,3,0,1.855,0,24,24,24,1,,
,,,AWWBF2RVU8HNM,37,Male,8,2023-01-18_12h58.24.919,perception_pilot,2022.2.4,Win32,10.00040002,,,,,,,,,,,,,RED_HEADED_WOODPECKER_5.jpg,GREAT_GRAY_OWL_5.jpg,COLLARED_ARACARI_1.jpg,CRIMSON_CHAT_3.jpg,KIWI_1.jpg,3,2,1,1,3,25,,,2,0,1.796,0,25,25,25,1,,
,,,AWWBF2RVU8HNM,37,Male,8,2023-01-18_12h58.24.919,perception_pilot,2022.2.4,Win32,10.00040002,,,,,,,,,,,,,ECUADORIAN_HILLSTAR_5.jpg,CRIMSON_SUNBIRD_5.jpg,GREEN_BROADBILL_4.jpg,SCARLET_IBIS_2.jpg,BOBOLINK_5.jpg,3,1,2,3,1,26,,,2,0,1.651,0,26,26,26,1,,
,,,AWWBF2RVU8HNM,37,Male,8,2023-01-18_12h58.24.919,perception_pilot,2022.2.4,Win32,10.00040002,,,,,,,,,,,,,left.png,left.png,right.png,left.png,up.png,,,,,1,27,,,1,1,1.402,0,27,27,27,1,,
,,,AWWBF2RVU8HNM,37,Male,8,2023-01-18_12h58.24.919,perception_pilot,2022.2.4,Win32,10.00040002,,,,,,,,,,,,,EASTERN_TOWEE_2.jpg,HYACINTH_MACAW_4.jpg,NORTHERN_BEARDLESS_TYRANNULET_5.jpg,ANDEAN_GOOSE_3.jpg,SANDHILL_CRANE_2.jpg,3,2,1,2,2,28,,,2,1,2.015,0,28,28,28,1,,
,,,AWWBF2RVU8HNM,37,Male,8,2023-01-18_12h58.24.919,perception_pilot,2022.2.4,Win32,10.00040002,,,,,,,,,,,,,ASIAN_CRESTED_IBIS_4.jpg,IVORY_GULL_2.jpg,CASPIAN_TERN_4.jpg,OYSTER_CATCHER_2.jpg,CANARY_2.jpg,3,2,1,3,1,29,,,1,1,1.785,0,29,29,29,1,,
,,,AWWBF2RVU8HNM,37,Male,8,2023-01-18_12h58.24.919,perception_pilot,2022.2.4,Win32,10.00040002,,,,,,,,,,,,,BARRED_PUFFBIRD_3.jpg,VEERY_4.jpg,WHITE_CHEEKED_TURACO_2.jpg,RED_TAILED_THRUSH_2.jpg,NORTHERN_CARDINAL_5.jpg,1,3,2,3,2,30,,,2,1,1.778,0,30,30,30,1,,
,,,AWWBF2RVU8HNM,37,Male,8,2023-01-18_12h58.24.919,perception_pilot,2022.2.4,Win32,10.00040002,,,,,,,,,,,,,PYGMY_KINGFISHER_5.jpg,GREAT_POTOO_3.jpg,GRANDALA_2.jpg,OYSTER_CATCHER_5.jpg,NORTHERN_PARULA_5.jpg,1,2,3,2,2,31,,,1,0,0.88,0,31,31,31,1,,
,,,AWWBF2RVU8HNM,37,Male,8,2023-01-18_12h58.24.919,perception_pilot,2022.2.4,Win32,10.00040002,,,,,,,,,,,,,NORTHERN_JACANA_3.jpg,BANANAQUIT_3.jpg,BAR-TAILED_GODWIT_3.jpg,REGENT_BOWERBIRD_5.jpg,BEARDED_BELLBIRD_3.jpg,3,2,1,1,3,32,,,3,1,1.04,0,32,32,32,1,,
,,,AWWBF2RVU8HNM,37,Male,8,2023-01-18_12h58.24.919,perception_pilot,2022.2.4,Win32,10.00040002,,,,,,,,,,,,,KILLDEAR_2.jpg,ALEXANDRINE_PARAKEET_5.jpg,CAATINGA_CACHOLOTE_4.jpg,AZURE_TIT_5.jpg,GOLDEN_CHLOROPHONIA_2.jpg,2,3,1,1,3,33,,,2,0,1.06,0,33,33,33,1,,
,,,AWWBF2RVU8HNM,37,Male,8,2023-01-18_12h58.24.919,perception_pilot,2022.2.4,Win32,10.00040002,,,,,,,,,,,,,NORTHERN_GANNET_2.jpg,STRAWBERRY_FINCH_1.jpg,VENEZUELIAN_TROUPIAL_1.jpg,MASKED_BOOBY_5.jpg,PAINTED_BUNTING_5.jpg,2,3,1,2,1,34,,,2,0,8.677,0,34,34,34,1,,
,,,AWWBF2RVU8HNM,37,Male,8,2023-01-18_12h58.24.919,perception_pilot,2022.2.4,Win32,10.00040002,,,,,,,,,,,,,LESSER_ADJUTANT_5.jpg,AMERICAN_GOLDFINCH_1.jpg,RED_HEADED_WOODPECKER_1.jpg,GAMBELS_QUAIL_1.jpg,MALAGASY_WHITE_EYE_2.jpg,3,2,1,1,3,35,,,1,0,1.45,0,35,35,35,1,,
,,,AWWBF2RVU8HNM,37,Male,8,2023-01-18_12h58.24.919,perception_pilot,2022.2.4,Win32,10.00040002,,,,,,,,,,,,,GYRFALCON_1.jpg,ASHY_STORM_PETREL_2.jpg,FAIRY_TERN_1.jpg,GREY_PLOVER_3.jpg,CINNAMON_ATTILA_2.jpg,3,1,2,1,2,36,,,3,0,0.457,0,36,36,36,1,,
,,,AWWBF2RVU8HNM,37,Male,8,2023-01-18_12h58.24.919,perception_pilot,2022.2.4,Win32,10.00040002,,,,,,,,,,,,,right.png,right.png,left.png,right.png,up.png,,,,,1,37,,,1,1,0.609,0,37,37,37,1,,
,,,AWWBF2RVU8HNM,37,Male,8,2023-01-18_12h58.24.919,perception_pilot,2022.2.4,Win32,10.00040002,,,,,,,,,,,,,GOLDEN_CHEEKED_WARBLER_2.jpg,SPOONBILL_1.jpg,AMERICAN_FLAMINGO_3.jpg,RED_HEADED_DUCK_3.jpg,WHITE_THROATED_BEE_EATER_1.jpg,2,1,3,1,2,38,,,3,0,0.651,0,38,38,38,1,,
,,,AWWBF2RVU8HNM,37,Male,8,2023-01-18_12h58.24.919,perception_pilot,2022.2.4,Win32,10.00040002,,,,,,,,,,,,,FLAME_BOWERBIRD_3.jpg,INDIAN_BUSTARD_2.jpg,QUETZAL_3.jpg,SPOON_BILED_SANDPIPER_5.jpg,BROWN_THRASHER_4.jpg,3,1,2,1,2,39,,,1,0,0.228,0,39,39,39,1,,
,,,AWWBF2RVU8HNM,37,Male,8,2023-01-18_12h58.24.919,perception_pilot,2022.2.4,Win32,10.00040002,,,,,,,,,,,,,MYNA_1.jpg,PARADISE_TANAGER_3.jpg,SANDHILL_CRANE_4.jpg,GREY_PLOVER_4.jpg,INDIGO_BUNTING_2.jpg,1,2,3,3,3,40,,,3,1,0.111,0,40,40,40,1,,
,,,AWWBF2RVU8HNM,37,Male,8,2023-01-18_12h58.24.919,perception_pilot,2022.2.4,Win32,10.00040002,,,,,,,,,,,,,CASPIAN_TERN_1.jpg,BRANDT_CORMARANT_4.jpg,COMMON_POORWILL_4.jpg,COMMON_LOON_2.jpg,EUROPEAN_GOLDFINCH_4.jpg,1,3,2,1,1,41,,,1,1,0.116,0,41,41,41,1,,
,,,AWWBF2RVU8HNM,37,Male,8,2023-01-18_12h58.24.919,perception_pilot,2022.2.4,Win32,10.00040002,,,,,,,,,,,,,INCA_TERN_4.jpg,BORNEAN_BRISTLEHEAD_5.jpg,SMITHS_LONGSPUR_5.jpg,ELLIOTS__PHEASANT_4.jpg,WHITE_NECKED_RAVEN_4.jpg,2,1,3,3,3,42,,,3,1,2.365,0,42,42,42,1,,
,,,AWWBF2RVU8HNM,37,Male,8,2023-01-18_12h58.24.919,perception_pilot,2022.2.4,Win32,10.00040002,,,,,,,,,,,,,RUFOUS_KINGFISHER_1.jpg,HORNED_SUNGEM_4.jpg,BLACK_VENTED_SHEARWATER_2.jpg,GREEN_JAY_4.jpg,MAGPIE_GOOSE_3.jpg,1,3,2,3,2,43,,,1,0,0.241,0,43,43,43,1,,
,,,AWWBF2RVU8HNM,37,Male,8,2023-01-18_12h58.24.919,perception_pilot,2022.2.4,Win32,10.00040002,,,,,,,,,,,,,LITTLE_AUK_5.jpg,BEARDED_BELLBIRD_1.jpg,SANDHILL_CRANE_3.jpg,DOWNY_WOODPECKER_1.jpg,ORANGE_BRESTED_BUNTING_3.jpg,1,3,2,3,2,44,,,2,1,0.114,0,44,44,44,1,,
,,,AWWBF2RVU8HNM,37,Male,8,2023-01-18_12h58.24.919,perception_pilot,2022.2.4,Win32,10.00040002,,,,,,,,,,,,,SKUA_4.jpg,SNOWY_EGRET_5.jpg,BLACK-NECKED_GREBE_3.jpg,PARUS_MAJOR_2.jpg,ROADRUNNER_5.jpg,1,2,3,1,1,45,,,1,1,0.694,0,45,45,45,1,,
,,,AWWBF2RVU8HNM,37,Male,8,2023-01-18_12h58.24.919,perception_pilot,2022.2.4,Win32,10.00040002,,,,,,,,,,,,,INDIGO_BUNTING_1.jpg,FRIGATE_4.jpg,POMARINE_JAEGER_5.jpg,SNOWY_PLOVER_1.jpg,DARWINS_FLYCATCHER_2.jpg,1,2,3,1,1,46,,,2,0,1.154,0,46,46,46,1,,
,,,AWWBF2RVU8HNM,37,Male,8,2023-01-18_12h58.24.919,perception_pilot,2022.2.4,Win32,10.00040002,,,,,,,,,,,,,RED_FACED_WARBLER_1.jpg,BLACK_VENTED_SHEARWATER_4.jpg,COMMON_LOON_4.jpg,CAPE_GLOSSY_STARLING_2.jpg,EMU_5.jpg,2,3,1,2,1,47,,,1,1,0.232,0,47,47,47,1,,
,,,AWWBF2RVU8HNM,37,Male,8,2023-01-18_12h58.24.919,perception_pilot,2022.2.4,Win32,10.00040002,,,,,,,,,,,,,RUBY_THROATED_HUMMINGBIRD_2.jpg,APAPANE_4.jpg,SCARLET_MACAW_3.jpg,GOLDEN_PARAKEET_2.jpg,DUSKY_ROBIN_5.jpg,2,1,3,2,1,48,,,2,0,0.229,0,48,48,48,1,,
,,,AWWBF2RVU8HNM,37,Male,8,2023-01-18_12h58.24.919,perception_pilot,2022.2.4,Win32,10.00040002,,,,,,,,,,,,,ALPINE_CHOUGH_4.jpg,BOBOLINK_3.jpg,SNOWY_EGRET_2.jpg,EUROPEAN_GOLDFINCH_3.jpg,UMBRELLA_BIRD_1.jpg,1,2,3,3,3,49,,,3,1,0.237,0,49,49,49,1,,
,,,AWWBF2RVU8HNM,37,Male,8,2023-01-18_12h58.24.919,perception_pilot,2022.2.4,Win32,10.00040002,,,,,,,,,,,,,IVORY_GULL_1.jpg,WILSONS_BIRD_OF_PARADISE_4.jpg,FAIRY_TERN_4.jpg,EASTERN_GOLDEN_WEAVER_5.jpg,OCELLATED_TURKEY_2.jpg,3,2,1,1,3,50,,,2,0,0.333,0,50,50,50,1,,
,,,AWWBF2RVU8HNM,37,Male,8,2023-01-18_12h58.24.919,perception_pilot,2022.2.4,Win32,10.00040002,,,,,,,,,,,,,OVENBIRD_5.jpg,JABIRU_4.jpg,FAIRY_PENGUIN_1.jpg,PURPLE_FINCH_5.jpg,TURQUOISE_MOTMOT_3.jpg,2,3,1,1,3,51,,,1,0,0.11,0,51,51,51,1,,
,,,AWWBF2RVU8HNM,37,Male,8,2023-01-18_12h58.24.919,perception_pilot,2022.2.4,Win32,10.00040002,,,,,,,,,,,,,SPLENDID_WREN_1.jpg,DOUBLE_BRESTED_CORMARANT_1.jpg,BLACK_SWAN_2.jpg,CUBAN_TODY_4.jpg,PARAKETT__AKULET_3.jpg,2,3,1,2,1,52,,,2,0,0.552,0,52,52,52,1,,
,,,AWWBF2RVU8HNM,37,Male,8,2023-01-18_12h58.24.919,perception_pilot,2022.2.4,Win32,10.00040002,,,,,,,,,,,,,MAGPIE_GOOSE_5.jpg,OYSTER_CATCHER_3.jpg,WOOD_DUCK_5.jpg,HAMERKOP_1.jpg,DOUBLE_EYED_FIG_PARROT_5.jpg,3,2,1,3,1,53,,,3,0,0.796,0,53,53,53,1,,
,,,AWWBF2RVU8HNM,37,Male,8,2023-01-18_12h58.24.919,perception_pilot,2022.2.4,Win32,10.00040002,,,,,,,,,,,,,TREE_SWALLOW_4.jpg,RED_FODY_3.jpg,RED_HEADED_DUCK_5.jpg,BORNEAN_LEAFBIRD_4.jpg,ROBIN_3.jpg,1,3,2,3,2,54,,,1,0,0.554,0,54,54,54,1,,
,,,AWWBF2RVU8HNM,37,Male,8,2023-01-18_12h58.24.919,perception_pilot,2022.2.4,Win32,10.00040002,,,,,,,,,,,,,LARK_BUNTING_2.jpg,EMU_3.jpg,CACTUS_WREN_3.jpg,KING_VULTURE_5.jpg,KING_VULTURE_3.jpg,3,1,2,1,2,55,,,3,0,0.34,0,55,55,55,1,,
,,,AWWBF2RVU8HNM,37,Male,8,2023-01-18_12h58.24.919,perception_pilot,2022.2.4,Win32,10.00040002,,,,,,,,,,,,,left.png,left.png,right.png,up.png,left.png,,,,,1,56,,,2,0,0.125,0,56,56,56,1,,
,,,AWWBF2RVU8HNM,37,Male,8,2023-01-18_12h58.24.919,perception_pilot,2022.2.4,Win32,10.00040002,,,,,,,,,,,,,left.png,left.png,left.png,up.png,right.png,,,,,3,57,,,3,1,2.75,0,57,57,57,1,,
,,,AWWBF2RVU8HNM,37,Male,8,2023-01-18_12h58.24.919,perception_pilot,2022.2.4,Win32,10.00040002,,,,,,,,,,,,,PEACOCK_3.jpg,ANIANIAU_2.jpg,IBERIAN_MAGPIE_2.jpg,STRAWBERRY_FINCH_4.jpg,ANDEAN_SISKIN_5.jpg,3,2,1,1,3,58,,,2,0,2.287,0,58,58,58,1,,
,,,AWWBF2RVU8HNM,37,Male,8,2023-01-18_12h58.24.919,perception_pilot,2022.2.4,Win32,10.00040002,,,,,,,,,,,,,SHOEBILL_3.jpg,GILDED_FLICKER_5.jpg,MALAGASY_WHITE_EYE_3.jpg,IWI_1.jpg,BALD_EAGLE_5.jpg,1,2,3,2,2,59,,,3,0,1.014,0,59,59,59,1,,
,,,AWWBF2RVU8HNM,37,Male,8,2023-01-18_12h58.24.919,perception_pilot,2022.2.4,Win32,10.00040002,,,,,,,,,,,,,ARARIPE_MANAKIN_4.jpg,BORNEAN_LEAFBIRD_3.jpg,GUINEA_TURACO_3.jpg,KIWI_3.jpg,BLACK_VULTURE_1.jpg,3,1,2,3,1,60,,,1,1,0.897,0,60,60,60,1,,
,,,AWWBF2RVU8HNM,37,Male,8,2023-01-18_12h58.24.919,perception_pilot,2022.2.4,Win32,10.00040002,,,,,,,,,,,,,RUBY_THROATED_HUMMINGBIRD_1.jpg,FRIGATE_1.jpg,VULTURINE_GUINEAFOWL_4.jpg,NORTHERN_CARDINAL_1.jpg,EURASIAN_GOLDEN_ORIOLE_5.jpg,2,3,1,3,2,61,,,3,0,1.118,0,61,61,61,1,,
,,,AWWBF2RVU8HNM,37,Male,8,2023-01-18_12h58.24.919,perception_pilot,2022.2.4,Win32,10.00040002,,,,,,,,,,,,,PINK_ROBIN_4.jpg,COMMON_IORA_4.jpg,ALBATROSS_4.jpg,SPOONBILL_3.jpg,GREEN_MAGPIE_3.jpg,2,1,3,3,3,62,,,2,0,0.558,0,62,62,62,1,,
,,,AWWBF2RVU8HNM,37,Male,8,2023-01-18_12h58.24.919,perception_pilot,2022.2.4,Win32,10.00040002,,,,,,,,,,,,,HAWAIIAN_GOOSE_4.jpg,HIMALAYAN_MONAL_2.jpg,WATTLED_LAPWING_3.jpg,RED_BEARDED_BEE_EATER_3.jpg,NORTHERN_GANNET_1.jpg,3,1,2,2,3,63,,,1,0,0.796,0,63,63,63,1,,
,,,AWWBF2RVU8HNM,37,Male,8,2023-01-18_12h58.24.919,perception_pilot,2022.2.4,Win32,10.00040002,,,,,,,,,,,,,KAGU_5.jpg,ASHY_STORM_PETREL_1.jpg,MANDRIN_DUCK_4.jpg,IMPERIAL_SHAQ_2.jpg,EASTERN_MEADOWLARK_1.jpg,2,3,1,2,1,64,,,3,0,1.117,0,64,64,64,1,,
,,,AWWBF2RVU8HNM,37,Male,8,2023-01-18_12h58.24.919,perception_pilot,2022.2.4,Win32,10.00040002,,,,,,,,,,,,,,,,,,,,,,,,,,,,,,,,,,space,23.913
