button.numClicks,button.timesOn,button.timesOff,workID,Age,Gender,Hours slept (last night),date,expName,psychopyVersion,OS,frameRate,space_key_responce.keys,space_key_responce.rt,demo_encoding_response.keys,demo_encoding_response.corr,demo_encoding_loop.thisRepN,demo_encoding_loop.thisTrialN,demo_encoding_loop.thisN,demo_encoding_loop.thisIndex,demo_encoding_loop.ran,DemoImage,DemoCorrect,demo_encoding_response.rt,demo_test_response.keys,demo_test_response.corr,demo_test_response.rt,demo_bar_2.response,demo_bar_2.rt,demo_test_loop.thisRepN,demo_test_loop.thisTrialN,demo_test_loop.thisN,demo_test_loop.thisIndex,demo_test_loop.ran,DemoImage1,DemoImage2,DemoCorrectTest,test_encoding_response.keys,test_encoding_response.corr,trials.thisRepN,trials.thisTrialN,trials.thisN,trials.thisIndex,trials.ran,target,category,correct,test_encoding_response.rt,key_resp_end.keys,key_resp_end.rt,test_test_response.keys,test_test_response.corr,test_test_response.rt,bar_2.response,bar_2.rt,trials_2.thisRepN,trials_2.thisTrialN,trials_2.thisN,trials_2.thisIndex,trials_2.ran,image1,image2,layer,key_resp_end_2.keys,key_resp_end_2.rt
1,[11.216399999976161],[11.216399999976161],,,,,2023-03-29_10h01.57.773,memory_pilot_most_recent,2022.2.4,Win32,59.80861244,,,,,,,,,,,,,,,,,,,,,,,,,,,,,,,,,,,,,,,,,,,,,,,,,,,,,
,,,,,,,2023-03-29_10h01.57.773,memory_pilot_most_recent,2022.2.4,Win32,59.80861244,,,,,,,,,,,,,,,,,,,,,,,,,,,,,,,,,,,,,,,,,,,,,,,,,,,,,
,,,,,,,2023-03-29_10h01.57.773,memory_pilot_most_recent,2022.2.4,Win32,59.80861244,space,6.763,,,,,,,,,,,,,,,,,,,,,,,,,,,,,,,,,,,,,,,,,,,,,,,,,,,
,,,,,,,2023-03-29_10h01.57.773,memory_pilot_most_recent,2022.2.4,Win32,59.80861244,,,,,,,,,,,,,,,,,,,,,,,,,,,,,,,,,,,,,,,,,,,,,,,,,,,,,
,,,,,,,2023-03-29_10h01.57.773,memory_pilot_most_recent,2022.2.4,Win32,59.80861244,,,,1,0,0,0,0,1,flower1.jpg,,,,,,,,,,,,,,,,,,,,,,,,,,,,,,,,,,,,,,,,,,,
,,,,,,,2023-03-29_10h01.57.773,memory_pilot_most_recent,2022.2.4,Win32,59.80861244,,,,1,0,1,1,1,1,flower2.jpg,,,,,,,,,,,,,,,,,,,,,,,,,,,,,,,,,,,,,,,,,,,
,,,,,,,2023-03-29_10h01.57.773,memory_pilot_most_recent,2022.2.4,Win32,59.80861244,,,left,1,0,2,2,2,1,left.jpg,left,0.5415,,,,,,,,,,,,,,,,,,,,,,,,,,,,,,,,,,,,,,,,,
,,,,,,,2023-03-29_10h01.57.773,memory_pilot_most_recent,2022.2.4,Win32,59.80861244,,,,1,0,3,3,3,1,flower3.jpg,,,,,,,,,,,,,,,,,,,,,,,,,,,,,,,,,,,,,,,,,,,
,,,,,,,2023-03-29_10h01.57.773,memory_pilot_most_recent,2022.2.4,Win32,59.80861244,,,,1,0,4,4,4,1,flower4.jpg,,,,,,,,,,,,,,,,,,,,,,,,,,,,,,,,,,,,,,,,,,,
,,,,,,,2023-03-29_10h01.57.773,memory_pilot_most_recent,2022.2.4,Win32,59.80861244,,,,1,0,5,5,5,1,flower5.jpg,,,,,,,,,,,,,,,,,,,,,,,,,,,,,,,,,,,,,,,,,,,
,,,,,,,2023-03-29_10h01.57.773,memory_pilot_most_recent,2022.2.4,Win32,59.80861244,,,,1,0,6,6,6,1,flower6.jpg,,,,,,,,,,,,,,,,,,,,,,,,,,,,,,,,,,,,,,,,,,,
,,,,,,,2023-03-29_10h01.57.773,memory_pilot_most_recent,2022.2.4,Win32,59.80861244,,,,,,,,,,,,,,,,,,,,,,,,,,,,,,,,,,,,,,,,,,,,,,,,,,,,,
,,,,,,,2023-03-29_10h01.57.773,memory_pilot_most_recent,2022.2.4,Win32,59.80861244,,,,,,,,,,,,,right,0,12.9899,7,8.1555,0,0,0,0,1,flower1.jpg,flower1_pair.jpg,left,,,,,,,,,,,,,,,,,,,,,,,,,,,,
,,,,,,,2023-03-29_10h01.57.773,memory_pilot_most_recent,2022.2.4,Win32,59.80861244,,,,,,,,,,,,,right,1,2.3653,8,5.6583,0,1,1,1,1,flower2_pair.jpg,flower2.jpg,right,,,,,,,,,,,,,,,,,,,,,,,,,,,,
,,,,,,,2023-03-29_10h01.57.773,memory_pilot_most_recent,2022.2.4,Win32,59.80861244,,,,,,,,,,,,,right,0,1.9341,7,1.8401,0,2,2,2,1,flower3.jpg,flower3_pair.jpg,left,,,,,,,,,,,,,,,,,,,,,,,,,,,,
,,,,,,,2023-03-29_10h01.57.773,memory_pilot_most_recent,2022.2.4,Win32,59.80861244,,,,,,,,,,,,,right,0,1.6886,4,1.3875,0,3,3,3,1,flower4.jpg,flower4_pair.jpg,left,,,,,,,,,,,,,,,,,,,,,,,,,,,,
,,,,,,,2023-03-29_10h01.57.773,memory_pilot_most_recent,2022.2.4,Win32,59.80861244,,,,,,,,,,,,,right,1,1.0628,5,3.1417,0,4,4,4,1,flower5_pair.jpg,flower5.jpg,right,,,,,,,,,,,,,,,,,,,,,,,,,,,,
,,,,,,,2023-03-29_10h01.57.773,memory_pilot_most_recent,2022.2.4,Win32,59.80861244,,,,,,,,,,,,,right,0,1.2306,6,2.6069,0,5,5,5,1,flower6.jpg,flower6_pair.jpg,left,,,,,,,,,,,,,,,,,,,,,,,,,,,,
,,,,,,,2023-03-29_10h01.57.773,memory_pilot_most_recent,2022.2.4,Win32,59.80861244,,,,,,,,,,,,,,,,,,,,,,,,,,,,,,,,,,,,,,,,,,,,,,,,,,,,,
,,,,,,,2023-03-29_10h01.57.773,memory_pilot_most_recent,2022.2.4,Win32,59.80861244,space,1.4592,,,,,,,,,,,,,,,,,,,,,,,,,,,,,,,,,,,,,,,,,,,,,,,,,,,
,,,,,,,2023-03-29_10h01.57.773,memory_pilot_most_recent,2022.2.4,Win32,59.80861244,,,,,,,,,,,,,,,,,,,,,,,,,,,1,0,0,0,0,1,playground_60.jpg,playground,,,,,,,,,,,,,,,,,,,
,,,,,,,2023-03-29_10h01.57.773,memory_pilot_most_recent,2022.2.4,Win32,59.80861244,,,,,,,,,,,,,,,,,,,,,,,,,,,1,0,1,1,1,1,mountain_230.jpg,mountain,,,,,,,,,,,,,,,,,,,
,,,,,,,2023-03-29_10h01.57.773,memory_pilot_most_recent,2022.2.4,Win32,59.80861244,,,,,,,,,,,,,,,,,,,,,,,,,,,1,0,2,2,2,1,highway_245.jpg,highway,,,,,,,,,,,,,,,,,,,
,,,,,,,2023-03-29_10h01.57.773,memory_pilot_most_recent,2022.2.4,Win32,59.80861244,,,,,,,,,,,,,,,,,,,,,,,,,,,1,0,3,3,3,1,golf_course_309.jpg,golf,,,,,,,,,,,,,,,,,,,
,,,,,,,2023-03-29_10h01.57.773,memory_pilot_most_recent,2022.2.4,Win32,59.80861244,,,,,,,,,,,,,,,,,,,,,,,,,,,1,0,4,4,4,1,playground_240.jpg,playground,,,,,,,,,,,,,,,,,,,
,,,,,,,2023-03-29_10h01.57.773,memory_pilot_most_recent,2022.2.4,Win32,59.80861244,,,,,,,,,,,,,,,,,,,,,,,,,,,1,0,5,5,5,1,highway_359.jpg,highway,,,,,,,,,,,,,,,,,,,
,,,,,,,2023-03-29_10h01.57.773,memory_pilot_most_recent,2022.2.4,Win32,59.80861244,,,,,,,,,,,,,,,,,,,,,,,,,,,1,0,6,6,6,1,badlands_21.jpg,badlands,,,,,,,,,,,,,,,,,,,
,,,,,,,2023-03-29_10h01.57.773,memory_pilot_most_recent,2022.2.4,Win32,59.80861244,,,,,,,,,,,,,,,,,,,,,,,,,,,1,0,7,7,7,1,highway_394.jpg,highway,,,,,,,,,,,,,,,,,,,
,,,,,,,2023-03-29_10h01.57.773,memory_pilot_most_recent,2022.2.4,Win32,59.80861244,,,,,,,,,,,,,,,,,,,,,,,,,,,1,0,8,8,8,1,highway_209.jpg,highway,,,,,,,,,,,,,,,,,,,
,,,,,,,2023-03-29_10h01.57.773,memory_pilot_most_recent,2022.2.4,Win32,59.80861244,,,,,,,,,,,,,,,,,,,,,,,,,,,1,0,9,9,9,1,badlands_23.jpg,badlands,,,,,,,,,,,,,,,,,,,
,,,,,,,2023-03-29_10h01.57.773,memory_pilot_most_recent,2022.2.4,Win32,59.80861244,,,,,,,,,,,,,,,,,,,,,,,,,,,1,0,10,10,10,1,playground_219.jpg,playground,,,,,,,,,,,,,,,,,,,
,,,,,,,2023-03-29_10h01.57.773,memory_pilot_most_recent,2022.2.4,Win32,59.80861244,,,,,,,,,,,,,,,,,,,,,,,,,,,1,0,11,11,11,1,bridge_191.jpg,bridge,,,,,,,,,,,,,,,,,,,
,,,,,,,2023-03-29_10h01.57.773,memory_pilot_most_recent,2022.2.4,Win32,59.80861244,,,,,,,,,,,,,,,,,,,,,,,,,,,1,0,12,12,12,1,badlands_137.jpg,badlands,,,,,,,,,,,,,,,,,,,
,,,,,,,2023-03-29_10h01.57.773,memory_pilot_most_recent,2022.2.4,Win32,59.80861244,,,,,,,,,,,,,,,,,,,,,,,,,,,1,0,13,13,13,1,bridge_91.jpg,bridge,,,,,,,,,,,,,,,,,,,
,,,,,,,2023-03-29_10h01.57.773,memory_pilot_most_recent,2022.2.4,Win32,59.80861244,,,,,,,,,,,,,,,,,,,,,,,,,,right,1,0,14,14,14,1,right.jpg,,right,0.4348,,,,,,,,,,,,,,,,,
,,,,,,,2023-03-29_10h01.57.773,memory_pilot_most_recent,2022.2.4,Win32,59.80861244,,,,,,,,,,,,,,,,,,,,,,,,,,,1,0,15,15,15,1,highway_156.jpg,highway,,,,,,,,,,,,,,,,,,,
,,,,,,,2023-03-29_10h01.57.773,memory_pilot_most_recent,2022.2.4,Win32,59.80861244,,,,,,,,,,,,,,,,,,,,,,,,,,,1,0,16,16,16,1,badlands_70.jpg,badlands,,,,,,,,,,,,,,,,,,,
,,,,,,,2023-03-29_10h01.57.773,memory_pilot_most_recent,2022.2.4,Win32,59.80861244,,,,,,,,,,,,,,,,,,,,,,,,,,,1,0,17,17,17,1,highway_93.jpg,highway,,,,,,,,,,,,,,,,,,,
,,,,,,,2023-03-29_10h01.57.773,memory_pilot_most_recent,2022.2.4,Win32,59.80861244,,,,,,,,,,,,,,,,,,,,,,,,,,,1,0,18,18,18,1,mountain_232.jpg,mountain,,,,,,,,,,,,,,,,,,,
,,,,,,,2023-03-29_10h01.57.773,memory_pilot_most_recent,2022.2.4,Win32,59.80861244,,,,,,,,,,,,,,,,,,,,,,,,,,,1,0,19,19,19,1,bridge_256.jpg,bridge,,,,,,,,,,,,,,,,,,,
,,,,,,,2023-03-29_10h01.57.773,memory_pilot_most_recent,2022.2.4,Win32,59.80861244,,,,,,,,,,,,,,,,,,,,,,,,,,right,1,0,20,20,20,1,right.jpg,,right,0.5012,,,,,,,,,,,,,,,,,
,,,,,,,2023-03-29_10h01.57.773,memory_pilot_most_recent,2022.2.4,Win32,59.80861244,,,,,,,,,,,,,,,,,,,,,,,,,,,1,0,21,21,21,1,badlands_24.jpg,badlands,,,,,,,,,,,,,,,,,,,
,,,,,,,2023-03-29_10h01.57.773,memory_pilot_most_recent,2022.2.4,Win32,59.80861244,,,,,,,,,,,,,,,,,,,,,,,,,,,1,0,22,22,22,1,playground_257.jpg,playground,,,,,,,,,,,,,,,,,,,
,,,,,,,2023-03-29_10h01.57.773,memory_pilot_most_recent,2022.2.4,Win32,59.80861244,,,,,,,,,,,,,,,,,,,,,,,,,,,1,0,23,23,23,1,bridge_128.jpg,bridge,,,,,,,,,,,,,,,,,,,
,,,,,,,2023-03-29_10h01.57.773,memory_pilot_most_recent,2022.2.4,Win32,59.80861244,,,,,,,,,,,,,,,,,,,,,,,,,,,1,0,24,24,24,1,highway_294.jpg,highway,,,,,,,,,,,,,,,,,,,
,,,,,,,2023-03-29_10h01.57.773,memory_pilot_most_recent,2022.2.4,Win32,59.80861244,,,,,,,,,,,,,,,,,,,,,,,,,,,1,0,25,25,25,1,bridge_108.jpg,bridge,,,,,,,,,,,,,,,,,,,
,,,,,,,2023-03-29_10h01.57.773,memory_pilot_most_recent,2022.2.4,Win32,59.80861244,,,,,,,,,,,,,,,,,,,,,,,,,,,1,0,26,26,26,1,badlands_222.jpg,badlands,,,,,,,,,,,,,,,,,,,
,,,,,,,2023-03-29_10h01.57.773,memory_pilot_most_recent,2022.2.4,Win32,59.80861244,,,,,,,,,,,,,,,,,,,,,,,,,,left,1,0,27,27,27,1,left.jpg,,left,0.5361,,,,,,,,,,,,,,,,,
,,,,,,,2023-03-29_10h01.57.773,memory_pilot_most_recent,2022.2.4,Win32,59.80861244,,,,,,,,,,,,,,,,,,,,,,,,,,,1,0,28,28,28,1,playground_145.jpg,playground,,,,,,,,,,,,,,,,,,,
,,,,,,,2023-03-29_10h01.57.773,memory_pilot_most_recent,2022.2.4,Win32,59.80861244,,,,,,,,,,,,,,,,,,,,,,,,,,,1,0,29,29,29,1,bridge_202.jpg,bridge,,,,,,,,,,,,,,,,,,,
,,,,,,,2023-03-29_10h01.57.773,memory_pilot_most_recent,2022.2.4,Win32,59.80861244,,,,,,,,,,,,,,,,,,,,,,,,,,,1,0,30,30,30,1,golf_course_188.jpg,golf,,,,,,,,,,,,,,,,,,,
,,,,,,,2023-03-29_10h01.57.773,memory_pilot_most_recent,2022.2.4,Win32,59.80861244,,,,,,,,,,,,,,,,,,,,,,,,,,,1,0,31,31,31,1,mountain_101.jpg,mountain,,,,,,,,,,,,,,,,,,,
,,,,,,,2023-03-29_10h01.57.773,memory_pilot_most_recent,2022.2.4,Win32,59.80861244,,,,,,,,,,,,,,,,,,,,,,,,,,,1,0,32,32,32,1,highway_177.jpg,highway,,,,,,,,,,,,,,,,,,,
,,,,,,,2023-03-29_10h01.57.773,memory_pilot_most_recent,2022.2.4,Win32,59.80861244,,,,,,,,,,,,,,,,,,,,,,,,,,,1,0,33,33,33,1,highway_415.jpg,highway,,,,,,,,,,,,,,,,,,,
,,,,,,,2023-03-29_10h01.57.773,memory_pilot_most_recent,2022.2.4,Win32,59.80861244,,,,,,,,,,,,,,,,,,,,,,,,,,,1,0,34,34,34,1,mountain_57.jpg,mountain,,,,,,,,,,,,,,,,,,,
,,,,,,,2023-03-29_10h01.57.773,memory_pilot_most_recent,2022.2.4,Win32,59.80861244,,,,,,,,,,,,,,,,,,,,,,,,,,,1,0,35,35,35,1,mountain_154.jpg,mountain,,,,,,,,,,,,,,,,,,,
,,,,,,,2023-03-29_10h01.57.773,memory_pilot_most_recent,2022.2.4,Win32,59.80861244,,,,,,,,,,,,,,,,,,,,,,,,,,,1,0,36,36,36,1,mountain_110.jpg,mountain,,,,,,,,,,,,,,,,,,,
,,,,,,,2023-03-29_10h01.57.773,memory_pilot_most_recent,2022.2.4,Win32,59.80861244,,,,,,,,,,,,,,,,,,,,,,,,,,,1,0,37,37,37,1,mountain_293.jpg,mountain,,,,,,,,,,,,,,,,,,,
,,,,,,,2023-03-29_10h01.57.773,memory_pilot_most_recent,2022.2.4,Win32,59.80861244,,,,,,,,,,,,,,,,,,,,,,,,,,left,1,0,38,38,38,1,left.jpg,,left,0.4356,,,,,,,,,,,,,,,,,
,,,,,,,2023-03-29_10h01.57.773,memory_pilot_most_recent,2022.2.4,Win32,59.80861244,,,,,,,,,,,,,,,,,,,,,,,,,,,1,0,39,39,39,1,golf_course_331.jpg,golf,,,,,,,,,,,,,,,,,,,
,,,,,,,2023-03-29_10h01.57.773,memory_pilot_most_recent,2022.2.4,Win32,59.80861244,,,,,,,,,,,,,,,,,,,,,,,,,,,1,0,40,40,40,1,golf_course_217.jpg,golf,,,,,,,,,,,,,,,,,,,
,,,,,,,2023-03-29_10h01.57.773,memory_pilot_most_recent,2022.2.4,Win32,59.80861244,,,,,,,,,,,,,,,,,,,,,,,,,,,1,0,41,41,41,1,mountain_222.jpg,mountain,,,,,,,,,,,,,,,,,,,
,,,,,,,2023-03-29_10h01.57.773,memory_pilot_most_recent,2022.2.4,Win32,59.80861244,,,,,,,,,,,,,,,,,,,,,,,,,,,1,0,42,42,42,1,highway_273.jpg,highway,,,,,,,,,,,,,,,,,,,
,,,,,,,2023-03-29_10h01.57.773,memory_pilot_most_recent,2022.2.4,Win32,59.80861244,,,,,,,,,,,,,,,,,,,,,,,,,,,1,0,43,43,43,1,playground_144.jpg,playground,,,,,,,,,,,,,,,,,,,
,,,,,,,2023-03-29_10h01.57.773,memory_pilot_most_recent,2022.2.4,Win32,59.80861244,,,,,,,,,,,,,,,,,,,,,,,,,,,1,0,44,44,44,1,mountain_123.jpg,mountain,,,,,,,,,,,,,,,,,,,
,,,,,,,2023-03-29_10h01.57.773,memory_pilot_most_recent,2022.2.4,Win32,59.80861244,,,,,,,,,,,,,,,,,,,,,,,,,,,1,0,45,45,45,1,badlands_52.jpg,badlands,,,,,,,,,,,,,,,,,,,
,,,,,,,2023-03-29_10h01.57.773,memory_pilot_most_recent,2022.2.4,Win32,59.80861244,,,,,,,,,,,,,,,,,,,,,,,,,,,1,0,46,46,46,1,golf_course_193.jpg,golf,,,,,,,,,,,,,,,,,,,
,,,,,,,2023-03-29_10h01.57.773,memory_pilot_most_recent,2022.2.4,Win32,59.80861244,,,,,,,,,,,,,,,,,,,,,,,,,,,1,0,47,47,47,1,playground_76.jpg,playground,,,,,,,,,,,,,,,,,,,
,,,,,,,2023-03-29_10h01.57.773,memory_pilot_most_recent,2022.2.4,Win32,59.80861244,,,,,,,,,,,,,,,,,,,,,,,,,,,1,0,48,48,48,1,golf_course_214.jpg,golf,,,,,,,,,,,,,,,,,,,
,,,,,,,2023-03-29_10h01.57.773,memory_pilot_most_recent,2022.2.4,Win32,59.80861244,,,,,,,,,,,,,,,,,,,,,,,,,,,1,0,49,49,49,1,bridge_146.jpg,bridge,,,,,,,,,,,,,,,,,,,
,,,,,,,2023-03-29_10h01.57.773,memory_pilot_most_recent,2022.2.4,Win32,59.80861244,,,,,,,,,,,,,,,,,,,,,,,,,,,1,0,50,50,50,1,playground_10.jpg,playground,,,,,,,,,,,,,,,,,,,
,,,,,,,2023-03-29_10h01.57.773,memory_pilot_most_recent,2022.2.4,Win32,59.80861244,,,,,,,,,,,,,,,,,,,,,,,,,,,1,0,51,51,51,1,playground_131.jpg,playground,,,,,,,,,,,,,,,,,,,
,,,,,,,2023-03-29_10h01.57.773,memory_pilot_most_recent,2022.2.4,Win32,59.80861244,,,,,,,,,,,,,,,,,,,,,,,,,,,1,0,52,52,52,1,bridge_172.jpg,bridge,,,,,,,,,,,,,,,,,,,
,,,,,,,2023-03-29_10h01.57.773,memory_pilot_most_recent,2022.2.4,Win32,59.80861244,,,,,,,,,,,,,,,,,,,,,,,,,,left,1,0,53,53,53,1,left.jpg,,left,0.4777,,,,,,,,,,,,,,,,,
,,,,,,,2023-03-29_10h01.57.773,memory_pilot_most_recent,2022.2.4,Win32,59.80861244,,,,,,,,,,,,,,,,,,,,,,,,,,,1,0,54,54,54,1,playground_117.jpg,playground,,,,,,,,,,,,,,,,,,,
,,,,,,,2023-03-29_10h01.57.773,memory_pilot_most_recent,2022.2.4,Win32,59.80861244,,,,,,,,,,,,,,,,,,,,,,,,,,,1,0,55,55,55,1,golf_course_78.jpg,golf,,,,,,,,,,,,,,,,,,,
,,,,,,,2023-03-29_10h01.57.773,memory_pilot_most_recent,2022.2.4,Win32,59.80861244,,,,,,,,,,,,,,,,,,,,,,,,,,,1,0,56,56,56,1,badlands_184.jpg,badlands,,,,,,,,,,,,,,,,,,,
,,,,,,,2023-03-29_10h01.57.773,memory_pilot_most_recent,2022.2.4,Win32,59.80861244,,,,,,,,,,,,,,,,,,,,,,,,,,,1,0,57,57,57,1,golf_course_195.jpg,golf,,,,,,,,,,,,,,,,,,,
,,,,,,,2023-03-29_10h01.57.773,memory_pilot_most_recent,2022.2.4,Win32,59.80861244,,,,,,,,,,,,,,,,,,,,,,,,,,,1,0,58,58,58,1,bridge_250.jpg,bridge,,,,,,,,,,,,,,,,,,,
,,,,,,,2023-03-29_10h01.57.773,memory_pilot_most_recent,2022.2.4,Win32,59.80861244,,,,,,,,,,,,,,,,,,,,,,,,,,,1,0,59,59,59,1,golf_course_15.jpg,golf,,,,,,,,,,,,,,,,,,,
,,,,,,,2023-03-29_10h01.57.773,memory_pilot_most_recent,2022.2.4,Win32,59.80861244,,,,,,,,,,,,,,,,,,,,,,,,,,,1,0,60,60,60,1,badlands_221.jpg,badlands,,,,,,,,,,,,,,,,,,,
,,,,,,,2023-03-29_10h01.57.773,memory_pilot_most_recent,2022.2.4,Win32,59.80861244,,,,,,,,,,,,,,,,,,,,,,,,,,,1,0,61,61,61,1,golf_course_87.jpg,golf,,,,,,,,,,,,,,,,,,,
,,,,,,,2023-03-29_10h01.57.773,memory_pilot_most_recent,2022.2.4,Win32,59.80861244,,,,,,,,,,,,,,,,,,,,,,,,,,,1,0,62,62,62,1,mountain_156.jpg,mountain,,,,,,,,,,,,,,,,,,,
,,,,,,,2023-03-29_10h01.57.773,memory_pilot_most_recent,2022.2.4,Win32,59.80861244,,,,,,,,,,,,,,,,,,,,,,,,,,,1,0,63,63,63,1,bridge_65.jpg,bridge,,,,,,,,,,,,,,,,,,,
,,,,,,,2023-03-29_10h01.57.773,memory_pilot_most_recent,2022.2.4,Win32,59.80861244,,,,,,,,,,,,,,,,,,,,,,,,,,,1,0,64,64,64,1,badlands_113.jpg,badlands,,,,,,,,,,,,,,,,,,,
,,,,,,,2023-03-29_10h01.57.773,memory_pilot_most_recent,2022.2.4,Win32,59.80861244,,,,,,,,,,,,,,,,,,,,,,,,,,,,,,,,,,,,,space,1.9563,,,,,,,,,,,,,,,
,,,,,,,2023-03-29_10h01.57.773,memory_pilot_most_recent,2022.2.4,Win32,59.80861244,,,,,,,,,,,,,,,,,,,,,,,,,,,,,,,,,,,,,,,,,,,,,,,,,,,,,
,,,,,,,2023-03-29_10h01.57.773,memory_pilot_most_recent,2022.2.4,Win32,59.80861244,,,,,,,,,,,,,,,,,,,,,,,,,,,,,,,,,,playground,right,,,,right,1,6.3204,7,2.4596,0,0,0,0,1,playground_72.jpg,playground_76.jpg,1,,
,,,,,,,2023-03-29_10h01.57.773,memory_pilot_most_recent,2022.2.4,Win32,59.80861244,,,,,,,,,,,,,,,,,,,,,,,,,,,,,,,,,,golf,right,,,,right,1,2.4703,5,2.0665,0,1,1,1,1,golf_course_16.jpg,golf_course_309.jpg,0,,
,,,,,,,2023-03-29_10h01.57.773,memory_pilot_most_recent,2022.2.4,Win32,59.80861244,,,,,,,,,,,,,,,,,,,,,,,,,,,,,,,,,,playground,left,,,,left,1,1.6926,4,1.9318,0,2,2,2,1,playground_60.jpg,playground_244.jpg,1,,
,,,,,,,2023-03-29_10h01.57.773,memory_pilot_most_recent,2022.2.4,Win32,59.80861244,,,,,,,,,,,,,,,,,,,,,,,,,,,,,,,,,,bridge,right,,,,right,1,1.5785,2,2.8405,0,3,3,3,1,bridge_17.jpg,bridge_172.jpg,0,,
,,,,,,,2023-03-29_10h01.57.773,memory_pilot_most_recent,2022.2.4,Win32,59.80861244,,,,,,,,,,,,,,,,,,,,,,,,,,,,,,,,,,mountain,right,,,,right,1,3.2035,7,2.9138,0,4,4,4,1,mountain_54.jpg,mountain_232.jpg,1,,
,,,,,,,2023-03-29_10h01.57.773,memory_pilot_most_recent,2022.2.4,Win32,59.80861244,,,,,,,,,,,,,,,,,,,,,,,,,,,,,,,,,,golf,left,,,,left,1,1.8264,6,1.5272,0,5,5,5,1,golf_course_217.jpg,golf_course_35.jpg,0,,
,,,,,,,2023-03-29_10h01.57.773,memory_pilot_most_recent,2022.2.4,Win32,59.80861244,,,,,,,,,,,,,,,,,,,,,,,,,,,,,,,,,,highway,right,,,,right,1,1.7185,4,1.6691,0,6,6,6,1,highway_85.jpg,highway_93.jpg,0,,
,,,,,,,2023-03-29_10h01.57.773,memory_pilot_most_recent,2022.2.4,Win32,59.80861244,,,,,,,,,,,,,,,,,,,,,,,,,,,,,,,,,,mountain,left,,,,left,1,5.4422,6,1.4274,0,7,7,7,1,mountain_101.jpg,mountain_221.jpg,1,,
,,,,,,,2023-03-29_10h01.57.773,memory_pilot_most_recent,2022.2.4,Win32,59.80861244,,,,,,,,,,,,,,,,,,,,,,,,,,,,,,,,,,bridge,right,,,,right,1,1.6861,2,1.7468,0,8,8,8,1,bridge_148.jpg,bridge_108.jpg,1,,
,,,,,,,2023-03-29_10h01.57.773,memory_pilot_most_recent,2022.2.4,Win32,59.80861244,,,,,,,,,,,,,,,,,,,,,,,,,,,,,,,,,,highway,left,,,,left,1,1.6118,3,1.2644,0,9,9,9,1,highway_209.jpg,highway_314.jpg,0,,
,,,,,,,2023-03-29_10h01.57.773,memory_pilot_most_recent,2022.2.4,Win32,59.80861244,,,,,,,,,,,,,,,,,,,,,,,,,,,,,,,,,,playground,right,,,,right,1,1.8157,6,3.2975,0,10,10,10,1,playground_167.jpg,playground_117.jpg,0,,
,,,,,,,2023-03-29_10h01.57.773,memory_pilot_most_recent,2022.2.4,Win32,59.80861244,,,,,,,,,,,,,,,,,,,,,,,,,,,,,,,,,,bridge,right,,,,right,1,2.3016,5,1.331,0,11,11,11,1,bridge_38.jpg,bridge_202.jpg,1,,
,,,,,,,2023-03-29_10h01.57.773,memory_pilot_most_recent,2022.2.4,Win32,59.80861244,,,,,,,,,,,,,,,,,,,,,,,,,,,,,,,,,,badlands,right,,,,right,1,1.0915,3,1.2387,0,12,12,12,1,badlands_102.jpg,badlands_70.jpg,0,,
,,,,,,,2023-03-29_10h01.57.773,memory_pilot_most_recent,2022.2.4,Win32,59.80861244,,,,,,,,,,,,,,,,,,,,,,,,,,,,,,,,,,mountain,left,,,,left,1,2.988,6,1.5761,0,13,13,13,1,mountain_293.jpg,mountain_47.jpg,1,,
,,,,,,,2023-03-29_10h01.57.773,memory_pilot_most_recent,2022.2.4,Win32,59.80861244,,,,,,,,,,,,,,,,,,,,,,,,,,,,,,,,,,bridge,right,,,,right,1,2.1247,3,1.3453,0,14,14,14,1,bridge_244.jpg,bridge_128.jpg,1,,
,,,,,,,2023-03-29_10h01.57.773,memory_pilot_most_recent,2022.2.4,Win32,59.80861244,,,,,,,,,,,,,,,,,,,,,,,,,,,,,,,,,,highway,right,,,,right,1,1.0914,6,1.3735,0,15,15,15,1,highway_293.jpg,highway_156.jpg,1,,
,,,,,,,2023-03-29_10h01.57.773,memory_pilot_most_recent,2022.2.4,Win32,59.80861244,,,,,,,,,,,,,,,,,,,,,,,,,,,,,,,,,,playground,right,,,,right,1,1.5752,5,1.3884,0,16,16,16,1,playground_40.jpg,playground_240.jpg,1,,
,,,,,,,2023-03-29_10h01.57.773,memory_pilot_most_recent,2022.2.4,Win32,59.80861244,,,,,,,,,,,,,,,,,,,,,,,,,,,,,,,,,,golf,left,,,,left,1,1.346,4,1.3888,0,17,17,17,1,golf_course_193.jpg,golf_course_123.jpg,1,,
,,,,,,,2023-03-29_10h01.57.773,memory_pilot_most_recent,2022.2.4,Win32,59.80861244,,,,,,,,,,,,,,,,,,,,,,,,,,,,,,,,,,playground,right,,,,right,1,1.3195,5,1.7532,0,18,18,18,1,playground_137.jpg,playground_144.jpg,0,,
,,,,,,,2023-03-29_10h01.57.773,memory_pilot_most_recent,2022.2.4,Win32,59.80861244,,,,,,,,,,,,,,,,,,,,,,,,,,,,,,,,,,playground,right,,,,left,0,2.0429,6,1.8505,0,19,19,19,1,playground_214.jpg,playground_257.jpg,0,,
,,,,,,,2023-03-29_10h01.57.773,memory_pilot_most_recent,2022.2.4,Win32,59.80861244,,,,,,,,,,,,,,,,,,,,,,,,,,,,,,,,,,mountain,right,,,,right,1,2.4152,7,1.1789,0,20,20,20,1,mountain_157.jpg,mountain_110.jpg,0,,
,,,,,,,2023-03-29_10h01.57.773,memory_pilot_most_recent,2022.2.4,Win32,59.80861244,,,,,,,,,,,,,,,,,,,,,,,,,,,,,,,,,,badlands,left,,,,left,1,1.3613,3,1.266,0,21,21,21,1,badlands_23.jpg,badlands_101.jpg,1,,
,,,,,,,2023-03-29_10h01.57.773,memory_pilot_most_recent,2022.2.4,Win32,59.80861244,,,,,,,,,,,,,,,,,,,,,,,,,,,,,,,,,,highway,left,,,,left,1,1.3122,4,2.1059,0,22,22,22,1,highway_273.jpg,highway_171.jpg,1,,
,,,,,,,2023-03-29_10h01.57.773,memory_pilot_most_recent,2022.2.4,Win32,59.80861244,,,,,,,,,,,,,,,,,,,,,,,,,,,,,,,,,,bridge,left,,,,left,1,1.7989,3,1.6144,0,23,23,23,1,bridge_250.jpg,bridge_205.jpg,1,,
,,,,,,,2023-03-29_10h01.57.773,memory_pilot_most_recent,2022.2.4,Win32,59.80861244,,,,,,,,,,,,,,,,,,,,,,,,,,,,,,,,,,highway,right,,,,right,1,1.3188,4,1.612,0,24,24,24,1,highway_204.jpg,highway_394.jpg,0,,
,,,,,,,2023-03-29_10h01.57.773,memory_pilot_most_recent,2022.2.4,Win32,59.80861244,,,,,,,,,,,,,,,,,,,,,,,,,,,,,,,,,,badlands,right,,,,right,1,1.295,5,1.5736,0,25,25,25,1,badlands_103.jpg,badlands_184.jpg,1,,
,,,,,,,2023-03-29_10h01.57.773,memory_pilot_most_recent,2022.2.4,Win32,59.80861244,,,,,,,,,,,,,,,,,,,,,,,,,,,,,,,,,,highway,right,,,,right,1,2.3281,6,1.4555,0,26,26,26,1,highway_368.jpg,highway_294.jpg,1,,
,,,,,,,2023-03-29_10h01.57.773,memory_pilot_most_recent,2022.2.4,Win32,59.80861244,,,,,,,,,,,,,,,,,,,,,,,,,,,,,,,,,,bridge,left,,,,left,1,2.0038,5,1.3159,0,27,27,27,1,bridge_191.jpg,bridge_184.jpg,0,,
,,,,,,,2023-03-29_10h01.57.773,memory_pilot_most_recent,2022.2.4,Win32,59.80861244,,,,,,,,,,,,,,,,,,,,,,,,,,,,,,,,,,golf,left,,,,left,1,1.3531,8,1.5559,0,28,28,28,1,golf_course_214.jpg,golf_course_317.jpg,1,,
,,,,,,,2023-03-29_10h01.57.773,memory_pilot_most_recent,2022.2.4,Win32,59.80861244,,,,,,,,,,,,,,,,,,,,,,,,,,,,,,,,,,badlands,left,,,,left,1,1.186,3,1.3404,0,29,29,29,1,badlands_52.jpg,badlands_94.jpg,0,,
,,,,,,,2023-03-29_10h01.57.773,memory_pilot_most_recent,2022.2.4,Win32,59.80861244,,,,,,,,,,,,,,,,,,,,,,,,,,,,,,,,,,mountain,left,,,,left,1,1.0529,6,1.3444,0,30,30,30,1,mountain_123.jpg,mountain_94.jpg,0,,
,,,,,,,2023-03-29_10h01.57.773,memory_pilot_most_recent,2022.2.4,Win32,59.80861244,,,,,,,,,,,,,,,,,,,,,,,,,,,,,,,,,,badlands,left,,,,left,1,1.1677,3,3.4262,0,31,31,31,1,badlands_221.jpg,badlands_207.jpg,1,,
,,,,,,,2023-03-29_10h01.57.773,memory_pilot_most_recent,2022.2.4,Win32,59.80861244,,,,,,,,,,,,,,,,,,,,,,,,,,,,,,,,,,golf,left,,,,left,1,2.3563,6,1.3576,0,32,32,32,1,golf_course_331.jpg,golf_course_114.jpg,0,,
,,,,,,,2023-03-29_10h01.57.773,memory_pilot_most_recent,2022.2.4,Win32,59.80861244,,,,,,,,,,,,,,,,,,,,,,,,,,,,,,,,,,golf,right,,,,right,1,1.203,3,2.2133,0,33,33,33,1,golf_course_25.jpg,golf_course_195.jpg,0,,
,,,,,,,2023-03-29_10h01.57.773,memory_pilot_most_recent,2022.2.4,Win32,59.80861244,,,,,,,,,,,,,,,,,,,,,,,,,,,,,,,,,,playground,left,,,,left,1,1.4692,5,3.0294,0,34,34,34,1,playground_145.jpg,playground_229.jpg,0,,
,,,,,,,2023-03-29_10h01.57.773,memory_pilot_most_recent,2022.2.4,Win32,59.80861244,,,,,,,,,,,,,,,,,,,,,,,,,,,,,,,,,,golf,right,,,,right,1,1.7518,3,1.7446,0,35,35,35,1,golf_course_157.jpg,golf_course_188.jpg,0,,
,,,,,,,2023-03-29_10h01.57.773,memory_pilot_most_recent,2022.2.4,Win32,59.80861244,,,,,,,,,,,,,,,,,,,,,,,,,,,,,,,,,,badlands,left,,,,right,0,1.3032,5,2.0187,0,36,36,36,1,badlands_137.jpg,badlands_194.jpg,0,,
,,,,,,,2023-03-29_10h01.57.773,memory_pilot_most_recent,2022.2.4,Win32,59.80861244,,,,,,,,,,,,,,,,,,,,,,,,,,,,,,,,,,bridge,left,,,,left,1,1.353,2,1.4068,0,37,37,37,1,bridge_256.jpg,bridge_54.jpg,0,,
,,,,,,,2023-03-29_10h01.57.773,memory_pilot_most_recent,2022.2.4,Win32,59.80861244,,,,,,,,,,,,,,,,,,,,,,,,,,,,,,,,,,highway,left,,,,left,1,1.322,4,1.273,0,38,38,38,1,highway_415.jpg,highway_60.jpg,0,,
,,,,,,,2023-03-29_10h01.57.773,memory_pilot_most_recent,2022.2.4,Win32,59.80861244,,,,,,,,,,,,,,,,,,,,,,,,,,,,,,,,,,highway,left,,,,left,1,1.54,5,1.8733,0,39,39,39,1,highway_245.jpg,highway_134.jpg,0,,
,,,,,,,2023-03-29_10h01.57.773,memory_pilot_most_recent,2022.2.4,Win32,59.80861244,,,,,,,,,,,,,,,,,,,,,,,,,,,,,,,,,,badlands,right,,,,right,1,1.1264,5,1.0754,0,40,40,40,1,badlands_3.jpg,badlands_24.jpg,0,,
,,,,,,,2023-03-29_10h01.57.773,memory_pilot_most_recent,2022.2.4,Win32,59.80861244,,,,,,,,,,,,,,,,,,,,,,,,,,,,,,,,,,playground,left,,,,left,1,2.01,7,1.8022,0,41,41,41,1,playground_131.jpg,playground_164.jpg,1,,
,,,,,,,2023-03-29_10h01.57.773,memory_pilot_most_recent,2022.2.4,Win32,59.80861244,,,,,,,,,,,,,,,,,,,,,,,,,,,,,,,,,,badlands,right,,,,right,1,2.6681,8,1.4898,0,42,42,42,1,badlands_203.jpg,badlands_113.jpg,1,,
,,,,,,,2023-03-29_10h01.57.773,memory_pilot_most_recent,2022.2.4,Win32,59.80861244,,,,,,,,,,,,,,,,,,,,,,,,,,,,,,,,,,golf,right,,,,left,0,1.6759,6,1.0328,0,43,43,43,1,golf_course_101.jpg,golf_course_78.jpg,1,,
,,,,,,,2023-03-29_10h01.57.773,memory_pilot_most_recent,2022.2.4,Win32,59.80861244,,,,,,,,,,,,,,,,,,,,,,,,,,,,,,,,,,mountain,right,,,,right,1,1.5631,3,1.2712,0,44,44,44,1,mountain_93.jpg,mountain_222.jpg,1,,
,,,,,,,2023-03-29_10h01.57.773,memory_pilot_most_recent,2022.2.4,Win32,59.80861244,,,,,,,,,,,,,,,,,,,,,,,,,,,,,,,,,,playground,left,,,,left,1,2.6103,7,1.5737,0,45,45,45,1,playground_219.jpg,playground_205.jpg,1,,
,,,,,,,2023-03-29_10h01.57.773,memory_pilot_most_recent,2022.2.4,Win32,59.80861244,,,,,,,,,,,,,,,,,,,,,,,,,,,,,,,,,,highway,left,,,,left,1,2.2956,6,1.3952,0,46,46,46,1,highway_177.jpg,highway_278.jpg,1,,
,,,,,,,2023-03-29_10h01.57.773,memory_pilot_most_recent,2022.2.4,Win32,59.80861244,,,,,,,,,,,,,,,,,,,,,,,,,,,,,,,,,,highway,right,,,,right,1,1.551,6,1.2899,0,47,47,47,1,highway_379.jpg,highway_359.jpg,1,,
,,,,,,,2023-03-29_10h01.57.773,memory_pilot_most_recent,2022.2.4,Win32,59.80861244,,,,,,,,,,,,,,,,,,,,,,,,,,,,,,,,,,badlands,right,,,,right,1,0.9793,5,1.205,0,48,48,48,1,badlands_1.jpg,badlands_21.jpg,0,,
,,,,,,,2023-03-29_10h01.57.773,memory_pilot_most_recent,2022.2.4,Win32,59.80861244,,,,,,,,,,,,,,,,,,,,,,,,,,,,,,,,,,bridge,left,,,,left,1,2.4783,7,1.347,0,49,49,49,1,bridge_146.jpg,bridge_27.jpg,0,,
,,,,,,,2023-03-29_10h01.57.773,memory_pilot_most_recent,2022.2.4,Win32,59.80861244,,,,,,,,,,,,,,,,,,,,,,,,,,,,,,,,,,playground,right,,,,left,0,2.3955,5,1.5555,0,50,50,50,1,playground_122.jpg,playground_10.jpg,0,,
,,,,,,,2023-03-29_10h01.57.773,memory_pilot_most_recent,2022.2.4,Win32,59.80861244,,,,,,,,,,,,,,,,,,,,,,,,,,,,,,,,,,golf,left,,,,right,0,2.3604,8,1.6557,0,51,51,51,1,golf_course_15.jpg,golf_course_97.jpg,1,,
,,,,,,,2023-03-29_10h01.57.773,memory_pilot_most_recent,2022.2.4,Win32,59.80861244,,,,,,,,,,,,,,,,,,,,,,,,,,,,,,,,,,bridge,right,,,,right,1,1.9191,3,1.2443,0,52,52,52,1,bridge_60.jpg,bridge_65.jpg,1,,
,,,,,,,2023-03-29_10h01.57.773,memory_pilot_most_recent,2022.2.4,Win32,59.80861244,,,,,,,,,,,,,,,,,,,,,,,,,,,,,,,,,,bridge,right,,,,right,1,1.1408,4,1.7759,0,53,53,53,1,bridge_253.jpg,bridge_91.jpg,0,,
,,,,,,,2023-03-29_10h01.57.773,memory_pilot_most_recent,2022.2.4,Win32,59.80861244,,,,,,,,,,,,,,,,,,,,,,,,,,,,,,,,,,mountain,right,,,,right,1,1.0615,3,1.1537,0,54,54,54,1,mountain_193.jpg,mountain_57.jpg,0,,
,,,,,,,2023-03-29_10h01.57.773,memory_pilot_most_recent,2022.2.4,Win32,59.80861244,,,,,,,,,,,,,,,,,,,,,,,,,,,,,,,,,,mountain,right,,,,right,1,2.4665,6,1.7971,0,55,55,55,1,mountain_128.jpg,mountain_156.jpg,0,,
,,,,,,,2023-03-29_10h01.57.773,memory_pilot_most_recent,2022.2.4,Win32,59.80861244,,,,,,,,,,,,,,,,,,,,,,,,,,,,,,,,,,mountain,left,,,,left,1,1.4164,7,1.5125,0,56,56,56,1,mountain_230.jpg,mountain_184.jpg,0,,
,,,,,,,2023-03-29_10h01.57.773,memory_pilot_most_recent,2022.2.4,Win32,59.80861244,,,,,,,,,,,,,,,,,,,,,,,,,,,,,,,,,,golf,left,,,,left,1,1.9599,4,1.4179,0,57,57,57,1,golf_course_87.jpg,golf_course_161.jpg,1,,
,,,,,,,2023-03-29_10h01.57.773,memory_pilot_most_recent,2022.2.4,Win32,59.80861244,,,,,,,,,,,,,,,,,,,,,,,,,,,,,,,,,,mountain,right,,,,left,0,1.4319,5,1.2217,0,58,58,58,1,mountain_95.jpg,mountain_154.jpg,1,,
,,,,,,,2023-03-29_10h01.57.773,memory_pilot_most_recent,2022.2.4,Win32,59.80861244,,,,,,,,,,,,,,,,,,,,,,,,,,,,,,,,,,badlands,left,,,,left,1,1.1235,7,1.4062,0,59,59,59,1,badlands_222.jpg,badlands_62.jpg,1,,
,,,,,,,2023-03-29_10h01.57.773,memory_pilot_most_recent,2022.2.4,Win32,59.80861244,,,,,,,,,,,,,,,,,,,,,,,,,,,,,,,,,,,,,,,,,,,,,,,,,,,,space,87.4765
