button.numClicks,button.timesOn,button.timesOff,workID,Age,Gender,Hours slept (last night),date,expName,psychopyVersion,OS,frameRate,space_key_responce.keys,space_key_responce.rt,demo_encoding_response.keys,demo_encoding_response.corr,demo_encoding_loop.thisRepN,demo_encoding_loop.thisTrialN,demo_encoding_loop.thisN,demo_encoding_loop.thisIndex,demo_encoding_loop.ran,DemoImage,DemoCorrect,demo_encoding_response.rt,demo_test_response.keys,demo_test_response.corr,demo_test_response.rt,demo_bar_2.response,demo_bar_2.rt,demo_test_loop.thisRepN,demo_test_loop.thisTrialN,demo_test_loop.thisN,demo_test_loop.thisIndex,demo_test_loop.ran,DemoImage1,DemoImage2,DemoCorrectTest,test_encoding_response.keys,test_encoding_response.corr,trials.thisRepN,trials.thisTrialN,trials.thisN,trials.thisIndex,trials.ran,target,category,correct,test_encoding_response.rt,key_resp_end.keys,key_resp_end.rt,test_test_response.keys,test_test_response.corr,test_test_response.rt,bar_2.response,bar_2.rt,trials_2.thisRepN,trials_2.thisTrialN,trials_2.thisN,trials_2.thisIndex,trials_2.ran,image1,image2,layer,key_resp_end_2.keys,key_resp_end_2.rt
1,[6.098200000047676],[6.098200000047676],A3V2XCDF45VN9X,46,male,7,03-29-2023_11h06.14.116,memory_pilot_most_recent,2022.2.4,MacIntel,60.0024001,,,,,,,,,,,,,,,,,,,,,,,,,,,,,,,,,,,,,,,,,,,,,,,,,,,,,
,,,A3V2XCDF45VN9X,46,male,7,03-29-2023_11h06.14.116,memory_pilot_most_recent,2022.2.4,MacIntel,60.0024001,,,,,,,,,,,,,,,,,,,,,,,,,,,,,,,,,,,,,,,,,,,,,,,,,,,,,
,,,A3V2XCDF45VN9X,46,male,7,03-29-2023_11h06.14.116,memory_pilot_most_recent,2022.2.4,MacIntel,60.0024001,space,5.6479,,,,,,,,,,,,,,,,,,,,,,,,,,,,,,,,,,,,,,,,,,,,,,,,,,,
,,,A3V2XCDF45VN9X,46,male,7,03-29-2023_11h06.14.116,memory_pilot_most_recent,2022.2.4,MacIntel,60.0024001,,,,,,,,,,,,,,,,,,,,,,,,,,,,,,,,,,,,,,,,,,,,,,,,,,,,,
,,,A3V2XCDF45VN9X,46,male,7,03-29-2023_11h06.14.116,memory_pilot_most_recent,2022.2.4,MacIntel,60.0024001,,,,1,0,0,0,0,1,flower1.jpg,,,,,,,,,,,,,,,,,,,,,,,,,,,,,,,,,,,,,,,,,,,
,,,A3V2XCDF45VN9X,46,male,7,03-29-2023_11h06.14.116,memory_pilot_most_recent,2022.2.4,MacIntel,60.0024001,,,,1,0,1,1,1,1,flower2.jpg,,,,,,,,,,,,,,,,,,,,,,,,,,,,,,,,,,,,,,,,,,,
,,,A3V2XCDF45VN9X,46,male,7,03-29-2023_11h06.14.116,memory_pilot_most_recent,2022.2.4,MacIntel,60.0024001,,,left,1,0,2,2,2,1,left.jpg,left,0.8996,,,,,,,,,,,,,,,,,,,,,,,,,,,,,,,,,,,,,,,,,
,,,A3V2XCDF45VN9X,46,male,7,03-29-2023_11h06.14.116,memory_pilot_most_recent,2022.2.4,MacIntel,60.0024001,,,,1,0,3,3,3,1,flower3.jpg,,,,,,,,,,,,,,,,,,,,,,,,,,,,,,,,,,,,,,,,,,,
,,,A3V2XCDF45VN9X,46,male,7,03-29-2023_11h06.14.116,memory_pilot_most_recent,2022.2.4,MacIntel,60.0024001,,,,1,0,4,4,4,1,flower4.jpg,,,,,,,,,,,,,,,,,,,,,,,,,,,,,,,,,,,,,,,,,,,
,,,A3V2XCDF45VN9X,46,male,7,03-29-2023_11h06.14.116,memory_pilot_most_recent,2022.2.4,MacIntel,60.0024001,,,,1,0,5,5,5,1,flower5.jpg,,,,,,,,,,,,,,,,,,,,,,,,,,,,,,,,,,,,,,,,,,,
,,,A3V2XCDF45VN9X,46,male,7,03-29-2023_11h06.14.116,memory_pilot_most_recent,2022.2.4,MacIntel,60.0024001,,,,1,0,6,6,6,1,flower6.jpg,,,,,,,,,,,,,,,,,,,,,,,,,,,,,,,,,,,,,,,,,,,
,,,A3V2XCDF45VN9X,46,male,7,03-29-2023_11h06.14.116,memory_pilot_most_recent,2022.2.4,MacIntel,60.0024001,,,,,,,,,,,,,,,,,,,,,,,,,,,,,,,,,,,,,,,,,,,,,,,,,,,,,
,,,A3V2XCDF45VN9X,46,male,7,03-29-2023_11h06.14.116,memory_pilot_most_recent,2022.2.4,MacIntel,60.0024001,,,,,,,,,,,,,right,0,2.101,5,6.9879,0,0,0,0,1,flower1.jpg,flower1_pair.jpg,left,,,,,,,,,,,,,,,,,,,,,,,,,,,,
,,,A3V2XCDF45VN9X,46,male,7,03-29-2023_11h06.14.116,memory_pilot_most_recent,2022.2.4,MacIntel,60.0024001,,,,,,,,,,,,,left,0,2.7359,4,2.6923,0,1,1,1,1,flower2_pair.jpg,flower2.jpg,right,,,,,,,,,,,,,,,,,,,,,,,,,,,,
,,,A3V2XCDF45VN9X,46,male,7,03-29-2023_11h06.14.116,memory_pilot_most_recent,2022.2.4,MacIntel,60.0024001,,,,,,,,,,,,,left,1,1.7326,2,3.2044,0,2,2,2,1,flower3.jpg,flower3_pair.jpg,left,,,,,,,,,,,,,,,,,,,,,,,,,,,,
,,,A3V2XCDF45VN9X,46,male,7,03-29-2023_11h06.14.116,memory_pilot_most_recent,2022.2.4,MacIntel,60.0024001,,,,,,,,,,,,,right,0,2.5646,5,2.6908,0,3,3,3,1,flower4.jpg,flower4_pair.jpg,left,,,,,,,,,,,,,,,,,,,,,,,,,,,,
,,,A3V2XCDF45VN9X,46,male,7,03-29-2023_11h06.14.116,memory_pilot_most_recent,2022.2.4,MacIntel,60.0024001,,,,,,,,,,,,,right,1,2.1344,4,1.9574,0,4,4,4,1,flower5_pair.jpg,flower5.jpg,right,,,,,,,,,,,,,,,,,,,,,,,,,,,,
,,,A3V2XCDF45VN9X,46,male,7,03-29-2023_11h06.14.116,memory_pilot_most_recent,2022.2.4,MacIntel,60.0024001,,,,,,,,,,,,,right,0,1.3651,4,4.4578,0,5,5,5,1,flower6.jpg,flower6_pair.jpg,left,,,,,,,,,,,,,,,,,,,,,,,,,,,,
,,,A3V2XCDF45VN9X,46,male,7,03-29-2023_11h06.14.116,memory_pilot_most_recent,2022.2.4,MacIntel,60.0024001,,,,,,,,,,,,,,,,,,,,,,,,,,,,,,,,,,,,,,,,,,,,,,,,,,,,,
,,,A3V2XCDF45VN9X,46,male,7,03-29-2023_11h06.14.116,memory_pilot_most_recent,2022.2.4,MacIntel,60.0024001,space,2.8244,,,,,,,,,,,,,,,,,,,,,,,,,,,,,,,,,,,,,,,,,,,,,,,,,,,
,,,A3V2XCDF45VN9X,46,male,7,03-29-2023_11h06.14.116,memory_pilot_most_recent,2022.2.4,MacIntel,60.0024001,,,,,,,,,,,,,,,,,,,,,,,,,,,1,0,0,0,0,1,mountain_57.jpg,mountain,,,,,,,,,,,,,,,,,,,
,,,A3V2XCDF45VN9X,46,male,7,03-29-2023_11h06.14.116,memory_pilot_most_recent,2022.2.4,MacIntel,60.0024001,,,,,,,,,,,,,,,,,,,,,,,,,,,1,0,1,1,1,1,highway_359.jpg,highway,,,,,,,,,,,,,,,,,,,
,,,A3V2XCDF45VN9X,46,male,7,03-29-2023_11h06.14.116,memory_pilot_most_recent,2022.2.4,MacIntel,60.0024001,,,,,,,,,,,,,,,,,,,,,,,,,,,1,0,2,2,2,1,highway_415.jpg,highway,,,,,,,,,,,,,,,,,,,
,,,A3V2XCDF45VN9X,46,male,7,03-29-2023_11h06.14.116,memory_pilot_most_recent,2022.2.4,MacIntel,60.0024001,,,,,,,,,,,,,,,,,,,,,,,,,,,1,0,3,3,3,1,bridge_172.jpg,bridge,,,,,,,,,,,,,,,,,,,
,,,A3V2XCDF45VN9X,46,male,7,03-29-2023_11h06.14.116,memory_pilot_most_recent,2022.2.4,MacIntel,60.0024001,,,,,,,,,,,,,,,,,,,,,,,,,,,1,0,4,4,4,1,playground_117.jpg,playground,,,,,,,,,,,,,,,,,,,
,,,A3V2XCDF45VN9X,46,male,7,03-29-2023_11h06.14.116,memory_pilot_most_recent,2022.2.4,MacIntel,60.0024001,,,,,,,,,,,,,,,,,,,,,,,,,,,1,0,5,5,5,1,golf_course_195.jpg,golf,,,,,,,,,,,,,,,,,,,
,,,A3V2XCDF45VN9X,46,male,7,03-29-2023_11h06.14.116,memory_pilot_most_recent,2022.2.4,MacIntel,60.0024001,,,,,,,,,,,,,,,,,,,,,,,,,,,1,0,6,6,6,1,bridge_65.jpg,bridge,,,,,,,,,,,,,,,,,,,
,,,A3V2XCDF45VN9X,46,male,7,03-29-2023_11h06.14.116,memory_pilot_most_recent,2022.2.4,MacIntel,60.0024001,,,,,,,,,,,,,,,,,,,,,,,,,,,1,0,7,7,7,1,bridge_146.jpg,bridge,,,,,,,,,,,,,,,,,,,
,,,A3V2XCDF45VN9X,46,male,7,03-29-2023_11h06.14.116,memory_pilot_most_recent,2022.2.4,MacIntel,60.0024001,,,,,,,,,,,,,,,,,,,,,,,,,,,1,0,8,8,8,1,mountain_230.jpg,mountain,,,,,,,,,,,,,,,,,,,
,,,A3V2XCDF45VN9X,46,male,7,03-29-2023_11h06.14.116,memory_pilot_most_recent,2022.2.4,MacIntel,60.0024001,,,,,,,,,,,,,,,,,,,,,,,,,,,1,0,9,9,9,1,badlands_23.jpg,badlands,,,,,,,,,,,,,,,,,,,
,,,A3V2XCDF45VN9X,46,male,7,03-29-2023_11h06.14.116,memory_pilot_most_recent,2022.2.4,MacIntel,60.0024001,,,,,,,,,,,,,,,,,,,,,,,,,,,1,0,10,10,10,1,bridge_202.jpg,bridge,,,,,,,,,,,,,,,,,,,
,,,A3V2XCDF45VN9X,46,male,7,03-29-2023_11h06.14.116,memory_pilot_most_recent,2022.2.4,MacIntel,60.0024001,,,,,,,,,,,,,,,,,,,,,,,,,,,1,0,11,11,11,1,playground_145.jpg,playground,,,,,,,,,,,,,,,,,,,
,,,A3V2XCDF45VN9X,46,male,7,03-29-2023_11h06.14.116,memory_pilot_most_recent,2022.2.4,MacIntel,60.0024001,,,,,,,,,,,,,,,,,,,,,,,,,,,1,0,12,12,12,1,mountain_123.jpg,mountain,,,,,,,,,,,,,,,,,,,
,,,A3V2XCDF45VN9X,46,male,7,03-29-2023_11h06.14.116,memory_pilot_most_recent,2022.2.4,MacIntel,60.0024001,,,,,,,,,,,,,,,,,,,,,,,,,,,1,0,13,13,13,1,golf_course_15.jpg,golf,,,,,,,,,,,,,,,,,,,
,,,A3V2XCDF45VN9X,46,male,7,03-29-2023_11h06.14.116,memory_pilot_most_recent,2022.2.4,MacIntel,60.0024001,,,,,,,,,,,,,,,,,,,,,,,,,,left,1,0,14,14,14,1,left.jpg,,left,1.0499,,,,,,,,,,,,,,,,,
,,,A3V2XCDF45VN9X,46,male,7,03-29-2023_11h06.14.116,memory_pilot_most_recent,2022.2.4,MacIntel,60.0024001,,,,,,,,,,,,,,,,,,,,,,,,,,,1,0,15,15,15,1,mountain_101.jpg,mountain,,,,,,,,,,,,,,,,,,,
,,,A3V2XCDF45VN9X,46,male,7,03-29-2023_11h06.14.116,memory_pilot_most_recent,2022.2.4,MacIntel,60.0024001,,,,,,,,,,,,,,,,,,,,,,,,,,,1,0,16,16,16,1,badlands_184.jpg,badlands,,,,,,,,,,,,,,,,,,,
,,,A3V2XCDF45VN9X,46,male,7,03-29-2023_11h06.14.116,memory_pilot_most_recent,2022.2.4,MacIntel,60.0024001,,,,,,,,,,,,,,,,,,,,,,,,,,,1,0,17,17,17,1,playground_76.jpg,playground,,,,,,,,,,,,,,,,,,,
,,,A3V2XCDF45VN9X,46,male,7,03-29-2023_11h06.14.116,memory_pilot_most_recent,2022.2.4,MacIntel,60.0024001,,,,,,,,,,,,,,,,,,,,,,,,,,,1,0,18,18,18,1,badlands_70.jpg,badlands,,,,,,,,,,,,,,,,,,,
,,,A3V2XCDF45VN9X,46,male,7,03-29-2023_11h06.14.116,memory_pilot_most_recent,2022.2.4,MacIntel,60.0024001,,,,,,,,,,,,,,,,,,,,,,,,,,,1,0,19,19,19,1,highway_177.jpg,highway,,,,,,,,,,,,,,,,,,,
,,,A3V2XCDF45VN9X,46,male,7,03-29-2023_11h06.14.116,memory_pilot_most_recent,2022.2.4,MacIntel,60.0024001,,,,,,,,,,,,,,,,,,,,,,,,,,,1,0,20,20,20,1,playground_131.jpg,playground,,,,,,,,,,,,,,,,,,,
,,,A3V2XCDF45VN9X,46,male,7,03-29-2023_11h06.14.116,memory_pilot_most_recent,2022.2.4,MacIntel,60.0024001,,,,,,,,,,,,,,,,,,,,,,,,,,,1,0,21,21,21,1,badlands_113.jpg,badlands,,,,,,,,,,,,,,,,,,,
,,,A3V2XCDF45VN9X,46,male,7,03-29-2023_11h06.14.116,memory_pilot_most_recent,2022.2.4,MacIntel,60.0024001,,,,,,,,,,,,,,,,,,,,,,,,,,,1,0,22,22,22,1,playground_219.jpg,playground,,,,,,,,,,,,,,,,,,,
,,,A3V2XCDF45VN9X,46,male,7,03-29-2023_11h06.14.116,memory_pilot_most_recent,2022.2.4,MacIntel,60.0024001,,,,,,,,,,,,,,,,,,,,,,,,,,,1,0,23,23,23,1,highway_245.jpg,highway,,,,,,,,,,,,,,,,,,,
,,,A3V2XCDF45VN9X,46,male,7,03-29-2023_11h06.14.116,memory_pilot_most_recent,2022.2.4,MacIntel,60.0024001,,,,,,,,,,,,,,,,,,,,,,,,,,right,1,0,24,24,24,1,right.jpg,,right,0.8505,,,,,,,,,,,,,,,,,
,,,A3V2XCDF45VN9X,46,male,7,03-29-2023_11h06.14.116,memory_pilot_most_recent,2022.2.4,MacIntel,60.0024001,,,,,,,,,,,,,,,,,,,,,,,,,,,1,0,25,25,25,1,golf_course_309.jpg,golf,,,,,,,,,,,,,,,,,,,
,,,A3V2XCDF45VN9X,46,male,7,03-29-2023_11h06.14.116,memory_pilot_most_recent,2022.2.4,MacIntel,60.0024001,,,,,,,,,,,,,,,,,,,,,,,,,,,1,0,26,26,26,1,playground_60.jpg,playground,,,,,,,,,,,,,,,,,,,
,,,A3V2XCDF45VN9X,46,male,7,03-29-2023_11h06.14.116,memory_pilot_most_recent,2022.2.4,MacIntel,60.0024001,,,,,,,,,,,,,,,,,,,,,,,,,,left,1,0,27,27,27,1,left.jpg,,left,1.1308,,,,,,,,,,,,,,,,,
,,,A3V2XCDF45VN9X,46,male,7,03-29-2023_11h06.14.116,memory_pilot_most_recent,2022.2.4,MacIntel,60.0024001,,,,,,,,,,,,,,,,,,,,,,,,,,,1,0,28,28,28,1,bridge_91.jpg,bridge,,,,,,,,,,,,,,,,,,,
,,,A3V2XCDF45VN9X,46,male,7,03-29-2023_11h06.14.116,memory_pilot_most_recent,2022.2.4,MacIntel,60.0024001,,,,,,,,,,,,,,,,,,,,,,,,,,,1,0,29,29,29,1,golf_course_331.jpg,golf,,,,,,,,,,,,,,,,,,,
,,,A3V2XCDF45VN9X,46,male,7,03-29-2023_11h06.14.116,memory_pilot_most_recent,2022.2.4,MacIntel,60.0024001,,,,,,,,,,,,,,,,,,,,,,,,,,,1,0,30,30,30,1,golf_course_193.jpg,golf,,,,,,,,,,,,,,,,,,,
,,,A3V2XCDF45VN9X,46,male,7,03-29-2023_11h06.14.116,memory_pilot_most_recent,2022.2.4,MacIntel,60.0024001,,,,,,,,,,,,,,,,,,,,,,,,,,,1,0,31,31,31,1,golf_course_188.jpg,golf,,,,,,,,,,,,,,,,,,,
,,,A3V2XCDF45VN9X,46,male,7,03-29-2023_11h06.14.116,memory_pilot_most_recent,2022.2.4,MacIntel,60.0024001,,,,,,,,,,,,,,,,,,,,,,,,,,,1,0,32,32,32,1,highway_394.jpg,highway,,,,,,,,,,,,,,,,,,,
,,,A3V2XCDF45VN9X,46,male,7,03-29-2023_11h06.14.116,memory_pilot_most_recent,2022.2.4,MacIntel,60.0024001,,,,,,,,,,,,,,,,,,,,,,,,,,,1,0,33,33,33,1,golf_course_87.jpg,golf,,,,,,,,,,,,,,,,,,,
,,,A3V2XCDF45VN9X,46,male,7,03-29-2023_11h06.14.116,memory_pilot_most_recent,2022.2.4,MacIntel,60.0024001,,,,,,,,,,,,,,,,,,,,,,,,,,,1,0,34,34,34,1,badlands_222.jpg,badlands,,,,,,,,,,,,,,,,,,,
,,,A3V2XCDF45VN9X,46,male,7,03-29-2023_11h06.14.116,memory_pilot_most_recent,2022.2.4,MacIntel,60.0024001,,,,,,,,,,,,,,,,,,,,,,,,,,,1,0,35,35,35,1,mountain_232.jpg,mountain,,,,,,,,,,,,,,,,,,,
,,,A3V2XCDF45VN9X,46,male,7,03-29-2023_11h06.14.116,memory_pilot_most_recent,2022.2.4,MacIntel,60.0024001,,,,,,,,,,,,,,,,,,,,,,,,,,,1,0,36,36,36,1,mountain_110.jpg,mountain,,,,,,,,,,,,,,,,,,,
,,,A3V2XCDF45VN9X,46,male,7,03-29-2023_11h06.14.116,memory_pilot_most_recent,2022.2.4,MacIntel,60.0024001,,,,,,,,,,,,,,,,,,,,,,,,,,,1,0,37,37,37,1,highway_294.jpg,highway,,,,,,,,,,,,,,,,,,,
,,,A3V2XCDF45VN9X,46,male,7,03-29-2023_11h06.14.116,memory_pilot_most_recent,2022.2.4,MacIntel,60.0024001,,,,,,,,,,,,,,,,,,,,,,,,,,,1,0,38,38,38,1,mountain_154.jpg,mountain,,,,,,,,,,,,,,,,,,,
,,,A3V2XCDF45VN9X,46,male,7,03-29-2023_11h06.14.116,memory_pilot_most_recent,2022.2.4,MacIntel,60.0024001,,,,,,,,,,,,,,,,,,,,,,,,,,,1,0,39,39,39,1,badlands_21.jpg,badlands,,,,,,,,,,,,,,,,,,,
,,,A3V2XCDF45VN9X,46,male,7,03-29-2023_11h06.14.116,memory_pilot_most_recent,2022.2.4,MacIntel,60.0024001,,,,,,,,,,,,,,,,,,,,,,,,,,,1,0,40,40,40,1,badlands_24.jpg,badlands,,,,,,,,,,,,,,,,,,,
,,,A3V2XCDF45VN9X,46,male,7,03-29-2023_11h06.14.116,memory_pilot_most_recent,2022.2.4,MacIntel,60.0024001,,,,,,,,,,,,,,,,,,,,,,,,,,,1,0,41,41,41,1,golf_course_78.jpg,golf,,,,,,,,,,,,,,,,,,,
,,,A3V2XCDF45VN9X,46,male,7,03-29-2023_11h06.14.116,memory_pilot_most_recent,2022.2.4,MacIntel,60.0024001,,,,,,,,,,,,,,,,,,,,,,,,,,,1,0,42,42,42,1,badlands_137.jpg,badlands,,,,,,,,,,,,,,,,,,,
,,,A3V2XCDF45VN9X,46,male,7,03-29-2023_11h06.14.116,memory_pilot_most_recent,2022.2.4,MacIntel,60.0024001,,,,,,,,,,,,,,,,,,,,,,,,,,,1,0,43,43,43,1,bridge_191.jpg,bridge,,,,,,,,,,,,,,,,,,,
,,,A3V2XCDF45VN9X,46,male,7,03-29-2023_11h06.14.116,memory_pilot_most_recent,2022.2.4,MacIntel,60.0024001,,,,,,,,,,,,,,,,,,,,,,,,,,right,1,0,44,44,44,1,right.jpg,,right,0.8645,,,,,,,,,,,,,,,,,
,,,A3V2XCDF45VN9X,46,male,7,03-29-2023_11h06.14.116,memory_pilot_most_recent,2022.2.4,MacIntel,60.0024001,,,,,,,,,,,,,,,,,,,,,,,,,,,1,0,45,45,45,1,badlands_221.jpg,badlands,,,,,,,,,,,,,,,,,,,
,,,A3V2XCDF45VN9X,46,male,7,03-29-2023_11h06.14.116,memory_pilot_most_recent,2022.2.4,MacIntel,60.0024001,,,,,,,,,,,,,,,,,,,,,,,,,,,1,0,46,46,46,1,mountain_222.jpg,mountain,,,,,,,,,,,,,,,,,,,
,,,A3V2XCDF45VN9X,46,male,7,03-29-2023_11h06.14.116,memory_pilot_most_recent,2022.2.4,MacIntel,60.0024001,,,,,,,,,,,,,,,,,,,,,,,,,,,1,0,47,47,47,1,mountain_293.jpg,mountain,,,,,,,,,,,,,,,,,,,
,,,A3V2XCDF45VN9X,46,male,7,03-29-2023_11h06.14.116,memory_pilot_most_recent,2022.2.4,MacIntel,60.0024001,,,,,,,,,,,,,,,,,,,,,,,,,,,1,0,48,48,48,1,bridge_256.jpg,bridge,,,,,,,,,,,,,,,,,,,
,,,A3V2XCDF45VN9X,46,male,7,03-29-2023_11h06.14.116,memory_pilot_most_recent,2022.2.4,MacIntel,60.0024001,,,,,,,,,,,,,,,,,,,,,,,,,,,1,0,49,49,49,1,bridge_108.jpg,bridge,,,,,,,,,,,,,,,,,,,
,,,A3V2XCDF45VN9X,46,male,7,03-29-2023_11h06.14.116,memory_pilot_most_recent,2022.2.4,MacIntel,60.0024001,,,,,,,,,,,,,,,,,,,,,,,,,,,1,0,50,50,50,1,golf_course_217.jpg,golf,,,,,,,,,,,,,,,,,,,
,,,A3V2XCDF45VN9X,46,male,7,03-29-2023_11h06.14.116,memory_pilot_most_recent,2022.2.4,MacIntel,60.0024001,,,,,,,,,,,,,,,,,,,,,,,,,,,1,0,51,51,51,1,highway_273.jpg,highway,,,,,,,,,,,,,,,,,,,
,,,A3V2XCDF45VN9X,46,male,7,03-29-2023_11h06.14.116,memory_pilot_most_recent,2022.2.4,MacIntel,60.0024001,,,,,,,,,,,,,,,,,,,,,,,,,,left,1,0,52,52,52,1,left.jpg,,left,1.3169,,,,,,,,,,,,,,,,,
,,,A3V2XCDF45VN9X,46,male,7,03-29-2023_11h06.14.116,memory_pilot_most_recent,2022.2.4,MacIntel,60.0024001,,,,,,,,,,,,,,,,,,,,,,,,,,,1,0,53,53,53,1,bridge_250.jpg,bridge,,,,,,,,,,,,,,,,,,,
,,,A3V2XCDF45VN9X,46,male,7,03-29-2023_11h06.14.116,memory_pilot_most_recent,2022.2.4,MacIntel,60.0024001,,,,,,,,,,,,,,,,,,,,,,,,,,,1,0,54,54,54,1,bridge_128.jpg,bridge,,,,,,,,,,,,,,,,,,,
,,,A3V2XCDF45VN9X,46,male,7,03-29-2023_11h06.14.116,memory_pilot_most_recent,2022.2.4,MacIntel,60.0024001,,,,,,,,,,,,,,,,,,,,,,,,,,,1,0,55,55,55,1,highway_156.jpg,highway,,,,,,,,,,,,,,,,,,,
,,,A3V2XCDF45VN9X,46,male,7,03-29-2023_11h06.14.116,memory_pilot_most_recent,2022.2.4,MacIntel,60.0024001,,,,,,,,,,,,,,,,,,,,,,,,,,,1,0,56,56,56,1,highway_93.jpg,highway,,,,,,,,,,,,,,,,,,,
,,,A3V2XCDF45VN9X,46,male,7,03-29-2023_11h06.14.116,memory_pilot_most_recent,2022.2.4,MacIntel,60.0024001,,,,,,,,,,,,,,,,,,,,,,,,,,,1,0,57,57,57,1,highway_209.jpg,highway,,,,,,,,,,,,,,,,,,,
,,,A3V2XCDF45VN9X,46,male,7,03-29-2023_11h06.14.116,memory_pilot_most_recent,2022.2.4,MacIntel,60.0024001,,,,,,,,,,,,,,,,,,,,,,,,,,,1,0,58,58,58,1,playground_257.jpg,playground,,,,,,,,,,,,,,,,,,,
,,,A3V2XCDF45VN9X,46,male,7,03-29-2023_11h06.14.116,memory_pilot_most_recent,2022.2.4,MacIntel,60.0024001,,,,,,,,,,,,,,,,,,,,,,,,,,,1,0,59,59,59,1,badlands_52.jpg,badlands,,,,,,,,,,,,,,,,,,,
,,,A3V2XCDF45VN9X,46,male,7,03-29-2023_11h06.14.116,memory_pilot_most_recent,2022.2.4,MacIntel,60.0024001,,,,,,,,,,,,,,,,,,,,,,,,,,,1,0,60,60,60,1,golf_course_214.jpg,golf,,,,,,,,,,,,,,,,,,,
,,,A3V2XCDF45VN9X,46,male,7,03-29-2023_11h06.14.116,memory_pilot_most_recent,2022.2.4,MacIntel,60.0024001,,,,,,,,,,,,,,,,,,,,,,,,,,,1,0,61,61,61,1,playground_240.jpg,playground,,,,,,,,,,,,,,,,,,,
,,,A3V2XCDF45VN9X,46,male,7,03-29-2023_11h06.14.116,memory_pilot_most_recent,2022.2.4,MacIntel,60.0024001,,,,,,,,,,,,,,,,,,,,,,,,,,,1,0,62,62,62,1,playground_10.jpg,playground,,,,,,,,,,,,,,,,,,,
,,,A3V2XCDF45VN9X,46,male,7,03-29-2023_11h06.14.116,memory_pilot_most_recent,2022.2.4,MacIntel,60.0024001,,,,,,,,,,,,,,,,,,,,,,,,,,,1,0,63,63,63,1,mountain_156.jpg,mountain,,,,,,,,,,,,,,,,,,,
,,,A3V2XCDF45VN9X,46,male,7,03-29-2023_11h06.14.116,memory_pilot_most_recent,2022.2.4,MacIntel,60.0024001,,,,,,,,,,,,,,,,,,,,,,,,,,,1,0,64,64,64,1,playground_144.jpg,playground,,,,,,,,,,,,,,,,,,,
,,,A3V2XCDF45VN9X,46,male,7,03-29-2023_11h06.14.116,memory_pilot_most_recent,2022.2.4,MacIntel,60.0024001,,,,,,,,,,,,,,,,,,,,,,,,,,,,,,,,,,,,,space,3.1279,,,,,,,,,,,,,,,
,,,A3V2XCDF45VN9X,46,male,7,03-29-2023_11h06.14.116,memory_pilot_most_recent,2022.2.4,MacIntel,60.0024001,,,,,,,,,,,,,,,,,,,,,,,,,,,,,,,,,,,,,,,,,,,,,,,,,,,,,
,,,A3V2XCDF45VN9X,46,male,7,03-29-2023_11h06.14.116,memory_pilot_most_recent,2022.2.4,MacIntel,60.0024001,,,,,,,,,,,,,,,,,,,,,,,,,,,,,,,,,,playground,left,,,,left,1,2.9988,3,3.0053,0,0,0,0,1,playground_219.jpg,playground_21.jpg,0,,
,,,A3V2XCDF45VN9X,46,male,7,03-29-2023_11h06.14.116,memory_pilot_most_recent,2022.2.4,MacIntel,60.0024001,,,,,,,,,,,,,,,,,,,,,,,,,,,,,,,,,,mountain,left,,,,left,1,2.4487,6,2.5238,0,1,1,1,1,mountain_230.jpg,mountain_184.jpg,0,,
,,,A3V2XCDF45VN9X,46,male,7,03-29-2023_11h06.14.116,memory_pilot_most_recent,2022.2.4,MacIntel,60.0024001,,,,,,,,,,,,,,,,,,,,,,,,,,,,,,,,,,mountain,right,,,,right,1,2.6657,4,2.0426,0,2,2,2,1,mountain_47.jpg,mountain_293.jpg,1,,
,,,A3V2XCDF45VN9X,46,male,7,03-29-2023_11h06.14.116,memory_pilot_most_recent,2022.2.4,MacIntel,60.0024001,,,,,,,,,,,,,,,,,,,,,,,,,,,,,,,,,,highway,left,,,,left,1,2.1803,5,3.336,0,3,3,3,1,highway_245.jpg,highway_206.jpg,1,,
,,,A3V2XCDF45VN9X,46,male,7,03-29-2023_11h06.14.116,memory_pilot_most_recent,2022.2.4,MacIntel,60.0024001,,,,,,,,,,,,,,,,,,,,,,,,,,,,,,,,,,golf,right,,,,right,1,1.7954,3,1.9223,0,4,4,4,1,golf_course_262.jpg,golf_course_217.jpg,1,,
,,,A3V2XCDF45VN9X,46,male,7,03-29-2023_11h06.14.116,memory_pilot_most_recent,2022.2.4,MacIntel,60.0024001,,,,,,,,,,,,,,,,,,,,,,,,,,,,,,,,,,mountain,right,,,,left,0,3.4875,3,2.5019,0,5,5,5,1,mountain_295.jpg,mountain_156.jpg,1,,
,,,A3V2XCDF45VN9X,46,male,7,03-29-2023_11h06.14.116,memory_pilot_most_recent,2022.2.4,MacIntel,60.0024001,,,,,,,,,,,,,,,,,,,,,,,,,,,,,,,,,,badlands,left,,,,right,0,2.1241,7,2.0055,0,6,6,6,1,badlands_184.jpg,badlands_228.jpg,0,,
,,,A3V2XCDF45VN9X,46,male,7,03-29-2023_11h06.14.116,memory_pilot_most_recent,2022.2.4,MacIntel,60.0024001,,,,,,,,,,,,,,,,,,,,,,,,,,,,,,,,,,golf,left,,,,right,0,2.1978,7,2.6576,0,7,7,7,1,golf_course_331.jpg,golf_course_26.jpg,1,,
,,,A3V2XCDF45VN9X,46,male,7,03-29-2023_11h06.14.116,memory_pilot_most_recent,2022.2.4,MacIntel,60.0024001,,,,,,,,,,,,,,,,,,,,,,,,,,,,,,,,,,mountain,left,,,,left,1,2.0684,4,2.1727,0,8,8,8,1,mountain_232.jpg,mountain_54.jpg,1,,
,,,A3V2XCDF45VN9X,46,male,7,03-29-2023_11h06.14.116,memory_pilot_most_recent,2022.2.4,MacIntel,60.0024001,,,,,,,,,,,,,,,,,,,,,,,,,,,,,,,,,,golf,left,,,,right,0,2.1851,6,2.6919,0,9,9,9,1,golf_course_195.jpg,golf_course_2.jpg,1,,
,,,A3V2XCDF45VN9X,46,male,7,03-29-2023_11h06.14.116,memory_pilot_most_recent,2022.2.4,MacIntel,60.0024001,,,,,,,,,,,,,,,,,,,,,,,,,,,,,,,,,,bridge,left,,,,right,0,1.1225,7,2.3895,0,10,10,10,1,bridge_250.jpg,bridge_134.jpg,0,,
,,,A3V2XCDF45VN9X,46,male,7,03-29-2023_11h06.14.116,memory_pilot_most_recent,2022.2.4,MacIntel,60.0024001,,,,,,,,,,,,,,,,,,,,,,,,,,,,,,,,,,badlands,left,,,,right,0,1.2144,8,2.0087,0,11,11,11,1,badlands_222.jpg,badlands_62.jpg,1,,
,,,A3V2XCDF45VN9X,46,male,7,03-29-2023_11h06.14.116,memory_pilot_most_recent,2022.2.4,MacIntel,60.0024001,,,,,,,,,,,,,,,,,,,,,,,,,,,,,,,,,,badlands,left,,,,left,1,2.1228,4,1.9063,0,12,12,12,1,badlands_70.jpg,badlands_102.jpg,0,,
,,,A3V2XCDF45VN9X,46,male,7,03-29-2023_11h06.14.116,memory_pilot_most_recent,2022.2.4,MacIntel,60.0024001,,,,,,,,,,,,,,,,,,,,,,,,,,,,,,,,,,bridge,right,,,,right,1,1.5787,5,1.654,0,13,13,13,1,bridge_82.jpg,bridge_91.jpg,1,,
,,,A3V2XCDF45VN9X,46,male,7,03-29-2023_11h06.14.116,memory_pilot_most_recent,2022.2.4,MacIntel,60.0024001,,,,,,,,,,,,,,,,,,,,,,,,,,,,,,,,,,playground,right,,,,right,1,1.2192,4,2.1917,0,14,14,14,1,playground_137.jpg,playground_144.jpg,0,,
,,,A3V2XCDF45VN9X,46,male,7,03-29-2023_11h06.14.116,memory_pilot_most_recent,2022.2.4,MacIntel,60.0024001,,,,,,,,,,,,,,,,,,,,,,,,,,,,,,,,,,highway,left,,,,left,1,2.4217,5,1.6045,0,15,15,15,1,highway_294.jpg,highway_368.jpg,1,,
,,,A3V2XCDF45VN9X,46,male,7,03-29-2023_11h06.14.116,memory_pilot_most_recent,2022.2.4,MacIntel,60.0024001,,,,,,,,,,,,,,,,,,,,,,,,,,,,,,,,,,highway,left,,,,left,1,1.3804,4,1.4149,0,16,16,16,1,highway_156.jpg,highway_293.jpg,1,,
,,,A3V2XCDF45VN9X,46,male,7,03-29-2023_11h06.14.116,memory_pilot_most_recent,2022.2.4,MacIntel,60.0024001,,,,,,,,,,,,,,,,,,,,,,,,,,,,,,,,,,golf,left,,,,left,1,1.5536,3,2.2072,0,17,17,17,1,golf_course_188.jpg,golf_course_157.jpg,0,,
,,,A3V2XCDF45VN9X,46,male,7,03-29-2023_11h06.14.116,memory_pilot_most_recent,2022.2.4,MacIntel,60.0024001,,,,,,,,,,,,,,,,,,,,,,,,,,,,,,,,,,badlands,left,,,,left,1,1.6561,2,2.2713,0,18,18,18,1,badlands_24.jpg,badlands_3.jpg,0,,
,,,A3V2XCDF45VN9X,46,male,7,03-29-2023_11h06.14.116,memory_pilot_most_recent,2022.2.4,MacIntel,60.0024001,,,,,,,,,,,,,,,,,,,,,,,,,,,,,,,,,,playground,right,,,,right,1,2.3979,3,1.4876,0,19,19,19,1,playground_122.jpg,playground_10.jpg,0,,
,,,A3V2XCDF45VN9X,46,male,7,03-29-2023_11h06.14.116,memory_pilot_most_recent,2022.2.4,MacIntel,60.0024001,,,,,,,,,,,,,,,,,,,,,,,,,,,,,,,,,,playground,right,,,,right,1,0.9277,5,1.8715,0,20,20,20,1,playground_72.jpg,playground_76.jpg,1,,
,,,A3V2XCDF45VN9X,46,male,7,03-29-2023_11h06.14.116,memory_pilot_most_recent,2022.2.4,MacIntel,60.0024001,,,,,,,,,,,,,,,,,,,,,,,,,,,,,,,,,,bridge,right,,,,right,1,1.4816,4,1.5569,0,21,21,21,1,bridge_75.jpg,bridge_191.jpg,1,,
,,,A3V2XCDF45VN9X,46,male,7,03-29-2023_11h06.14.116,memory_pilot_most_recent,2022.2.4,MacIntel,60.0024001,,,,,,,,,,,,,,,,,,,,,,,,,,,,,,,,,,highway,left,,,,right,0,1.1478,6,2.3567,0,22,22,22,1,highway_415.jpg,highway_174.jpg,1,,
,,,A3V2XCDF45VN9X,46,male,7,03-29-2023_11h06.14.116,memory_pilot_most_recent,2022.2.4,MacIntel,60.0024001,,,,,,,,,,,,,,,,,,,,,,,,,,,,,,,,,,golf,right,,,,right,1,1.708,5,1.2344,0,23,23,23,1,golf_course_113.jpg,golf_course_15.jpg,0,,
,,,A3V2XCDF45VN9X,46,male,7,03-29-2023_11h06.14.116,memory_pilot_most_recent,2022.2.4,MacIntel,60.0024001,,,,,,,,,,,,,,,,,,,,,,,,,,,,,,,,,,playground,right,,,,right,1,1.18,3,1.5917,0,24,24,24,1,playground_2.jpg,playground_240.jpg,0,,
,,,A3V2XCDF45VN9X,46,male,7,03-29-2023_11h06.14.116,memory_pilot_most_recent,2022.2.4,MacIntel,60.0024001,,,,,,,,,,,,,,,,,,,,,,,,,,,,,,,,,,bridge,left,,,,left,1,1.4072,4,2.0366,0,25,25,25,1,bridge_146.jpg,bridge_121.jpg,1,,
,,,A3V2XCDF45VN9X,46,male,7,03-29-2023_11h06.14.116,memory_pilot_most_recent,2022.2.4,MacIntel,60.0024001,,,,,,,,,,,,,,,,,,,,,,,,,,,,,,,,,,mountain,left,,,,right,0,1.0996,3,1.527,0,26,26,26,1,mountain_101.jpg,mountain_171.jpg,0,,
,,,A3V2XCDF45VN9X,46,male,7,03-29-2023_11h06.14.116,memory_pilot_most_recent,2022.2.4,MacIntel,60.0024001,,,,,,,,,,,,,,,,,,,,,,,,,,,,,,,,,,bridge,right,,,,right,1,1.6036,2,1.6354,0,27,27,27,1,bridge_61.jpg,bridge_128.jpg,0,,
,,,A3V2XCDF45VN9X,46,male,7,03-29-2023_11h06.14.116,memory_pilot_most_recent,2022.2.4,MacIntel,60.0024001,,,,,,,,,,,,,,,,,,,,,,,,,,,,,,,,,,playground,left,,,,left,1,1.4297,5,2.294,0,28,28,28,1,playground_257.jpg,playground_215.jpg,1,,
,,,A3V2XCDF45VN9X,46,male,7,03-29-2023_11h06.14.116,memory_pilot_most_recent,2022.2.4,MacIntel,60.0024001,,,,,,,,,,,,,,,,,,,,,,,,,,,,,,,,,,golf,right,,,,right,1,1.195,3,1.4878,0,29,29,29,1,golf_course_16.jpg,golf_course_309.jpg,0,,
,,,A3V2XCDF45VN9X,46,male,7,03-29-2023_11h06.14.116,memory_pilot_most_recent,2022.2.4,MacIntel,60.0024001,,,,,,,,,,,,,,,,,,,,,,,,,,,,,,,,,,golf,right,,,,right,1,1.1602,8,2.0052,0,30,30,30,1,golf_course_312.jpg,golf_course_214.jpg,0,,
,,,A3V2XCDF45VN9X,46,male,7,03-29-2023_11h06.14.116,memory_pilot_most_recent,2022.2.4,MacIntel,60.0024001,,,,,,,,,,,,,,,,,,,,,,,,,,,,,,,,,,bridge,right,,,,right,1,1.6351,3,1.8603,0,31,31,31,1,bridge_181.jpg,bridge_65.jpg,0,,
,,,A3V2XCDF45VN9X,46,male,7,03-29-2023_11h06.14.116,memory_pilot_most_recent,2022.2.4,MacIntel,60.0024001,,,,,,,,,,,,,,,,,,,,,,,,,,,,,,,,,,badlands,right,,,,right,1,3.1965,4,1.8144,0,32,32,32,1,badlands_94.jpg,badlands_52.jpg,0,,
,,,A3V2XCDF45VN9X,46,male,7,03-29-2023_11h06.14.116,memory_pilot_most_recent,2022.2.4,MacIntel,60.0024001,,,,,,,,,,,,,,,,,,,,,,,,,,,,,,,,,,golf,left,,,,left,1,1.4805,6,1.6724,0,33,33,33,1,golf_course_78.jpg,golf_course_101.jpg,1,,
,,,A3V2XCDF45VN9X,46,male,7,03-29-2023_11h06.14.116,memory_pilot_most_recent,2022.2.4,MacIntel,60.0024001,,,,,,,,,,,,,,,,,,,,,,,,,,,,,,,,,,badlands,right,,,,right,1,1.3624,1,2.289,0,34,34,34,1,badlands_98.jpg,badlands_21.jpg,1,,
,,,A3V2XCDF45VN9X,46,male,7,03-29-2023_11h06.14.116,memory_pilot_most_recent,2022.2.4,MacIntel,60.0024001,,,,,,,,,,,,,,,,,,,,,,,,,,,,,,,,,,playground,right,,,,left,0,1.8052,4,2.607,0,35,35,35,1,playground_242.jpg,playground_145.jpg,1,,
,,,A3V2XCDF45VN9X,46,male,7,03-29-2023_11h06.14.116,memory_pilot_most_recent,2022.2.4,MacIntel,60.0024001,,,,,,,,,,,,,,,,,,,,,,,,,,,,,,,,,,bridge,left,,,,right,0,1.9662,3,1.5285,0,36,36,36,1,bridge_202.jpg,bridge_38.jpg,1,,
,,,A3V2XCDF45VN9X,46,male,7,03-29-2023_11h06.14.116,memory_pilot_most_recent,2022.2.4,MacIntel,60.0024001,,,,,,,,,,,,,,,,,,,,,,,,,,,,,,,,,,bridge,right,,,,right,1,1.5162,6,1.6696,0,37,37,37,1,bridge_54.jpg,bridge_256.jpg,0,,
,,,A3V2XCDF45VN9X,46,male,7,03-29-2023_11h06.14.116,memory_pilot_most_recent,2022.2.4,MacIntel,60.0024001,,,,,,,,,,,,,,,,,,,,,,,,,,,,,,,,,,playground,left,,,,right,0,1.4457,7,1.5418,0,38,38,38,1,playground_60.jpg,playground_244.jpg,1,,
,,,A3V2XCDF45VN9X,46,male,7,03-29-2023_11h06.14.116,memory_pilot_most_recent,2022.2.4,MacIntel,60.0024001,,,,,,,,,,,,,,,,,,,,,,,,,,,,,,,,,,badlands,right,,,,left,0,1.1633,6,3.3374,0,39,39,39,1,badlands_203.jpg,badlands_113.jpg,1,,
,,,A3V2XCDF45VN9X,46,male,7,03-29-2023_11h06.14.116,memory_pilot_most_recent,2022.2.4,MacIntel,60.0024001,,,,,,,,,,,,,,,,,,,,,,,,,,,,,,,,,,mountain,right,,,,right,1,1.38,2,2.07,0,40,40,40,1,mountain_138.jpg,mountain_57.jpg,1,,
,,,A3V2XCDF45VN9X,46,male,7,03-29-2023_11h06.14.116,memory_pilot_most_recent,2022.2.4,MacIntel,60.0024001,,,,,,,,,,,,,,,,,,,,,,,,,,,,,,,,,,highway,left,,,,left,1,1.5454,6,2.3574,0,41,41,41,1,highway_93.jpg,highway_85.jpg,0,,
,,,A3V2XCDF45VN9X,46,male,7,03-29-2023_11h06.14.116,memory_pilot_most_recent,2022.2.4,MacIntel,60.0024001,,,,,,,,,,,,,,,,,,,,,,,,,,,,,,,,,,mountain,left,,,,left,1,1.4763,4,1.5208,0,42,42,42,1,mountain_110.jpg,mountain_223.jpg,1,,
,,,A3V2XCDF45VN9X,46,male,7,03-29-2023_11h06.14.116,memory_pilot_most_recent,2022.2.4,MacIntel,60.0024001,,,,,,,,,,,,,,,,,,,,,,,,,,,,,,,,,,highway,left,,,,left,1,1.9044,4,1.5409,0,43,43,43,1,highway_177.jpg,highway_87.jpg,0,,
,,,A3V2XCDF45VN9X,46,male,7,03-29-2023_11h06.14.116,memory_pilot_most_recent,2022.2.4,MacIntel,60.0024001,,,,,,,,,,,,,,,,,,,,,,,,,,,,,,,,,,highway,left,,,,left,1,1.9161,3,2.6432,0,44,44,44,1,highway_209.jpg,highway_122.jpg,1,,
,,,A3V2XCDF45VN9X,46,male,7,03-29-2023_11h06.14.116,memory_pilot_most_recent,2022.2.4,MacIntel,60.0024001,,,,,,,,,,,,,,,,,,,,,,,,,,,,,,,,,,highway,left,,,,left,1,1.5822,2,1.5376,0,45,45,45,1,highway_359.jpg,highway_389.jpg,0,,
,,,A3V2XCDF45VN9X,46,male,7,03-29-2023_11h06.14.116,memory_pilot_most_recent,2022.2.4,MacIntel,60.0024001,,,,,,,,,,,,,,,,,,,,,,,,,,,,,,,,,,badlands,right,,,,left,0,1.5476,3,3.0374,0,46,46,46,1,badlands_194.jpg,badlands_137.jpg,0,,
,,,A3V2XCDF45VN9X,46,male,7,03-29-2023_11h06.14.116,memory_pilot_most_recent,2022.2.4,MacIntel,60.0024001,,,,,,,,,,,,,,,,,,,,,,,,,,,,,,,,,,highway,left,,,,right,0,1.1172,6,3.1243,0,47,47,47,1,highway_273.jpg,highway_384.jpg,0,,
,,,A3V2XCDF45VN9X,46,male,7,03-29-2023_11h06.14.116,memory_pilot_most_recent,2022.2.4,MacIntel,60.0024001,,,,,,,,,,,,,,,,,,,,,,,,,,,,,,,,,,badlands,right,,,,left,0,1.1321,6,1.8874,0,48,48,48,1,badlands_207.jpg,badlands_221.jpg,1,,
,,,A3V2XCDF45VN9X,46,male,7,03-29-2023_11h06.14.116,memory_pilot_most_recent,2022.2.4,MacIntel,60.0024001,,,,,,,,,,,,,,,,,,,,,,,,,,,,,,,,,,highway,left,,,,left,1,1.2335,3,1.4193,0,49,49,49,1,highway_394.jpg,highway_204.jpg,0,,
,,,A3V2XCDF45VN9X,46,male,7,03-29-2023_11h06.14.116,memory_pilot_most_recent,2022.2.4,MacIntel,60.0024001,,,,,,,,,,,,,,,,,,,,,,,,,,,,,,,,,,badlands,right,,,,right,1,1.396,2,1.7108,0,50,50,50,1,badlands_101.jpg,badlands_23.jpg,1,,
,,,A3V2XCDF45VN9X,46,male,7,03-29-2023_11h06.14.116,memory_pilot_most_recent,2022.2.4,MacIntel,60.0024001,,,,,,,,,,,,,,,,,,,,,,,,,,,,,,,,,,bridge,left,,,,right,0,1.175,5,2.99,0,51,51,51,1,bridge_108.jpg,bridge_116.jpg,0,,
,,,A3V2XCDF45VN9X,46,male,7,03-29-2023_11h06.14.116,memory_pilot_most_recent,2022.2.4,MacIntel,60.0024001,,,,,,,,,,,,,,,,,,,,,,,,,,,,,,,,,,playground,left,,,,right,0,1.1475,3,1.8081,0,52,52,52,1,playground_117.jpg,playground_127.jpg,1,,
,,,A3V2XCDF45VN9X,46,male,7,03-29-2023_11h06.14.116,memory_pilot_most_recent,2022.2.4,MacIntel,60.0024001,,,,,,,,,,,,,,,,,,,,,,,,,,,,,,,,,,mountain,right,,,,right,1,1.7354,2,1.326,0,53,53,53,1,mountain_94.jpg,mountain_123.jpg,0,,
,,,A3V2XCDF45VN9X,46,male,7,03-29-2023_11h06.14.116,memory_pilot_most_recent,2022.2.4,MacIntel,60.0024001,,,,,,,,,,,,,,,,,,,,,,,,,,,,,,,,,,mountain,right,,,,left,0,1.5364,4,2.0567,0,54,54,54,1,mountain_244.jpg,mountain_222.jpg,0,,
,,,A3V2XCDF45VN9X,46,male,7,03-29-2023_11h06.14.116,memory_pilot_most_recent,2022.2.4,MacIntel,60.0024001,,,,,,,,,,,,,,,,,,,,,,,,,,,,,,,,,,bridge,left,,,,left,1,1.5006,4,3.5382,0,55,55,55,1,bridge_172.jpg,bridge_163.jpg,1,,
,,,A3V2XCDF45VN9X,46,male,7,03-29-2023_11h06.14.116,memory_pilot_most_recent,2022.2.4,MacIntel,60.0024001,,,,,,,,,,,,,,,,,,,,,,,,,,,,,,,,,,golf,right,,,,right,1,1.2484,3,1.6024,0,56,56,56,1,golf_course_130.jpg,golf_course_87.jpg,0,,
,,,A3V2XCDF45VN9X,46,male,7,03-29-2023_11h06.14.116,memory_pilot_most_recent,2022.2.4,MacIntel,60.0024001,,,,,,,,,,,,,,,,,,,,,,,,,,,,,,,,,,playground,right,,,,right,1,2.1941,6,2.3365,0,57,57,57,1,playground_43.jpg,playground_131.jpg,0,,
,,,A3V2XCDF45VN9X,46,male,7,03-29-2023_11h06.14.116,memory_pilot_most_recent,2022.2.4,MacIntel,60.0024001,,,,,,,,,,,,,,,,,,,,,,,,,,,,,,,,,,mountain,right,,,,right,1,1.1125,3,1.8531,0,58,58,58,1,mountain_131.jpg,mountain_154.jpg,0,,
,,,A3V2XCDF45VN9X,46,male,7,03-29-2023_11h06.14.116,memory_pilot_most_recent,2022.2.4,MacIntel,60.0024001,,,,,,,,,,,,,,,,,,,,,,,,,,,,,,,,,,golf,left,,,,right,0,1.3936,3,1.1205,0,59,59,59,1,golf_course_193.jpg,golf_course_123.jpg,1,,
,,,A3V2XCDF45VN9X,46,male,7,03-29-2023_11h06.14.116,memory_pilot_most_recent,2022.2.4,MacIntel,60.0024001,,,,,,,,,,,,,,,,,,,,,,,,,,,,,,,,,,,,,,,,,,,,,,,,,,,,space,15.9224
