button.numClicks,button.timesOn,button.timesOff,workID,Age,Gender,Hours slept (last night),date,expName,psychopyVersion,OS,frameRate,space_key_responce.keys,space_key_responce.rt,demo_encoding_response.keys,demo_encoding_response.corr,demo_encoding_loop.thisRepN,demo_encoding_loop.thisTrialN,demo_encoding_loop.thisN,demo_encoding_loop.thisIndex,demo_encoding_loop.ran,DemoImage,DemoCorrect,demo_encoding_response.rt,demo_test_response.keys,demo_test_response.corr,demo_test_response.rt,demo_bar_2.response,demo_bar_2.rt,demo_test_loop.thisRepN,demo_test_loop.thisTrialN,demo_test_loop.thisN,demo_test_loop.thisIndex,demo_test_loop.ran,DemoImage1,DemoImage2,DemoCorrectTest,test_encoding_response.keys,test_encoding_response.corr,trials.thisRepN,trials.thisTrialN,trials.thisN,trials.thisIndex,trials.ran,target,category,correct,test_encoding_response.rt,key_resp_end.keys,key_resp_end.rt,test_test_response.keys,test_test_response.corr,test_test_response.rt,bar_2.response,bar_2.rt,trials_2.thisRepN,trials_2.thisTrialN,trials_2.thisN,trials_2.thisIndex,trials_2.ran,image1,image2,layer,key_resp_end_2.keys,key_resp_end_2.rt
1,[2.939600000001491],[2.9398000000007585],AC5PVOOS79W2B,35,female,6,2023-03-29_09h14.30.472,memory_pilot_most_recent,2022.2.4,Linux x86_64,60.54368227,,,,,,,,,,,,,,,,,,,,,,,,,,,,,,,,,,,,,,,,,,,,,,,,,,,,,
,,,AC5PVOOS79W2B,35,female,6,2023-03-29_09h14.30.472,memory_pilot_most_recent,2022.2.4,Linux x86_64,60.54368227,,,,,,,,,,,,,,,,,,,,,,,,,,,,,,,,,,,,,,,,,,,,,,,,,,,,,
,,,AC5PVOOS79W2B,35,female,6,2023-03-29_09h14.30.472,memory_pilot_most_recent,2022.2.4,Linux x86_64,60.54368227,space,4.0447,,,,,,,,,,,,,,,,,,,,,,,,,,,,,,,,,,,,,,,,,,,,,,,,,,,
,,,AC5PVOOS79W2B,35,female,6,2023-03-29_09h14.30.472,memory_pilot_most_recent,2022.2.4,Linux x86_64,60.54368227,,,,,,,,,,,,,,,,,,,,,,,,,,,,,,,,,,,,,,,,,,,,,,,,,,,,,
,,,AC5PVOOS79W2B,35,female,6,2023-03-29_09h14.30.472,memory_pilot_most_recent,2022.2.4,Linux x86_64,60.54368227,,,,1,0,0,0,0,1,flower1.jpg,,,,,,,,,,,,,,,,,,,,,,,,,,,,,,,,,,,,,,,,,,,
,,,AC5PVOOS79W2B,35,female,6,2023-03-29_09h14.30.472,memory_pilot_most_recent,2022.2.4,Linux x86_64,60.54368227,,,,1,0,1,1,1,1,flower2.jpg,,,,,,,,,,,,,,,,,,,,,,,,,,,,,,,,,,,,,,,,,,,
,,,AC5PVOOS79W2B,35,female,6,2023-03-29_09h14.30.472,memory_pilot_most_recent,2022.2.4,Linux x86_64,60.54368227,,,left,1,0,2,2,2,1,left.jpg,left,0.4256,,,,,,,,,,,,,,,,,,,,,,,,,,,,,,,,,,,,,,,,,
,,,AC5PVOOS79W2B,35,female,6,2023-03-29_09h14.30.472,memory_pilot_most_recent,2022.2.4,Linux x86_64,60.54368227,,,,1,0,3,3,3,1,flower3.jpg,,,,,,,,,,,,,,,,,,,,,,,,,,,,,,,,,,,,,,,,,,,
,,,AC5PVOOS79W2B,35,female,6,2023-03-29_09h14.30.472,memory_pilot_most_recent,2022.2.4,Linux x86_64,60.54368227,,,,1,0,4,4,4,1,flower4.jpg,,,,,,,,,,,,,,,,,,,,,,,,,,,,,,,,,,,,,,,,,,,
,,,AC5PVOOS79W2B,35,female,6,2023-03-29_09h14.30.472,memory_pilot_most_recent,2022.2.4,Linux x86_64,60.54368227,,,,1,0,5,5,5,1,flower5.jpg,,,,,,,,,,,,,,,,,,,,,,,,,,,,,,,,,,,,,,,,,,,
,,,AC5PVOOS79W2B,35,female,6,2023-03-29_09h14.30.472,memory_pilot_most_recent,2022.2.4,Linux x86_64,60.54368227,,,,1,0,6,6,6,1,flower6.jpg,,,,,,,,,,,,,,,,,,,,,,,,,,,,,,,,,,,,,,,,,,,
,,,AC5PVOOS79W2B,35,female,6,2023-03-29_09h14.30.472,memory_pilot_most_recent,2022.2.4,Linux x86_64,60.54368227,,,,,,,,,,,,,,,,,,,,,,,,,,,,,,,,,,,,,,,,,,,,,,,,,,,,,
,,,AC5PVOOS79W2B,35,female,6,2023-03-29_09h14.30.472,memory_pilot_most_recent,2022.2.4,Linux x86_64,60.54368227,,,,,,,,,,,,,left,1,3.4449,6,4.5086,0,0,0,0,1,flower1.jpg,flower1_pair.jpg,left,,,,,,,,,,,,,,,,,,,,,,,,,,,,
,,,AC5PVOOS79W2B,35,female,6,2023-03-29_09h14.30.472,memory_pilot_most_recent,2022.2.4,Linux x86_64,60.54368227,,,,,,,,,,,,,left,0,4.3817,4,4.0567,0,1,1,1,1,flower2_pair.jpg,flower2.jpg,right,,,,,,,,,,,,,,,,,,,,,,,,,,,,
,,,AC5PVOOS79W2B,35,female,6,2023-03-29_09h14.30.472,memory_pilot_most_recent,2022.2.4,Linux x86_64,60.54368227,,,,,,,,,,,,,left,1,2.3502,7,1.7977,0,2,2,2,1,flower3.jpg,flower3_pair.jpg,left,,,,,,,,,,,,,,,,,,,,,,,,,,,,
,,,AC5PVOOS79W2B,35,female,6,2023-03-29_09h14.30.472,memory_pilot_most_recent,2022.2.4,Linux x86_64,60.54368227,,,,,,,,,,,,,left,1,1.1779,3,1.9279,0,3,3,3,1,flower4.jpg,flower4_pair.jpg,left,,,,,,,,,,,,,,,,,,,,,,,,,,,,
,,,AC5PVOOS79W2B,35,female,6,2023-03-29_09h14.30.472,memory_pilot_most_recent,2022.2.4,Linux x86_64,60.54368227,,,,,,,,,,,,,left,0,1.5932,6,1.2129,0,4,4,4,1,flower5_pair.jpg,flower5.jpg,right,,,,,,,,,,,,,,,,,,,,,,,,,,,,
,,,AC5PVOOS79W2B,35,female,6,2023-03-29_09h14.30.472,memory_pilot_most_recent,2022.2.4,Linux x86_64,60.54368227,,,,,,,,,,,,,left,1,1.0149,2,4.1784,0,5,5,5,1,flower6.jpg,flower6_pair.jpg,left,,,,,,,,,,,,,,,,,,,,,,,,,,,,
,,,AC5PVOOS79W2B,35,female,6,2023-03-29_09h14.30.472,memory_pilot_most_recent,2022.2.4,Linux x86_64,60.54368227,,,,,,,,,,,,,,,,,,,,,,,,,,,,,,,,,,,,,,,,,,,,,,,,,,,,,
,,,AC5PVOOS79W2B,35,female,6,2023-03-29_09h14.30.472,memory_pilot_most_recent,2022.2.4,Linux x86_64,60.54368227,space,5.4032,,,,,,,,,,,,,,,,,,,,,,,,,,,,,,,,,,,,,,,,,,,,,,,,,,,
,,,AC5PVOOS79W2B,35,female,6,2023-03-29_09h14.30.472,memory_pilot_most_recent,2022.2.4,Linux x86_64,60.54368227,,,,,,,,,,,,,,,,,,,,,,,,,,,1,0,0,0,0,1,bridge_108.jpg,bridge,,,,,,,,,,,,,,,,,,,
,,,AC5PVOOS79W2B,35,female,6,2023-03-29_09h14.30.472,memory_pilot_most_recent,2022.2.4,Linux x86_64,60.54368227,,,,,,,,,,,,,,,,,,,,,,,,,,,1,0,1,1,1,1,playground_257.jpg,playground,,,,,,,,,,,,,,,,,,,
,,,AC5PVOOS79W2B,35,female,6,2023-03-29_09h14.30.472,memory_pilot_most_recent,2022.2.4,Linux x86_64,60.54368227,,,,,,,,,,,,,,,,,,,,,,,,,,,1,0,2,2,2,1,highway_359.jpg,highway,,,,,,,,,,,,,,,,,,,
,,,AC5PVOOS79W2B,35,female,6,2023-03-29_09h14.30.472,memory_pilot_most_recent,2022.2.4,Linux x86_64,60.54368227,,,,,,,,,,,,,,,,,,,,,,,,,,,1,0,3,3,3,1,badlands_222.jpg,badlands,,,,,,,,,,,,,,,,,,,
,,,AC5PVOOS79W2B,35,female,6,2023-03-29_09h14.30.472,memory_pilot_most_recent,2022.2.4,Linux x86_64,60.54368227,,,,,,,,,,,,,,,,,,,,,,,,,,,1,0,4,4,4,1,playground_10.jpg,playground,,,,,,,,,,,,,,,,,,,
,,,AC5PVOOS79W2B,35,female,6,2023-03-29_09h14.30.472,memory_pilot_most_recent,2022.2.4,Linux x86_64,60.54368227,,,,,,,,,,,,,,,,,,,,,,,,,,,1,0,5,5,5,1,bridge_128.jpg,bridge,,,,,,,,,,,,,,,,,,,
,,,AC5PVOOS79W2B,35,female,6,2023-03-29_09h14.30.472,memory_pilot_most_recent,2022.2.4,Linux x86_64,60.54368227,,,,,,,,,,,,,,,,,,,,,,,,,,,1,0,6,6,6,1,bridge_172.jpg,bridge,,,,,,,,,,,,,,,,,,,
,,,AC5PVOOS79W2B,35,female,6,2023-03-29_09h14.30.472,memory_pilot_most_recent,2022.2.4,Linux x86_64,60.54368227,,,,,,,,,,,,,,,,,,,,,,,,,,,1,0,7,7,7,1,bridge_91.jpg,bridge,,,,,,,,,,,,,,,,,,,
,,,AC5PVOOS79W2B,35,female,6,2023-03-29_09h14.30.472,memory_pilot_most_recent,2022.2.4,Linux x86_64,60.54368227,,,,,,,,,,,,,,,,,,,,,,,,,,,1,0,8,8,8,1,mountain_57.jpg,mountain,,,,,,,,,,,,,,,,,,,
,,,AC5PVOOS79W2B,35,female,6,2023-03-29_09h14.30.472,memory_pilot_most_recent,2022.2.4,Linux x86_64,60.54368227,,,,,,,,,,,,,,,,,,,,,,,,,,,1,0,9,9,9,1,badlands_137.jpg,badlands,,,,,,,,,,,,,,,,,,,
,,,AC5PVOOS79W2B,35,female,6,2023-03-29_09h14.30.472,memory_pilot_most_recent,2022.2.4,Linux x86_64,60.54368227,,,,,,,,,,,,,,,,,,,,,,,,,,left,1,0,10,10,10,1,left.jpg,,left,0.6097,,,,,,,,,,,,,,,,,
,,,AC5PVOOS79W2B,35,female,6,2023-03-29_09h14.30.472,memory_pilot_most_recent,2022.2.4,Linux x86_64,60.54368227,,,,,,,,,,,,,,,,,,,,,,,,,,,1,0,11,11,11,1,badlands_52.jpg,badlands,,,,,,,,,,,,,,,,,,,
,,,AC5PVOOS79W2B,35,female,6,2023-03-29_09h14.30.472,memory_pilot_most_recent,2022.2.4,Linux x86_64,60.54368227,,,,,,,,,,,,,,,,,,,,,,,,,,,1,0,12,12,12,1,badlands_113.jpg,badlands,,,,,,,,,,,,,,,,,,,
,,,AC5PVOOS79W2B,35,female,6,2023-03-29_09h14.30.472,memory_pilot_most_recent,2022.2.4,Linux x86_64,60.54368227,,,,,,,,,,,,,,,,,,,,,,,,,,,1,0,13,13,13,1,playground_76.jpg,playground,,,,,,,,,,,,,,,,,,,
,,,AC5PVOOS79W2B,35,female,6,2023-03-29_09h14.30.472,memory_pilot_most_recent,2022.2.4,Linux x86_64,60.54368227,,,,,,,,,,,,,,,,,,,,,,,,,,,1,0,14,14,14,1,bridge_202.jpg,bridge,,,,,,,,,,,,,,,,,,,
,,,AC5PVOOS79W2B,35,female,6,2023-03-29_09h14.30.472,memory_pilot_most_recent,2022.2.4,Linux x86_64,60.54368227,,,,,,,,,,,,,,,,,,,,,,,,,,,1,0,15,15,15,1,badlands_221.jpg,badlands,,,,,,,,,,,,,,,,,,,
,,,AC5PVOOS79W2B,35,female,6,2023-03-29_09h14.30.472,memory_pilot_most_recent,2022.2.4,Linux x86_64,60.54368227,,,,,,,,,,,,,,,,,,,,,,,,,,,1,0,16,16,16,1,mountain_101.jpg,mountain,,,,,,,,,,,,,,,,,,,
,,,AC5PVOOS79W2B,35,female,6,2023-03-29_09h14.30.472,memory_pilot_most_recent,2022.2.4,Linux x86_64,60.54368227,,,,,,,,,,,,,,,,,,,,,,,,,,,1,0,17,17,17,1,playground_60.jpg,playground,,,,,,,,,,,,,,,,,,,
,,,AC5PVOOS79W2B,35,female,6,2023-03-29_09h14.30.472,memory_pilot_most_recent,2022.2.4,Linux x86_64,60.54368227,,,,,,,,,,,,,,,,,,,,,,,,,,,1,0,18,18,18,1,mountain_154.jpg,mountain,,,,,,,,,,,,,,,,,,,
,,,AC5PVOOS79W2B,35,female,6,2023-03-29_09h14.30.472,memory_pilot_most_recent,2022.2.4,Linux x86_64,60.54368227,,,,,,,,,,,,,,,,,,,,,,,,,,,1,0,19,19,19,1,badlands_24.jpg,badlands,,,,,,,,,,,,,,,,,,,
,,,AC5PVOOS79W2B,35,female,6,2023-03-29_09h14.30.472,memory_pilot_most_recent,2022.2.4,Linux x86_64,60.54368227,,,,,,,,,,,,,,,,,,,,,,,,,,,1,0,20,20,20,1,mountain_293.jpg,mountain,,,,,,,,,,,,,,,,,,,
,,,AC5PVOOS79W2B,35,female,6,2023-03-29_09h14.30.472,memory_pilot_most_recent,2022.2.4,Linux x86_64,60.54368227,,,,,,,,,,,,,,,,,,,,,,,,,,,1,0,21,21,21,1,highway_177.jpg,highway,,,,,,,,,,,,,,,,,,,
,,,AC5PVOOS79W2B,35,female,6,2023-03-29_09h14.30.472,memory_pilot_most_recent,2022.2.4,Linux x86_64,60.54368227,,,,,,,,,,,,,,,,,,,,,,,,,,,1,0,22,22,22,1,mountain_110.jpg,mountain,,,,,,,,,,,,,,,,,,,
,,,AC5PVOOS79W2B,35,female,6,2023-03-29_09h14.30.472,memory_pilot_most_recent,2022.2.4,Linux x86_64,60.54368227,,,,,,,,,,,,,,,,,,,,,,,,,,right,1,0,23,23,23,1,right.jpg,,right,1.2363,,,,,,,,,,,,,,,,,
,,,AC5PVOOS79W2B,35,female,6,2023-03-29_09h14.30.472,memory_pilot_most_recent,2022.2.4,Linux x86_64,60.54368227,,,,,,,,,,,,,,,,,,,,,,,,,,,1,0,24,24,24,1,playground_240.jpg,playground,,,,,,,,,,,,,,,,,,,
,,,AC5PVOOS79W2B,35,female,6,2023-03-29_09h14.30.472,memory_pilot_most_recent,2022.2.4,Linux x86_64,60.54368227,,,,,,,,,,,,,,,,,,,,,,,,,,,1,0,25,25,25,1,highway_415.jpg,highway,,,,,,,,,,,,,,,,,,,
,,,AC5PVOOS79W2B,35,female,6,2023-03-29_09h14.30.472,memory_pilot_most_recent,2022.2.4,Linux x86_64,60.54368227,,,,,,,,,,,,,,,,,,,,,,,,,,right,1,0,26,26,26,1,right.jpg,,right,0.5298,,,,,,,,,,,,,,,,,
,,,AC5PVOOS79W2B,35,female,6,2023-03-29_09h14.30.472,memory_pilot_most_recent,2022.2.4,Linux x86_64,60.54368227,,,,,,,,,,,,,,,,,,,,,,,,,,,1,0,27,27,27,1,highway_394.jpg,highway,,,,,,,,,,,,,,,,,,,
,,,AC5PVOOS79W2B,35,female,6,2023-03-29_09h14.30.472,memory_pilot_most_recent,2022.2.4,Linux x86_64,60.54368227,,,,,,,,,,,,,,,,,,,,,,,,,,,1,0,28,28,28,1,golf_course_78.jpg,golf,,,,,,,,,,,,,,,,,,,
,,,AC5PVOOS79W2B,35,female,6,2023-03-29_09h14.30.472,memory_pilot_most_recent,2022.2.4,Linux x86_64,60.54368227,,,,,,,,,,,,,,,,,,,,,,,,,,,1,0,29,29,29,1,golf_course_331.jpg,golf,,,,,,,,,,,,,,,,,,,
,,,AC5PVOOS79W2B,35,female,6,2023-03-29_09h14.30.472,memory_pilot_most_recent,2022.2.4,Linux x86_64,60.54368227,,,,,,,,,,,,,,,,,,,,,,,,,,,1,0,30,30,30,1,bridge_146.jpg,bridge,,,,,,,,,,,,,,,,,,,
,,,AC5PVOOS79W2B,35,female,6,2023-03-29_09h14.30.472,memory_pilot_most_recent,2022.2.4,Linux x86_64,60.54368227,,,,,,,,,,,,,,,,,,,,,,,,,,,1,0,31,31,31,1,highway_156.jpg,highway,,,,,,,,,,,,,,,,,,,
,,,AC5PVOOS79W2B,35,female,6,2023-03-29_09h14.30.472,memory_pilot_most_recent,2022.2.4,Linux x86_64,60.54368227,,,,,,,,,,,,,,,,,,,,,,,,,,,1,0,32,32,32,1,golf_course_217.jpg,golf,,,,,,,,,,,,,,,,,,,
,,,AC5PVOOS79W2B,35,female,6,2023-03-29_09h14.30.472,memory_pilot_most_recent,2022.2.4,Linux x86_64,60.54368227,,,,,,,,,,,,,,,,,,,,,,,,,,,1,0,33,33,33,1,badlands_70.jpg,badlands,,,,,,,,,,,,,,,,,,,
,,,AC5PVOOS79W2B,35,female,6,2023-03-29_09h14.30.472,memory_pilot_most_recent,2022.2.4,Linux x86_64,60.54368227,,,,,,,,,,,,,,,,,,,,,,,,,,,1,0,34,34,34,1,golf_course_87.jpg,golf,,,,,,,,,,,,,,,,,,,
,,,AC5PVOOS79W2B,35,female,6,2023-03-29_09h14.30.472,memory_pilot_most_recent,2022.2.4,Linux x86_64,60.54368227,,,,,,,,,,,,,,,,,,,,,,,,,,,1,0,35,35,35,1,highway_209.jpg,highway,,,,,,,,,,,,,,,,,,,
,,,AC5PVOOS79W2B,35,female,6,2023-03-29_09h14.30.472,memory_pilot_most_recent,2022.2.4,Linux x86_64,60.54368227,,,,,,,,,,,,,,,,,,,,,,,,,,,1,0,36,36,36,1,playground_117.jpg,playground,,,,,,,,,,,,,,,,,,,
,,,AC5PVOOS79W2B,35,female,6,2023-03-29_09h14.30.472,memory_pilot_most_recent,2022.2.4,Linux x86_64,60.54368227,,,,,,,,,,,,,,,,,,,,,,,,,,,1,0,37,37,37,1,badlands_21.jpg,badlands,,,,,,,,,,,,,,,,,,,
,,,AC5PVOOS79W2B,35,female,6,2023-03-29_09h14.30.472,memory_pilot_most_recent,2022.2.4,Linux x86_64,60.54368227,,,,,,,,,,,,,,,,,,,,,,,,,,,1,0,38,38,38,1,bridge_256.jpg,bridge,,,,,,,,,,,,,,,,,,,
,,,AC5PVOOS79W2B,35,female,6,2023-03-29_09h14.30.472,memory_pilot_most_recent,2022.2.4,Linux x86_64,60.54368227,,,,,,,,,,,,,,,,,,,,,,,,,,,1,0,39,39,39,1,bridge_250.jpg,bridge,,,,,,,,,,,,,,,,,,,
,,,AC5PVOOS79W2B,35,female,6,2023-03-29_09h14.30.472,memory_pilot_most_recent,2022.2.4,Linux x86_64,60.54368227,,,,,,,,,,,,,,,,,,,,,,,,,,,1,0,40,40,40,1,golf_course_193.jpg,golf,,,,,,,,,,,,,,,,,,,
,,,AC5PVOOS79W2B,35,female,6,2023-03-29_09h14.30.472,memory_pilot_most_recent,2022.2.4,Linux x86_64,60.54368227,,,,,,,,,,,,,,,,,,,,,,,,,,left,1,0,41,41,41,1,left.jpg,,left,0.5772,,,,,,,,,,,,,,,,,
,,,AC5PVOOS79W2B,35,female,6,2023-03-29_09h14.30.472,memory_pilot_most_recent,2022.2.4,Linux x86_64,60.54368227,,,,,,,,,,,,,,,,,,,,,,,,,,,1,0,42,42,42,1,bridge_65.jpg,bridge,,,,,,,,,,,,,,,,,,,
,,,AC5PVOOS79W2B,35,female,6,2023-03-29_09h14.30.472,memory_pilot_most_recent,2022.2.4,Linux x86_64,60.54368227,,,,,,,,,,,,,,,,,,,,,,,,,,,1,0,43,43,43,1,highway_245.jpg,highway,,,,,,,,,,,,,,,,,,,
,,,AC5PVOOS79W2B,35,female,6,2023-03-29_09h14.30.472,memory_pilot_most_recent,2022.2.4,Linux x86_64,60.54368227,,,,,,,,,,,,,,,,,,,,,,,,,,,1,0,44,44,44,1,playground_131.jpg,playground,,,,,,,,,,,,,,,,,,,
,,,AC5PVOOS79W2B,35,female,6,2023-03-29_09h14.30.472,memory_pilot_most_recent,2022.2.4,Linux x86_64,60.54368227,,,,,,,,,,,,,,,,,,,,,,,,,,,1,0,45,45,45,1,golf_course_195.jpg,golf,,,,,,,,,,,,,,,,,,,
,,,AC5PVOOS79W2B,35,female,6,2023-03-29_09h14.30.472,memory_pilot_most_recent,2022.2.4,Linux x86_64,60.54368227,,,,,,,,,,,,,,,,,,,,,,,,,,,1,0,46,46,46,1,bridge_191.jpg,bridge,,,,,,,,,,,,,,,,,,,
,,,AC5PVOOS79W2B,35,female,6,2023-03-29_09h14.30.472,memory_pilot_most_recent,2022.2.4,Linux x86_64,60.54368227,,,,,,,,,,,,,,,,,,,,,,,,,,,1,0,47,47,47,1,mountain_123.jpg,mountain,,,,,,,,,,,,,,,,,,,
,,,AC5PVOOS79W2B,35,female,6,2023-03-29_09h14.30.472,memory_pilot_most_recent,2022.2.4,Linux x86_64,60.54368227,,,,,,,,,,,,,,,,,,,,,,,,,,,1,0,48,48,48,1,mountain_230.jpg,mountain,,,,,,,,,,,,,,,,,,,
,,,AC5PVOOS79W2B,35,female,6,2023-03-29_09h14.30.472,memory_pilot_most_recent,2022.2.4,Linux x86_64,60.54368227,,,,,,,,,,,,,,,,,,,,,,,,,,,1,0,49,49,49,1,highway_93.jpg,highway,,,,,,,,,,,,,,,,,,,
,,,AC5PVOOS79W2B,35,female,6,2023-03-29_09h14.30.472,memory_pilot_most_recent,2022.2.4,Linux x86_64,60.54368227,,,,,,,,,,,,,,,,,,,,,,,,,,,1,0,50,50,50,1,badlands_23.jpg,badlands,,,,,,,,,,,,,,,,,,,
,,,AC5PVOOS79W2B,35,female,6,2023-03-29_09h14.30.472,memory_pilot_most_recent,2022.2.4,Linux x86_64,60.54368227,,,,,,,,,,,,,,,,,,,,,,,,,,left,1,0,51,51,51,1,left.jpg,,left,1.0795,,,,,,,,,,,,,,,,,
,,,AC5PVOOS79W2B,35,female,6,2023-03-29_09h14.30.472,memory_pilot_most_recent,2022.2.4,Linux x86_64,60.54368227,,,,,,,,,,,,,,,,,,,,,,,,,,,1,0,52,52,52,1,mountain_156.jpg,mountain,,,,,,,,,,,,,,,,,,,
,,,AC5PVOOS79W2B,35,female,6,2023-03-29_09h14.30.472,memory_pilot_most_recent,2022.2.4,Linux x86_64,60.54368227,,,,,,,,,,,,,,,,,,,,,,,,,,,1,0,53,53,53,1,highway_273.jpg,highway,,,,,,,,,,,,,,,,,,,
,,,AC5PVOOS79W2B,35,female,6,2023-03-29_09h14.30.472,memory_pilot_most_recent,2022.2.4,Linux x86_64,60.54368227,,,,,,,,,,,,,,,,,,,,,,,,,,,1,0,54,54,54,1,badlands_184.jpg,badlands,,,,,,,,,,,,,,,,,,,
,,,AC5PVOOS79W2B,35,female,6,2023-03-29_09h14.30.472,memory_pilot_most_recent,2022.2.4,Linux x86_64,60.54368227,,,,,,,,,,,,,,,,,,,,,,,,,,,1,0,55,55,55,1,highway_294.jpg,highway,,,,,,,,,,,,,,,,,,,
,,,AC5PVOOS79W2B,35,female,6,2023-03-29_09h14.30.472,memory_pilot_most_recent,2022.2.4,Linux x86_64,60.54368227,,,,,,,,,,,,,,,,,,,,,,,,,,,1,0,56,56,56,1,golf_course_309.jpg,golf,,,,,,,,,,,,,,,,,,,
,,,AC5PVOOS79W2B,35,female,6,2023-03-29_09h14.30.472,memory_pilot_most_recent,2022.2.4,Linux x86_64,60.54368227,,,,,,,,,,,,,,,,,,,,,,,,,,,1,0,57,57,57,1,mountain_232.jpg,mountain,,,,,,,,,,,,,,,,,,,
,,,AC5PVOOS79W2B,35,female,6,2023-03-29_09h14.30.472,memory_pilot_most_recent,2022.2.4,Linux x86_64,60.54368227,,,,,,,,,,,,,,,,,,,,,,,,,,,1,0,58,58,58,1,playground_145.jpg,playground,,,,,,,,,,,,,,,,,,,
,,,AC5PVOOS79W2B,35,female,6,2023-03-29_09h14.30.472,memory_pilot_most_recent,2022.2.4,Linux x86_64,60.54368227,,,,,,,,,,,,,,,,,,,,,,,,,,,1,0,59,59,59,1,golf_course_214.jpg,golf,,,,,,,,,,,,,,,,,,,
,,,AC5PVOOS79W2B,35,female,6,2023-03-29_09h14.30.472,memory_pilot_most_recent,2022.2.4,Linux x86_64,60.54368227,,,,,,,,,,,,,,,,,,,,,,,,,,,1,0,60,60,60,1,playground_219.jpg,playground,,,,,,,,,,,,,,,,,,,
,,,AC5PVOOS79W2B,35,female,6,2023-03-29_09h14.30.472,memory_pilot_most_recent,2022.2.4,Linux x86_64,60.54368227,,,,,,,,,,,,,,,,,,,,,,,,,,,1,0,61,61,61,1,golf_course_188.jpg,golf,,,,,,,,,,,,,,,,,,,
,,,AC5PVOOS79W2B,35,female,6,2023-03-29_09h14.30.472,memory_pilot_most_recent,2022.2.4,Linux x86_64,60.54368227,,,,,,,,,,,,,,,,,,,,,,,,,,,1,0,62,62,62,1,mountain_222.jpg,mountain,,,,,,,,,,,,,,,,,,,
,,,AC5PVOOS79W2B,35,female,6,2023-03-29_09h14.30.472,memory_pilot_most_recent,2022.2.4,Linux x86_64,60.54368227,,,,,,,,,,,,,,,,,,,,,,,,,,,1,0,63,63,63,1,golf_course_15.jpg,golf,,,,,,,,,,,,,,,,,,,
,,,AC5PVOOS79W2B,35,female,6,2023-03-29_09h14.30.472,memory_pilot_most_recent,2022.2.4,Linux x86_64,60.54368227,,,,,,,,,,,,,,,,,,,,,,,,,,,1,0,64,64,64,1,playground_144.jpg,playground,,,,,,,,,,,,,,,,,,,
,,,AC5PVOOS79W2B,35,female,6,2023-03-29_09h14.30.472,memory_pilot_most_recent,2022.2.4,Linux x86_64,60.54368227,,,,,,,,,,,,,,,,,,,,,,,,,,,,,,,,,,,,,space,1.2605,,,,,,,,,,,,,,,
,,,AC5PVOOS79W2B,35,female,6,2023-03-29_09h14.30.472,memory_pilot_most_recent,2022.2.4,Linux x86_64,60.54368227,,,,,,,,,,,,,,,,,,,,,,,,,,,,,,,,,,,,,,,,,,,,,,,,,,,,,
,,,AC5PVOOS79W2B,35,female,6,2023-03-29_09h14.30.472,memory_pilot_most_recent,2022.2.4,Linux x86_64,60.54368227,,,,,,,,,,,,,,,,,,,,,,,,,,,,,,,,,,mountain,right,,,,right,1,2.0456,2,2.2398,0,0,0,0,1,mountain_171.jpg,mountain_101.jpg,0,,
,,,AC5PVOOS79W2B,35,female,6,2023-03-29_09h14.30.472,memory_pilot_most_recent,2022.2.4,Linux x86_64,60.54368227,,,,,,,,,,,,,,,,,,,,,,,,,,,,,,,,,,mountain,right,,,,right,1,1.446,2,2.9087,0,1,1,1,1,mountain_3.jpg,mountain_232.jpg,0,,
,,,AC5PVOOS79W2B,35,female,6,2023-03-29_09h14.30.472,memory_pilot_most_recent,2022.2.4,Linux x86_64,60.54368227,,,,,,,,,,,,,,,,,,,,,,,,,,,,,,,,,,highway,right,,,,right,1,1.1804,4,2.1933,0,2,2,2,1,highway_85.jpg,highway_93.jpg,0,,
,,,AC5PVOOS79W2B,35,female,6,2023-03-29_09h14.30.472,memory_pilot_most_recent,2022.2.4,Linux x86_64,60.54368227,,,,,,,,,,,,,,,,,,,,,,,,,,,,,,,,,,mountain,left,,,,left,1,1.1092,1,2.0264,0,3,3,3,1,mountain_123.jpg,mountain_94.jpg,0,,
,,,AC5PVOOS79W2B,35,female,6,2023-03-29_09h14.30.472,memory_pilot_most_recent,2022.2.4,Linux x86_64,60.54368227,,,,,,,,,,,,,,,,,,,,,,,,,,,,,,,,,,golf,right,,,,right,1,1.7708,3,2.7918,0,4,4,4,1,golf_course_209.jpg,golf_course_309.jpg,1,,
,,,AC5PVOOS79W2B,35,female,6,2023-03-29_09h14.30.472,memory_pilot_most_recent,2022.2.4,Linux x86_64,60.54368227,,,,,,,,,,,,,,,,,,,,,,,,,,,,,,,,,,golf,right,,,,right,1,2.1436,7,2.4578,0,5,5,5,1,golf_course_130.jpg,golf_course_87.jpg,0,,
,,,AC5PVOOS79W2B,35,female,6,2023-03-29_09h14.30.472,memory_pilot_most_recent,2022.2.4,Linux x86_64,60.54368227,,,,,,,,,,,,,,,,,,,,,,,,,,,,,,,,,,playground,right,,,,right,1,2.5726,4,1.5353,0,6,6,6,1,playground_244.jpg,playground_60.jpg,1,,
,,,AC5PVOOS79W2B,35,female,6,2023-03-29_09h14.30.472,memory_pilot_most_recent,2022.2.4,Linux x86_64,60.54368227,,,,,,,,,,,,,,,,,,,,,,,,,,,,,,,,,,playground,right,,,,right,1,1.8739,3,2.4915,0,7,7,7,1,playground_12.jpg,playground_10.jpg,1,,
,,,AC5PVOOS79W2B,35,female,6,2023-03-29_09h14.30.472,memory_pilot_most_recent,2022.2.4,Linux x86_64,60.54368227,,,,,,,,,,,,,,,,,,,,,,,,,,,,,,,,,,highway,right,,,,right,1,1.1486,1,3.5468,0,8,8,8,1,highway_389.jpg,highway_359.jpg,0,,
,,,AC5PVOOS79W2B,35,female,6,2023-03-29_09h14.30.472,memory_pilot_most_recent,2022.2.4,Linux x86_64,60.54368227,,,,,,,,,,,,,,,,,,,,,,,,,,,,,,,,,,bridge,left,,,,left,1,1.6361,1,2.2245,0,9,9,9,1,bridge_108.jpg,bridge_148.jpg,1,,
,,,AC5PVOOS79W2B,35,female,6,2023-03-29_09h14.30.472,memory_pilot_most_recent,2022.2.4,Linux x86_64,60.54368227,,,,,,,,,,,,,,,,,,,,,,,,,,,,,,,,,,bridge,left,,,,left,1,1.6834,1,1.9351,0,10,10,10,1,bridge_202.jpg,bridge_31.jpg,0,,
,,,AC5PVOOS79W2B,35,female,6,2023-03-29_09h14.30.472,memory_pilot_most_recent,2022.2.4,Linux x86_64,60.54368227,,,,,,,,,,,,,,,,,,,,,,,,,,,,,,,,,,golf,right,,,,left,0,3.1729,1,2.7222,0,11,11,11,1,golf_course_25.jpg,golf_course_195.jpg,0,,
,,,AC5PVOOS79W2B,35,female,6,2023-03-29_09h14.30.472,memory_pilot_most_recent,2022.2.4,Linux x86_64,60.54368227,,,,,,,,,,,,,,,,,,,,,,,,,,,,,,,,,,bridge,right,,,,right,1,2.2682,1,2.322,0,12,12,12,1,bridge_60.jpg,bridge_65.jpg,1,,
,,,AC5PVOOS79W2B,35,female,6,2023-03-29_09h14.30.472,memory_pilot_most_recent,2022.2.4,Linux x86_64,60.54368227,,,,,,,,,,,,,,,,,,,,,,,,,,,,,,,,,,bridge,left,,,,right,0,1.5352,2,1.0215,0,13,13,13,1,bridge_250.jpg,bridge_134.jpg,0,,
,,,AC5PVOOS79W2B,35,female,6,2023-03-29_09h14.30.472,memory_pilot_most_recent,2022.2.4,Linux x86_64,60.54368227,,,,,,,,,,,,,,,,,,,,,,,,,,,,,,,,,,badlands,right,,,,right,1,1.3323,5,1.7257,0,14,14,14,1,badlands_94.jpg,badlands_52.jpg,0,,
,,,AC5PVOOS79W2B,35,female,6,2023-03-29_09h14.30.472,memory_pilot_most_recent,2022.2.4,Linux x86_64,60.54368227,,,,,,,,,,,,,,,,,,,,,,,,,,,,,,,,,,mountain,left,,,,left,1,1.7881,4,1.9413,0,15,15,15,1,mountain_154.jpg,mountain_95.jpg,1,,
,,,AC5PVOOS79W2B,35,female,6,2023-03-29_09h14.30.472,memory_pilot_most_recent,2022.2.4,Linux x86_64,60.54368227,,,,,,,,,,,,,,,,,,,,,,,,,,,,,,,,,,bridge,right,,,,right,1,1.1145,1,1.9093,0,16,16,16,1,bridge_17.jpg,bridge_172.jpg,0,,
,,,AC5PVOOS79W2B,35,female,6,2023-03-29_09h14.30.472,memory_pilot_most_recent,2022.2.4,Linux x86_64,60.54368227,,,,,,,,,,,,,,,,,,,,,,,,,,,,,,,,,,bridge,left,,,,left,1,2.3523,2,3.939,0,17,17,17,1,bridge_256.jpg,bridge_54.jpg,0,,
,,,AC5PVOOS79W2B,35,female,6,2023-03-29_09h14.30.472,memory_pilot_most_recent,2022.2.4,Linux x86_64,60.54368227,,,,,,,,,,,,,,,,,,,,,,,,,,,,,,,,,,badlands,right,,,,right,1,0.9902,5,1.7454,0,18,18,18,1,badlands_34.jpg,badlands_222.jpg,0,,
,,,AC5PVOOS79W2B,35,female,6,2023-03-29_09h14.30.472,memory_pilot_most_recent,2022.2.4,Linux x86_64,60.54368227,,,,,,,,,,,,,,,,,,,,,,,,,,,,,,,,,,playground,left,,,,left,1,2.1681,3,1.2055,0,19,19,19,1,playground_145.jpg,playground_229.jpg,0,,
,,,AC5PVOOS79W2B,35,female,6,2023-03-29_09h14.30.472,memory_pilot_most_recent,2022.2.4,Linux x86_64,60.54368227,,,,,,,,,,,,,,,,,,,,,,,,,,,,,,,,,,golf,left,,,,right,0,2.3939,6,1.9563,0,20,20,20,1,golf_course_15.jpg,golf_course_97.jpg,1,,
,,,AC5PVOOS79W2B,35,female,6,2023-03-29_09h14.30.472,memory_pilot_most_recent,2022.2.4,Linux x86_64,60.54368227,,,,,,,,,,,,,,,,,,,,,,,,,,,,,,,,,,bridge,left,,,,left,1,0.8114,2,2.8669,0,21,21,21,1,bridge_146.jpg,bridge_27.jpg,0,,
,,,AC5PVOOS79W2B,35,female,6,2023-03-29_09h14.30.472,memory_pilot_most_recent,2022.2.4,Linux x86_64,60.54368227,,,,,,,,,,,,,,,,,,,,,,,,,,,,,,,,,,highway,right,,,,right,1,3.623,4,2.2977,0,22,22,22,1,highway_384.jpg,highway_273.jpg,0,,
,,,AC5PVOOS79W2B,35,female,6,2023-03-29_09h14.30.472,memory_pilot_most_recent,2022.2.4,Linux x86_64,60.54368227,,,,,,,,,,,,,,,,,,,,,,,,,,,,,,,,,,golf,right,,,,right,1,2.0508,1,1.7603,0,23,23,23,1,golf_course_157.jpg,golf_course_188.jpg,0,,
,,,AC5PVOOS79W2B,35,female,6,2023-03-29_09h14.30.472,memory_pilot_most_recent,2022.2.4,Linux x86_64,60.54368227,,,,,,,,,,,,,,,,,,,,,,,,,,,,,,,,,,playground,left,,,,left,1,1.7176,5,2.3251,0,24,24,24,1,playground_131.jpg,playground_164.jpg,1,,
,,,AC5PVOOS79W2B,35,female,6,2023-03-29_09h14.30.472,memory_pilot_most_recent,2022.2.4,Linux x86_64,60.54368227,,,,,,,,,,,,,,,,,,,,,,,,,,,,,,,,,,highway,right,,,,right,1,1.9518,5,2.8133,0,25,25,25,1,highway_174.jpg,highway_415.jpg,1,,
,,,AC5PVOOS79W2B,35,female,6,2023-03-29_09h14.30.472,memory_pilot_most_recent,2022.2.4,Linux x86_64,60.54368227,,,,,,,,,,,,,,,,,,,,,,,,,,,,,,,,,,mountain,right,,,,right,1,1.9748,4,3.1385,0,26,26,26,1,mountain_184.jpg,mountain_230.jpg,0,,
,,,AC5PVOOS79W2B,35,female,6,2023-03-29_09h14.30.472,memory_pilot_most_recent,2022.2.4,Linux x86_64,60.54368227,,,,,,,,,,,,,,,,,,,,,,,,,,,,,,,,,,badlands,right,,,,left,0,1.3655,3,5.812,0,27,27,27,1,badlands_98.jpg,badlands_21.jpg,1,,
,,,AC5PVOOS79W2B,35,female,6,2023-03-29_09h14.30.472,memory_pilot_most_recent,2022.2.4,Linux x86_64,60.54368227,,,,,,,,,,,,,,,,,,,,,,,,,,,,,,,,,,badlands,right,,,,right,1,1.9196,1,1.234,0,28,28,28,1,badlands_101.jpg,badlands_23.jpg,1,,
,,,AC5PVOOS79W2B,35,female,6,2023-03-29_09h14.30.472,memory_pilot_most_recent,2022.2.4,Linux x86_64,60.54368227,,,,,,,,,,,,,,,,,,,,,,,,,,,,,,,,,,highway,right,,,,right,1,1.4591,5,3.6539,0,29,29,29,1,highway_122.jpg,highway_209.jpg,1,,
,,,AC5PVOOS79W2B,35,female,6,2023-03-29_09h14.30.472,memory_pilot_most_recent,2022.2.4,Linux x86_64,60.54368227,,,,,,,,,,,,,,,,,,,,,,,,,,,,,,,,,,playground,right,,,,right,1,1.5931,7,1.7937,0,30,30,30,1,playground_214.jpg,playground_257.jpg,0,,
,,,AC5PVOOS79W2B,35,female,6,2023-03-29_09h14.30.472,memory_pilot_most_recent,2022.2.4,Linux x86_64,60.54368227,,,,,,,,,,,,,,,,,,,,,,,,,,,,,,,,,,playground,left,,,,left,1,3.1194,5,1.4798,0,31,31,31,1,playground_76.jpg,playground_22.jpg,0,,
,,,AC5PVOOS79W2B,35,female,6,2023-03-29_09h14.30.472,memory_pilot_most_recent,2022.2.4,Linux x86_64,60.54368227,,,,,,,,,,,,,,,,,,,,,,,,,,,,,,,,,,highway,left,,,,left,1,8.232,6,1.4467,0,32,32,32,1,highway_177.jpg,highway_278.jpg,1,,
,,,AC5PVOOS79W2B,35,female,6,2023-03-29_09h14.30.472,memory_pilot_most_recent,2022.2.4,Linux x86_64,60.54368227,,,,,,,,,,,,,,,,,,,,,,,,,,,,,,,,,,badlands,left,,,,left,1,1.8901,3,1.8748,0,33,33,33,1,badlands_24.jpg,badlands_3.jpg,0,,
,,,AC5PVOOS79W2B,35,female,6,2023-03-29_09h14.30.472,memory_pilot_most_recent,2022.2.4,Linux x86_64,60.54368227,,,,,,,,,,,,,,,,,,,,,,,,,,,,,,,,,,badlands,left,,,,right,0,5.0836,2,2.0315,0,34,34,34,1,badlands_221.jpg,badlands_115.jpg,0,,
,,,AC5PVOOS79W2B,35,female,6,2023-03-29_09h14.30.472,memory_pilot_most_recent,2022.2.4,Linux x86_64,60.54368227,,,,,,,,,,,,,,,,,,,,,,,,,,,,,,,,,,playground,right,,,,right,1,0.9113,1,1.9775,0,35,35,35,1,playground_137.jpg,playground_144.jpg,0,,
,,,AC5PVOOS79W2B,35,female,6,2023-03-29_09h14.30.472,memory_pilot_most_recent,2022.2.4,Linux x86_64,60.54368227,,,,,,,,,,,,,,,,,,,,,,,,,,,,,,,,,,badlands,left,,,,right,0,2.1846,7,1.6765,0,36,36,36,1,badlands_113.jpg,badlands_203.jpg,1,,
,,,AC5PVOOS79W2B,35,female,6,2023-03-29_09h14.30.472,memory_pilot_most_recent,2022.2.4,Linux x86_64,60.54368227,,,,,,,,,,,,,,,,,,,,,,,,,,,,,,,,,,golf,left,,,,left,1,1.4777,5,1.3116,0,37,37,37,1,golf_course_193.jpg,golf_course_235.jpg,0,,
,,,AC5PVOOS79W2B,35,female,6,2023-03-29_09h14.30.472,memory_pilot_most_recent,2022.2.4,Linux x86_64,60.54368227,,,,,,,,,,,,,,,,,,,,,,,,,,,,,,,,,,badlands,left,,,,left,1,3.2764,4,2.0833,0,38,38,38,1,badlands_70.jpg,badlands_102.jpg,0,,
,,,AC5PVOOS79W2B,35,female,6,2023-03-29_09h14.30.472,memory_pilot_most_recent,2022.2.4,Linux x86_64,60.54368227,,,,,,,,,,,,,,,,,,,,,,,,,,,,,,,,,,mountain,right,,,,right,1,3.9928,2,1.4676,0,39,39,39,1,mountain_295.jpg,mountain_156.jpg,1,,
,,,AC5PVOOS79W2B,35,female,6,2023-03-29_09h14.30.472,memory_pilot_most_recent,2022.2.4,Linux x86_64,60.54368227,,,,,,,,,,,,,,,,,,,,,,,,,,,,,,,,,,highway,right,,,,right,1,3.1955,3,1.9981,0,40,40,40,1,highway_406.jpg,highway_394.jpg,1,,
,,,AC5PVOOS79W2B,35,female,6,2023-03-29_09h14.30.472,memory_pilot_most_recent,2022.2.4,Linux x86_64,60.54368227,,,,,,,,,,,,,,,,,,,,,,,,,,,,,,,,,,mountain,right,,,,right,1,2.0371,2,1.5935,0,41,41,41,1,mountain_93.jpg,mountain_222.jpg,1,,
,,,AC5PVOOS79W2B,35,female,6,2023-03-29_09h14.30.472,memory_pilot_most_recent,2022.2.4,Linux x86_64,60.54368227,,,,,,,,,,,,,,,,,,,,,,,,,,,,,,,,,,mountain,right,,,,right,1,1.5702,6,1.9106,0,42,42,42,1,mountain_193.jpg,mountain_57.jpg,0,,
,,,AC5PVOOS79W2B,35,female,6,2023-03-29_09h14.30.472,memory_pilot_most_recent,2022.2.4,Linux x86_64,60.54368227,,,,,,,,,,,,,,,,,,,,,,,,,,,,,,,,,,badlands,left,,,,left,1,2.2712,3,2.2921,0,43,43,43,1,badlands_137.jpg,badlands_139.jpg,1,,
,,,AC5PVOOS79W2B,35,female,6,2023-03-29_09h14.30.472,memory_pilot_most_recent,2022.2.4,Linux x86_64,60.54368227,,,,,,,,,,,,,,,,,,,,,,,,,,,,,,,,,,badlands,right,,,,right,1,1.3115,4,1.923,0,44,44,44,1,badlands_103.jpg,badlands_184.jpg,1,,
,,,AC5PVOOS79W2B,35,female,6,2023-03-29_09h14.30.472,memory_pilot_most_recent,2022.2.4,Linux x86_64,60.54368227,,,,,,,,,,,,,,,,,,,,,,,,,,,,,,,,,,bridge,left,,,,left,1,1.7298,2,1.5666,0,45,45,45,1,bridge_128.jpg,bridge_244.jpg,1,,
,,,AC5PVOOS79W2B,35,female,6,2023-03-29_09h14.30.472,memory_pilot_most_recent,2022.2.4,Linux x86_64,60.54368227,,,,,,,,,,,,,,,,,,,,,,,,,,,,,,,,,,highway,right,,,,right,1,3.6905,9,1.5479,0,46,46,46,1,highway_293.jpg,highway_156.jpg,1,,
,,,AC5PVOOS79W2B,35,female,6,2023-03-29_09h14.30.472,memory_pilot_most_recent,2022.2.4,Linux x86_64,60.54368227,,,,,,,,,,,,,,,,,,,,,,,,,,,,,,,,,,golf,right,,,,right,1,1.3162,6,1.3092,0,47,47,47,1,golf_course_26.jpg,golf_course_331.jpg,1,,
,,,AC5PVOOS79W2B,35,female,6,2023-03-29_09h14.30.472,memory_pilot_most_recent,2022.2.4,Linux x86_64,60.54368227,,,,,,,,,,,,,,,,,,,,,,,,,,,,,,,,,,mountain,left,,,,left,1,2.2672,3,1.3761,0,48,48,48,1,mountain_293.jpg,mountain_47.jpg,1,,
,,,AC5PVOOS79W2B,35,female,6,2023-03-29_09h14.30.472,memory_pilot_most_recent,2022.2.4,Linux x86_64,60.54368227,,,,,,,,,,,,,,,,,,,,,,,,,,,,,,,,,,mountain,left,,,,left,1,2.3419,4,1.7178,0,49,49,49,1,mountain_110.jpg,mountain_223.jpg,1,,
,,,AC5PVOOS79W2B,35,female,6,2023-03-29_09h14.30.472,memory_pilot_most_recent,2022.2.4,Linux x86_64,60.54368227,,,,,,,,,,,,,,,,,,,,,,,,,,,,,,,,,,bridge,right,,,,right,1,1.8621,2,1.3937,0,50,50,50,1,bridge_75.jpg,bridge_191.jpg,1,,
,,,AC5PVOOS79W2B,35,female,6,2023-03-29_09h14.30.472,memory_pilot_most_recent,2022.2.4,Linux x86_64,60.54368227,,,,,,,,,,,,,,,,,,,,,,,,,,,,,,,,,,bridge,right,,,,left,0,2.4193,1,2.1247,0,51,51,51,1,bridge_82.jpg,bridge_91.jpg,1,,
,,,AC5PVOOS79W2B,35,female,6,2023-03-29_09h14.30.472,memory_pilot_most_recent,2022.2.4,Linux x86_64,60.54368227,,,,,,,,,,,,,,,,,,,,,,,,,,,,,,,,,,highway,left,,,,left,1,1.9632,3,2.2559,0,52,52,52,1,highway_294.jpg,highway_203.jpg,0,,
,,,AC5PVOOS79W2B,35,female,6,2023-03-29_09h14.30.472,memory_pilot_most_recent,2022.2.4,Linux x86_64,60.54368227,,,,,,,,,,,,,,,,,,,,,,,,,,,,,,,,,,playground,left,,,,left,1,2.7215,4,2.2064,0,53,53,53,1,playground_117.jpg,playground_167.jpg,0,,
,,,AC5PVOOS79W2B,35,female,6,2023-03-29_09h14.30.472,memory_pilot_most_recent,2022.2.4,Linux x86_64,60.54368227,,,,,,,,,,,,,,,,,,,,,,,,,,,,,,,,,,golf,right,,,,right,1,1.9736,3,1.6756,0,54,54,54,1,golf_course_262.jpg,golf_course_217.jpg,1,,
,,,AC5PVOOS79W2B,35,female,6,2023-03-29_09h14.30.472,memory_pilot_most_recent,2022.2.4,Linux x86_64,60.54368227,,,,,,,,,,,,,,,,,,,,,,,,,,,,,,,,,,golf,left,,,,left,1,1.7873,1,2.7102,0,55,55,55,1,golf_course_78.jpg,golf_course_101.jpg,1,,
,,,AC5PVOOS79W2B,35,female,6,2023-03-29_09h14.30.472,memory_pilot_most_recent,2022.2.4,Linux x86_64,60.54368227,,,,,,,,,,,,,,,,,,,,,,,,,,,,,,,,,,playground,left,,,,left,1,5.5292,7,1.19,0,56,56,56,1,playground_219.jpg,playground_205.jpg,1,,
,,,AC5PVOOS79W2B,35,female,6,2023-03-29_09h14.30.472,memory_pilot_most_recent,2022.2.4,Linux x86_64,60.54368227,,,,,,,,,,,,,,,,,,,,,,,,,,,,,,,,,,playground,left,,,,right,0,2.7775,4,2.2271,0,57,57,57,1,playground_240.jpg,playground_40.jpg,1,,
,,,AC5PVOOS79W2B,35,female,6,2023-03-29_09h14.30.472,memory_pilot_most_recent,2022.2.4,Linux x86_64,60.54368227,,,,,,,,,,,,,,,,,,,,,,,,,,,,,,,,,,golf,right,,,,right,1,1.2734,2,1.527,0,58,58,58,1,golf_course_312.jpg,golf_course_214.jpg,0,,
,,,AC5PVOOS79W2B,35,female,6,2023-03-29_09h14.30.472,memory_pilot_most_recent,2022.2.4,Linux x86_64,60.54368227,,,,,,,,,,,,,,,,,,,,,,,,,,,,,,,,,,highway,left,,,,left,1,3.5491,2,3.3221,0,59,59,59,1,highway_245.jpg,highway_134.jpg,0,,
,,,AC5PVOOS79W2B,35,female,6,2023-03-29_09h14.30.472,memory_pilot_most_recent,2022.2.4,Linux x86_64,60.54368227,,,,,,,,,,,,,,,,,,,,,,,,,,,,,,,,,,,,,,,,,,,,,,,,,,,,space,9.7524
