button.numClicks,button.timesOn,button.timesOff,workID,Age,Gender,Hours slept (last night),date,expName,psychopyVersion,OS,frameRate,space_key_responce.keys,space_key_responce.rt,demo_encoding_response.keys,demo_encoding_response.corr,demo_encoding_loop.thisRepN,demo_encoding_loop.thisTrialN,demo_encoding_loop.thisN,demo_encoding_loop.thisIndex,demo_encoding_loop.ran,DemoImage,DemoCorrect,demo_encoding_response.rt,demo_test_response.keys,demo_test_response.corr,demo_test_response.rt,demo_bar_2.response,demo_bar_2.rt,demo_test_loop.thisRepN,demo_test_loop.thisTrialN,demo_test_loop.thisN,demo_test_loop.thisIndex,demo_test_loop.ran,DemoImage1,DemoImage2,DemoCorrectTest,test_encoding_response.keys,test_encoding_response.corr,trials.thisRepN,trials.thisTrialN,trials.thisN,trials.thisIndex,trials.ran,target,category,correct,test_encoding_response.rt,key_resp_end.keys,key_resp_end.rt,test_test_response.keys,test_test_response.corr,test_test_response.rt,bar_2.response,bar_2.rt,trials_2.thisRepN,trials_2.thisTrialN,trials_2.thisN,trials_2.thisIndex,trials_2.ran,image1,image2,layer,key_resp_end_2.keys,key_resp_end_2.rt
1,[5.544599999904634],[5.544700000286099],AOOU57BC3GK9J,49,MALE,8,03-29-2023_14h02.05.237,memory_pilot_most_recent,2022.2.4,Win32,8.551686393,,,,,,,,,,,,,,,,,,,,,,,,,,,,,,,,,,,,,,,,,,,,,,,,,,,,,
,,,AOOU57BC3GK9J,49,MALE,8,03-29-2023_14h02.05.237,memory_pilot_most_recent,2022.2.4,Win32,8.551686393,,,,,,,,,,,,,,,,,,,,,,,,,,,,,,,,,,,,,,,,,,,,,,,,,,,,,
,,,AOOU57BC3GK9J,49,MALE,8,03-29-2023_14h02.05.237,memory_pilot_most_recent,2022.2.4,Win32,8.551686393,space,2.1151,,,,,,,,,,,,,,,,,,,,,,,,,,,,,,,,,,,,,,,,,,,,,,,,,,,
,,,AOOU57BC3GK9J,49,MALE,8,03-29-2023_14h02.05.237,memory_pilot_most_recent,2022.2.4,Win32,8.551686393,,,,,,,,,,,,,,,,,,,,,,,,,,,,,,,,,,,,,,,,,,,,,,,,,,,,,
,,,AOOU57BC3GK9J,49,MALE,8,03-29-2023_14h02.05.237,memory_pilot_most_recent,2022.2.4,Win32,8.551686393,,,,1,0,0,0,0,1,flower1.jpg,,,,,,,,,,,,,,,,,,,,,,,,,,,,,,,,,,,,,,,,,,,
,,,AOOU57BC3GK9J,49,MALE,8,03-29-2023_14h02.05.237,memory_pilot_most_recent,2022.2.4,Win32,8.551686393,,,,1,0,1,1,1,1,flower2.jpg,,,,,,,,,,,,,,,,,,,,,,,,,,,,,,,,,,,,,,,,,,,
,,,AOOU57BC3GK9J,49,MALE,8,03-29-2023_14h02.05.237,memory_pilot_most_recent,2022.2.4,Win32,8.551686393,,,left,1,0,2,2,2,1,left.jpg,left,1.2564,,,,,,,,,,,,,,,,,,,,,,,,,,,,,,,,,,,,,,,,,
,,,AOOU57BC3GK9J,49,MALE,8,03-29-2023_14h02.05.237,memory_pilot_most_recent,2022.2.4,Win32,8.551686393,,,,1,0,3,3,3,1,flower3.jpg,,,,,,,,,,,,,,,,,,,,,,,,,,,,,,,,,,,,,,,,,,,
,,,AOOU57BC3GK9J,49,MALE,8,03-29-2023_14h02.05.237,memory_pilot_most_recent,2022.2.4,Win32,8.551686393,,,,1,0,4,4,4,1,flower4.jpg,,,,,,,,,,,,,,,,,,,,,,,,,,,,,,,,,,,,,,,,,,,
,,,AOOU57BC3GK9J,49,MALE,8,03-29-2023_14h02.05.237,memory_pilot_most_recent,2022.2.4,Win32,8.551686393,,,,1,0,5,5,5,1,flower5.jpg,,,,,,,,,,,,,,,,,,,,,,,,,,,,,,,,,,,,,,,,,,,
,,,AOOU57BC3GK9J,49,MALE,8,03-29-2023_14h02.05.237,memory_pilot_most_recent,2022.2.4,Win32,8.551686393,,,,1,0,6,6,6,1,flower6.jpg,,,,,,,,,,,,,,,,,,,,,,,,,,,,,,,,,,,,,,,,,,,
,,,AOOU57BC3GK9J,49,MALE,8,03-29-2023_14h02.05.237,memory_pilot_most_recent,2022.2.4,Win32,8.551686393,,,,,,,,,,,,,,,,,,,,,,,,,,,,,,,,,,,,,,,,,,,,,,,,,,,,,
,,,AOOU57BC3GK9J,49,MALE,8,03-29-2023_14h02.05.237,memory_pilot_most_recent,2022.2.4,Win32,8.551686393,,,,,,,,,,,,,left,1,15.5839,5,3.4724,0,0,0,0,1,flower1.jpg,flower1_pair.jpg,left,,,,,,,,,,,,,,,,,,,,,,,,,,,,
,,,AOOU57BC3GK9J,49,MALE,8,03-29-2023_14h02.05.237,memory_pilot_most_recent,2022.2.4,Win32,8.551686393,,,,,,,,,,,,,left,0,1.0622,5,1.4003,0,1,1,1,1,flower2_pair.jpg,flower2.jpg,right,,,,,,,,,,,,,,,,,,,,,,,,,,,,
,,,AOOU57BC3GK9J,49,MALE,8,03-29-2023_14h02.05.237,memory_pilot_most_recent,2022.2.4,Win32,8.551686393,,,,,,,,,,,,,right,0,1.136,5,1.1731,0,2,2,2,1,flower3.jpg,flower3_pair.jpg,left,,,,,,,,,,,,,,,,,,,,,,,,,,,,
,,,AOOU57BC3GK9J,49,MALE,8,03-29-2023_14h02.05.237,memory_pilot_most_recent,2022.2.4,Win32,8.551686393,,,,,,,,,,,,,left,1,1.0461,5,1.2239,0,3,3,3,1,flower4.jpg,flower4_pair.jpg,left,,,,,,,,,,,,,,,,,,,,,,,,,,,,
,,,AOOU57BC3GK9J,49,MALE,8,03-29-2023_14h02.05.237,memory_pilot_most_recent,2022.2.4,Win32,8.551686393,,,,,,,,,,,,,right,1,3.2525,5,1.3072,0,4,4,4,1,flower5_pair.jpg,flower5.jpg,right,,,,,,,,,,,,,,,,,,,,,,,,,,,,
,,,AOOU57BC3GK9J,49,MALE,8,03-29-2023_14h02.05.237,memory_pilot_most_recent,2022.2.4,Win32,8.551686393,,,,,,,,,,,,,right,0,1.1637,6,1.4293,0,5,5,5,1,flower6.jpg,flower6_pair.jpg,left,,,,,,,,,,,,,,,,,,,,,,,,,,,,
,,,AOOU57BC3GK9J,49,MALE,8,03-29-2023_14h02.05.237,memory_pilot_most_recent,2022.2.4,Win32,8.551686393,,,,,,,,,,,,,,,,,,,,,,,,,,,,,,,,,,,,,,,,,,,,,,,,,,,,,
,,,AOOU57BC3GK9J,49,MALE,8,03-29-2023_14h02.05.237,memory_pilot_most_recent,2022.2.4,Win32,8.551686393,space,2.897,,,,,,,,,,,,,,,,,,,,,,,,,,,,,,,,,,,,,,,,,,,,,,,,,,,
,,,AOOU57BC3GK9J,49,MALE,8,03-29-2023_14h02.05.237,memory_pilot_most_recent,2022.2.4,Win32,8.551686393,,,,,,,,,,,,,,,,,,,,,,,,,,,1,0,0,0,0,1,badlands_24.jpg,badlands,,,,,,,,,,,,,,,,,,,
,,,AOOU57BC3GK9J,49,MALE,8,03-29-2023_14h02.05.237,memory_pilot_most_recent,2022.2.4,Win32,8.551686393,,,,,,,,,,,,,,,,,,,,,,,,,,,1,0,1,1,1,1,playground_219.jpg,playground,,,,,,,,,,,,,,,,,,,
,,,AOOU57BC3GK9J,49,MALE,8,03-29-2023_14h02.05.237,memory_pilot_most_recent,2022.2.4,Win32,8.551686393,,,,,,,,,,,,,,,,,,,,,,,,,,,1,0,2,2,2,1,bridge_202.jpg,bridge,,,,,,,,,,,,,,,,,,,
,,,AOOU57BC3GK9J,49,MALE,8,03-29-2023_14h02.05.237,memory_pilot_most_recent,2022.2.4,Win32,8.551686393,,,,,,,,,,,,,,,,,,,,,,,,,,,1,0,3,3,3,1,mountain_222.jpg,mountain,,,,,,,,,,,,,,,,,,,
,,,AOOU57BC3GK9J,49,MALE,8,03-29-2023_14h02.05.237,memory_pilot_most_recent,2022.2.4,Win32,8.551686393,,,,,,,,,,,,,,,,,,,,,,,,,,,1,0,4,4,4,1,golf_course_331.jpg,golf,,,,,,,,,,,,,,,,,,,
,,,AOOU57BC3GK9J,49,MALE,8,03-29-2023_14h02.05.237,memory_pilot_most_recent,2022.2.4,Win32,8.551686393,,,,,,,,,,,,,,,,,,,,,,,,,,,1,0,5,5,5,1,golf_course_193.jpg,golf,,,,,,,,,,,,,,,,,,,
,,,AOOU57BC3GK9J,49,MALE,8,03-29-2023_14h02.05.237,memory_pilot_most_recent,2022.2.4,Win32,8.551686393,,,,,,,,,,,,,,,,,,,,,,,,,,,1,0,6,6,6,1,highway_245.jpg,highway,,,,,,,,,,,,,,,,,,,
,,,AOOU57BC3GK9J,49,MALE,8,03-29-2023_14h02.05.237,memory_pilot_most_recent,2022.2.4,Win32,8.551686393,,,,,,,,,,,,,,,,,,,,,,,,,,,1,0,7,7,7,1,playground_60.jpg,playground,,,,,,,,,,,,,,,,,,,
,,,AOOU57BC3GK9J,49,MALE,8,03-29-2023_14h02.05.237,memory_pilot_most_recent,2022.2.4,Win32,8.551686393,,,,,,,,,,,,,,,,,,,,,,,,,,,1,0,8,8,8,1,highway_359.jpg,highway,,,,,,,,,,,,,,,,,,,
,,,AOOU57BC3GK9J,49,MALE,8,03-29-2023_14h02.05.237,memory_pilot_most_recent,2022.2.4,Win32,8.551686393,,,,,,,,,,,,,,,,,,,,,,,,,,left,1,0,9,9,9,1,left.jpg,,left,1.0915,,,,,,,,,,,,,,,,,
,,,AOOU57BC3GK9J,49,MALE,8,03-29-2023_14h02.05.237,memory_pilot_most_recent,2022.2.4,Win32,8.551686393,,,,,,,,,,,,,,,,,,,,,,,,,,,1,0,10,10,10,1,playground_10.jpg,playground,,,,,,,,,,,,,,,,,,,
,,,AOOU57BC3GK9J,49,MALE,8,03-29-2023_14h02.05.237,memory_pilot_most_recent,2022.2.4,Win32,8.551686393,,,,,,,,,,,,,,,,,,,,,,,,,,,1,0,11,11,11,1,golf_course_188.jpg,golf,,,,,,,,,,,,,,,,,,,
,,,AOOU57BC3GK9J,49,MALE,8,03-29-2023_14h02.05.237,memory_pilot_most_recent,2022.2.4,Win32,8.551686393,,,,,,,,,,,,,,,,,,,,,,,,,,,1,0,12,12,12,1,badlands_222.jpg,badlands,,,,,,,,,,,,,,,,,,,
,,,AOOU57BC3GK9J,49,MALE,8,03-29-2023_14h02.05.237,memory_pilot_most_recent,2022.2.4,Win32,8.551686393,,,,,,,,,,,,,,,,,,,,,,,,,,,1,0,13,13,13,1,bridge_256.jpg,bridge,,,,,,,,,,,,,,,,,,,
,,,AOOU57BC3GK9J,49,MALE,8,03-29-2023_14h02.05.237,memory_pilot_most_recent,2022.2.4,Win32,8.551686393,,,,,,,,,,,,,,,,,,,,,,,,,,,1,0,14,14,14,1,highway_294.jpg,highway,,,,,,,,,,,,,,,,,,,
,,,AOOU57BC3GK9J,49,MALE,8,03-29-2023_14h02.05.237,memory_pilot_most_recent,2022.2.4,Win32,8.551686393,,,,,,,,,,,,,,,,,,,,,,,,,,,1,0,15,15,15,1,badlands_52.jpg,badlands,,,,,,,,,,,,,,,,,,,
,,,AOOU57BC3GK9J,49,MALE,8,03-29-2023_14h02.05.237,memory_pilot_most_recent,2022.2.4,Win32,8.551686393,,,,,,,,,,,,,,,,,,,,,,,,,,,1,0,16,16,16,1,mountain_123.jpg,mountain,,,,,,,,,,,,,,,,,,,
,,,AOOU57BC3GK9J,49,MALE,8,03-29-2023_14h02.05.237,memory_pilot_most_recent,2022.2.4,Win32,8.551686393,,,,,,,,,,,,,,,,,,,,,,,,,,,1,0,17,17,17,1,playground_240.jpg,playground,,,,,,,,,,,,,,,,,,,
,,,AOOU57BC3GK9J,49,MALE,8,03-29-2023_14h02.05.237,memory_pilot_most_recent,2022.2.4,Win32,8.551686393,,,,,,,,,,,,,,,,,,,,,,,,,,right,1,0,18,18,18,1,right.jpg,,right,1.287,,,,,,,,,,,,,,,,,
,,,AOOU57BC3GK9J,49,MALE,8,03-29-2023_14h02.05.237,memory_pilot_most_recent,2022.2.4,Win32,8.551686393,,,,,,,,,,,,,,,,,,,,,,,,,,,1,0,19,19,19,1,mountain_57.jpg,mountain,,,,,,,,,,,,,,,,,,,
,,,AOOU57BC3GK9J,49,MALE,8,03-29-2023_14h02.05.237,memory_pilot_most_recent,2022.2.4,Win32,8.551686393,,,,,,,,,,,,,,,,,,,,,,,,,,,1,0,20,20,20,1,bridge_65.jpg,bridge,,,,,,,,,,,,,,,,,,,
,,,AOOU57BC3GK9J,49,MALE,8,03-29-2023_14h02.05.237,memory_pilot_most_recent,2022.2.4,Win32,8.551686393,,,,,,,,,,,,,,,,,,,,,,,,,,,1,0,21,21,21,1,highway_209.jpg,highway,,,,,,,,,,,,,,,,,,,
,,,AOOU57BC3GK9J,49,MALE,8,03-29-2023_14h02.05.237,memory_pilot_most_recent,2022.2.4,Win32,8.551686393,,,,,,,,,,,,,,,,,,,,,,,,,,,1,0,22,22,22,1,golf_course_309.jpg,golf,,,,,,,,,,,,,,,,,,,
,,,AOOU57BC3GK9J,49,MALE,8,03-29-2023_14h02.05.237,memory_pilot_most_recent,2022.2.4,Win32,8.551686393,,,,,,,,,,,,,,,,,,,,,,,,,,,1,0,23,23,23,1,golf_course_15.jpg,golf,,,,,,,,,,,,,,,,,,,
,,,AOOU57BC3GK9J,49,MALE,8,03-29-2023_14h02.05.237,memory_pilot_most_recent,2022.2.4,Win32,8.551686393,,,,,,,,,,,,,,,,,,,,,,,,,,,1,0,24,24,24,1,bridge_146.jpg,bridge,,,,,,,,,,,,,,,,,,,
,,,AOOU57BC3GK9J,49,MALE,8,03-29-2023_14h02.05.237,memory_pilot_most_recent,2022.2.4,Win32,8.551686393,,,,,,,,,,,,,,,,,,,,,,,,,,,1,0,25,25,25,1,highway_156.jpg,highway,,,,,,,,,,,,,,,,,,,
,,,AOOU57BC3GK9J,49,MALE,8,03-29-2023_14h02.05.237,memory_pilot_most_recent,2022.2.4,Win32,8.551686393,,,,,,,,,,,,,,,,,,,,,,,,,,,1,0,26,26,26,1,highway_177.jpg,highway,,,,,,,,,,,,,,,,,,,
,,,AOOU57BC3GK9J,49,MALE,8,03-29-2023_14h02.05.237,memory_pilot_most_recent,2022.2.4,Win32,8.551686393,,,,,,,,,,,,,,,,,,,,,,,,,,,1,0,27,27,27,1,playground_131.jpg,playground,,,,,,,,,,,,,,,,,,,
,,,AOOU57BC3GK9J,49,MALE,8,03-29-2023_14h02.05.237,memory_pilot_most_recent,2022.2.4,Win32,8.551686393,,,,,,,,,,,,,,,,,,,,,,,,,,,1,0,28,28,28,1,bridge_108.jpg,bridge,,,,,,,,,,,,,,,,,,,
,,,AOOU57BC3GK9J,49,MALE,8,03-29-2023_14h02.05.237,memory_pilot_most_recent,2022.2.4,Win32,8.551686393,,,,,,,,,,,,,,,,,,,,,,,,,,,1,0,29,29,29,1,mountain_232.jpg,mountain,,,,,,,,,,,,,,,,,,,
,,,AOOU57BC3GK9J,49,MALE,8,03-29-2023_14h02.05.237,memory_pilot_most_recent,2022.2.4,Win32,8.551686393,,,,,,,,,,,,,,,,,,,,,,,,,,,1,0,30,30,30,1,badlands_70.jpg,badlands,,,,,,,,,,,,,,,,,,,
,,,AOOU57BC3GK9J,49,MALE,8,03-29-2023_14h02.05.237,memory_pilot_most_recent,2022.2.4,Win32,8.551686393,,,,,,,,,,,,,,,,,,,,,,,,,,right,1,0,31,31,31,1,right.jpg,,right,1.1351,,,,,,,,,,,,,,,,,
,,,AOOU57BC3GK9J,49,MALE,8,03-29-2023_14h02.05.237,memory_pilot_most_recent,2022.2.4,Win32,8.551686393,,,,,,,,,,,,,,,,,,,,,,,,,,,1,0,32,32,32,1,bridge_172.jpg,bridge,,,,,,,,,,,,,,,,,,,
,,,AOOU57BC3GK9J,49,MALE,8,03-29-2023_14h02.05.237,memory_pilot_most_recent,2022.2.4,Win32,8.551686393,,,,,,,,,,,,,,,,,,,,,,,,,,,1,0,33,33,33,1,playground_117.jpg,playground,,,,,,,,,,,,,,,,,,,
,,,AOOU57BC3GK9J,49,MALE,8,03-29-2023_14h02.05.237,memory_pilot_most_recent,2022.2.4,Win32,8.551686393,,,,,,,,,,,,,,,,,,,,,,,,,,,1,0,34,34,34,1,badlands_137.jpg,badlands,,,,,,,,,,,,,,,,,,,
,,,AOOU57BC3GK9J,49,MALE,8,03-29-2023_14h02.05.237,memory_pilot_most_recent,2022.2.4,Win32,8.551686393,,,,,,,,,,,,,,,,,,,,,,,,,,,1,0,35,35,35,1,badlands_221.jpg,badlands,,,,,,,,,,,,,,,,,,,
,,,AOOU57BC3GK9J,49,MALE,8,03-29-2023_14h02.05.237,memory_pilot_most_recent,2022.2.4,Win32,8.551686393,,,,,,,,,,,,,,,,,,,,,,,,,,right,1,0,36,36,36,1,right.jpg,,right,1.2,,,,,,,,,,,,,,,,,
,,,AOOU57BC3GK9J,49,MALE,8,03-29-2023_14h02.05.237,memory_pilot_most_recent,2022.2.4,Win32,8.551686393,,,,,,,,,,,,,,,,,,,,,,,,,,,1,0,37,37,37,1,playground_257.jpg,playground,,,,,,,,,,,,,,,,,,,
,,,AOOU57BC3GK9J,49,MALE,8,03-29-2023_14h02.05.237,memory_pilot_most_recent,2022.2.4,Win32,8.551686393,,,,,,,,,,,,,,,,,,,,,,,,,,,1,0,38,38,38,1,highway_93.jpg,highway,,,,,,,,,,,,,,,,,,,
,,,AOOU57BC3GK9J,49,MALE,8,03-29-2023_14h02.05.237,memory_pilot_most_recent,2022.2.4,Win32,8.551686393,,,,,,,,,,,,,,,,,,,,,,,,,,,1,0,39,39,39,1,mountain_230.jpg,mountain,,,,,,,,,,,,,,,,,,,
,,,AOOU57BC3GK9J,49,MALE,8,03-29-2023_14h02.05.237,memory_pilot_most_recent,2022.2.4,Win32,8.551686393,,,,,,,,,,,,,,,,,,,,,,,,,,,1,0,40,40,40,1,mountain_156.jpg,mountain,,,,,,,,,,,,,,,,,,,
,,,AOOU57BC3GK9J,49,MALE,8,03-29-2023_14h02.05.237,memory_pilot_most_recent,2022.2.4,Win32,8.551686393,,,,,,,,,,,,,,,,,,,,,,,,,,,1,0,41,41,41,1,golf_course_87.jpg,golf,,,,,,,,,,,,,,,,,,,
,,,AOOU57BC3GK9J,49,MALE,8,03-29-2023_14h02.05.237,memory_pilot_most_recent,2022.2.4,Win32,8.551686393,,,,,,,,,,,,,,,,,,,,,,,,,,,1,0,42,42,42,1,bridge_91.jpg,bridge,,,,,,,,,,,,,,,,,,,
,,,AOOU57BC3GK9J,49,MALE,8,03-29-2023_14h02.05.237,memory_pilot_most_recent,2022.2.4,Win32,8.551686393,,,,,,,,,,,,,,,,,,,,,,,,,,,1,0,43,43,43,1,badlands_184.jpg,badlands,,,,,,,,,,,,,,,,,,,
,,,AOOU57BC3GK9J,49,MALE,8,03-29-2023_14h02.05.237,memory_pilot_most_recent,2022.2.4,Win32,8.551686393,,,,,,,,,,,,,,,,,,,,,,,,,,,1,0,44,44,44,1,mountain_293.jpg,mountain,,,,,,,,,,,,,,,,,,,
,,,AOOU57BC3GK9J,49,MALE,8,03-29-2023_14h02.05.237,memory_pilot_most_recent,2022.2.4,Win32,8.551686393,,,,,,,,,,,,,,,,,,,,,,,,,,,1,0,45,45,45,1,badlands_23.jpg,badlands,,,,,,,,,,,,,,,,,,,
,,,AOOU57BC3GK9J,49,MALE,8,03-29-2023_14h02.05.237,memory_pilot_most_recent,2022.2.4,Win32,8.551686393,,,,,,,,,,,,,,,,,,,,,,,,,,,1,0,46,46,46,1,highway_394.jpg,highway,,,,,,,,,,,,,,,,,,,
,,,AOOU57BC3GK9J,49,MALE,8,03-29-2023_14h02.05.237,memory_pilot_most_recent,2022.2.4,Win32,8.551686393,,,,,,,,,,,,,,,,,,,,,,,,,,,0,0,47,47,47,1,right.jpg,,right,,,,,,,,,,,,,,,,,,
,,,AOOU57BC3GK9J,49,MALE,8,03-29-2023_14h02.05.237,memory_pilot_most_recent,2022.2.4,Win32,8.551686393,,,,,,,,,,,,,,,,,,,,,,,,,,,1,0,48,48,48,1,playground_76.jpg,playground,,,,,,,,,,,,,,,,,,,
,,,AOOU57BC3GK9J,49,MALE,8,03-29-2023_14h02.05.237,memory_pilot_most_recent,2022.2.4,Win32,8.551686393,,,,,,,,,,,,,,,,,,,,,,,,,,,1,0,49,49,49,1,badlands_113.jpg,badlands,,,,,,,,,,,,,,,,,,,
,,,AOOU57BC3GK9J,49,MALE,8,03-29-2023_14h02.05.237,memory_pilot_most_recent,2022.2.4,Win32,8.551686393,,,,,,,,,,,,,,,,,,,,,,,,,,,1,0,50,50,50,1,highway_415.jpg,highway,,,,,,,,,,,,,,,,,,,
,,,AOOU57BC3GK9J,49,MALE,8,03-29-2023_14h02.05.237,memory_pilot_most_recent,2022.2.4,Win32,8.551686393,,,,,,,,,,,,,,,,,,,,,,,,,,,1,0,51,51,51,1,highway_273.jpg,highway,,,,,,,,,,,,,,,,,,,
,,,AOOU57BC3GK9J,49,MALE,8,03-29-2023_14h02.05.237,memory_pilot_most_recent,2022.2.4,Win32,8.551686393,,,,,,,,,,,,,,,,,,,,,,,,,,,1,0,52,52,52,1,bridge_250.jpg,bridge,,,,,,,,,,,,,,,,,,,
,,,AOOU57BC3GK9J,49,MALE,8,03-29-2023_14h02.05.237,memory_pilot_most_recent,2022.2.4,Win32,8.551686393,,,,,,,,,,,,,,,,,,,,,,,,,,,1,0,53,53,53,1,golf_course_214.jpg,golf,,,,,,,,,,,,,,,,,,,
,,,AOOU57BC3GK9J,49,MALE,8,03-29-2023_14h02.05.237,memory_pilot_most_recent,2022.2.4,Win32,8.551686393,,,,,,,,,,,,,,,,,,,,,,,,,,,1,0,54,54,54,1,bridge_191.jpg,bridge,,,,,,,,,,,,,,,,,,,
,,,AOOU57BC3GK9J,49,MALE,8,03-29-2023_14h02.05.237,memory_pilot_most_recent,2022.2.4,Win32,8.551686393,,,,,,,,,,,,,,,,,,,,,,,,,,,1,0,55,55,55,1,playground_144.jpg,playground,,,,,,,,,,,,,,,,,,,
,,,AOOU57BC3GK9J,49,MALE,8,03-29-2023_14h02.05.237,memory_pilot_most_recent,2022.2.4,Win32,8.551686393,,,,,,,,,,,,,,,,,,,,,,,,,,,1,0,56,56,56,1,bridge_128.jpg,bridge,,,,,,,,,,,,,,,,,,,
,,,AOOU57BC3GK9J,49,MALE,8,03-29-2023_14h02.05.237,memory_pilot_most_recent,2022.2.4,Win32,8.551686393,,,,,,,,,,,,,,,,,,,,,,,,,,,1,0,57,57,57,1,playground_145.jpg,playground,,,,,,,,,,,,,,,,,,,
,,,AOOU57BC3GK9J,49,MALE,8,03-29-2023_14h02.05.237,memory_pilot_most_recent,2022.2.4,Win32,8.551686393,,,,,,,,,,,,,,,,,,,,,,,,,,,1,0,58,58,58,1,badlands_21.jpg,badlands,,,,,,,,,,,,,,,,,,,
,,,AOOU57BC3GK9J,49,MALE,8,03-29-2023_14h02.05.237,memory_pilot_most_recent,2022.2.4,Win32,8.551686393,,,,,,,,,,,,,,,,,,,,,,,,,,,1,0,59,59,59,1,golf_course_78.jpg,golf,,,,,,,,,,,,,,,,,,,
,,,AOOU57BC3GK9J,49,MALE,8,03-29-2023_14h02.05.237,memory_pilot_most_recent,2022.2.4,Win32,8.551686393,,,,,,,,,,,,,,,,,,,,,,,,,,,1,0,60,60,60,1,mountain_110.jpg,mountain,,,,,,,,,,,,,,,,,,,
,,,AOOU57BC3GK9J,49,MALE,8,03-29-2023_14h02.05.237,memory_pilot_most_recent,2022.2.4,Win32,8.551686393,,,,,,,,,,,,,,,,,,,,,,,,,,,1,0,61,61,61,1,mountain_101.jpg,mountain,,,,,,,,,,,,,,,,,,,
,,,AOOU57BC3GK9J,49,MALE,8,03-29-2023_14h02.05.237,memory_pilot_most_recent,2022.2.4,Win32,8.551686393,,,,,,,,,,,,,,,,,,,,,,,,,,,1,0,62,62,62,1,golf_course_195.jpg,golf,,,,,,,,,,,,,,,,,,,
,,,AOOU57BC3GK9J,49,MALE,8,03-29-2023_14h02.05.237,memory_pilot_most_recent,2022.2.4,Win32,8.551686393,,,,,,,,,,,,,,,,,,,,,,,,,,,1,0,63,63,63,1,mountain_154.jpg,mountain,,,,,,,,,,,,,,,,,,,
,,,AOOU57BC3GK9J,49,MALE,8,03-29-2023_14h02.05.237,memory_pilot_most_recent,2022.2.4,Win32,8.551686393,,,,,,,,,,,,,,,,,,,,,,,,,,,1,0,64,64,64,1,golf_course_217.jpg,golf,,,,,,,,,,,,,,,,,,,
,,,AOOU57BC3GK9J,49,MALE,8,03-29-2023_14h02.05.237,memory_pilot_most_recent,2022.2.4,Win32,8.551686393,,,,,,,,,,,,,,,,,,,,,,,,,,,,,,,,,,,,,space,2.0664,,,,,,,,,,,,,,,
,,,AOOU57BC3GK9J,49,MALE,8,03-29-2023_14h02.05.237,memory_pilot_most_recent,2022.2.4,Win32,8.551686393,,,,,,,,,,,,,,,,,,,,,,,,,,,,,,,,,,,,,,,,,,,,,,,,,,,,,
,,,AOOU57BC3GK9J,49,MALE,8,03-29-2023_14h02.05.237,memory_pilot_most_recent,2022.2.4,Win32,8.551686393,,,,,,,,,,,,,,,,,,,,,,,,,,,,,,,,,,highway,left,,,,left,1,2.3809,7,2.4545,0,0,0,0,1,highway_359.jpg,highway_389.jpg,0,,
,,,AOOU57BC3GK9J,49,MALE,8,03-29-2023_14h02.05.237,memory_pilot_most_recent,2022.2.4,Win32,8.551686393,,,,,,,,,,,,,,,,,,,,,,,,,,,,,,,,,,bridge,left,,,,right,0,1.82,7,1.7209,0,1,1,1,1,bridge_256.jpg,bridge_211.jpg,1,,
,,,AOOU57BC3GK9J,49,MALE,8,03-29-2023_14h02.05.237,memory_pilot_most_recent,2022.2.4,Win32,8.551686393,,,,,,,,,,,,,,,,,,,,,,,,,,,,,,,,,,golf,right,,,,right,1,4.4904,7,2.0662,0,2,2,2,1,golf_course_160.jpg,golf_course_188.jpg,1,,
,,,AOOU57BC3GK9J,49,MALE,8,03-29-2023_14h02.05.237,memory_pilot_most_recent,2022.2.4,Win32,8.551686393,,,,,,,,,,,,,,,,,,,,,,,,,,,,,,,,,,mountain,left,,,,right,0,1.0853,7,1.0906,0,3,3,3,1,mountain_232.jpg,mountain_54.jpg,1,,
,,,AOOU57BC3GK9J,49,MALE,8,03-29-2023_14h02.05.237,memory_pilot_most_recent,2022.2.4,Win32,8.551686393,,,,,,,,,,,,,,,,,,,,,,,,,,,,,,,,,,playground,right,,,,left,0,1.1043,7,1.1192,0,4,4,4,1,playground_215.jpg,playground_257.jpg,1,,
,,,AOOU57BC3GK9J,49,MALE,8,03-29-2023_14h02.05.237,memory_pilot_most_recent,2022.2.4,Win32,8.551686393,,,,,,,,,,,,,,,,,,,,,,,,,,,,,,,,,,playground,left,,,,left,1,1.6305,7,1.0991,0,5,5,5,1,playground_240.jpg,playground_40.jpg,1,,
,,,AOOU57BC3GK9J,49,MALE,8,03-29-2023_14h02.05.237,memory_pilot_most_recent,2022.2.4,Win32,8.551686393,,,,,,,,,,,,,,,,,,,,,,,,,,,,,,,,,,bridge,left,,,,left,1,1.6676,7,1.0971,0,6,6,6,1,bridge_146.jpg,bridge_121.jpg,1,,
,,,AOOU57BC3GK9J,49,MALE,8,03-29-2023_14h02.05.237,memory_pilot_most_recent,2022.2.4,Win32,8.551686393,,,,,,,,,,,,,,,,,,,,,,,,,,,,,,,,,,highway,left,,,,right,0,1.6186,7,1.0595,0,7,7,7,1,highway_294.jpg,highway_203.jpg,0,,
,,,AOOU57BC3GK9J,49,MALE,8,03-29-2023_14h02.05.237,memory_pilot_most_recent,2022.2.4,Win32,8.551686393,,,,,,,,,,,,,,,,,,,,,,,,,,,,,,,,,,golf,left,,,,left,1,1.0773,7,1.0667,0,8,8,8,1,golf_course_193.jpg,golf_course_235.jpg,0,,
,,,AOOU57BC3GK9J,49,MALE,8,03-29-2023_14h02.05.237,memory_pilot_most_recent,2022.2.4,Win32,8.551686393,,,,,,,,,,,,,,,,,,,,,,,,,,,,,,,,,,playground,right,,,,left,0,2.1376,8,1.2796,0,9,9,9,1,playground_65.jpg,playground_144.jpg,1,,
,,,AOOU57BC3GK9J,49,MALE,8,03-29-2023_14h02.05.237,memory_pilot_most_recent,2022.2.4,Win32,8.551686393,,,,,,,,,,,,,,,,,,,,,,,,,,,,,,,,,,mountain,right,,,,right,1,1.2951,8,1.7032,0,10,10,10,1,mountain_97.jpg,mountain_230.jpg,1,,
,,,AOOU57BC3GK9J,49,MALE,8,03-29-2023_14h02.05.237,memory_pilot_most_recent,2022.2.4,Win32,8.551686393,,,,,,,,,,,,,,,,,,,,,,,,,,,,,,,,,,badlands,left,,,,left,1,1.2396,8,1.4217,0,11,11,11,1,badlands_137.jpg,badlands_139.jpg,1,,
,,,AOOU57BC3GK9J,49,MALE,8,03-29-2023_14h02.05.237,memory_pilot_most_recent,2022.2.4,Win32,8.551686393,,,,,,,,,,,,,,,,,,,,,,,,,,,,,,,,,,playground,left,,,,left,1,1.4383,8,1.2897,0,12,12,12,1,playground_10.jpg,playground_12.jpg,1,,
,,,AOOU57BC3GK9J,49,MALE,8,03-29-2023_14h02.05.237,memory_pilot_most_recent,2022.2.4,Win32,8.551686393,,,,,,,,,,,,,,,,,,,,,,,,,,,,,,,,,,golf,right,,,,left,0,2.1233,5,1.4873,0,13,13,13,1,golf_course_312.jpg,golf_course_214.jpg,0,,
,,,AOOU57BC3GK9J,49,MALE,8,03-29-2023_14h02.05.237,memory_pilot_most_recent,2022.2.4,Win32,8.551686393,,,,,,,,,,,,,,,,,,,,,,,,,,,,,,,,,,playground,left,,,,left,1,1.2691,5,1.0924,0,14,14,14,1,playground_131.jpg,playground_164.jpg,1,,
,,,AOOU57BC3GK9J,49,MALE,8,03-29-2023_14h02.05.237,memory_pilot_most_recent,2022.2.4,Win32,8.551686393,,,,,,,,,,,,,,,,,,,,,,,,,,,,,,,,,,badlands,left,,,,left,1,1.0283,6,1.2807,0,15,15,15,1,badlands_52.jpg,badlands_63.jpg,1,,
,,,AOOU57BC3GK9J,49,MALE,8,03-29-2023_14h02.05.237,memory_pilot_most_recent,2022.2.4,Win32,8.551686393,,,,,,,,,,,,,,,,,,,,,,,,,,,,,,,,,,mountain,left,,,,right,0,0.8558,6,1.1025,0,16,16,16,1,mountain_123.jpg,mountain_189.jpg,1,,
,,,AOOU57BC3GK9J,49,MALE,8,03-29-2023_14h02.05.237,memory_pilot_most_recent,2022.2.4,Win32,8.551686393,,,,,,,,,,,,,,,,,,,,,,,,,,,,,,,,,,highway,left,,,,right,0,1.0763,6,0.906,0,17,17,17,1,highway_394.jpg,highway_204.jpg,0,,
,,,AOOU57BC3GK9J,49,MALE,8,03-29-2023_14h02.05.237,memory_pilot_most_recent,2022.2.4,Win32,8.551686393,,,,,,,,,,,,,,,,,,,,,,,,,,,,,,,,,,golf,right,,,,left,0,1.1441,6,1.3337,0,18,18,18,1,golf_course_113.jpg,golf_course_15.jpg,0,,
,,,AOOU57BC3GK9J,49,MALE,8,03-29-2023_14h02.05.237,memory_pilot_most_recent,2022.2.4,Win32,8.551686393,,,,,,,,,,,,,,,,,,,,,,,,,,,,,,,,,,golf,right,,,,right,1,0.9123,6,1.265,0,19,19,19,1,golf_course_26.jpg,golf_course_331.jpg,1,,
,,,AOOU57BC3GK9J,49,MALE,8,03-29-2023_14h02.05.237,memory_pilot_most_recent,2022.2.4,Win32,8.551686393,,,,,,,,,,,,,,,,,,,,,,,,,,,,,,,,,,mountain,left,,,,left,1,1.0799,6,0.915,0,20,20,20,1,mountain_101.jpg,mountain_171.jpg,0,,
,,,AOOU57BC3GK9J,49,MALE,8,03-29-2023_14h02.05.237,memory_pilot_most_recent,2022.2.4,Win32,8.551686393,,,,,,,,,,,,,,,,,,,,,,,,,,,,,,,,,,highway,left,,,,right,0,1.0679,6,1.243,0,21,21,21,1,highway_415.jpg,highway_60.jpg,0,,
,,,AOOU57BC3GK9J,49,MALE,8,03-29-2023_14h02.05.237,memory_pilot_most_recent,2022.2.4,Win32,8.551686393,,,,,,,,,,,,,,,,,,,,,,,,,,,,,,,,,,badlands,right,,,,right,1,1.2457,6,1.0611,0,22,22,22,1,badlands_98.jpg,badlands_21.jpg,1,,
,,,AOOU57BC3GK9J,49,MALE,8,03-29-2023_14h02.05.237,memory_pilot_most_recent,2022.2.4,Win32,8.551686393,,,,,,,,,,,,,,,,,,,,,,,,,,,,,,,,,,highway,right,,,,left,0,1.2027,6,0.994,0,23,23,23,1,highway_122.jpg,highway_209.jpg,1,,
,,,AOOU57BC3GK9J,49,MALE,8,03-29-2023_14h02.05.237,memory_pilot_most_recent,2022.2.4,Win32,8.551686393,,,,,,,,,,,,,,,,,,,,,,,,,,,,,,,,,,badlands,right,,,,right,1,1.019,6,0.9652,0,24,24,24,1,badlands_102.jpg,badlands_70.jpg,0,,
,,,AOOU57BC3GK9J,49,MALE,8,03-29-2023_14h02.05.237,memory_pilot_most_recent,2022.2.4,Win32,8.551686393,,,,,,,,,,,,,,,,,,,,,,,,,,,,,,,,,,golf,right,,,,right,1,1.4557,7,1.0839,0,25,25,25,1,golf_course_209.jpg,golf_course_309.jpg,1,,
,,,AOOU57BC3GK9J,49,MALE,8,03-29-2023_14h02.05.237,memory_pilot_most_recent,2022.2.4,Win32,8.551686393,,,,,,,,,,,,,,,,,,,,,,,,,,,,,,,,,,bridge,left,,,,left,1,1.1426,7,1.288,0,26,26,26,1,bridge_191.jpg,bridge_75.jpg,1,,
,,,AOOU57BC3GK9J,49,MALE,8,03-29-2023_14h02.05.237,memory_pilot_most_recent,2022.2.4,Win32,8.551686393,,,,,,,,,,,,,,,,,,,,,,,,,,,,,,,,,,bridge,left,,,,right,0,1.6285,6,1.0793,0,27,27,27,1,bridge_91.jpg,bridge_82.jpg,1,,
,,,AOOU57BC3GK9J,49,MALE,8,03-29-2023_14h02.05.237,memory_pilot_most_recent,2022.2.4,Win32,8.551686393,,,,,,,,,,,,,,,,,,,,,,,,,,,,,,,,,,bridge,right,,,,left,0,1.2578,6,1.1673,0,28,28,28,1,bridge_61.jpg,bridge_128.jpg,0,,
,,,AOOU57BC3GK9J,49,MALE,8,03-29-2023_14h02.05.237,memory_pilot_most_recent,2022.2.4,Win32,8.551686393,,,,,,,,,,,,,,,,,,,,,,,,,,,,,,,,,,badlands,left,,,,right,0,0.8634,6,1.0404,0,29,29,29,1,badlands_184.jpg,badlands_228.jpg,0,,
,,,AOOU57BC3GK9J,49,MALE,8,03-29-2023_14h02.05.237,memory_pilot_most_recent,2022.2.4,Win32,8.551686393,,,,,,,,,,,,,,,,,,,,,,,,,,,,,,,,,,mountain,left,,,,right,0,0.9809,6,0.9615,0,30,30,30,1,mountain_154.jpg,mountain_131.jpg,0,,
,,,AOOU57BC3GK9J,49,MALE,8,03-29-2023_14h02.05.237,memory_pilot_most_recent,2022.2.4,Win32,8.551686393,,,,,,,,,,,,,,,,,,,,,,,,,,,,,,,,,,bridge,left,,,,left,1,1.0826,6,1.1455,0,31,31,31,1,bridge_172.jpg,bridge_17.jpg,0,,
,,,AOOU57BC3GK9J,49,MALE,8,03-29-2023_14h02.05.237,memory_pilot_most_recent,2022.2.4,Win32,8.551686393,,,,,,,,,,,,,,,,,,,,,,,,,,,,,,,,,,golf,left,,,,left,1,1.2557,6,0.9629,0,32,32,32,1,golf_course_78.jpg,golf_course_101.jpg,1,,
,,,AOOU57BC3GK9J,49,MALE,8,03-29-2023_14h02.05.237,memory_pilot_most_recent,2022.2.4,Win32,8.551686393,,,,,,,,,,,,,,,,,,,,,,,,,,,,,,,,,,badlands,right,,,,right,1,1.1309,5,1.8158,0,33,33,33,1,badlands_3.jpg,badlands_24.jpg,0,,
,,,AOOU57BC3GK9J,49,MALE,8,03-29-2023_14h02.05.237,memory_pilot_most_recent,2022.2.4,Win32,8.551686393,,,,,,,,,,,,,,,,,,,,,,,,,,,,,,,,,,playground,right,,,,left,0,0.9167,5,1.0958,0,34,34,34,1,playground_22.jpg,playground_76.jpg,0,,
,,,AOOU57BC3GK9J,49,MALE,8,03-29-2023_14h02.05.237,memory_pilot_most_recent,2022.2.4,Win32,8.551686393,,,,,,,,,,,,,,,,,,,,,,,,,,,,,,,,,,bridge,right,,,,left,0,0.8026,5,0.9649,0,35,35,35,1,bridge_116.jpg,bridge_108.jpg,0,,
,,,AOOU57BC3GK9J,49,MALE,8,03-29-2023_14h02.05.237,memory_pilot_most_recent,2022.2.4,Win32,8.551686393,,,,,,,,,,,,,,,,,,,,,,,,,,,,,,,,,,highway,right,,,,left,0,0.7937,6,1.1261,0,36,36,36,1,highway_134.jpg,highway_245.jpg,0,,
,,,AOOU57BC3GK9J,49,MALE,8,03-29-2023_14h02.05.237,memory_pilot_most_recent,2022.2.4,Win32,8.551686393,,,,,,,,,,,,,,,,,,,,,,,,,,,,,,,,,,badlands,left,,,,right,0,0.9046,6,0.9109,0,37,37,37,1,badlands_113.jpg,badlands_203.jpg,1,,
,,,AOOU57BC3GK9J,49,MALE,8,03-29-2023_14h02.05.237,memory_pilot_most_recent,2022.2.4,Win32,8.551686393,,,,,,,,,,,,,,,,,,,,,,,,,,,,,,,,,,golf,right,,,,left,0,1.1058,6,0.9533,0,38,38,38,1,golf_course_25.jpg,golf_course_195.jpg,0,,
,,,AOOU57BC3GK9J,49,MALE,8,03-29-2023_14h02.05.237,memory_pilot_most_recent,2022.2.4,Win32,8.551686393,,,,,,,,,,,,,,,,,,,,,,,,,,,,,,,,,,playground,left,,,,right,0,0.9093,6,1.1052,0,39,39,39,1,playground_117.jpg,playground_167.jpg,0,,
,,,AOOU57BC3GK9J,49,MALE,8,03-29-2023_14h02.05.237,memory_pilot_most_recent,2022.2.4,Win32,8.551686393,,,,,,,,,,,,,,,,,,,,,,,,,,,,,,,,,,golf,right,,,,left,0,0.8872,6,1.1072,0,40,40,40,1,golf_course_262.jpg,golf_course_217.jpg,1,,
,,,AOOU57BC3GK9J,49,MALE,8,03-29-2023_14h02.05.237,memory_pilot_most_recent,2022.2.4,Win32,8.551686393,,,,,,,,,,,,,,,,,,,,,,,,,,,,,,,,,,highway,right,,,,right,1,2.2955,6,1.5885,0,41,41,41,1,highway_293.jpg,highway_156.jpg,1,,
,,,AOOU57BC3GK9J,49,MALE,8,03-29-2023_14h02.05.237,memory_pilot_most_recent,2022.2.4,Win32,8.551686393,,,,,,,,,,,,,,,,,,,,,,,,,,,,,,,,,,playground,right,,,,right,1,1.1576,6,1.0696,0,42,42,42,1,playground_268.jpg,playground_60.jpg,0,,
,,,AOOU57BC3GK9J,49,MALE,8,03-29-2023_14h02.05.237,memory_pilot_most_recent,2022.2.4,Win32,8.551686393,,,,,,,,,,,,,,,,,,,,,,,,,,,,,,,,,,golf,right,,,,right,1,0.8963,6,1.2828,0,43,43,43,1,golf_course_130.jpg,golf_course_87.jpg,0,,
,,,AOOU57BC3GK9J,49,MALE,8,03-29-2023_14h02.05.237,memory_pilot_most_recent,2022.2.4,Win32,8.551686393,,,,,,,,,,,,,,,,,,,,,,,,,,,,,,,,,,badlands,left,,,,right,0,1.0803,6,1.1082,0,44,44,44,1,badlands_222.jpg,badlands_34.jpg,0,,
,,,AOOU57BC3GK9J,49,MALE,8,03-29-2023_14h02.05.237,memory_pilot_most_recent,2022.2.4,Win32,8.551686393,,,,,,,,,,,,,,,,,,,,,,,,,,,,,,,,,,highway,left,,,,left,1,1.2185,6,1.0274,0,45,45,45,1,highway_177.jpg,highway_278.jpg,1,,
,,,AOOU57BC3GK9J,49,MALE,8,03-29-2023_14h02.05.237,memory_pilot_most_recent,2022.2.4,Win32,8.551686393,,,,,,,,,,,,,,,,,,,,,,,,,,,,,,,,,,mountain,right,,,,right,1,1.0316,6,0.8815,0,46,46,46,1,mountain_93.jpg,mountain_222.jpg,1,,
,,,AOOU57BC3GK9J,49,MALE,8,03-29-2023_14h02.05.237,memory_pilot_most_recent,2022.2.4,Win32,8.551686393,,,,,,,,,,,,,,,,,,,,,,,,,,,,,,,,,,bridge,right,,,,left,0,0.8834,6,1.0255,0,47,47,47,1,bridge_181.jpg,bridge_65.jpg,0,,
,,,AOOU57BC3GK9J,49,MALE,8,03-29-2023_14h02.05.237,memory_pilot_most_recent,2022.2.4,Win32,8.551686393,,,,,,,,,,,,,,,,,,,,,,,,,,,,,,,,,,badlands,right,,,,right,1,1.2716,6,1.0959,0,48,48,48,1,badlands_207.jpg,badlands_221.jpg,1,,
,,,AOOU57BC3GK9J,49,MALE,8,03-29-2023_14h02.05.237,memory_pilot_most_recent,2022.2.4,Win32,8.551686393,,,,,,,,,,,,,,,,,,,,,,,,,,,,,,,,,,bridge,right,,,,left,0,1.2637,6,0.8338,0,49,49,49,1,bridge_134.jpg,bridge_250.jpg,0,,
,,,AOOU57BC3GK9J,49,MALE,8,03-29-2023_14h02.05.237,memory_pilot_most_recent,2022.2.4,Win32,8.551686393,,,,,,,,,,,,,,,,,,,,,,,,,,,,,,,,,,playground,left,,,,right,0,0.8802,6,0.9242,0,50,50,50,1,playground_219.jpg,playground_21.jpg,0,,
,,,AOOU57BC3GK9J,49,MALE,8,03-29-2023_14h02.05.237,memory_pilot_most_recent,2022.2.4,Win32,8.551686393,,,,,,,,,,,,,,,,,,,,,,,,,,,,,,,,,,mountain,right,,,,left,0,0.9028,6,1.0816,0,51,51,51,1,mountain_157.jpg,mountain_110.jpg,0,,
,,,AOOU57BC3GK9J,49,MALE,8,03-29-2023_14h02.05.237,memory_pilot_most_recent,2022.2.4,Win32,8.551686393,,,,,,,,,,,,,,,,,,,,,,,,,,,,,,,,,,playground,left,,,,right,0,0.8732,6,1.0658,0,52,52,52,1,playground_145.jpg,playground_229.jpg,0,,
,,,AOOU57BC3GK9J,49,MALE,8,03-29-2023_14h02.05.237,memory_pilot_most_recent,2022.2.4,Win32,8.551686393,,,,,,,,,,,,,,,,,,,,,,,,,,,,,,,,,,mountain,left,,,,right,0,1.2116,6,1.0721,0,53,53,53,1,mountain_57.jpg,mountain_193.jpg,0,,
,,,AOOU57BC3GK9J,49,MALE,8,03-29-2023_14h02.05.237,memory_pilot_most_recent,2022.2.4,Win32,8.551686393,,,,,,,,,,,,,,,,,,,,,,,,,,,,,,,,,,highway,right,,,,right,1,1.3779,7,1.2109,0,54,54,54,1,highway_171.jpg,highway_273.jpg,1,,
,,,AOOU57BC3GK9J,49,MALE,8,03-29-2023_14h02.05.237,memory_pilot_most_recent,2022.2.4,Win32,8.551686393,,,,,,,,,,,,,,,,,,,,,,,,,,,,,,,,,,highway,right,,,,right,1,1.6446,8,1.2196,0,55,55,55,1,highway_369.jpg,highway_93.jpg,1,,
,,,AOOU57BC3GK9J,49,MALE,8,03-29-2023_14h02.05.237,memory_pilot_most_recent,2022.2.4,Win32,8.551686393,,,,,,,,,,,,,,,,,,,,,,,,,,,,,,,,,,badlands,left,,,,left,1,1.2567,5,1.747,0,56,56,56,1,badlands_23.jpg,badlands_114.jpg,0,,
,,,AOOU57BC3GK9J,49,MALE,8,03-29-2023_14h02.05.237,memory_pilot_most_recent,2022.2.4,Win32,8.551686393,,,,,,,,,,,,,,,,,,,,,,,,,,,,,,,,,,mountain,right,,,,right,1,1.2124,5,1.0897,0,57,57,57,1,mountain_128.jpg,mountain_156.jpg,0,,
,,,AOOU57BC3GK9J,49,MALE,8,03-29-2023_14h02.05.237,memory_pilot_most_recent,2022.2.4,Win32,8.551686393,,,,,,,,,,,,,,,,,,,,,,,,,,,,,,,,,,mountain,right,,,,right,1,1.1815,5,1.0885,0,58,58,58,1,mountain_47.jpg,mountain_293.jpg,1,,
,,,AOOU57BC3GK9J,49,MALE,8,03-29-2023_14h02.05.237,memory_pilot_most_recent,2022.2.4,Win32,8.551686393,,,,,,,,,,,,,,,,,,,,,,,,,,,,,,,,,,bridge,left,,,,left,1,1.2114,5,1.1616,0,59,59,59,1,bridge_202.jpg,bridge_38.jpg,1,,
,,,AOOU57BC3GK9J,49,MALE,8,03-29-2023_14h02.05.237,memory_pilot_most_recent,2022.2.4,Win32,8.551686393,,,,,,,,,,,,,,,,,,,,,,,,,,,,,,,,,,,,,,,,,,,,,,,,,,,,space,3.7404
