,workID,Age,Gender,target,image1,image2,correct,background_0,background_1,background_2,background_3,background_4,background_5,target_index,test_key_resp.keys,test_key_resp.rt,distractor_level,category,selected_dist,slider_part2.response,slider_part2.rt,subject
0,ASZIU9BR1ALX4,30,male,golf_course_331.jpg,golf_course_114.jpg,golf_course_331.jpg,right,golf_course_331.jpg,highway_244.jpg,mountain_107.jpg,bridge_169.jpg,bridge_169.jpg,bridge_169.jpg,0.0,left,0.7709,0.0,golf,golf_course_114.jpg,6.979166667,2.9758,ASZIU9BR1ALX4
1,ASZIU9BR1ALX4,30,male,highway_394.jpg,highway_394.jpg,highway_406.jpg,left,mountain_160.jpg,highway_394.jpg,badlands_31.jpg,golf_course_166.jpg,golf_course_166.jpg,golf_course_166.jpg,1.0,right,1.3452,1.0,highway,highway_406.jpg,8.0,2.1452,ASZIU9BR1ALX4
2,ASZIU9BR1ALX4,30,male,mountain_110.jpg,mountain_157.jpg,mountain_110.jpg,right,highway_37.jpg,mountain_110.jpg,playground_25.jpg,badlands_210.jpg,badlands_210.jpg,badlands_210.jpg,1.0,left,2.6403,0.0,mountain,mountain_157.jpg,8.96875,2.389,ASZIU9BR1ALX4
3,ASZIU9BR1ALX4,30,male,mountain_154.jpg,mountain_154.jpg,mountain_131.jpg,left,mountain_154.jpg,playground_66.jpg,badlands_58.jpg,golf_course_1.jpg,golf_course_1.jpg,golf_course_1.jpg,0.0,right,0.9865,0.0,mountain,mountain_131.jpg,4.010416667,2.8346,ASZIU9BR1ALX4
4,ASZIU9BR1ALX4,30,male,highway_294.jpg,highway_203.jpg,highway_294.jpg,right,mountain_202.jpg,highway_294.jpg,golf_course_33.jpg,badlands_166.jpg,badlands_166.jpg,badlands_166.jpg,1.0,left,1.3683,0.0,highway,highway_203.jpg,5.010416667,2.107,ASZIU9BR1ALX4
5,ASZIU9BR1ALX4,30,male,highway_93.jpg,highway_85.jpg,highway_93.jpg,right,highway_93.jpg,golf_course_198.jpg,badlands_220.jpg,playground_90.jpg,playground_90.jpg,playground_90.jpg,0.0,right,0.5709,0.0,highway,highway_85.jpg,6.0,2.9442,ASZIU9BR1ALX4
6,ASZIU9BR1ALX4,30,male,bridge_128.jpg,bridge_128.jpg,bridge_244.jpg,left,playground_116.jpg,bridge_128.jpg,badlands_180.jpg,mountain_44.jpg,mountain_44.jpg,mountain_44.jpg,1.0,left,3.6419,1.0,bridge,bridge_244.jpg,6.96875,2.1616,ASZIU9BR1ALX4
7,ASZIU9BR1ALX4,30,male,golf_course_78.jpg,golf_course_134.jpg,golf_course_78.jpg,right,golf_course_78.jpg,badlands_174.jpg,bridge_238.jpg,mountain_224.jpg,mountain_224.jpg,mountain_224.jpg,0.0,left,2.2523,0.0,golf,golf_course_134.jpg,7.979166667,2.5021,ASZIU9BR1ALX4
8,ASZIU9BR1ALX4,30,male,mountain_57.jpg,mountain_57.jpg,mountain_138.jpg,left,mountain_57.jpg,playground_123.jpg,highway_331.jpg,badlands_226.jpg,badlands_226.jpg,badlands_226.jpg,0.0,left,10.3245,1.0,mountain,mountain_138.jpg,8.96875,2.0487,ASZIU9BR1ALX4
9,ASZIU9BR1ALX4,30,male,mountain_101.jpg,mountain_101.jpg,mountain_171.jpg,left,playground_41.jpg,mountain_101.jpg,badlands_89.jpg,golf_course_260.jpg,golf_course_260.jpg,golf_course_260.jpg,1.0,left,7.4979,0.0,mountain,mountain_171.jpg,4.010416667,2.4729,ASZIU9BR1ALX4
10,ASZIU9BR1ALX4,30,male,golf_course_195.jpg,golf_course_195.jpg,golf_course_2.jpg,left,golf_course_195.jpg,highway_13.jpg,mountain_166.jpg,playground_77.jpg,playground_77.jpg,playground_77.jpg,0.0,left,4.74,1.0,golf,golf_course_2.jpg,5.0,1.9152,ASZIU9BR1ALX4
11,ASZIU9BR1ALX4,30,male,playground_76.jpg,playground_22.jpg,playground_76.jpg,right,badlands_99.jpg,playground_76.jpg,mountain_66.jpg,bridge_34.jpg,bridge_34.jpg,bridge_34.jpg,1.0,left,2.4907,0.0,playground,playground_22.jpg,7.010416667,3.5757,ASZIU9BR1ALX4
12,ASZIU9BR1ALX4,30,male,mountain_232.jpg,mountain_3.jpg,mountain_232.jpg,right,badlands_153.jpg,mountain_232.jpg,highway_88.jpg,playground_183.jpg,playground_183.jpg,playground_183.jpg,1.0,left,9.1475,0.0,mountain,mountain_3.jpg,7.979166667,2.0467,ASZIU9BR1ALX4
13,ASZIU9BR1ALX4,30,male,badlands_23.jpg,badlands_23.jpg,badlands_101.jpg,left,highway_18.jpg,badlands_23.jpg,golf_course_334.jpg,mountain_126.jpg,mountain_126.jpg,mountain_126.jpg,1.0,left,16.2417,1.0,badlands,badlands_101.jpg,8.989583333,2.5418,ASZIU9BR1ALX4
14,ASZIU9BR1ALX4,30,male,badlands_184.jpg,badlands_184.jpg,badlands_103.jpg,left,golf_course_258.jpg,mountain_68.jpg,badlands_184.jpg,bridge_264.jpg,bridge_264.jpg,bridge_264.jpg,2.0,left,1.5799,1.0,badlands,badlands_103.jpg,5.0,2.9286,ASZIU9BR1ALX4
15,ASZIU9BR1ALX4,30,male,bridge_256.jpg,bridge_211.jpg,bridge_256.jpg,right,highway_301.jpg,bridge_256.jpg,mountain_292.jpg,playground_3.jpg,playground_3.jpg,playground_3.jpg,1.0,left,1.122,1.0,bridge,bridge_211.jpg,6.09375,2.8673,ASZIU9BR1ALX4
16,ASZIU9BR1ALX4,30,male,badlands_222.jpg,badlands_222.jpg,badlands_34.jpg,left,badlands_222.jpg,bridge_259.jpg,mountain_228.jpg,playground_5.jpg,playground_5.jpg,playground_5.jpg,0.0,left,1.4368,0.0,badlands,badlands_34.jpg,6.979166667,2.0209,ASZIU9BR1ALX4
17,ASZIU9BR1ALX4,30,male,mountain_230.jpg,mountain_184.jpg,mountain_230.jpg,right,badlands_108.jpg,bridge_182.jpg,mountain_230.jpg,highway_144.jpg,highway_144.jpg,highway_144.jpg,2.0,left,0.6636,0.0,mountain,mountain_184.jpg,7.03125,2.1552,ASZIU9BR1ALX4
18,ASZIU9BR1ALX4,30,male,highway_415.jpg,highway_415.jpg,highway_174.jpg,left,highway_415.jpg,playground_168.jpg,mountain_4.jpg,badlands_64.jpg,badlands_64.jpg,badlands_64.jpg,0.0,left,0.0092,1.0,highway,highway_174.jpg,5.958333333,6.316,ASZIU9BR1ALX4
19,ASZIU9BR1ALX4,30,male,highway_209.jpg,highway_209.jpg,highway_122.jpg,left,badlands_177.jpg,mountain_12.jpg,highway_209.jpg,playground_80.jpg,playground_80.jpg,playground_80.jpg,2.0,left,3.8925,1.0,highway,highway_122.jpg,8.020833333,8.5343,ASZIU9BR1ALX4
20,ASZIU9BR1ALX4,30,male,badlands_137.jpg,badlands_139.jpg,badlands_137.jpg,right,playground_191.jpg,badlands_137.jpg,mountain_71.jpg,golf_course_185.jpg,golf_course_185.jpg,golf_course_185.jpg,1.0,left,1.3415,1.0,badlands,badlands_139.jpg,7.989583333,19.7983,ASZIU9BR1ALX4
21,ASZIU9BR1ALX4,30,male,highway_245.jpg,highway_245.jpg,highway_206.jpg,left,badlands_218.jpg,mountain_84.jpg,highway_245.jpg,golf_course_319.jpg,golf_course_319.jpg,golf_course_319.jpg,2.0,left,1.5561,1.0,highway,highway_206.jpg,6.958333333,4.248,ASZIU9BR1ALX4
22,ASZIU9BR1ALX4,30,male,bridge_91.jpg,bridge_91.jpg,bridge_253.jpg,left,badlands_30.jpg,bridge_91.jpg,highway_261.jpg,golf_course_320.jpg,golf_course_320.jpg,golf_course_320.jpg,1.0,left,1.227,0.0,bridge,bridge_253.jpg,6.96875,2.8728,ASZIU9BR1ALX4
23,ASZIU9BR1ALX4,30,male,bridge_65.jpg,bridge_65.jpg,bridge_60.jpg,left,golf_course_159.jpg,mountain_307.jpg,bridge_65.jpg,playground_259.jpg,playground_259.jpg,playground_259.jpg,2.0,left,1.8128,1.0,bridge,bridge_60.jpg,7.927083333,10.4318,ASZIU9BR1ALX4
24,ASZIU9BR1ALX4,30,male,golf_course_309.jpg,golf_course_209.jpg,golf_course_309.jpg,right,golf_course_309.jpg,playground_103.jpg,mountain_204.jpg,bridge_162.jpg,bridge_162.jpg,bridge_162.jpg,0.0,left,2.0748,1.0,golf,golf_course_209.jpg,6.020833333,6.7046,ASZIU9BR1ALX4
25,ASZIU9BR1ALX4,30,male,mountain_123.jpg,mountain_94.jpg,mountain_123.jpg,right,mountain_123.jpg,bridge_251.jpg,badlands_27.jpg,highway_175.jpg,highway_175.jpg,highway_175.jpg,0.0,left,3.5716,0.0,mountain,mountain_94.jpg,7.0,3.5522,ASZIU9BR1ALX4
26,ASZIU9BR1ALX4,30,male,playground_144.jpg,playground_144.jpg,playground_65.jpg,left,bridge_130.jpg,highway_196.jpg,playground_144.jpg,badlands_100.jpg,badlands_100.jpg,badlands_100.jpg,2.0,left,6.0923,1.0,playground,playground_65.jpg,7.979166667,1.7593,ASZIU9BR1ALX4
27,ASZIU9BR1ALX4,30,male,playground_145.jpg,playground_229.jpg,playground_145.jpg,right,playground_145.jpg,bridge_103.jpg,golf_course_83.jpg,badlands_193.jpg,badlands_193.jpg,badlands_193.jpg,0.0,left,1.972,0.0,playground,playground_229.jpg,7.979166667,1.943,ASZIU9BR1ALX4
28,ASZIU9BR1ALX4,30,male,bridge_250.jpg,bridge_250.jpg,bridge_205.jpg,left,highway_25.jpg,bridge_250.jpg,playground_178.jpg,golf_course_43.jpg,golf_course_43.jpg,golf_course_43.jpg,1.0,left,5.2295,1.0,bridge,bridge_205.jpg,7.979166667,3.5559,ASZIU9BR1ALX4
29,ASZIU9BR1ALX4,30,male,bridge_108.jpg,bridge_108.jpg,bridge_148.jpg,left,playground_241.jpg,badlands_216.jpg,bridge_108.jpg,highway_114.jpg,highway_114.jpg,highway_114.jpg,2.0,left,2.1468,1.0,bridge,bridge_148.jpg,8.979166667,5.2319,ASZIU9BR1ALX4
30,ASZIU9BR1ALX4,30,male,bridge_172.jpg,bridge_17.jpg,bridge_172.jpg,right,playground_52.jpg,bridge_172.jpg,mountain_105.jpg,golf_course_27.jpg,golf_course_27.jpg,golf_course_27.jpg,1.0,left,1.4735,0.0,bridge,bridge_17.jpg,5.979166667,2.8904,ASZIU9BR1ALX4
31,ASZIU9BR1ALX4,30,male,mountain_222.jpg,mountain_222.jpg,mountain_244.jpg,left,highway_357.jpg,bridge_47.jpg,mountain_222.jpg,golf_course_264.jpg,golf_course_264.jpg,golf_course_264.jpg,2.0,left,2.514,0.0,mountain,mountain_244.jpg,6.96875,2.236,ASZIU9BR1ALX4
32,ASZIU9BR1ALX4,30,male,highway_273.jpg,highway_273.jpg,highway_384.jpg,left,mountain_212.jpg,highway_273.jpg,golf_course_206.jpg,bridge_124.jpg,bridge_124.jpg,bridge_124.jpg,1.0,left,2.68,0.0,highway,highway_384.jpg,8.0,2.6391,ASZIU9BR1ALX4
33,ASZIU9BR1ALX4,30,male,golf_course_87.jpg,golf_course_161.jpg,golf_course_87.jpg,right,bridge_80.jpg,mountain_253.jpg,golf_course_87.jpg,playground_173.jpg,playground_173.jpg,playground_173.jpg,2.0,left,4.0962,1.0,golf,golf_course_161.jpg,7.979166667,1.5482,ASZIU9BR1ALX4
34,ASZIU9BR1ALX4,30,male,badlands_52.jpg,badlands_94.jpg,badlands_52.jpg,right,badlands_52.jpg,highway_319.jpg,playground_95.jpg,bridge_179.jpg,bridge_179.jpg,bridge_179.jpg,0.0,left,2.1746,0.0,badlands,badlands_94.jpg,6.96875,2.0198,ASZIU9BR1ALX4
35,ASZIU9BR1ALX4,30,male,bridge_191.jpg,bridge_184.jpg,bridge_191.jpg,right,highway_117.jpg,bridge_191.jpg,playground_54.jpg,badlands_149.jpg,badlands_149.jpg,badlands_149.jpg,1.0,left,1.9487,0.0,bridge,bridge_184.jpg,6.96875,1.577,ASZIU9BR1ALX4
36,ASZIU9BR1ALX4,30,male,badlands_24.jpg,badlands_3.jpg,badlands_24.jpg,right,mountain_24.jpg,badlands_24.jpg,golf_course_316.jpg,bridge_9.jpg,bridge_9.jpg,bridge_9.jpg,1.0,left,2.5761,0.0,badlands,badlands_3.jpg,6.989583333,5.8555,ASZIU9BR1ALX4
37,ASZIU9BR1ALX4,30,male,highway_177.jpg,highway_177.jpg,highway_87.jpg,left,highway_177.jpg,mountain_34.jpg,playground_124.jpg,badlands_136.jpg,badlands_136.jpg,badlands_136.jpg,0.0,left,1.7153,0.0,highway,highway_87.jpg,5.989583333,6.4596,ASZIU9BR1ALX4
38,ASZIU9BR1ALX4,30,male,playground_240.jpg,playground_240.jpg,playground_2.jpg,left,playground_240.jpg,golf_course_223.jpg,bridge_18.jpg,badlands_13.jpg,badlands_13.jpg,badlands_13.jpg,0.0,left,4.8097,0.0,playground,playground_2.jpg,7.0,4.8551,ASZIU9BR1ALX4
39,ASZIU9BR1ALX4,30,male,playground_257.jpg,playground_257.jpg,playground_215.jpg,left,playground_257.jpg,mountain_162.jpg,bridge_206.jpg,highway_179.jpg,highway_179.jpg,highway_179.jpg,0.0,left,3.8019,1.0,playground,playground_215.jpg,7.989583333,1.9251,ASZIU9BR1ALX4
40,ASZIU9BR1ALX4,30,male,highway_156.jpg,highway_156.jpg,highway_160.jpg,left,golf_course_325.jpg,bridge_158.jpg,highway_156.jpg,mountain_214.jpg,mountain_214.jpg,mountain_214.jpg,2.0,left,3.0251,0.0,highway,highway_160.jpg,6.96875,9.6332,ASZIU9BR1ALX4
41,ASZIU9BR1ALX4,30,male,badlands_221.jpg,badlands_221.jpg,badlands_115.jpg,left,bridge_49.jpg,mountain_199.jpg,badlands_221.jpg,golf_course_302.jpg,golf_course_302.jpg,golf_course_302.jpg,2.0,left,9.9717,0.0,badlands,badlands_115.jpg,7.96875,5.8497,ASZIU9BR1ALX4
42,ASZIU9BR1ALX4,30,male,playground_219.jpg,playground_205.jpg,playground_219.jpg,right,playground_219.jpg,golf_course_321.jpg,bridge_21.jpg,mountain_280.jpg,mountain_280.jpg,mountain_280.jpg,0.0,left,11.0011,1.0,playground,playground_205.jpg,6.989583333,12.6494,ASZIU9BR1ALX4
43,ASZIU9BR1ALX4,30,male,playground_131.jpg,playground_131.jpg,playground_164.jpg,left,highway_234.jpg,playground_131.jpg,mountain_21.jpg,badlands_200.jpg,badlands_200.jpg,badlands_200.jpg,1.0,left,3.4648,1.0,playground,playground_164.jpg,3.96875,12.2751,ASZIU9BR1ALX4
44,ASZIU9BR1ALX4,30,male,badlands_21.jpg,badlands_1.jpg,badlands_21.jpg,right,badlands_21.jpg,highway_147.jpg,bridge_177.jpg,mountain_115.jpg,mountain_115.jpg,mountain_115.jpg,0.0,left,3.8483,0.0,badlands,badlands_1.jpg,3.96875,1.8231,ASZIU9BR1ALX4
45,ASZIU9BR1ALX4,30,male,golf_course_214.jpg,golf_course_317.jpg,golf_course_214.jpg,right,highway_11.jpg,badlands_54.jpg,golf_course_214.jpg,bridge_218.jpg,bridge_218.jpg,bridge_218.jpg,2.0,left,6.6228,1.0,golf,golf_course_317.jpg,5.989583333,5.0342,ASZIU9BR1ALX4
46,ASZIU9BR1ALX4,30,male,highway_359.jpg,highway_379.jpg,highway_359.jpg,right,playground_209.jpg,golf_course_122.jpg,highway_359.jpg,bridge_78.jpg,bridge_78.jpg,bridge_78.jpg,2.0,left,2.9307,1.0,highway,highway_379.jpg,5.989583333,3.3098,ASZIU9BR1ALX4
47,ASZIU9BR1ALX4,30,male,playground_117.jpg,playground_127.jpg,playground_117.jpg,right,bridge_230.jpg,playground_117.jpg,golf_course_337.jpg,highway_398.jpg,highway_398.jpg,highway_398.jpg,1.0,left,6.5024,1.0,playground,playground_127.jpg,6.979166667,4.3303,ASZIU9BR1ALX4
48,ASZIU9BR1ALX4,30,male,golf_course_15.jpg,golf_course_113.jpg,golf_course_15.jpg,right,golf_course_15.jpg,playground_46.jpg,bridge_48.jpg,badlands_130.jpg,badlands_130.jpg,badlands_130.jpg,0.0,left,2.6592,0.0,golf,golf_course_113.jpg,6.979166667,2.6846,ASZIU9BR1ALX4
49,ASZIU9BR1ALX4,30,male,golf_course_217.jpg,golf_course_217.jpg,golf_course_262.jpg,left,golf_course_217.jpg,badlands_104.jpg,mountain_15.jpg,bridge_64.jpg,bridge_64.jpg,bridge_64.jpg,0.0,left,1.3244,1.0,golf,golf_course_262.jpg,6.979166667,3.759,ASZIU9BR1ALX4
50,ASZIU9BR1ALX4,30,male,mountain_293.jpg,mountain_293.jpg,mountain_72.jpg,left,golf_course_60.jpg,mountain_293.jpg,highway_149.jpg,bridge_123.jpg,bridge_123.jpg,bridge_123.jpg,1.0,left,2.7156,0.0,mountain,mountain_72.jpg,6.979166667,4.0089,ASZIU9BR1ALX4
51,ASZIU9BR1ALX4,30,male,golf_course_188.jpg,golf_course_188.jpg,golf_course_157.jpg,left,mountain_301.jpg,golf_course_188.jpg,playground_200.jpg,badlands_35.jpg,badlands_35.jpg,badlands_35.jpg,1.0,left,0.9373,0.0,golf,golf_course_157.jpg,8.0,2.3035,ASZIU9BR1ALX4
52,ASZIU9BR1ALX4,30,male,badlands_113.jpg,badlands_203.jpg,badlands_113.jpg,right,playground_36.jpg,bridge_204.jpg,badlands_113.jpg,golf_course_204.jpg,golf_course_204.jpg,golf_course_204.jpg,2.0,left,3.6554,1.0,badlands,badlands_203.jpg,8.0,1.9177,ASZIU9BR1ALX4
53,ASZIU9BR1ALX4,30,male,badlands_70.jpg,badlands_70.jpg,badlands_119.jpg,left,bridge_2.jpg,badlands_70.jpg,mountain_233.jpg,playground_6.jpg,playground_6.jpg,playground_6.jpg,1.0,left,4.0387,1.0,badlands,badlands_119.jpg,8.0,1.8363,ASZIU9BR1ALX4
54,ASZIU9BR1ALX4,30,male,playground_60.jpg,playground_60.jpg,playground_244.jpg,left,playground_60.jpg,golf_course_173.jpg,mountain_296.jpg,bridge_26.jpg,bridge_26.jpg,bridge_26.jpg,0.0,left,4.0353,1.0,playground,playground_244.jpg,8.0,2.6584,ASZIU9BR1ALX4
55,ASZIU9BR1ALX4,30,male,bridge_202.jpg,bridge_202.jpg,bridge_31.jpg,left,highway_12.jpg,bridge_202.jpg,golf_course_58.jpg,badlands_2.jpg,badlands_2.jpg,badlands_2.jpg,1.0,left,0.9385,0.0,bridge,bridge_31.jpg,8.0,5.7855,ASZIU9BR1ALX4
56,ASZIU9BR1ALX4,30,male,playground_10.jpg,playground_10.jpg,playground_122.jpg,left,playground_10.jpg,mountain_104.jpg,highway_248.jpg,golf_course_102.jpg,golf_course_102.jpg,golf_course_102.jpg,0.0,left,1.2282,0.0,playground,playground_122.jpg,8.0,3.5219,ASZIU9BR1ALX4
57,ASZIU9BR1ALX4,30,male,bridge_146.jpg,bridge_146.jpg,bridge_121.jpg,left,highway_23.jpg,golf_course_290.jpg,bridge_146.jpg,badlands_75.jpg,badlands_75.jpg,badlands_75.jpg,2.0,left,3.073,1.0,bridge,bridge_121.jpg,8.010416667,3.9298,ASZIU9BR1ALX4
58,ASZIU9BR1ALX4,30,male,mountain_156.jpg,mountain_156.jpg,mountain_295.jpg,left,bridge_239.jpg,mountain_156.jpg,playground_13.jpg,badlands_186.jpg,badlands_186.jpg,badlands_186.jpg,1.0,left,3.94,1.0,mountain,mountain_295.jpg,8.010416667,2.3615,ASZIU9BR1ALX4
59,ASZIU9BR1ALX4,30,male,golf_course_193.jpg,golf_course_193.jpg,golf_course_123.jpg,left,highway_146.jpg,playground_249.jpg,golf_course_193.jpg,bridge_120.jpg,bridge_120.jpg,bridge_120.jpg,2.0,left,2.0208,1.0,golf,golf_course_123.jpg,8.989583333,2.487,ASZIU9BR1ALX4
60,AVK8FE2J4KJ9U,30,Male,badlands_137.jpg,badlands_194.jpg,badlands_137.jpg,right,badlands_137.jpg,mountain_161.jpg,golf_course_185.jpg,highway_333.jpg,highway_333.jpg,highway_333.jpg,0.0,left,2.235,0.0,badlands,badlands_194.jpg,1.958333333,2.932,AVK8FE2J4KJ9U
61,AVK8FE2J4KJ9U,30,Male,mountain_101.jpg,mountain_221.jpg,mountain_101.jpg,right,badlands_89.jpg,playground_103.jpg,mountain_101.jpg,bridge_177.jpg,bridge_177.jpg,bridge_177.jpg,2.0,left,11.4406,1.0,mountain,mountain_221.jpg,2.958333333,1.4233,AVK8FE2J4KJ9U
62,AVK8FE2J4KJ9U,30,Male,highway_415.jpg,highway_415.jpg,highway_174.jpg,left,mountain_107.jpg,playground_3.jpg,highway_415.jpg,badlands_2.jpg,badlands_2.jpg,badlands_2.jpg,2.0,left,2.3091,1.0,highway,highway_174.jpg,4.0625,1.0114,AVK8FE2J4KJ9U
63,AVK8FE2J4KJ9U,30,Male,mountain_110.jpg,mountain_110.jpg,mountain_157.jpg,left,golf_course_337.jpg,badlands_218.jpg,mountain_110.jpg,bridge_182.jpg,bridge_182.jpg,bridge_182.jpg,2.0,right,1.8061,0.0,mountain,mountain_157.jpg,4.989583333,1.3349,AVK8FE2J4KJ9U
64,AVK8FE2J4KJ9U,30,Male,golf_course_214.jpg,golf_course_312.jpg,golf_course_214.jpg,right,golf_course_214.jpg,playground_66.jpg,bridge_103.jpg,mountain_68.jpg,mountain_68.jpg,mountain_68.jpg,0.0,right,4.7114,0.0,golf,golf_course_312.jpg,5.916666667,0.9768,AVK8FE2J4KJ9U
65,AVK8FE2J4KJ9U,30,Male,highway_93.jpg,highway_93.jpg,highway_85.jpg,left,playground_5.jpg,highway_93.jpg,bridge_124.jpg,badlands_173.jpg,badlands_173.jpg,badlands_173.jpg,1.0,left,2.1081,0.0,highway,highway_85.jpg,6.979166667,0.9036,AVK8FE2J4KJ9U
66,AVK8FE2J4KJ9U,30,Male,mountain_293.jpg,mountain_293.jpg,mountain_72.jpg,left,mountain_293.jpg,golf_course_290.jpg,badlands_193.jpg,bridge_34.jpg,bridge_34.jpg,bridge_34.jpg,0.0,left,5.5976,0.0,mountain,mountain_72.jpg,7.979166667,1.0139,AVK8FE2J4KJ9U
67,AVK8FE2J4KJ9U,30,Male,playground_144.jpg,playground_65.jpg,playground_144.jpg,right,golf_course_334.jpg,playground_144.jpg,bridge_26.jpg,badlands_31.jpg,badlands_31.jpg,badlands_31.jpg,1.0,left,6.4582,1.0,playground,playground_65.jpg,8.979166667,1.4308,AVK8FE2J4KJ9U
68,AVK8FE2J4KJ9U,30,Male,bridge_128.jpg,bridge_244.jpg,bridge_128.jpg,right,bridge_128.jpg,badlands_30.jpg,highway_227.jpg,playground_46.jpg,playground_46.jpg,playground_46.jpg,0.0,left,3.4995,1.0,bridge,bridge_244.jpg,1.958333333,2.0648,AVK8FE2J4KJ9U
69,AVK8FE2J4KJ9U,30,Male,highway_209.jpg,highway_209.jpg,highway_122.jpg,left,mountain_202.jpg,golf_course_42.jpg,highway_209.jpg,badlands_220.jpg,badlands_220.jpg,badlands_220.jpg,2.0,left,16.656,1.0,highway,highway_122.jpg,2.958333333,1.2715,AVK8FE2J4KJ9U
70,AVK8FE2J4KJ9U,30,Male,golf_course_195.jpg,golf_course_195.jpg,golf_course_25.jpg,left,golf_course_195.jpg,highway_319.jpg,bridge_10.jpg,badlands_75.jpg,badlands_75.jpg,badlands_75.jpg,0.0,left,5.4419,0.0,golf,golf_course_25.jpg,3.96875,1.1011,AVK8FE2J4KJ9U
71,AVK8FE2J4KJ9U,30,Male,mountain_154.jpg,mountain_154.jpg,mountain_95.jpg,left,badlands_104.jpg,playground_193.jpg,mountain_154.jpg,highway_248.jpg,highway_248.jpg,highway_248.jpg,2.0,left,1.9033,1.0,mountain,mountain_95.jpg,4.989583333,1.4259,AVK8FE2J4KJ9U
72,AVK8FE2J4KJ9U,30,Male,badlands_221.jpg,badlands_207.jpg,badlands_221.jpg,right,playground_178.jpg,badlands_221.jpg,golf_course_302.jpg,mountain_162.jpg,mountain_162.jpg,mountain_162.jpg,1.0,left,1.9239,1.0,badlands,badlands_207.jpg,6.041666667,0.9231,AVK8FE2J4KJ9U
73,AVK8FE2J4KJ9U,30,Male,golf_course_217.jpg,golf_course_217.jpg,golf_course_35.jpg,left,mountain_21.jpg,golf_course_217.jpg,playground_209.jpg,highway_263.jpg,highway_263.jpg,highway_263.jpg,1.0,left,3.4947,0.0,golf,golf_course_35.jpg,6.958333333,1.3809,AVK8FE2J4KJ9U
74,AVK8FE2J4KJ9U,30,Male,playground_76.jpg,playground_22.jpg,playground_76.jpg,right,highway_117.jpg,playground_76.jpg,bridge_251.jpg,mountain_199.jpg,mountain_199.jpg,mountain_199.jpg,1.0,left,3.0156,0.0,playground,playground_22.jpg,7.96875,1.9481,AVK8FE2J4KJ9U
75,AVK8FE2J4KJ9U,30,Male,playground_145.jpg,playground_229.jpg,playground_145.jpg,right,highway_114.jpg,badlands_142.jpg,playground_145.jpg,golf_course_156.jpg,golf_course_156.jpg,golf_course_156.jpg,2.0,left,0.392,0.0,playground,playground_229.jpg,8.9375,2.0646,AVK8FE2J4KJ9U
76,AVK8FE2J4KJ9U,30,Male,highway_359.jpg,highway_379.jpg,highway_359.jpg,right,highway_359.jpg,golf_course_33.jpg,bridge_19.jpg,mountain_296.jpg,mountain_296.jpg,mountain_296.jpg,0.0,right,2.2486,1.0,highway,highway_379.jpg,1.53125,2.143,AVK8FE2J4KJ9U
77,AVK8FE2J4KJ9U,30,Male,golf_course_15.jpg,golf_course_15.jpg,golf_course_97.jpg,left,golf_course_15.jpg,highway_196.jpg,mountain_105.jpg,playground_90.jpg,playground_90.jpg,playground_90.jpg,0.0,left,3.0022,1.0,golf,golf_course_97.jpg,2.854166667,1.5393,AVK8FE2J4KJ9U
78,AVK8FE2J4KJ9U,30,Male,badlands_23.jpg,badlands_114.jpg,badlands_23.jpg,right,badlands_23.jpg,playground_200.jpg,golf_course_102.jpg,highway_331.jpg,highway_331.jpg,highway_331.jpg,0.0,left,19.664,0.0,badlands,badlands_114.jpg,3.614583333,2.5835,AVK8FE2J4KJ9U
79,AVK8FE2J4KJ9U,30,Male,golf_course_331.jpg,golf_course_114.jpg,golf_course_331.jpg,right,playground_183.jpg,mountain_212.jpg,golf_course_331.jpg,bridge_18.jpg,bridge_18.jpg,bridge_18.jpg,2.0,left,20.9703,0.0,golf,golf_course_114.jpg,4.708333333,1.4293,AVK8FE2J4KJ9U
80,AVK8FE2J4KJ9U,30,Male,bridge_191.jpg,bridge_75.jpg,bridge_191.jpg,right,highway_12.jpg,mountain_214.jpg,bridge_191.jpg,badlands_186.jpg,badlands_186.jpg,badlands_186.jpg,2.0,left,3.5506,1.0,bridge,bridge_75.jpg,5.71875,0.5762,AVK8FE2J4KJ9U
81,AVK8FE2J4KJ9U,30,Male,mountain_156.jpg,mountain_128.jpg,mountain_156.jpg,right,bridge_47.jpg,badlands_64.jpg,mountain_156.jpg,highway_249.jpg,highway_249.jpg,highway_249.jpg,2.0,right,2.8627,0.0,mountain,mountain_128.jpg,6.458333333,0.8176,AVK8FE2J4KJ9U
82,AVK8FE2J4KJ9U,30,Male,badlands_24.jpg,badlands_53.jpg,badlands_24.jpg,right,bridge_257.jpg,playground_7.jpg,badlands_24.jpg,mountain_253.jpg,mountain_253.jpg,mountain_253.jpg,2.0,right,3.9883,1.0,badlands,badlands_53.jpg,7.427083333,0.8279,AVK8FE2J4KJ9U
83,AVK8FE2J4KJ9U,30,Male,mountain_57.jpg,mountain_57.jpg,mountain_193.jpg,left,highway_99.jpg,playground_77.jpg,mountain_57.jpg,golf_course_223.jpg,golf_course_223.jpg,golf_course_223.jpg,2.0,left,1.9655,0.0,mountain,mountain_193.jpg,8.229166667,0.9409,AVK8FE2J4KJ9U
84,AVK8FE2J4KJ9U,30,Male,playground_131.jpg,playground_131.jpg,playground_43.jpg,left,highway_325.jpg,playground_131.jpg,mountain_44.jpg,badlands_153.jpg,badlands_153.jpg,badlands_153.jpg,1.0,left,1.2037,0.0,playground,playground_43.jpg,1.40625,2.1413,AVK8FE2J4KJ9U
85,AVK8FE2J4KJ9U,30,Male,highway_177.jpg,highway_177.jpg,highway_87.jpg,left,highway_177.jpg,mountain_292.jpg,badlands_143.jpg,playground_264.jpg,playground_264.jpg,playground_264.jpg,0.0,left,2.3859,0.0,highway,highway_87.jpg,2.645833333,0.8317,AVK8FE2J4KJ9U
86,AVK8FE2J4KJ9U,30,Male,bridge_108.jpg,bridge_116.jpg,bridge_108.jpg,right,golf_course_57.jpg,bridge_108.jpg,badlands_176.jpg,mountain_179.jpg,mountain_179.jpg,mountain_179.jpg,1.0,left,1.5073,0.0,bridge,bridge_116.jpg,3.71875,0.7258,AVK8FE2J4KJ9U
87,AVK8FE2J4KJ9U,30,Male,bridge_250.jpg,bridge_205.jpg,bridge_250.jpg,right,badlands_35.jpg,bridge_250.jpg,mountain_126.jpg,playground_25.jpg,playground_25.jpg,playground_25.jpg,1.0,left,0.6347,1.0,bridge,bridge_205.jpg,4.614583333,1.1618,AVK8FE2J4KJ9U
88,AVK8FE2J4KJ9U,30,Male,bridge_256.jpg,bridge_256.jpg,bridge_211.jpg,left,mountain_111.jpg,bridge_256.jpg,highway_398.jpg,golf_course_204.jpg,golf_course_204.jpg,golf_course_204.jpg,1.0,left,1.0103,1.0,bridge,bridge_211.jpg,5.40625,0.637,AVK8FE2J4KJ9U
89,AVK8FE2J4KJ9U,30,Male,golf_course_188.jpg,golf_course_188.jpg,golf_course_157.jpg,left,bridge_158.jpg,golf_course_188.jpg,badlands_180.jpg,highway_37.jpg,highway_37.jpg,highway_37.jpg,1.0,right,0.8927,0.0,golf,golf_course_157.jpg,6.322916667,1.274,AVK8FE2J4KJ9U
90,AVK8FE2J4KJ9U,30,Male,badlands_52.jpg,badlands_94.jpg,badlands_52.jpg,right,badlands_52.jpg,highway_75.jpg,mountain_160.jpg,golf_course_159.jpg,golf_course_159.jpg,golf_course_159.jpg,0.0,left,36.8369,0.0,badlands,badlands_94.jpg,7.208333333,0.8189,AVK8FE2J4KJ9U
91,AVK8FE2J4KJ9U,30,Male,playground_257.jpg,playground_257.jpg,playground_215.jpg,left,highway_18.jpg,badlands_149.jpg,playground_257.jpg,golf_course_21.jpg,golf_course_21.jpg,golf_course_21.jpg,2.0,left,29.847,1.0,playground,playground_215.jpg,8.322916667,0.918,AVK8FE2J4KJ9U
92,AVK8FE2J4KJ9U,30,Male,highway_245.jpg,highway_245.jpg,highway_134.jpg,left,highway_245.jpg,mountain_24.jpg,bridge_230.jpg,golf_course_260.jpg,golf_course_260.jpg,golf_course_260.jpg,0.0,left,15.0702,0.0,highway,highway_134.jpg,1.458333333,2.1608,AVK8FE2J4KJ9U
93,AVK8FE2J4KJ9U,30,Male,badlands_113.jpg,badlands_225.jpg,badlands_113.jpg,right,badlands_113.jpg,mountain_204.jpg,highway_402.jpg,golf_course_1.jpg,golf_course_1.jpg,golf_course_1.jpg,0.0,left,4.8197,0.0,badlands,badlands_225.jpg,2.677083333,1.6056,AVK8FE2J4KJ9U
94,AVK8FE2J4KJ9U,30,Male,playground_117.jpg,playground_117.jpg,playground_167.jpg,left,playground_117.jpg,golf_course_122.jpg,highway_23.jpg,mountain_84.jpg,mountain_84.jpg,mountain_84.jpg,0.0,left,5.1278,0.0,playground,playground_167.jpg,3.4375,1.1695,AVK8FE2J4KJ9U
95,AVK8FE2J4KJ9U,30,Male,playground_10.jpg,playground_12.jpg,playground_10.jpg,right,playground_10.jpg,mountain_132.jpg,highway_357.jpg,bridge_239.jpg,bridge_239.jpg,bridge_239.jpg,0.0,right,1.0865,1.0,playground,playground_12.jpg,4.583333333,0.6564,AVK8FE2J4KJ9U
96,AVK8FE2J4KJ9U,30,Male,badlands_70.jpg,badlands_119.jpg,badlands_70.jpg,right,badlands_70.jpg,playground_80.jpg,mountain_15.jpg,highway_147.jpg,highway_147.jpg,highway_147.jpg,0.0,left,0.7561,1.0,badlands,badlands_119.jpg,5.604166667,1.2941,AVK8FE2J4KJ9U
97,AVK8FE2J4KJ9U,30,Male,playground_219.jpg,playground_205.jpg,playground_219.jpg,right,golf_course_321.jpg,playground_219.jpg,bridge_49.jpg,mountain_228.jpg,mountain_228.jpg,mountain_228.jpg,1.0,left,3.1289,1.0,playground,playground_205.jpg,6.375,0.9014,AVK8FE2J4KJ9U
98,AVK8FE2J4KJ9U,30,Male,highway_273.jpg,highway_171.jpg,highway_273.jpg,right,playground_70.jpg,highway_273.jpg,mountain_26.jpg,golf_course_316.jpg,golf_course_316.jpg,golf_course_316.jpg,1.0,left,1.278,1.0,highway,highway_171.jpg,7.239583333,1.0225,AVK8FE2J4KJ9U
99,AVK8FE2J4KJ9U,30,Male,bridge_91.jpg,bridge_91.jpg,bridge_253.jpg,left,bridge_91.jpg,golf_course_206.jpg,mountain_34.jpg,badlands_54.jpg,badlands_54.jpg,badlands_54.jpg,0.0,left,2.6153,0.0,bridge,bridge_253.jpg,8.135416667,1.0803,AVK8FE2J4KJ9U
100,AVK8FE2J4KJ9U,30,Male,golf_course_87.jpg,golf_course_130.jpg,golf_course_87.jpg,right,bridge_169.jpg,badlands_174.jpg,golf_course_87.jpg,playground_36.jpg,playground_36.jpg,playground_36.jpg,2.0,left,1.1351,0.0,golf,golf_course_130.jpg,1.40625,2.2699,AVK8FE2J4KJ9U
101,AVK8FE2J4KJ9U,30,Male,mountain_230.jpg,mountain_97.jpg,mountain_230.jpg,right,badlands_200.jpg,golf_course_46.jpg,mountain_230.jpg,playground_249.jpg,playground_249.jpg,playground_249.jpg,2.0,left,14.8697,1.0,mountain,mountain_97.jpg,2.520833333,0.9098,AVK8FE2J4KJ9U
102,AVK8FE2J4KJ9U,30,Male,badlands_222.jpg,badlands_222.jpg,badlands_62.jpg,left,highway_25.jpg,bridge_204.jpg,badlands_222.jpg,playground_54.jpg,playground_54.jpg,playground_54.jpg,2.0,right,2.8486,1.0,badlands,badlands_62.jpg,3.416666667,1.1968,AVK8FE2J4KJ9U
103,AVK8FE2J4KJ9U,30,Male,playground_60.jpg,playground_60.jpg,playground_268.jpg,left,badlands_166.jpg,playground_60.jpg,highway_179.jpg,bridge_64.jpg,bridge_64.jpg,bridge_64.jpg,1.0,left,10.4322,0.0,playground,playground_268.jpg,4.5,1.263,AVK8FE2J4KJ9U
104,AVK8FE2J4KJ9U,30,Male,badlands_21.jpg,badlands_98.jpg,badlands_21.jpg,right,badlands_21.jpg,playground_124.jpg,bridge_179.jpg,golf_course_58.jpg,golf_course_58.jpg,golf_course_58.jpg,0.0,right,6.6597,1.0,badlands,badlands_98.jpg,5.302083333,1.1723,AVK8FE2J4KJ9U
105,AVK8FE2J4KJ9U,30,Male,highway_294.jpg,highway_294.jpg,highway_203.jpg,left,bridge_106.jpg,highway_294.jpg,badlands_13.jpg,playground_30.jpg,playground_30.jpg,playground_30.jpg,1.0,right,6.8721,0.0,highway,highway_203.jpg,6.322916667,1.1805,AVK8FE2J4KJ9U
106,AVK8FE2J4KJ9U,30,Male,golf_course_193.jpg,golf_course_123.jpg,golf_course_193.jpg,right,highway_13.jpg,golf_course_193.jpg,badlands_210.jpg,bridge_123.jpg,bridge_123.jpg,bridge_123.jpg,1.0,left,3.1338,1.0,golf,golf_course_123.jpg,7.28125,1.1045,AVK8FE2J4KJ9U
107,AVK8FE2J4KJ9U,30,Male,bridge_172.jpg,bridge_172.jpg,bridge_163.jpg,left,bridge_172.jpg,golf_course_329.jpg,playground_172.jpg,highway_146.jpg,highway_146.jpg,highway_146.jpg,0.0,left,5.6558,1.0,bridge,bridge_163.jpg,8.322916667,1.1168,AVK8FE2J4KJ9U
108,AVK8FE2J4KJ9U,30,Male,badlands_184.jpg,badlands_103.jpg,badlands_184.jpg,right,highway_166.jpg,golf_course_320.jpg,badlands_184.jpg,bridge_238.jpg,bridge_238.jpg,bridge_238.jpg,2.0,right,5.6202,1.0,badlands,badlands_103.jpg,1.416666667,2.1891,AVK8FE2J4KJ9U
109,AVK8FE2J4KJ9U,30,Male,bridge_202.jpg,bridge_31.jpg,bridge_202.jpg,right,mountain_280.jpg,highway_342.jpg,bridge_202.jpg,playground_181.jpg,playground_181.jpg,playground_181.jpg,2.0,right,9.4357,0.0,bridge,bridge_31.jpg,2.6875,1.3444,AVK8FE2J4KJ9U
110,AVK8FE2J4KJ9U,30,Male,playground_240.jpg,playground_40.jpg,playground_240.jpg,right,badlands_95.jpg,mountain_4.jpg,playground_240.jpg,golf_course_60.jpg,golf_course_60.jpg,golf_course_60.jpg,2.0,right,3.9265,1.0,playground,playground_40.jpg,3.541666667,0.8277,AVK8FE2J4KJ9U
111,AVK8FE2J4KJ9U,30,Male,highway_156.jpg,highway_293.jpg,highway_156.jpg,right,highway_156.jpg,bridge_120.jpg,golf_course_52.jpg,badlands_27.jpg,badlands_27.jpg,badlands_27.jpg,0.0,left,2.447,1.0,highway,highway_293.jpg,4.614583333,1.1789,AVK8FE2J4KJ9U
112,AVK8FE2J4KJ9U,30,Male,highway_394.jpg,highway_406.jpg,highway_394.jpg,right,highway_394.jpg,bridge_264.jpg,golf_course_166.jpg,playground_173.jpg,playground_173.jpg,playground_173.jpg,0.0,left,1.7306,1.0,highway,highway_406.jpg,5.625,0.6878,AVK8FE2J4KJ9U
113,AVK8FE2J4KJ9U,30,Male,bridge_65.jpg,bridge_181.jpg,bridge_65.jpg,right,mountain_115.jpg,golf_course_325.jpg,bridge_65.jpg,playground_6.jpg,playground_6.jpg,playground_6.jpg,2.0,right,2.8228,0.0,bridge,bridge_181.jpg,6.416666667,1.855,AVK8FE2J4KJ9U
114,AVK8FE2J4KJ9U,30,Male,bridge_146.jpg,bridge_27.jpg,bridge_146.jpg,right,bridge_146.jpg,playground_13.jpg,highway_88.jpg,golf_course_152.jpg,golf_course_152.jpg,golf_course_152.jpg,0.0,left,1.0458,0.0,bridge,bridge_27.jpg,7.270833333,0.8453,AVK8FE2J4KJ9U
115,AVK8FE2J4KJ9U,30,Male,golf_course_309.jpg,golf_course_209.jpg,golf_course_309.jpg,right,highway_261.jpg,playground_168.jpg,golf_course_309.jpg,bridge_2.jpg,bridge_2.jpg,bridge_2.jpg,2.0,left,1.0519,1.0,golf,golf_course_209.jpg,8.25,1.1835,AVK8FE2J4KJ9U
116,AVK8FE2J4KJ9U,30,Male,mountain_222.jpg,mountain_244.jpg,mountain_222.jpg,right,mountain_222.jpg,badlands_108.jpg,bridge_132.jpg,highway_159.jpg,highway_159.jpg,highway_159.jpg,0.0,left,1.4786,0.0,mountain,mountain_244.jpg,1.40625,2.2948,AVK8FE2J4KJ9U
117,AVK8FE2J4KJ9U,30,Male,mountain_123.jpg,mountain_189.jpg,mountain_123.jpg,right,bridge_48.jpg,playground_42.jpg,mountain_123.jpg,golf_course_264.jpg,golf_course_264.jpg,golf_course_264.jpg,2.0,left,1.385,1.0,mountain,mountain_189.jpg,2.541666667,1.6168,AVK8FE2J4KJ9U
118,AVK8FE2J4KJ9U,30,Male,golf_course_78.jpg,golf_course_78.jpg,golf_course_101.jpg,left,golf_course_78.jpg,highway_11.jpg,bridge_25.jpg,badlands_45.jpg,badlands_45.jpg,badlands_45.jpg,0.0,left,0.7914,1.0,golf,golf_course_101.jpg,3.510416667,1.198,AVK8FE2J4KJ9U
119,AVK8FE2J4KJ9U,30,Male,mountain_232.jpg,mountain_3.jpg,mountain_232.jpg,right,mountain_232.jpg,highway_234.jpg,golf_course_258.jpg,badlands_177.jpg,badlands_177.jpg,badlands_177.jpg,0.0,left,1.5486,0.0,mountain,mountain_3.jpg,3.5,1.004,AVK8FE2J4KJ9U
120,A1NOS2SUAJVMTC,30,MALE,mountain_101.jpg,mountain_171.jpg,mountain_101.jpg,right,highway_219.jpg,mountain_101.jpg,playground_90.jpg,bridge_18.jpg,bridge_18.jpg,bridge_18.jpg,1.0,right,1.51,0.0,mountain,mountain_171.jpg,7.947916667,2.85,A1NOS2SUAJVMTC
121,A1NOS2SUAJVMTC,30,MALE,bridge_146.jpg,bridge_146.jpg,bridge_121.jpg,left,mountain_233.jpg,badlands_153.jpg,bridge_146.jpg,golf_course_58.jpg,golf_course_58.jpg,golf_course_58.jpg,2.0,left,1.178,1.0,bridge,bridge_121.jpg,7.302083333,2.54,A1NOS2SUAJVMTC
122,A1NOS2SUAJVMTC,30,MALE,highway_394.jpg,highway_394.jpg,highway_406.jpg,left,mountain_199.jpg,highway_394.jpg,playground_30.jpg,golf_course_46.jpg,golf_course_46.jpg,golf_course_46.jpg,1.0,right,0.859,1.0,highway,highway_406.jpg,8.947916667,8.206,A1NOS2SUAJVMTC
123,A1NOS2SUAJVMTC,30,MALE,badlands_23.jpg,badlands_101.jpg,badlands_23.jpg,right,highway_159.jpg,badlands_23.jpg,golf_course_83.jpg,mountain_71.jpg,mountain_71.jpg,mountain_71.jpg,1.0,left,0.907,1.0,badlands,badlands_101.jpg,8.614583333,4.139,A1NOS2SUAJVMTC
124,A1NOS2SUAJVMTC,30,MALE,golf_course_78.jpg,golf_course_78.jpg,golf_course_134.jpg,left,highway_99.jpg,golf_course_78.jpg,playground_6.jpg,bridge_182.jpg,bridge_182.jpg,bridge_182.jpg,1.0,right,3.239,0.0,golf,golf_course_134.jpg,8.385416667,13.601,A1NOS2SUAJVMTC
125,A1NOS2SUAJVMTC,30,MALE,highway_156.jpg,highway_156.jpg,highway_160.jpg,left,highway_156.jpg,mountain_66.jpg,playground_235.jpg,badlands_38.jpg,badlands_38.jpg,badlands_38.jpg,0.0,left,1.835,0.0,highway,highway_160.jpg,8.385416667,1.368,A1NOS2SUAJVMTC
126,A1NOS2SUAJVMTC,30,MALE,badlands_137.jpg,badlands_139.jpg,badlands_137.jpg,right,badlands_137.jpg,playground_181.jpg,mountain_34.jpg,golf_course_21.jpg,golf_course_21.jpg,golf_course_21.jpg,0.0,left,3.794,1.0,badlands,badlands_139.jpg,8.03125,2.12,A1NOS2SUAJVMTC
127,A1NOS2SUAJVMTC,30,MALE,bridge_250.jpg,bridge_250.jpg,bridge_134.jpg,left,bridge_250.jpg,golf_course_290.jpg,highway_196.jpg,mountain_214.jpg,mountain_214.jpg,mountain_214.jpg,0.0,left,1.718,0.0,bridge,bridge_134.jpg,8.03125,0.86,A1NOS2SUAJVMTC
128,A1NOS2SUAJVMTC,30,MALE,playground_10.jpg,playground_10.jpg,playground_12.jpg,left,highway_146.jpg,playground_10.jpg,badlands_30.jpg,mountain_68.jpg,mountain_68.jpg,mountain_68.jpg,1.0,right,1.344,1.0,playground,playground_12.jpg,8.020833333,1.122,A1NOS2SUAJVMTC
129,A1NOS2SUAJVMTC,30,MALE,badlands_222.jpg,badlands_34.jpg,badlands_222.jpg,right,badlands_222.jpg,bridge_26.jpg,mountain_91.jpg,golf_course_33.jpg,golf_course_33.jpg,golf_course_33.jpg,0.0,left,9.961,0.0,badlands,badlands_34.jpg,8.020833333,1.172,A1NOS2SUAJVMTC
130,A1NOS2SUAJVMTC,30,MALE,highway_209.jpg,highway_122.jpg,highway_209.jpg,right,mountain_202.jpg,badlands_64.jpg,highway_209.jpg,bridge_120.jpg,bridge_120.jpg,bridge_120.jpg,2.0,left,7.205,1.0,highway,highway_122.jpg,7.697916667,1.261,A1NOS2SUAJVMTC
131,A1NOS2SUAJVMTC,30,MALE,badlands_70.jpg,badlands_70.jpg,badlands_119.jpg,left,golf_course_337.jpg,badlands_70.jpg,bridge_78.jpg,highway_244.jpg,highway_244.jpg,highway_244.jpg,1.0,right,4.357,1.0,badlands,badlands_119.jpg,7.5625,0.875,A1NOS2SUAJVMTC
132,A1NOS2SUAJVMTC,30,MALE,golf_course_214.jpg,golf_course_214.jpg,golf_course_317.jpg,left,golf_course_214.jpg,bridge_123.jpg,mountain_162.jpg,highway_117.jpg,highway_117.jpg,highway_117.jpg,0.0,left,3.112,1.0,golf,golf_course_317.jpg,7.635416667,0.553,A1NOS2SUAJVMTC
133,A1NOS2SUAJVMTC,30,MALE,highway_273.jpg,highway_171.jpg,highway_273.jpg,right,playground_241.jpg,badlands_89.jpg,highway_273.jpg,golf_course_316.jpg,golf_course_316.jpg,golf_course_316.jpg,2.0,right,0.804,1.0,highway,highway_171.jpg,7.635416667,1.161,A1NOS2SUAJVMTC
134,A1NOS2SUAJVMTC,30,MALE,playground_145.jpg,playground_242.jpg,playground_145.jpg,right,mountain_166.jpg,playground_145.jpg,bridge_239.jpg,badlands_143.jpg,badlands_143.jpg,badlands_143.jpg,1.0,left,2.391,1.0,playground,playground_242.jpg,8.4375,2.474,A1NOS2SUAJVMTC
135,A1NOS2SUAJVMTC,30,MALE,golf_course_217.jpg,golf_course_262.jpg,golf_course_217.jpg,right,golf_course_217.jpg,badlands_35.jpg,bridge_80.jpg,playground_183.jpg,playground_183.jpg,playground_183.jpg,0.0,left,4.255,1.0,golf,golf_course_262.jpg,6.614583333,1.426,A1NOS2SUAJVMTC
136,A1NOS2SUAJVMTC,30,MALE,playground_219.jpg,playground_219.jpg,playground_205.jpg,left,playground_219.jpg,bridge_238.jpg,golf_course_320.jpg,highway_331.jpg,highway_331.jpg,highway_331.jpg,0.0,right,3.735,1.0,playground,playground_205.jpg,7.729166667,2.108,A1NOS2SUAJVMTC
137,A1NOS2SUAJVMTC,30,MALE,playground_60.jpg,playground_60.jpg,playground_268.jpg,left,badlands_130.jpg,mountain_132.jpg,playground_60.jpg,golf_course_229.jpg,golf_course_229.jpg,golf_course_229.jpg,2.0,right,6.536,0.0,playground,playground_268.jpg,8.25,4.205,A1NOS2SUAJVMTC
138,A1NOS2SUAJVMTC,30,MALE,badlands_21.jpg,badlands_21.jpg,badlands_1.jpg,left,golf_course_206.jpg,playground_108.jpg,badlands_21.jpg,highway_248.jpg,highway_248.jpg,highway_248.jpg,2.0,left,1.517,0.0,badlands,badlands_1.jpg,6.645833333,3.85,A1NOS2SUAJVMTC
139,A1NOS2SUAJVMTC,30,MALE,playground_131.jpg,playground_43.jpg,playground_131.jpg,right,playground_131.jpg,highway_25.jpg,badlands_99.jpg,mountain_126.jpg,mountain_126.jpg,mountain_126.jpg,0.0,right,0.614,0.0,playground,playground_43.jpg,6.635416667,1.613,A1NOS2SUAJVMTC
140,A1NOS2SUAJVMTC,30,MALE,golf_course_193.jpg,golf_course_193.jpg,golf_course_123.jpg,left,golf_course_193.jpg,playground_103.jpg,mountain_84.jpg,highway_88.jpg,highway_88.jpg,highway_88.jpg,0.0,right,6.458,1.0,golf,golf_course_123.jpg,6.635416667,0.366,A1NOS2SUAJVMTC
141,A1NOS2SUAJVMTC,30,MALE,golf_course_195.jpg,golf_course_195.jpg,golf_course_25.jpg,left,highway_261.jpg,golf_course_195.jpg,bridge_264.jpg,playground_124.jpg,playground_124.jpg,playground_124.jpg,1.0,left,1.491,0.0,golf,golf_course_25.jpg,8.229166667,4.056,A1NOS2SUAJVMTC
142,A1NOS2SUAJVMTC,30,MALE,highway_415.jpg,highway_415.jpg,highway_174.jpg,left,playground_5.jpg,bridge_218.jpg,highway_415.jpg,badlands_176.jpg,badlands_176.jpg,badlands_176.jpg,2.0,right,2.024,1.0,highway,highway_174.jpg,8.739583333,7.617,A1NOS2SUAJVMTC
143,A1NOS2SUAJVMTC,30,MALE,highway_93.jpg,highway_93.jpg,highway_85.jpg,left,highway_93.jpg,golf_course_1.jpg,bridge_251.jpg,mountain_12.jpg,mountain_12.jpg,mountain_12.jpg,0.0,left,3.854,0.0,highway,highway_85.jpg,8.75,2.068,A1NOS2SUAJVMTC
144,A1NOS2SUAJVMTC,30,MALE,playground_117.jpg,playground_167.jpg,playground_117.jpg,right,playground_117.jpg,golf_course_156.jpg,mountain_115.jpg,badlands_104.jpg,badlands_104.jpg,badlands_104.jpg,0.0,left,2.943,0.0,playground,playground_167.jpg,8.791666667,12.914,A1NOS2SUAJVMTC
145,A1NOS2SUAJVMTC,30,MALE,bridge_128.jpg,bridge_244.jpg,bridge_128.jpg,right,highway_12.jpg,bridge_128.jpg,mountain_224.jpg,golf_course_102.jpg,golf_course_102.jpg,golf_course_102.jpg,1.0,left,11.115,1.0,bridge,bridge_244.jpg,8.458333333,4.019,A1NOS2SUAJVMTC
146,A1NOS2SUAJVMTC,30,MALE,mountain_154.jpg,mountain_154.jpg,mountain_95.jpg,left,mountain_154.jpg,playground_173.jpg,highway_18.jpg,bridge_169.jpg,bridge_169.jpg,bridge_169.jpg,0.0,left,8.167,1.0,mountain,mountain_95.jpg,8.4375,22.182,A1NOS2SUAJVMTC
147,A1NOS2SUAJVMTC,30,MALE,mountain_57.jpg,mountain_193.jpg,mountain_57.jpg,right,badlands_226.jpg,mountain_57.jpg,playground_95.jpg,bridge_9.jpg,bridge_9.jpg,bridge_9.jpg,1.0,right,1.845,0.0,mountain,mountain_193.jpg,7.885416667,3.089,A1NOS2SUAJVMTC
148,A1NOS2SUAJVMTC,30,MALE,bridge_65.jpg,bridge_65.jpg,bridge_60.jpg,left,golf_course_258.jpg,bridge_65.jpg,playground_178.jpg,badlands_45.jpg,badlands_45.jpg,badlands_45.jpg,1.0,right,4.976,1.0,bridge,bridge_60.jpg,7.885416667,2.543,A1NOS2SUAJVMTC
149,A1NOS2SUAJVMTC,30,MALE,mountain_156.jpg,mountain_128.jpg,mountain_156.jpg,right,highway_357.jpg,mountain_156.jpg,bridge_132.jpg,badlands_200.jpg,badlands_200.jpg,badlands_200.jpg,1.0,left,3.182,0.0,mountain,mountain_128.jpg,7.885416667,2.363,A1NOS2SUAJVMTC
150,A1NOS2SUAJVMTC,30,MALE,badlands_113.jpg,badlands_225.jpg,badlands_113.jpg,right,playground_191.jpg,golf_course_325.jpg,badlands_113.jpg,highway_227.jpg,highway_227.jpg,highway_227.jpg,2.0,right,4.202,0.0,badlands,badlands_225.jpg,7.416666667,2.102,A1NOS2SUAJVMTC
151,A1NOS2SUAJVMTC,30,MALE,highway_359.jpg,highway_389.jpg,highway_359.jpg,right,mountain_253.jpg,playground_80.jpg,highway_359.jpg,bridge_162.jpg,bridge_162.jpg,bridge_162.jpg,2.0,left,4.805,0.0,highway,highway_389.jpg,7.416666667,3.1,A1NOS2SUAJVMTC
152,A1NOS2SUAJVMTC,30,MALE,playground_257.jpg,playground_215.jpg,playground_257.jpg,right,badlands_54.jpg,playground_257.jpg,highway_398.jpg,mountain_280.jpg,mountain_280.jpg,mountain_280.jpg,1.0,right,2.844,1.0,playground,playground_215.jpg,7.416666667,0.912,A1NOS2SUAJVMTC
153,A1NOS2SUAJVMTC,30,MALE,bridge_202.jpg,bridge_38.jpg,bridge_202.jpg,right,badlands_173.jpg,bridge_202.jpg,mountain_21.jpg,highway_263.jpg,highway_263.jpg,highway_263.jpg,1.0,right,8.721,1.0,bridge,bridge_38.jpg,7.416666667,0.636,A1NOS2SUAJVMTC
154,A1NOS2SUAJVMTC,30,MALE,playground_240.jpg,playground_40.jpg,playground_240.jpg,right,golf_course_329.jpg,mountain_301.jpg,playground_240.jpg,highway_23.jpg,highway_23.jpg,highway_23.jpg,2.0,right,10.393,1.0,playground,playground_40.jpg,7.40625,0.586,A1NOS2SUAJVMTC
155,A1NOS2SUAJVMTC,30,MALE,bridge_172.jpg,bridge_17.jpg,bridge_172.jpg,right,mountain_228.jpg,playground_52.jpg,bridge_172.jpg,badlands_58.jpg,badlands_58.jpg,badlands_58.jpg,2.0,left,4.265,0.0,bridge,bridge_17.jpg,7.40625,2.083,A1NOS2SUAJVMTC
156,A1NOS2SUAJVMTC,30,MALE,highway_245.jpg,highway_245.jpg,highway_206.jpg,left,bridge_206.jpg,playground_193.jpg,highway_245.jpg,mountain_4.jpg,mountain_4.jpg,mountain_4.jpg,2.0,right,0.395,1.0,highway,highway_206.jpg,6.302083333,1.346,A1NOS2SUAJVMTC
157,A1NOS2SUAJVMTC,30,MALE,badlands_24.jpg,badlands_3.jpg,badlands_24.jpg,right,playground_46.jpg,mountain_24.jpg,badlands_24.jpg,highway_179.jpg,highway_179.jpg,highway_179.jpg,2.0,left,4.071,0.0,badlands,badlands_3.jpg,6.28125,0.377,A1NOS2SUAJVMTC
158,A1NOS2SUAJVMTC,30,MALE,mountain_293.jpg,mountain_72.jpg,mountain_293.jpg,right,mountain_293.jpg,badlands_75.jpg,bridge_64.jpg,highway_333.jpg,highway_333.jpg,highway_333.jpg,0.0,right,1.204,0.0,mountain,mountain_72.jpg,8.114583333,0.607,A1NOS2SUAJVMTC
159,A1NOS2SUAJVMTC,30,MALE,playground_144.jpg,playground_144.jpg,playground_65.jpg,left,badlands_180.jpg,highway_175.jpg,playground_144.jpg,mountain_235.jpg,mountain_235.jpg,mountain_235.jpg,2.0,right,15.113,1.0,playground,playground_65.jpg,6.135416667,0.879,A1NOS2SUAJVMTC
160,A1NOS2SUAJVMTC,30,MALE,badlands_184.jpg,badlands_228.jpg,badlands_184.jpg,right,playground_77.jpg,badlands_184.jpg,mountain_179.jpg,golf_course_321.jpg,golf_course_321.jpg,golf_course_321.jpg,1.0,left,0.012,0.0,badlands,badlands_228.jpg,5.645833333,0.805,A1NOS2SUAJVMTC
161,A1NOS2SUAJVMTC,30,MALE,bridge_91.jpg,bridge_91.jpg,bridge_82.jpg,left,bridge_91.jpg,playground_70.jpg,highway_234.jpg,golf_course_128.jpg,golf_course_128.jpg,golf_course_128.jpg,0.0,right,0.513,1.0,bridge,bridge_82.jpg,7.354166667,1.122,A1NOS2SUAJVMTC
162,A1NOS2SUAJVMTC,30,MALE,mountain_222.jpg,mountain_222.jpg,mountain_244.jpg,left,bridge_230.jpg,golf_course_57.jpg,mountain_222.jpg,highway_301.jpg,highway_301.jpg,highway_301.jpg,2.0,right,0.314,0.0,mountain,mountain_244.jpg,4.875,0.527,A1NOS2SUAJVMTC
163,A1NOS2SUAJVMTC,30,MALE,golf_course_188.jpg,golf_course_157.jpg,golf_course_188.jpg,right,golf_course_188.jpg,bridge_263.jpg,badlands_142.jpg,highway_37.jpg,highway_37.jpg,highway_37.jpg,0.0,left,0.287,0.0,golf,golf_course_157.jpg,7.520833333,0.847,A1NOS2SUAJVMTC
164,A1NOS2SUAJVMTC,30,MALE,golf_course_331.jpg,golf_course_114.jpg,golf_course_331.jpg,right,golf_course_331.jpg,playground_259.jpg,bridge_158.jpg,badlands_216.jpg,badlands_216.jpg,badlands_216.jpg,0.0,right,0.011,0.0,golf,golf_course_114.jpg,5.40625,0.679,A1NOS2SUAJVMTC
165,A1NOS2SUAJVMTC,30,MALE,golf_course_87.jpg,golf_course_87.jpg,golf_course_161.jpg,left,playground_264.jpg,highway_402.jpg,golf_course_87.jpg,bridge_124.jpg,bridge_124.jpg,bridge_124.jpg,2.0,right,0.011,1.0,golf,golf_course_161.jpg,7.916666667,1.05,A1NOS2SUAJVMTC
166,A1NOS2SUAJVMTC,30,MALE,bridge_256.jpg,bridge_211.jpg,bridge_256.jpg,right,golf_course_88.jpg,badlands_149.jpg,bridge_256.jpg,mountain_212.jpg,mountain_212.jpg,mountain_212.jpg,2.0,right,1.173,1.0,bridge,bridge_211.jpg,4.833333333,0.919,A1NOS2SUAJVMTC
167,A1NOS2SUAJVMTC,30,MALE,badlands_52.jpg,badlands_52.jpg,badlands_94.jpg,left,mountain_307.jpg,badlands_52.jpg,bridge_34.jpg,golf_course_260.jpg,golf_course_260.jpg,golf_course_260.jpg,1.0,left,0.014,0.0,badlands,badlands_94.jpg,7.4375,0.623,A1NOS2SUAJVMTC
168,A1NOS2SUAJVMTC,30,MALE,mountain_232.jpg,mountain_232.jpg,mountain_3.jpg,left,mountain_232.jpg,golf_course_43.jpg,playground_13.jpg,highway_112.jpg,highway_112.jpg,highway_112.jpg,0.0,right,1.335,0.0,mountain,mountain_3.jpg,5.3125,0.579,A1NOS2SUAJVMTC
169,A1NOS2SUAJVMTC,30,MALE,badlands_221.jpg,badlands_115.jpg,badlands_221.jpg,right,badlands_221.jpg,playground_54.jpg,bridge_49.jpg,highway_144.jpg,highway_144.jpg,highway_144.jpg,0.0,left,1.786,0.0,badlands,badlands_115.jpg,7.895833333,0.717,A1NOS2SUAJVMTC
170,A1NOS2SUAJVMTC,30,MALE,highway_177.jpg,highway_278.jpg,highway_177.jpg,right,bridge_257.jpg,mountain_26.jpg,highway_177.jpg,playground_42.jpg,playground_42.jpg,playground_42.jpg,2.0,left,1.838,1.0,highway,highway_278.jpg,6.28125,0.602,A1NOS2SUAJVMTC
171,A1NOS2SUAJVMTC,30,MALE,mountain_110.jpg,mountain_157.jpg,mountain_110.jpg,right,mountain_110.jpg,playground_36.jpg,badlands_100.jpg,highway_166.jpg,highway_166.jpg,highway_166.jpg,0.0,right,0.011,0.0,mountain,mountain_157.jpg,8.854166667,0.349,A1NOS2SUAJVMTC
172,A1NOS2SUAJVMTC,30,MALE,highway_294.jpg,highway_368.jpg,highway_294.jpg,right,mountain_296.jpg,highway_294.jpg,bridge_179.jpg,golf_course_166.jpg,golf_course_166.jpg,golf_course_166.jpg,1.0,left,19.813,1.0,highway,highway_368.jpg,5.822916667,0.903,A1NOS2SUAJVMTC
173,A1NOS2SUAJVMTC,30,MALE,golf_course_309.jpg,golf_course_209.jpg,golf_course_309.jpg,right,golf_course_309.jpg,mountain_292.jpg,playground_123.jpg,badlands_193.jpg,badlands_193.jpg,badlands_193.jpg,0.0,right,0.645,1.0,golf,golf_course_209.jpg,8.322916667,0.391,A1NOS2SUAJVMTC
174,A1NOS2SUAJVMTC,30,MALE,playground_76.jpg,playground_76.jpg,playground_72.jpg,left,golf_course_159.jpg,playground_76.jpg,mountain_111.jpg,bridge_25.jpg,bridge_25.jpg,bridge_25.jpg,1.0,right,0.016,1.0,playground,playground_72.jpg,5.114583333,0.911,A1NOS2SUAJVMTC
175,A1NOS2SUAJVMTC,30,MALE,mountain_123.jpg,mountain_123.jpg,mountain_94.jpg,left,mountain_123.jpg,playground_116.jpg,bridge_2.jpg,badlands_166.jpg,badlands_166.jpg,badlands_166.jpg,0.0,left,0.016,0.0,mountain,mountain_94.jpg,7.6875,0.59,A1NOS2SUAJVMTC
176,A1NOS2SUAJVMTC,30,MALE,mountain_230.jpg,mountain_230.jpg,mountain_184.jpg,left,golf_course_52.jpg,mountain_230.jpg,playground_158.jpg,bridge_52.jpg,bridge_52.jpg,bridge_52.jpg,1.0,right,0.013,0.0,mountain,mountain_184.jpg,4.770833333,0.983,A1NOS2SUAJVMTC
177,A1NOS2SUAJVMTC,30,MALE,bridge_191.jpg,bridge_191.jpg,bridge_184.jpg,left,bridge_191.jpg,playground_209.jpg,golf_course_152.jpg,badlands_31.jpg,badlands_31.jpg,badlands_31.jpg,0.0,right,0.011,0.0,bridge,bridge_184.jpg,7.96875,0.286,A1NOS2SUAJVMTC
178,A1NOS2SUAJVMTC,30,MALE,bridge_108.jpg,bridge_108.jpg,bridge_148.jpg,left,highway_249.jpg,bridge_108.jpg,playground_3.jpg,golf_course_122.jpg,golf_course_122.jpg,golf_course_122.jpg,1.0,left,0.019,1.0,bridge,bridge_148.jpg,5.84375,0.587,A1NOS2SUAJVMTC
179,A1NOS2SUAJVMTC,30,MALE,golf_course_15.jpg,golf_course_15.jpg,golf_course_113.jpg,left,mountain_160.jpg,playground_172.jpg,golf_course_15.jpg,badlands_218.jpg,badlands_218.jpg,badlands_218.jpg,2.0,left,0.015,0.0,golf,golf_course_113.jpg,8.177083333,0.647,A1NOS2SUAJVMTC
180,A2LIQCD7W2VDE8,30,male,bridge_91.jpg,bridge_91.jpg,bridge_253.jpg,left,golf_course_156.jpg,badlands_13.jpg,bridge_91.jpg,playground_52.jpg,playground_52.jpg,playground_52.jpg,2.0,left,0.8494,0.0,bridge,bridge_253.jpg,5.0,2.4935,A2LIQCD7W2VDE8
181,A2LIQCD7W2VDE8,30,male,bridge_250.jpg,bridge_134.jpg,bridge_250.jpg,right,badlands_173.jpg,mountain_34.jpg,bridge_250.jpg,golf_course_329.jpg,golf_course_329.jpg,golf_course_329.jpg,2.0,right,1.2346,0.0,bridge,bridge_134.jpg,5.96,1.0706,A2LIQCD7W2VDE8
182,A2LIQCD7W2VDE8,30,male,playground_219.jpg,playground_21.jpg,playground_219.jpg,right,playground_219.jpg,golf_course_260.jpg,bridge_18.jpg,badlands_2.jpg,badlands_2.jpg,badlands_2.jpg,0.0,left,1.908,0.0,playground,playground_21.jpg,7.0096,1.6154,A2LIQCD7W2VDE8
183,A2LIQCD7W2VDE8,30,male,golf_course_331.jpg,golf_course_26.jpg,golf_course_331.jpg,right,bridge_251.jpg,mountain_228.jpg,golf_course_331.jpg,playground_90.jpg,playground_90.jpg,playground_90.jpg,2.0,left,1.7733,1.0,golf,golf_course_26.jpg,7.9696,1.5284,A2LIQCD7W2VDE8
184,A2LIQCD7W2VDE8,30,male,badlands_137.jpg,badlands_137.jpg,badlands_139.jpg,left,highway_331.jpg,playground_168.jpg,badlands_137.jpg,bridge_52.jpg,bridge_52.jpg,bridge_52.jpg,2.0,right,0.9803,1.0,badlands,badlands_139.jpg,3.976,1.9134,A2LIQCD7W2VDE8
185,A2LIQCD7W2VDE8,30,male,bridge_172.jpg,bridge_163.jpg,bridge_172.jpg,right,bridge_172.jpg,mountain_280.jpg,playground_191.jpg,golf_course_334.jpg,golf_course_334.jpg,golf_course_334.jpg,0.0,left,1.9091,1.0,bridge,bridge_163.jpg,2.9136,1.2537,A2LIQCD7W2VDE8
186,A2LIQCD7W2VDE8,30,male,mountain_293.jpg,mountain_293.jpg,mountain_47.jpg,left,golf_course_60.jpg,mountain_293.jpg,bridge_264.jpg,highway_18.jpg,highway_18.jpg,highway_18.jpg,1.0,right,1.0566,1.0,mountain,mountain_47.jpg,6.3184,31.8216,A2LIQCD7W2VDE8
187,A2LIQCD7W2VDE8,30,male,badlands_70.jpg,badlands_70.jpg,badlands_119.jpg,left,playground_95.jpg,bridge_78.jpg,badlands_70.jpg,mountain_132.jpg,mountain_132.jpg,mountain_132.jpg,2.0,left,0.9938,1.0,badlands,badlands_119.jpg,7.4576,2.2001,A2LIQCD7W2VDE8
188,A2LIQCD7W2VDE8,30,male,golf_course_214.jpg,golf_course_312.jpg,golf_course_214.jpg,right,golf_course_214.jpg,mountain_161.jpg,playground_123.jpg,bridge_162.jpg,bridge_162.jpg,bridge_162.jpg,0.0,right,0.9995,0.0,golf,golf_course_312.jpg,8.6224,1.5277,A2LIQCD7W2VDE8
189,A2LIQCD7W2VDE8,30,male,bridge_65.jpg,bridge_65.jpg,bridge_60.jpg,left,badlands_218.jpg,playground_172.jpg,bridge_65.jpg,highway_12.jpg,highway_12.jpg,highway_12.jpg,2.0,left,0.7405,1.0,bridge,bridge_60.jpg,3.3616,2.4254,A2LIQCD7W2VDE8
190,A2LIQCD7W2VDE8,30,male,golf_course_78.jpg,golf_course_101.jpg,golf_course_78.jpg,right,mountain_66.jpg,golf_course_78.jpg,highway_13.jpg,badlands_54.jpg,badlands_54.jpg,badlands_54.jpg,1.0,right,0.0711,1.0,golf,golf_course_101.jpg,2.5936,1.6908,A2LIQCD7W2VDE8
191,A2LIQCD7W2VDE8,30,male,playground_145.jpg,playground_229.jpg,playground_145.jpg,right,badlands_142.jpg,playground_145.jpg,bridge_9.jpg,highway_114.jpg,highway_114.jpg,highway_114.jpg,1.0,right,0.7453,0.0,playground,playground_229.jpg,3.976,1.8508,A2LIQCD7W2VDE8
192,A2LIQCD7W2VDE8,30,male,highway_273.jpg,highway_273.jpg,highway_171.jpg,left,highway_273.jpg,golf_course_128.jpg,playground_235.jpg,mountain_199.jpg,mountain_199.jpg,mountain_199.jpg,0.0,left,0.9942,1.0,highway,highway_171.jpg,5.2432,1.6517,A2LIQCD7W2VDE8
193,A2LIQCD7W2VDE8,30,male,highway_359.jpg,highway_379.jpg,highway_359.jpg,right,playground_183.jpg,highway_359.jpg,bridge_218.jpg,mountain_307.jpg,mountain_307.jpg,mountain_307.jpg,1.0,right,0.6904,1.0,highway,highway_379.jpg,6.4592,1.2774,A2LIQCD7W2VDE8
194,A2LIQCD7W2VDE8,30,male,mountain_101.jpg,mountain_101.jpg,mountain_171.jpg,left,playground_30.jpg,bridge_257.jpg,mountain_101.jpg,badlands_149.jpg,badlands_149.jpg,badlands_149.jpg,2.0,left,1.8038,0.0,mountain,mountain_171.jpg,7.3936,1.392,A2LIQCD7W2VDE8
195,A2LIQCD7W2VDE8,30,male,golf_course_87.jpg,golf_course_87.jpg,golf_course_130.jpg,left,mountain_15.jpg,badlands_108.jpg,golf_course_87.jpg,playground_36.jpg,playground_36.jpg,playground_36.jpg,2.0,left,0.8063,0.0,golf,golf_course_130.jpg,8.3024,1.5743,A2LIQCD7W2VDE8
196,A2LIQCD7W2VDE8,30,male,badlands_222.jpg,badlands_62.jpg,badlands_222.jpg,right,golf_course_319.jpg,badlands_222.jpg,bridge_47.jpg,highway_248.jpg,highway_248.jpg,highway_248.jpg,1.0,right,5.2578,1.0,badlands,badlands_62.jpg,2.4144,2.1025,A2LIQCD7W2VDE8
197,A2LIQCD7W2VDE8,30,male,highway_93.jpg,highway_369.jpg,highway_93.jpg,right,playground_6.jpg,highway_93.jpg,mountain_202.jpg,golf_course_264.jpg,golf_course_264.jpg,golf_course_264.jpg,1.0,right,4.7998,1.0,highway,highway_369.jpg,1.7488,1.6749,A2LIQCD7W2VDE8
198,A2LIQCD7W2VDE8,30,male,golf_course_188.jpg,golf_course_160.jpg,golf_course_188.jpg,right,golf_course_188.jpg,mountain_4.jpg,highway_398.jpg,bridge_259.jpg,bridge_259.jpg,bridge_259.jpg,0.0,right,5.2694,1.0,golf,golf_course_160.jpg,3.976,2.0909,A2LIQCD7W2VDE8
199,A2LIQCD7W2VDE8,30,male,mountain_57.jpg,mountain_57.jpg,mountain_193.jpg,left,mountain_57.jpg,highway_263.jpg,playground_259.jpg,badlands_31.jpg,badlands_31.jpg,badlands_31.jpg,0.0,right,1.6503,0.0,mountain,mountain_193.jpg,5.2048,1.6237,A2LIQCD7W2VDE8
200,A2LIQCD7W2VDE8,30,male,playground_117.jpg,playground_117.jpg,playground_167.jpg,left,playground_117.jpg,badlands_166.jpg,golf_course_159.jpg,highway_244.jpg,highway_244.jpg,highway_244.jpg,0.0,left,0.6455,0.0,playground,playground_167.jpg,6.3952,1.6672,A2LIQCD7W2VDE8
201,A2LIQCD7W2VDE8,30,male,badlands_23.jpg,badlands_23.jpg,badlands_114.jpg,left,badlands_23.jpg,bridge_103.jpg,golf_course_1.jpg,mountain_160.jpg,mountain_160.jpg,mountain_160.jpg,0.0,right,0.8072,0.0,badlands,badlands_114.jpg,7.432,1.7437,A2LIQCD7W2VDE8
202,A2LIQCD7W2VDE8,30,male,bridge_108.jpg,bridge_108.jpg,bridge_148.jpg,left,bridge_108.jpg,highway_227.jpg,mountain_179.jpg,playground_200.jpg,playground_200.jpg,playground_200.jpg,0.0,left,0.8103,1.0,bridge,bridge_148.jpg,8.4048,1.7458,A2LIQCD7W2VDE8
203,A2LIQCD7W2VDE8,30,male,badlands_21.jpg,badlands_1.jpg,badlands_21.jpg,right,mountain_12.jpg,badlands_21.jpg,playground_241.jpg,golf_course_122.jpg,golf_course_122.jpg,golf_course_122.jpg,1.0,right,1.523,0.0,badlands,badlands_1.jpg,1.4928,2.9395,A2LIQCD7W2VDE8
204,A2LIQCD7W2VDE8,30,male,mountain_222.jpg,mountain_93.jpg,mountain_222.jpg,right,bridge_120.jpg,playground_66.jpg,mountain_222.jpg,highway_11.jpg,highway_11.jpg,highway_11.jpg,2.0,left,0.9392,1.0,mountain,mountain_93.jpg,2.5424,2.0263,A2LIQCD7W2VDE8
205,A2LIQCD7W2VDE8,30,male,golf_course_309.jpg,golf_course_16.jpg,golf_course_309.jpg,right,mountain_104.jpg,playground_77.jpg,golf_course_309.jpg,highway_147.jpg,highway_147.jpg,highway_147.jpg,2.0,left,0.6357,0.0,golf,golf_course_16.jpg,3.7456,4.4908,A2LIQCD7W2VDE8
206,A2LIQCD7W2VDE8,30,male,mountain_123.jpg,mountain_94.jpg,mountain_123.jpg,right,mountain_123.jpg,highway_402.jpg,golf_course_173.jpg,bridge_158.jpg,bridge_158.jpg,bridge_158.jpg,0.0,right,2.959,0.0,mountain,mountain_94.jpg,4.5904,2.5224,A2LIQCD7W2VDE8
207,A2LIQCD7W2VDE8,30,male,bridge_202.jpg,bridge_202.jpg,bridge_31.jpg,left,bridge_202.jpg,playground_13.jpg,badlands_99.jpg,golf_course_321.jpg,golf_course_321.jpg,golf_course_321.jpg,0.0,right,1.6199,0.0,bridge,bridge_31.jpg,5.3968,2.6017,A2LIQCD7W2VDE8
208,A2LIQCD7W2VDE8,30,male,playground_144.jpg,playground_65.jpg,playground_144.jpg,right,mountain_233.jpg,highway_112.jpg,playground_144.jpg,badlands_104.jpg,badlands_104.jpg,badlands_104.jpg,2.0,left,3.7093,1.0,playground,playground_65.jpg,6.3312,2.7211,A2LIQCD7W2VDE8
209,A2LIQCD7W2VDE8,30,male,highway_245.jpg,highway_245.jpg,highway_134.jpg,left,golf_course_57.jpg,highway_245.jpg,mountain_214.jpg,bridge_64.jpg,bridge_64.jpg,bridge_64.jpg,1.0,left,1.2329,0.0,highway,highway_134.jpg,7.304,1.8833,A2LIQCD7W2VDE8
210,A2LIQCD7W2VDE8,30,male,badlands_24.jpg,badlands_3.jpg,badlands_24.jpg,right,badlands_24.jpg,highway_166.jpg,bridge_130.jpg,golf_course_206.jpg,golf_course_206.jpg,golf_course_206.jpg,0.0,left,2.4872,0.0,badlands,badlands_3.jpg,8.3536,1.9875,A2LIQCD7W2VDE8
211,A2LIQCD7W2VDE8,30,male,golf_course_15.jpg,golf_course_113.jpg,golf_course_15.jpg,right,badlands_143.jpg,highway_234.jpg,golf_course_15.jpg,playground_193.jpg,playground_193.jpg,playground_193.jpg,2.0,right,0.6801,0.0,golf,golf_course_113.jpg,1.4928,3.2126,A2LIQCD7W2VDE8
212,A2LIQCD7W2VDE8,30,male,playground_60.jpg,playground_268.jpg,playground_60.jpg,right,badlands_152.jpg,bridge_106.jpg,playground_60.jpg,golf_course_229.jpg,golf_course_229.jpg,golf_course_229.jpg,2.0,left,1.2127,0.0,playground,playground_268.jpg,2.4784,7.2472,A2LIQCD7W2VDE8
213,A2LIQCD7W2VDE8,30,male,highway_415.jpg,highway_174.jpg,highway_415.jpg,right,bridge_230.jpg,highway_415.jpg,mountain_115.jpg,badlands_210.jpg,badlands_210.jpg,badlands_210.jpg,1.0,right,11.11,1.0,highway,highway_174.jpg,3.4512,2.4572,A2LIQCD7W2VDE8
214,A2LIQCD7W2VDE8,30,male,highway_209.jpg,highway_314.jpg,highway_209.jpg,right,highway_209.jpg,badlands_75.jpg,mountain_212.jpg,playground_42.jpg,playground_42.jpg,playground_42.jpg,0.0,left,2.9511,0.0,highway,highway_314.jpg,4.4496,1.3492,A2LIQCD7W2VDE8
215,A2LIQCD7W2VDE8,30,male,highway_156.jpg,highway_293.jpg,highway_156.jpg,right,playground_178.jpg,badlands_58.jpg,highway_156.jpg,bridge_238.jpg,bridge_238.jpg,bridge_238.jpg,2.0,right,6.8407,1.0,highway,highway_293.jpg,5.4864,1.6171,A2LIQCD7W2VDE8
216,A2LIQCD7W2VDE8,30,male,bridge_191.jpg,bridge_191.jpg,bridge_75.jpg,left,bridge_191.jpg,mountain_71.jpg,highway_117.jpg,playground_264.jpg,playground_264.jpg,playground_264.jpg,0.0,left,1.604,1.0,bridge,bridge_75.jpg,6.28,1.5039,A2LIQCD7W2VDE8
217,A2LIQCD7W2VDE8,30,male,bridge_256.jpg,bridge_211.jpg,bridge_256.jpg,right,highway_336.jpg,bridge_256.jpg,badlands_35.jpg,golf_course_46.jpg,golf_course_46.jpg,golf_course_46.jpg,1.0,right,5.9532,1.0,bridge,bridge_211.jpg,7.4448,1.5756,A2LIQCD7W2VDE8
218,A2LIQCD7W2VDE8,30,male,bridge_146.jpg,bridge_27.jpg,bridge_146.jpg,right,badlands_200.jpg,bridge_146.jpg,mountain_301.jpg,golf_course_42.jpg,golf_course_42.jpg,golf_course_42.jpg,1.0,right,2.0743,0.0,bridge,bridge_27.jpg,8.4048,1.3831,A2LIQCD7W2VDE8
219,A2LIQCD7W2VDE8,30,male,playground_10.jpg,playground_122.jpg,playground_10.jpg,right,badlands_64.jpg,playground_10.jpg,highway_23.jpg,golf_course_302.jpg,golf_course_302.jpg,golf_course_302.jpg,1.0,right,0.0663,0.0,playground,playground_122.jpg,1.48,2.2288,A2LIQCD7W2VDE8
220,A2LIQCD7W2VDE8,30,male,mountain_110.jpg,mountain_110.jpg,mountain_157.jpg,left,mountain_110.jpg,badlands_59.jpg,golf_course_27.jpg,highway_319.jpg,highway_319.jpg,highway_319.jpg,0.0,left,1.1509,0.0,mountain,mountain_157.jpg,2.44,1.3862,A2LIQCD7W2VDE8
221,A2LIQCD7W2VDE8,30,male,playground_240.jpg,playground_240.jpg,playground_40.jpg,left,bridge_49.jpg,playground_240.jpg,golf_course_83.jpg,badlands_153.jpg,badlands_153.jpg,badlands_153.jpg,1.0,right,1.5576,1.0,playground,playground_40.jpg,3.3744,1.3872,A2LIQCD7W2VDE8
222,A2LIQCD7W2VDE8,30,male,highway_294.jpg,highway_294.jpg,highway_203.jpg,left,playground_181.jpg,highway_294.jpg,mountain_166.jpg,badlands_193.jpg,badlands_193.jpg,badlands_193.jpg,1.0,right,1.2196,0.0,highway,highway_203.jpg,4.4368,1.4368,A2LIQCD7W2VDE8
223,A2LIQCD7W2VDE8,30,male,highway_394.jpg,highway_204.jpg,highway_394.jpg,right,badlands_136.jpg,golf_course_152.jpg,highway_394.jpg,bridge_132.jpg,bridge_132.jpg,bridge_132.jpg,2.0,right,1.1013,0.0,highway,highway_204.jpg,5.4096,2.0146,A2LIQCD7W2VDE8
224,A2LIQCD7W2VDE8,30,male,highway_177.jpg,highway_87.jpg,highway_177.jpg,right,badlands_89.jpg,playground_3.jpg,highway_177.jpg,golf_course_290.jpg,golf_course_290.jpg,golf_course_290.jpg,2.0,right,1.1628,0.0,highway,highway_87.jpg,6.1904,4.9563,A2LIQCD7W2VDE8
225,A2LIQCD7W2VDE8,30,male,mountain_154.jpg,mountain_95.jpg,mountain_154.jpg,right,mountain_154.jpg,badlands_180.jpg,highway_196.jpg,bridge_21.jpg,bridge_21.jpg,bridge_21.jpg,0.0,left,0.8184,1.0,mountain,mountain_95.jpg,7.2528,3.1341,A2LIQCD7W2VDE8
226,A2LIQCD7W2VDE8,30,male,playground_131.jpg,playground_43.jpg,playground_131.jpg,right,badlands_45.jpg,playground_131.jpg,highway_75.jpg,golf_course_102.jpg,golf_course_102.jpg,golf_course_102.jpg,1.0,right,0.433,0.0,playground,playground_43.jpg,7.7776,5.2601,A2LIQCD7W2VDE8
227,A2LIQCD7W2VDE8,30,male,golf_course_195.jpg,golf_course_195.jpg,golf_course_2.jpg,left,golf_course_195.jpg,bridge_182.jpg,playground_209.jpg,badlands_27.jpg,badlands_27.jpg,badlands_27.jpg,0.0,right,0.8867,1.0,golf,golf_course_2.jpg,8.2896,1.3225,A2LIQCD7W2VDE8
228,A2LIQCD7W2VDE8,30,male,playground_76.jpg,playground_76.jpg,playground_72.jpg,left,bridge_263.jpg,mountain_26.jpg,playground_76.jpg,badlands_186.jpg,badlands_186.jpg,badlands_186.jpg,2.0,right,2.0667,1.0,playground,playground_72.jpg,1.4928,2.4505,A2LIQCD7W2VDE8
229,A2LIQCD7W2VDE8,30,male,mountain_156.jpg,mountain_295.jpg,mountain_156.jpg,right,bridge_10.jpg,playground_25.jpg,mountain_156.jpg,badlands_220.jpg,badlands_220.jpg,badlands_220.jpg,2.0,left,2.4188,1.0,mountain,mountain_295.jpg,2.4272,2.0704,A2LIQCD7W2VDE8
230,A2LIQCD7W2VDE8,30,male,badlands_221.jpg,badlands_115.jpg,badlands_221.jpg,right,highway_261.jpg,bridge_179.jpg,badlands_221.jpg,playground_70.jpg,playground_70.jpg,playground_70.jpg,2.0,right,1.6786,0.0,badlands,badlands_115.jpg,3.016,1.2287,A2LIQCD7W2VDE8
231,A2LIQCD7W2VDE8,30,male,mountain_230.jpg,mountain_97.jpg,mountain_230.jpg,right,badlands_30.jpg,golf_course_58.jpg,mountain_230.jpg,highway_88.jpg,highway_88.jpg,highway_88.jpg,2.0,left,0.7675,1.0,mountain,mountain_97.jpg,3.2336,0.9021,A2LIQCD7W2VDE8
232,A2LIQCD7W2VDE8,30,male,mountain_232.jpg,mountain_54.jpg,mountain_232.jpg,right,highway_333.jpg,mountain_232.jpg,badlands_130.jpg,golf_course_320.jpg,golf_course_320.jpg,golf_course_320.jpg,1.0,right,0.7318,1.0,mountain,mountain_54.jpg,4.488,1.9524,A2LIQCD7W2VDE8
233,A2LIQCD7W2VDE8,30,male,badlands_52.jpg,badlands_94.jpg,badlands_52.jpg,right,badlands_52.jpg,bridge_177.jpg,highway_249.jpg,golf_course_316.jpg,golf_course_316.jpg,golf_course_316.jpg,0.0,left,0.9454,0.0,badlands,badlands_94.jpg,5.2432,1.0801,A2LIQCD7W2VDE8
234,A2LIQCD7W2VDE8,30,male,badlands_184.jpg,badlands_103.jpg,badlands_184.jpg,right,bridge_123.jpg,playground_41.jpg,badlands_184.jpg,golf_course_52.jpg,golf_course_52.jpg,golf_course_52.jpg,2.0,right,0.7703,1.0,badlands,badlands_103.jpg,6.2672,1.5538,A2LIQCD7W2VDE8
235,A2LIQCD7W2VDE8,30,male,playground_257.jpg,playground_257.jpg,playground_214.jpg,left,bridge_34.jpg,mountain_105.jpg,playground_257.jpg,highway_146.jpg,highway_146.jpg,highway_146.jpg,2.0,left,0.7867,0.0,playground,playground_214.jpg,7.176,1.6904,A2LIQCD7W2VDE8
236,A2LIQCD7W2VDE8,30,male,bridge_128.jpg,bridge_244.jpg,bridge_128.jpg,right,playground_116.jpg,highway_325.jpg,bridge_128.jpg,mountain_126.jpg,mountain_126.jpg,mountain_126.jpg,2.0,right,2.0932,1.0,bridge,bridge_244.jpg,8.2768,2.1331,A2LIQCD7W2VDE8
237,A2LIQCD7W2VDE8,30,male,badlands_113.jpg,badlands_203.jpg,badlands_113.jpg,right,mountain_111.jpg,badlands_113.jpg,golf_course_21.jpg,bridge_2.jpg,bridge_2.jpg,bridge_2.jpg,1.0,right,0.9023,1.0,badlands,badlands_203.jpg,1.5952,1.8784,A2LIQCD7W2VDE8
238,A2LIQCD7W2VDE8,30,male,golf_course_217.jpg,golf_course_217.jpg,golf_course_35.jpg,left,badlands_95.jpg,golf_course_217.jpg,playground_108.jpg,mountain_68.jpg,mountain_68.jpg,mountain_68.jpg,1.0,right,5.4415,0.0,golf,golf_course_35.jpg,2.5296,2.2747,A2LIQCD7W2VDE8
239,A2LIQCD7W2VDE8,30,male,golf_course_193.jpg,golf_course_123.jpg,golf_course_193.jpg,right,golf_course_193.jpg,mountain_224.jpg,bridge_204.jpg,playground_158.jpg,playground_158.jpg,playground_158.jpg,0.0,right,2.2098,1.0,golf,golf_course_123.jpg,3.3872,5.9748,A2LIQCD7W2VDE8
240,A3NT8QEXFBYGF,30,male,golf_course_188.jpg,golf_course_188.jpg,golf_course_160.jpg,left,bridge_259.jpg,mountain_84.jpg,golf_course_188.jpg,highway_12.jpg,highway_12.jpg,highway_12.jpg,2.0,left,0.221,1.0,golf,golf_course_160.jpg,7.007771796,3.7002,A3NT8QEXFBYGF
241,A3NT8QEXFBYGF,30,male,mountain_154.jpg,mountain_131.jpg,mountain_154.jpg,right,bridge_78.jpg,highway_248.jpg,mountain_154.jpg,golf_course_166.jpg,golf_course_166.jpg,golf_course_166.jpg,2.0,left,1.1395,0.0,mountain,mountain_131.jpg,6.967756566,0.9079,A3NT8QEXFBYGF
242,A3NT8QEXFBYGF,30,male,bridge_91.jpg,bridge_82.jpg,bridge_91.jpg,right,mountain_162.jpg,bridge_91.jpg,badlands_136.jpg,highway_342.jpg,highway_342.jpg,highway_342.jpg,1.0,left,1.805,1.0,bridge,bridge_82.jpg,7.007771796,0.7071,A3NT8QEXFBYGF
243,A3NT8QEXFBYGF,30,male,golf_course_195.jpg,golf_course_25.jpg,golf_course_195.jpg,right,bridge_21.jpg,playground_168.jpg,golf_course_195.jpg,mountain_4.jpg,mountain_4.jpg,mountain_4.jpg,2.0,left,0.2112,0.0,golf,golf_course_25.jpg,6.977760098,0.235,A3NT8QEXFBYGF
244,A3NT8QEXFBYGF,30,male,highway_209.jpg,highway_314.jpg,highway_209.jpg,right,highway_209.jpg,mountain_296.jpg,golf_course_43.jpg,bridge_52.jpg,bridge_52.jpg,bridge_52.jpg,0.0,right,1.3317,0.0,highway,highway_314.jpg,6.977760098,0.2208,A3NT8QEXFBYGF
245,A3NT8QEXFBYGF,30,male,highway_394.jpg,highway_394.jpg,highway_406.jpg,left,highway_394.jpg,badlands_153.jpg,mountain_253.jpg,bridge_2.jpg,bridge_2.jpg,bridge_2.jpg,0.0,left,1.851,1.0,highway,highway_406.jpg,6.977760098,0.2312,A3NT8QEXFBYGF
246,A3NT8QEXFBYGF,30,male,bridge_146.jpg,bridge_146.jpg,bridge_121.jpg,left,bridge_146.jpg,mountain_292.jpg,highway_249.jpg,golf_course_46.jpg,golf_course_46.jpg,golf_course_46.jpg,0.0,left,1.3764,1.0,bridge,bridge_121.jpg,6.977760098,0.1172,A3NT8QEXFBYGF
247,A3NT8QEXFBYGF,30,male,highway_177.jpg,highway_177.jpg,highway_87.jpg,left,mountain_160.jpg,badlands_58.jpg,highway_177.jpg,golf_course_229.jpg,golf_course_229.jpg,golf_course_229.jpg,2.0,left,1.0037,0.0,highway,highway_87.jpg,6.977760098,0.6463,A3NT8QEXFBYGF
248,A3NT8QEXFBYGF,30,male,highway_294.jpg,highway_203.jpg,highway_294.jpg,right,golf_course_27.jpg,playground_124.jpg,highway_294.jpg,mountain_179.jpg,mountain_179.jpg,mountain_179.jpg,2.0,right,1.445,0.0,highway,highway_203.jpg,6.977760098,0.332,A3NT8QEXFBYGF
249,A3NT8QEXFBYGF,30,male,highway_415.jpg,highway_60.jpg,highway_415.jpg,right,mountain_66.jpg,badlands_38.jpg,highway_415.jpg,golf_course_33.jpg,golf_course_33.jpg,golf_course_33.jpg,2.0,left,1.5526,0.0,highway,highway_60.jpg,6.977760098,0.3087,A3NT8QEXFBYGF
250,A3NT8QEXFBYGF,30,male,playground_144.jpg,playground_65.jpg,playground_144.jpg,right,badlands_13.jpg,highway_234.jpg,playground_144.jpg,mountain_44.jpg,mountain_44.jpg,mountain_44.jpg,2.0,left,5.0041,1.0,playground,playground_65.jpg,6.977760098,0.1374,A3NT8QEXFBYGF
251,A3NT8QEXFBYGF,30,male,badlands_70.jpg,badlands_119.jpg,badlands_70.jpg,right,badlands_70.jpg,golf_course_302.jpg,playground_77.jpg,highway_144.jpg,highway_144.jpg,highway_144.jpg,0.0,left,1.1833,1.0,badlands,badlands_119.jpg,7.988141645,2.2083,A3NT8QEXFBYGF
252,A3NT8QEXFBYGF,30,male,badlands_113.jpg,badlands_203.jpg,badlands_113.jpg,right,golf_course_320.jpg,badlands_113.jpg,playground_209.jpg,mountain_202.jpg,mountain_202.jpg,mountain_202.jpg,1.0,left,1.6431,1.0,badlands,badlands_203.jpg,7.988141645,0.1269,A3NT8QEXFBYGF
253,A3NT8QEXFBYGF,30,male,golf_course_87.jpg,golf_course_130.jpg,golf_course_87.jpg,right,badlands_108.jpg,bridge_10.jpg,golf_course_87.jpg,highway_227.jpg,highway_227.jpg,highway_227.jpg,2.0,left,1.3543,0.0,golf,golf_course_130.jpg,7.988141645,0.1288,A3NT8QEXFBYGF
254,A3NT8QEXFBYGF,30,male,bridge_256.jpg,bridge_211.jpg,bridge_256.jpg,right,badlands_95.jpg,bridge_256.jpg,golf_course_198.jpg,playground_66.jpg,playground_66.jpg,playground_66.jpg,1.0,left,0.953,1.0,bridge,bridge_211.jpg,7.988141645,0.2148,A3NT8QEXFBYGF
255,A3NT8QEXFBYGF,30,male,badlands_23.jpg,badlands_101.jpg,badlands_23.jpg,right,highway_112.jpg,mountain_166.jpg,badlands_23.jpg,playground_80.jpg,playground_80.jpg,playground_80.jpg,2.0,left,1.3407,1.0,badlands,badlands_101.jpg,7.988141645,0.1171,A3NT8QEXFBYGF
256,A3NT8QEXFBYGF,30,male,playground_76.jpg,playground_76.jpg,playground_72.jpg,left,badlands_64.jpg,playground_76.jpg,highway_11.jpg,golf_course_290.jpg,golf_course_290.jpg,golf_course_290.jpg,1.0,left,1.0821,1.0,playground,playground_72.jpg,7.988141645,0.2296,A3NT8QEXFBYGF
257,A3NT8QEXFBYGF,30,male,mountain_232.jpg,mountain_232.jpg,mountain_3.jpg,left,golf_course_102.jpg,highway_398.jpg,mountain_232.jpg,badlands_210.jpg,badlands_210.jpg,badlands_210.jpg,2.0,right,1.9143,0.0,mountain,mountain_3.jpg,7.988141645,0.4064,A3NT8QEXFBYGF
258,A3NT8QEXFBYGF,30,male,golf_course_217.jpg,golf_course_35.jpg,golf_course_217.jpg,right,bridge_34.jpg,golf_course_217.jpg,highway_18.jpg,badlands_177.jpg,badlands_177.jpg,badlands_177.jpg,1.0,left,0.6117,0.0,golf,golf_course_35.jpg,7.988141645,0.5125,A3NT8QEXFBYGF
259,A3NT8QEXFBYGF,30,male,playground_219.jpg,playground_219.jpg,playground_205.jpg,left,playground_219.jpg,highway_196.jpg,bridge_264.jpg,badlands_54.jpg,badlands_54.jpg,badlands_54.jpg,0.0,right,1.9353,1.0,playground,playground_205.jpg,7.988141645,0.5197,A3NT8QEXFBYGF
260,A3NT8QEXFBYGF,30,male,bridge_128.jpg,bridge_128.jpg,bridge_61.jpg,left,badlands_27.jpg,bridge_128.jpg,mountain_199.jpg,playground_108.jpg,playground_108.jpg,playground_108.jpg,1.0,right,1.8772,0.0,bridge,bridge_61.jpg,7.988141645,0.3953,A3NT8QEXFBYGF
261,A3NT8QEXFBYGF,30,male,highway_273.jpg,highway_273.jpg,highway_384.jpg,left,mountain_68.jpg,highway_273.jpg,bridge_124.jpg,playground_235.jpg,playground_235.jpg,playground_235.jpg,1.0,left,1.2555,0.0,highway,highway_384.jpg,7.988141645,0.3451,A3NT8QEXFBYGF
262,A3NT8QEXFBYGF,30,male,playground_10.jpg,playground_122.jpg,playground_10.jpg,right,playground_10.jpg,highway_114.jpg,badlands_149.jpg,bridge_162.jpg,bridge_162.jpg,bridge_162.jpg,0.0,right,1.5584,0.0,playground,playground_122.jpg,7.988141645,0.2094,A3NT8QEXFBYGF
263,A3NT8QEXFBYGF,30,male,bridge_250.jpg,bridge_134.jpg,bridge_250.jpg,right,bridge_250.jpg,highway_402.jpg,mountain_126.jpg,playground_172.jpg,playground_172.jpg,playground_172.jpg,0.0,right,1.2913,0.0,bridge,bridge_134.jpg,7.988141645,0.3045,A3NT8QEXFBYGF
264,A3NT8QEXFBYGF,30,male,golf_course_309.jpg,golf_course_309.jpg,golf_course_209.jpg,left,golf_course_309.jpg,playground_3.jpg,mountain_26.jpg,highway_37.jpg,highway_37.jpg,highway_37.jpg,0.0,right,1.9157,1.0,golf,golf_course_209.jpg,7.988141645,0.2205,A3NT8QEXFBYGF
265,A3NT8QEXFBYGF,30,male,badlands_222.jpg,badlands_62.jpg,badlands_222.jpg,right,highway_75.jpg,playground_70.jpg,badlands_222.jpg,golf_course_60.jpg,golf_course_60.jpg,golf_course_60.jpg,2.0,left,1.2949,1.0,badlands,badlands_62.jpg,7.988141645,0.2152,A3NT8QEXFBYGF
266,A3NT8QEXFBYGF,30,male,golf_course_15.jpg,golf_course_113.jpg,golf_course_15.jpg,right,bridge_49.jpg,golf_course_15.jpg,badlands_176.jpg,mountain_212.jpg,mountain_212.jpg,mountain_212.jpg,1.0,right,1.824,0.0,golf,golf_course_113.jpg,7.988141645,0.2146,A3NT8QEXFBYGF
267,A3NT8QEXFBYGF,30,male,playground_257.jpg,playground_214.jpg,playground_257.jpg,right,badlands_104.jpg,playground_257.jpg,bridge_263.jpg,mountain_34.jpg,mountain_34.jpg,mountain_34.jpg,1.0,right,2.0494,0.0,playground,playground_214.jpg,7.988141645,0.4067,A3NT8QEXFBYGF
268,A3NT8QEXFBYGF,30,male,highway_359.jpg,highway_359.jpg,highway_389.jpg,left,golf_course_42.jpg,playground_52.jpg,highway_359.jpg,bridge_182.jpg,bridge_182.jpg,bridge_182.jpg,2.0,left,1.0933,0.0,highway,highway_389.jpg,7.988141645,0.4177,A3NT8QEXFBYGF
269,A3NT8QEXFBYGF,30,male,mountain_293.jpg,mountain_293.jpg,mountain_47.jpg,left,golf_course_128.jpg,mountain_293.jpg,bridge_48.jpg,highway_23.jpg,highway_23.jpg,highway_23.jpg,1.0,left,1.432,1.0,mountain,mountain_47.jpg,6.967756566,1.452,A3NT8QEXFBYGF
270,A3NT8QEXFBYGF,30,male,badlands_52.jpg,badlands_52.jpg,badlands_94.jpg,left,highway_149.jpg,bridge_218.jpg,badlands_52.jpg,mountain_235.jpg,mountain_235.jpg,mountain_235.jpg,2.0,left,0.005,0.0,badlands,badlands_94.jpg,6.967756566,0.3041,A3NT8QEXFBYGF
271,A3NT8QEXFBYGF,30,male,mountain_222.jpg,mountain_244.jpg,mountain_222.jpg,right,highway_166.jpg,playground_6.jpg,mountain_222.jpg,bridge_19.jpg,bridge_19.jpg,bridge_19.jpg,2.0,right,0.4837,0.0,mountain,mountain_244.jpg,6.967756566,0.1159,A3NT8QEXFBYGF
272,A3NT8QEXFBYGF,30,male,golf_course_214.jpg,golf_course_317.jpg,golf_course_214.jpg,right,mountain_115.jpg,bridge_179.jpg,golf_course_214.jpg,highway_331.jpg,highway_331.jpg,highway_331.jpg,2.0,left,0.2117,1.0,golf,golf_course_317.jpg,6.967756566,0.217,A3NT8QEXFBYGF
273,A3NT8QEXFBYGF,30,male,bridge_108.jpg,bridge_148.jpg,bridge_108.jpg,right,badlands_89.jpg,playground_7.jpg,bridge_108.jpg,mountain_15.jpg,mountain_15.jpg,mountain_15.jpg,2.0,left,2.2961,1.0,bridge,bridge_148.jpg,6.967756566,0.2122,A3NT8QEXFBYGF
274,A3NT8QEXFBYGF,30,male,highway_245.jpg,highway_134.jpg,highway_245.jpg,right,playground_183.jpg,badlands_173.jpg,highway_245.jpg,golf_course_152.jpg,golf_course_152.jpg,golf_course_152.jpg,2.0,right,2.5407,0.0,highway,highway_134.jpg,6.967756566,0.1164,A3NT8QEXFBYGF
275,A3NT8QEXFBYGF,30,male,badlands_221.jpg,badlands_221.jpg,badlands_207.jpg,left,badlands_221.jpg,golf_course_325.jpg,bridge_204.jpg,playground_259.jpg,playground_259.jpg,playground_259.jpg,0.0,left,1.5798,1.0,badlands,badlands_207.jpg,6.967756566,0.2254,A3NT8QEXFBYGF
276,A3NT8QEXFBYGF,30,male,highway_93.jpg,highway_369.jpg,highway_93.jpg,right,highway_93.jpg,mountain_228.jpg,golf_course_57.jpg,playground_41.jpg,playground_41.jpg,playground_41.jpg,0.0,left,1.8846,1.0,highway,highway_369.jpg,7.988141645,1.5671,A3NT8QEXFBYGF
277,A3NT8QEXFBYGF,30,male,bridge_202.jpg,bridge_202.jpg,bridge_31.jpg,left,highway_319.jpg,badlands_75.jpg,bridge_202.jpg,golf_course_173.jpg,golf_course_173.jpg,golf_course_173.jpg,2.0,right,0.4936,0.0,bridge,bridge_31.jpg,7.988141645,0.6079,A3NT8QEXFBYGF
278,A3NT8QEXFBYGF,30,male,mountain_123.jpg,mountain_123.jpg,mountain_94.jpg,left,bridge_238.jpg,badlands_226.jpg,mountain_123.jpg,golf_course_316.jpg,golf_course_316.jpg,golf_course_316.jpg,2.0,left,0.5757,0.0,mountain,mountain_94.jpg,7.988141645,2.6133,A3NT8QEXFBYGF
279,A3NT8QEXFBYGF,30,male,mountain_156.jpg,mountain_156.jpg,mountain_295.jpg,left,bridge_177.jpg,mountain_156.jpg,golf_course_260.jpg,badlands_180.jpg,badlands_180.jpg,badlands_180.jpg,1.0,left,2.0351,1.0,mountain,mountain_295.jpg,7.988141645,0.2049,A3NT8QEXFBYGF
280,A3NT8QEXFBYGF,30,male,golf_course_78.jpg,golf_course_78.jpg,golf_course_134.jpg,left,golf_course_78.jpg,badlands_200.jpg,playground_36.jpg,bridge_158.jpg,bridge_158.jpg,bridge_158.jpg,0.0,left,2.2986,0.0,golf,golf_course_134.jpg,7.988141645,0.2261,A3NT8QEXFBYGF
281,A3NT8QEXFBYGF,30,male,highway_156.jpg,highway_160.jpg,highway_156.jpg,right,playground_5.jpg,bridge_106.jpg,highway_156.jpg,badlands_130.jpg,badlands_130.jpg,badlands_130.jpg,2.0,left,0.1007,0.0,highway,highway_160.jpg,7.988141645,0.2232,A3NT8QEXFBYGF
282,A3NT8QEXFBYGF,30,male,playground_60.jpg,playground_244.jpg,playground_60.jpg,right,mountain_91.jpg,playground_60.jpg,highway_301.jpg,golf_course_58.jpg,golf_course_58.jpg,golf_course_58.jpg,1.0,right,1.6,1.0,playground,playground_244.jpg,7.988141645,0.2133,A3NT8QEXFBYGF
283,A3NT8QEXFBYGF,30,male,badlands_24.jpg,badlands_24.jpg,badlands_3.jpg,left,highway_179.jpg,badlands_24.jpg,bridge_230.jpg,golf_course_122.jpg,golf_course_122.jpg,golf_course_122.jpg,1.0,right,2.0271,0.0,badlands,badlands_3.jpg,7.988141645,0.2156,A3NT8QEXFBYGF
284,A3NT8QEXFBYGF,30,male,mountain_57.jpg,mountain_57.jpg,mountain_193.jpg,left,playground_249.jpg,mountain_57.jpg,golf_course_156.jpg,highway_333.jpg,highway_333.jpg,highway_333.jpg,1.0,left,1.3367,0.0,mountain,mountain_193.jpg,7.988141645,0.2248,A3NT8QEXFBYGF
285,A3NT8QEXFBYGF,30,male,mountain_230.jpg,mountain_97.jpg,mountain_230.jpg,right,bridge_64.jpg,mountain_230.jpg,highway_88.jpg,badlands_35.jpg,badlands_35.jpg,badlands_35.jpg,1.0,left,4.4731,1.0,mountain,mountain_97.jpg,7.988141645,1.9282,A3NT8QEXFBYGF
286,A3NT8QEXFBYGF,30,male,badlands_184.jpg,badlands_184.jpg,badlands_103.jpg,left,highway_146.jpg,badlands_184.jpg,mountain_24.jpg,playground_103.jpg,playground_103.jpg,playground_103.jpg,1.0,left,3.7442,1.0,badlands,badlands_103.jpg,7.988141645,0.1213,A3NT8QEXFBYGF
287,A3NT8QEXFBYGF,30,male,golf_course_331.jpg,golf_course_331.jpg,golf_course_114.jpg,left,playground_123.jpg,badlands_218.jpg,golf_course_331.jpg,mountain_307.jpg,mountain_307.jpg,mountain_307.jpg,2.0,left,2.3006,0.0,golf,golf_course_114.jpg,7.988141645,0.2042,A3NT8QEXFBYGF
288,A3NT8QEXFBYGF,30,male,mountain_110.jpg,mountain_110.jpg,mountain_157.jpg,left,mountain_110.jpg,badlands_216.jpg,highway_336.jpg,playground_193.jpg,playground_193.jpg,playground_193.jpg,0.0,left,2.4319,0.0,mountain,mountain_157.jpg,7.988141645,0.7193,A3NT8QEXFBYGF
289,A3NT8QEXFBYGF,30,male,playground_145.jpg,playground_145.jpg,playground_242.jpg,left,mountain_233.jpg,badlands_166.jpg,playground_145.jpg,golf_course_52.jpg,golf_course_52.jpg,golf_course_52.jpg,2.0,left,2.9769,1.0,playground,playground_242.jpg,7.988141645,0.4069,A3NT8QEXFBYGF
290,A3NT8QEXFBYGF,30,male,badlands_137.jpg,badlands_139.jpg,badlands_137.jpg,right,badlands_137.jpg,bridge_130.jpg,playground_241.jpg,highway_25.jpg,highway_25.jpg,highway_25.jpg,0.0,left,1.0722,1.0,badlands,badlands_139.jpg,7.988141645,0.4139,A3NT8QEXFBYGF
291,A3NT8QEXFBYGF,30,male,mountain_101.jpg,mountain_101.jpg,mountain_221.jpg,left,mountain_101.jpg,playground_54.jpg,golf_course_321.jpg,badlands_99.jpg,badlands_99.jpg,badlands_99.jpg,0.0,left,0.3058,1.0,mountain,mountain_221.jpg,7.988141645,0.3222,A3NT8QEXFBYGF
292,A3NT8QEXFBYGF,30,male,bridge_172.jpg,bridge_163.jpg,bridge_172.jpg,right,playground_181.jpg,bridge_172.jpg,badlands_31.jpg,golf_course_206.jpg,golf_course_206.jpg,golf_course_206.jpg,1.0,left,0.4974,1.0,bridge,bridge_163.jpg,7.988141645,0.2315,A3NT8QEXFBYGF
293,A3NT8QEXFBYGF,30,male,badlands_21.jpg,badlands_21.jpg,badlands_98.jpg,left,golf_course_83.jpg,highway_175.jpg,badlands_21.jpg,bridge_239.jpg,bridge_239.jpg,bridge_239.jpg,2.0,left,25.8521,1.0,badlands,badlands_98.jpg,7.988141645,0.9909,A3NT8QEXFBYGF
294,A3NT8QEXFBYGF,30,male,playground_131.jpg,playground_131.jpg,playground_164.jpg,left,playground_131.jpg,badlands_2.jpg,golf_course_88.jpg,highway_147.jpg,highway_147.jpg,highway_147.jpg,0.0,left,0.0055,1.0,playground,playground_164.jpg,7.988141645,0.7917,A3NT8QEXFBYGF
295,A3NT8QEXFBYGF,30,male,bridge_65.jpg,bridge_181.jpg,bridge_65.jpg,right,highway_261.jpg,golf_course_258.jpg,bridge_65.jpg,badlands_174.jpg,badlands_174.jpg,badlands_174.jpg,2.0,left,43.511,0.0,bridge,bridge_181.jpg,7.988141645,0.2058,A3NT8QEXFBYGF
296,A3NT8QEXFBYGF,30,male,playground_117.jpg,playground_167.jpg,playground_117.jpg,right,playground_117.jpg,highway_325.jpg,bridge_257.jpg,mountain_224.jpg,mountain_224.jpg,mountain_224.jpg,0.0,left,1.0566,0.0,playground,playground_167.jpg,7.988141645,0.2071,A3NT8QEXFBYGF
297,A3NT8QEXFBYGF,30,male,playground_240.jpg,playground_240.jpg,playground_2.jpg,left,badlands_30.jpg,golf_course_319.jpg,playground_240.jpg,bridge_26.jpg,bridge_26.jpg,bridge_26.jpg,2.0,left,0.6604,0.0,playground,playground_2.jpg,7.988141645,0.1159,A3NT8QEXFBYGF
298,A3NT8QEXFBYGF,30,male,bridge_191.jpg,bridge_191.jpg,bridge_75.jpg,left,playground_264.jpg,mountain_280.jpg,bridge_191.jpg,golf_course_185.jpg,golf_course_185.jpg,golf_course_185.jpg,2.0,left,0.0048,1.0,bridge,bridge_75.jpg,7.988141645,0.2055,A3NT8QEXFBYGF
299,A3NT8QEXFBYGF,30,male,golf_course_193.jpg,golf_course_123.jpg,golf_course_193.jpg,right,mountain_21.jpg,golf_course_193.jpg,badlands_152.jpg,highway_99.jpg,highway_99.jpg,highway_99.jpg,1.0,left,1.3457,1.0,golf,golf_course_123.jpg,7.988141645,0.7256,A3NT8QEXFBYGF
300,A2D009L2PJ6641,30,Female,badlands_113.jpg,badlands_113.jpg,badlands_203.jpg,left,badlands_113.jpg,golf_course_1.jpg,playground_30.jpg,bridge_19.jpg,bridge_19.jpg,bridge_19.jpg,0.0,left,1.9,1.0,badlands,badlands_203.jpg,8.28125,1.6785,A2D009L2PJ6641
301,A2D009L2PJ6641,30,Female,badlands_23.jpg,badlands_23.jpg,badlands_101.jpg,left,badlands_23.jpg,golf_course_128.jpg,bridge_182.jpg,mountain_212.jpg,mountain_212.jpg,mountain_212.jpg,0.0,left,1.6089,1.0,badlands,badlands_101.jpg,7.697916667,1.896,A2D009L2PJ6641
302,A2D009L2PJ6641,30,Female,highway_156.jpg,highway_293.jpg,highway_156.jpg,right,mountain_12.jpg,highway_156.jpg,bridge_239.jpg,playground_191.jpg,playground_191.jpg,playground_191.jpg,1.0,right,1.8073,1.0,highway,highway_293.jpg,8.541666667,1.8411,A2D009L2PJ6641
303,A2D009L2PJ6641,30,Female,bridge_91.jpg,bridge_82.jpg,bridge_91.jpg,right,golf_course_88.jpg,highway_325.jpg,bridge_91.jpg,badlands_30.jpg,badlands_30.jpg,badlands_30.jpg,2.0,right,2.8115,1.0,bridge,bridge_82.jpg,8.354166667,2.8293,A2D009L2PJ6641
304,A2D009L2PJ6641,30,Female,highway_245.jpg,highway_206.jpg,highway_245.jpg,right,golf_course_264.jpg,highway_245.jpg,playground_235.jpg,bridge_80.jpg,bridge_80.jpg,bridge_80.jpg,1.0,right,1.3637,1.0,highway,highway_206.jpg,8.354166667,1.2819,A2D009L2PJ6641
305,A2D009L2PJ6641,30,Female,badlands_137.jpg,badlands_194.jpg,badlands_137.jpg,right,mountain_34.jpg,badlands_137.jpg,playground_183.jpg,highway_331.jpg,highway_331.jpg,highway_331.jpg,1.0,right,1.5815,0.0,badlands,badlands_194.jpg,7.541666667,1.8712,A2D009L2PJ6641
306,A2D009L2PJ6641,30,Female,golf_course_15.jpg,golf_course_113.jpg,golf_course_15.jpg,right,highway_11.jpg,golf_course_15.jpg,playground_193.jpg,mountain_91.jpg,mountain_91.jpg,mountain_91.jpg,1.0,left,1.6158,0.0,golf,golf_course_113.jpg,6.802083333,2.4544,A2D009L2PJ6641
307,A2D009L2PJ6641,30,Female,mountain_123.jpg,mountain_123.jpg,mountain_94.jpg,left,bridge_10.jpg,mountain_123.jpg,playground_36.jpg,highway_357.jpg,highway_357.jpg,highway_357.jpg,1.0,left,1.5185,0.0,mountain,mountain_94.jpg,6.604166667,2.902,A2D009L2PJ6641
308,A2D009L2PJ6641,30,Female,playground_131.jpg,playground_131.jpg,playground_164.jpg,left,bridge_251.jpg,golf_course_319.jpg,playground_131.jpg,mountain_253.jpg,mountain_253.jpg,mountain_253.jpg,2.0,right,6.6818,1.0,playground,playground_164.jpg,8.833333333,1.8005,A2D009L2PJ6641
309,A2D009L2PJ6641,30,Female,highway_93.jpg,highway_93.jpg,highway_369.jpg,left,highway_93.jpg,playground_70.jpg,badlands_99.jpg,golf_course_173.jpg,golf_course_173.jpg,golf_course_173.jpg,0.0,right,1.4763,1.0,highway,highway_369.jpg,8.489583333,1.741,A2D009L2PJ6641
310,A2D009L2PJ6641,30,Female,mountain_232.jpg,mountain_54.jpg,mountain_232.jpg,right,mountain_232.jpg,bridge_120.jpg,golf_course_27.jpg,highway_336.jpg,highway_336.jpg,highway_336.jpg,0.0,right,1.9195,1.0,mountain,mountain_54.jpg,6.947916667,1.7959,A2D009L2PJ6641
311,A2D009L2PJ6641,30,Female,badlands_222.jpg,badlands_62.jpg,badlands_222.jpg,right,badlands_222.jpg,bridge_162.jpg,highway_144.jpg,golf_course_337.jpg,golf_course_337.jpg,golf_course_337.jpg,0.0,right,1.4174,1.0,badlands,badlands_62.jpg,8.416666667,1.3198,A2D009L2PJ6641
312,A2D009L2PJ6641,30,Female,bridge_202.jpg,bridge_38.jpg,bridge_202.jpg,right,badlands_166.jpg,bridge_202.jpg,golf_course_58.jpg,playground_172.jpg,playground_172.jpg,playground_172.jpg,1.0,right,10.2286,1.0,bridge,bridge_38.jpg,8.614583333,1.624,A2D009L2PJ6641
313,A2D009L2PJ6641,30,Female,golf_course_217.jpg,golf_course_217.jpg,golf_course_262.jpg,left,bridge_204.jpg,badlands_108.jpg,golf_course_217.jpg,highway_263.jpg,highway_263.jpg,highway_263.jpg,2.0,left,1.5406,1.0,golf,golf_course_262.jpg,7.875,2.4528,A2D009L2PJ6641
314,A2D009L2PJ6641,30,Female,mountain_110.jpg,mountain_110.jpg,mountain_223.jpg,left,golf_course_260.jpg,mountain_110.jpg,playground_7.jpg,highway_249.jpg,highway_249.jpg,highway_249.jpg,1.0,right,1.5426,1.0,mountain,mountain_223.jpg,7.697916667,2.3771,A2D009L2PJ6641
315,A2D009L2PJ6641,30,Female,playground_257.jpg,playground_257.jpg,playground_214.jpg,left,playground_257.jpg,bridge_25.jpg,highway_398.jpg,badlands_218.jpg,badlands_218.jpg,badlands_218.jpg,0.0,left,1.5786,0.0,playground,playground_214.jpg,8.40625,1.4005,A2D009L2PJ6641
316,A2D009L2PJ6641,30,Female,mountain_230.jpg,mountain_97.jpg,mountain_230.jpg,right,playground_41.jpg,mountain_230.jpg,highway_147.jpg,badlands_27.jpg,badlands_27.jpg,badlands_27.jpg,1.0,left,1.7886,1.0,mountain,mountain_97.jpg,8.1875,1.6822,A2D009L2PJ6641
317,A2D009L2PJ6641,30,Female,highway_273.jpg,highway_384.jpg,highway_273.jpg,right,golf_course_185.jpg,highway_273.jpg,mountain_126.jpg,bridge_130.jpg,bridge_130.jpg,bridge_130.jpg,1.0,right,1.2856,0.0,highway,highway_384.jpg,8.479166667,2.0235,A2D009L2PJ6641
318,A2D009L2PJ6641,30,Female,badlands_52.jpg,badlands_94.jpg,badlands_52.jpg,right,highway_13.jpg,badlands_52.jpg,playground_42.jpg,bridge_257.jpg,bridge_257.jpg,bridge_257.jpg,1.0,left,1.713,0.0,badlands,badlands_94.jpg,8.479166667,1.5355,A2D009L2PJ6641
319,A2D009L2PJ6641,30,Female,playground_219.jpg,playground_219.jpg,playground_21.jpg,left,playground_219.jpg,badlands_58.jpg,bridge_21.jpg,golf_course_334.jpg,golf_course_334.jpg,golf_course_334.jpg,0.0,left,1.0025,0.0,playground,playground_21.jpg,8.375,1.3813,A2D009L2PJ6641
320,A2D009L2PJ6641,30,Female,mountain_156.jpg,mountain_156.jpg,mountain_128.jpg,left,bridge_238.jpg,badlands_186.jpg,mountain_156.jpg,golf_course_325.jpg,golf_course_325.jpg,golf_course_325.jpg,2.0,left,1.6213,0.0,mountain,mountain_128.jpg,7.770833333,1.874,A2D009L2PJ6641
321,A2D009L2PJ6641,30,Female,playground_60.jpg,playground_60.jpg,playground_268.jpg,left,playground_60.jpg,highway_219.jpg,badlands_2.jpg,mountain_166.jpg,mountain_166.jpg,mountain_166.jpg,0.0,right,1.1622,0.0,playground,playground_268.jpg,8.958333333,2.3349,A2D009L2PJ6641
322,A2D009L2PJ6641,30,Female,bridge_128.jpg,bridge_61.jpg,bridge_128.jpg,right,badlands_152.jpg,mountain_160.jpg,bridge_128.jpg,highway_166.jpg,highway_166.jpg,highway_166.jpg,2.0,right,0.9819,0.0,bridge,bridge_61.jpg,6.802083333,2.2787,A2D009L2PJ6641
323,A2D009L2PJ6641,30,Female,highway_359.jpg,highway_359.jpg,highway_379.jpg,left,badlands_136.jpg,golf_course_206.jpg,highway_359.jpg,playground_52.jpg,playground_52.jpg,playground_52.jpg,2.0,left,1.4215,1.0,highway,highway_379.jpg,8.239583333,1.9998,A2D009L2PJ6641
324,A2D009L2PJ6641,30,Female,bridge_250.jpg,bridge_134.jpg,bridge_250.jpg,right,bridge_250.jpg,badlands_177.jpg,highway_179.jpg,playground_80.jpg,playground_80.jpg,playground_80.jpg,0.0,right,2.9299,0.0,bridge,bridge_134.jpg,7.739583333,1.7276,A2D009L2PJ6641
325,A2D009L2PJ6641,30,Female,mountain_101.jpg,mountain_171.jpg,mountain_101.jpg,right,playground_259.jpg,highway_37.jpg,mountain_101.jpg,bridge_132.jpg,bridge_132.jpg,bridge_132.jpg,2.0,right,1.1118,0.0,mountain,mountain_171.jpg,8.677083333,1.4779,A2D009L2PJ6641
326,A2D009L2PJ6641,30,Female,golf_course_193.jpg,golf_course_123.jpg,golf_course_193.jpg,right,golf_course_193.jpg,bridge_264.jpg,highway_18.jpg,mountain_301.jpg,mountain_301.jpg,mountain_301.jpg,0.0,right,1.1037,1.0,golf,golf_course_123.jpg,8.40625,1.6453,A2D009L2PJ6641
327,A2D009L2PJ6641,30,Female,bridge_256.jpg,bridge_54.jpg,bridge_256.jpg,right,bridge_256.jpg,mountain_71.jpg,badlands_142.jpg,highway_196.jpg,highway_196.jpg,highway_196.jpg,0.0,right,2.2705,0.0,bridge,bridge_54.jpg,8.3125,1.9421,A2D009L2PJ6641
328,A2D009L2PJ6641,30,Female,golf_course_309.jpg,golf_course_309.jpg,golf_course_16.jpg,left,playground_13.jpg,golf_course_309.jpg,highway_149.jpg,mountain_233.jpg,mountain_233.jpg,mountain_233.jpg,1.0,left,1.5525,0.0,golf,golf_course_16.jpg,8.53125,1.3629,A2D009L2PJ6641
329,A2D009L2PJ6641,30,Female,badlands_24.jpg,badlands_24.jpg,badlands_53.jpg,left,mountain_21.jpg,playground_3.jpg,badlands_24.jpg,highway_23.jpg,highway_23.jpg,highway_23.jpg,2.0,right,1.7004,1.0,badlands,badlands_53.jpg,8.53125,1.2897,A2D009L2PJ6641
330,A2D009L2PJ6641,30,Female,golf_course_188.jpg,golf_course_160.jpg,golf_course_188.jpg,right,mountain_235.jpg,golf_course_188.jpg,playground_54.jpg,highway_25.jpg,highway_25.jpg,highway_25.jpg,1.0,left,1.4267,1.0,golf,golf_course_160.jpg,8.572916667,2.0946,A2D009L2PJ6641
331,A2D009L2PJ6641,30,Female,highway_177.jpg,highway_177.jpg,highway_278.jpg,left,bridge_230.jpg,badlands_38.jpg,highway_177.jpg,golf_course_159.jpg,golf_course_159.jpg,golf_course_159.jpg,2.0,left,1.1414,1.0,highway,highway_278.jpg,8.572916667,1.7211,A2D009L2PJ6641
332,A2D009L2PJ6641,30,Female,badlands_184.jpg,badlands_184.jpg,badlands_228.jpg,left,mountain_161.jpg,badlands_184.jpg,golf_course_316.jpg,playground_158.jpg,playground_158.jpg,playground_158.jpg,1.0,right,1.3834,0.0,badlands,badlands_228.jpg,8.53125,1.395,A2D009L2PJ6641
333,A2D009L2PJ6641,30,Female,highway_294.jpg,highway_368.jpg,highway_294.jpg,right,highway_294.jpg,badlands_13.jpg,mountain_307.jpg,playground_5.jpg,playground_5.jpg,playground_5.jpg,0.0,left,1.4716,1.0,highway,highway_368.jpg,8.385416667,1.4286,A2D009L2PJ6641
334,A2D009L2PJ6641,30,Female,playground_144.jpg,playground_144.jpg,playground_137.jpg,left,highway_248.jpg,playground_144.jpg,mountain_132.jpg,badlands_89.jpg,badlands_89.jpg,badlands_89.jpg,1.0,left,109.4332,0.0,playground,playground_137.jpg,7.78125,2.3738,A2D009L2PJ6641
335,A2D009L2PJ6641,30,Female,highway_394.jpg,highway_394.jpg,highway_204.jpg,left,highway_394.jpg,playground_173.jpg,badlands_104.jpg,bridge_34.jpg,bridge_34.jpg,bridge_34.jpg,0.0,left,1.2581,0.0,highway,highway_204.jpg,8.59375,1.8439,A2D009L2PJ6641
336,A2D009L2PJ6641,30,Female,golf_course_331.jpg,golf_course_114.jpg,golf_course_331.jpg,right,mountain_4.jpg,golf_course_331.jpg,bridge_78.jpg,badlands_193.jpg,badlands_193.jpg,badlands_193.jpg,1.0,right,1.7426,0.0,golf,golf_course_114.jpg,8.583333333,1.5163,A2D009L2PJ6641
337,A2D009L2PJ6641,30,Female,bridge_146.jpg,bridge_146.jpg,bridge_27.jpg,left,badlands_176.jpg,bridge_146.jpg,highway_112.jpg,playground_116.jpg,playground_116.jpg,playground_116.jpg,1.0,right,2.41,0.0,bridge,bridge_27.jpg,8.375,1.4572,A2D009L2PJ6641
338,A2D009L2PJ6641,30,Female,playground_240.jpg,playground_240.jpg,playground_40.jpg,left,playground_240.jpg,badlands_100.jpg,golf_course_42.jpg,highway_99.jpg,highway_99.jpg,highway_99.jpg,0.0,left,1.6137,1.0,playground,playground_40.jpg,8.4375,1.6759,A2D009L2PJ6641
339,A2D009L2PJ6641,30,Female,playground_10.jpg,playground_122.jpg,playground_10.jpg,right,bridge_169.jpg,highway_227.jpg,playground_10.jpg,mountain_84.jpg,mountain_84.jpg,mountain_84.jpg,2.0,right,1.1049,0.0,playground,playground_122.jpg,8.65625,1.9111,A2D009L2PJ6641
340,A2D009L2PJ6641,30,Female,badlands_70.jpg,badlands_102.jpg,badlands_70.jpg,right,mountain_292.jpg,playground_181.jpg,badlands_70.jpg,golf_course_198.jpg,golf_course_198.jpg,golf_course_198.jpg,2.0,right,1.4518,0.0,badlands,badlands_102.jpg,7.708333333,2.2475,A2D009L2PJ6641
341,A2D009L2PJ6641,30,Female,highway_415.jpg,highway_415.jpg,highway_174.jpg,left,highway_415.jpg,playground_95.jpg,golf_course_320.jpg,mountain_296.jpg,mountain_296.jpg,mountain_296.jpg,0.0,right,1.5966,1.0,highway,highway_174.jpg,8.645833333,2.8122,A2D009L2PJ6641
342,A2D009L2PJ6641,30,Female,badlands_221.jpg,badlands_207.jpg,badlands_221.jpg,right,mountain_115.jpg,badlands_221.jpg,golf_course_43.jpg,bridge_64.jpg,bridge_64.jpg,bridge_64.jpg,1.0,right,1.2818,1.0,badlands,badlands_207.jpg,6.875,2.2907,A2D009L2PJ6641
343,A2D009L2PJ6641,30,Female,bridge_108.jpg,bridge_108.jpg,bridge_116.jpg,left,golf_course_290.jpg,bridge_108.jpg,highway_114.jpg,playground_168.jpg,playground_168.jpg,playground_168.jpg,1.0,right,1.6171,0.0,bridge,bridge_116.jpg,7.65625,1.8558,A2D009L2PJ6641
344,A2D009L2PJ6641,30,Female,highway_209.jpg,highway_209.jpg,highway_122.jpg,left,playground_103.jpg,highway_209.jpg,golf_course_46.jpg,bridge_2.jpg,bridge_2.jpg,bridge_2.jpg,1.0,left,1.8129,1.0,highway,highway_122.jpg,8.864583333,2.2347,A2D009L2PJ6641
345,A2D009L2PJ6641,30,Female,playground_117.jpg,playground_117.jpg,playground_167.jpg,left,playground_117.jpg,mountain_104.jpg,golf_course_329.jpg,bridge_26.jpg,bridge_26.jpg,bridge_26.jpg,0.0,right,1.633,0.0,playground,playground_167.jpg,8.770833333,1.5026,A2D009L2PJ6641
346,A2D009L2PJ6641,30,Female,golf_course_87.jpg,golf_course_130.jpg,golf_course_87.jpg,right,golf_course_87.jpg,highway_88.jpg,mountain_162.jpg,playground_264.jpg,playground_264.jpg,playground_264.jpg,0.0,right,1.9862,0.0,golf,golf_course_130.jpg,8.552083333,2.2,A2D009L2PJ6641
347,A2D009L2PJ6641,30,Female,golf_course_214.jpg,golf_course_317.jpg,golf_course_214.jpg,right,golf_course_214.jpg,playground_209.jpg,highway_146.jpg,bridge_49.jpg,bridge_49.jpg,bridge_49.jpg,0.0,right,0.9753,1.0,golf,golf_course_317.jpg,8.3125,1.4024,A2D009L2PJ6641
348,A2D009L2PJ6641,30,Female,mountain_57.jpg,mountain_138.jpg,mountain_57.jpg,right,mountain_57.jpg,playground_249.jpg,bridge_18.jpg,golf_course_102.jpg,golf_course_102.jpg,golf_course_102.jpg,0.0,right,1.5832,1.0,mountain,mountain_138.jpg,6.864583333,2.1334,A2D009L2PJ6641
349,A2D009L2PJ6641,30,Female,bridge_191.jpg,bridge_191.jpg,bridge_184.jpg,left,mountain_280.jpg,bridge_191.jpg,badlands_200.jpg,golf_course_166.jpg,golf_course_166.jpg,golf_course_166.jpg,1.0,left,0.9505,0.0,bridge,bridge_184.jpg,7.322916667,1.9158,A2D009L2PJ6641
350,A2D009L2PJ6641,30,Female,playground_76.jpg,playground_76.jpg,playground_72.jpg,left,playground_76.jpg,badlands_59.jpg,golf_course_83.jpg,bridge_47.jpg,bridge_47.jpg,bridge_47.jpg,0.0,right,2.0811,1.0,playground,playground_72.jpg,8.6875,1.798,A2D009L2PJ6641
351,A2D009L2PJ6641,30,Female,bridge_65.jpg,bridge_65.jpg,bridge_181.jpg,left,playground_90.jpg,bridge_65.jpg,mountain_199.jpg,highway_244.jpg,highway_244.jpg,highway_244.jpg,1.0,right,1.3434,0.0,bridge,bridge_181.jpg,8.6875,1.4701,A2D009L2PJ6641
352,A2D009L2PJ6641,30,Female,mountain_222.jpg,mountain_244.jpg,mountain_222.jpg,right,golf_course_258.jpg,bridge_124.jpg,mountain_222.jpg,playground_123.jpg,playground_123.jpg,playground_123.jpg,2.0,left,1.7042,0.0,mountain,mountain_244.jpg,6.46875,2.0718,A2D009L2PJ6641
353,A2D009L2PJ6641,30,Female,golf_course_195.jpg,golf_course_25.jpg,golf_course_195.jpg,right,bridge_259.jpg,badlands_226.jpg,golf_course_195.jpg,highway_333.jpg,highway_333.jpg,highway_333.jpg,2.0,right,1.5396,0.0,golf,golf_course_25.jpg,5.395833333,2.7059,A2D009L2PJ6641
354,A2D009L2PJ6641,30,Female,golf_course_78.jpg,golf_course_78.jpg,golf_course_101.jpg,left,golf_course_78.jpg,badlands_220.jpg,highway_234.jpg,mountain_179.jpg,mountain_179.jpg,mountain_179.jpg,0.0,left,1.6225,1.0,golf,golf_course_101.jpg,8.0625,1.998,A2D009L2PJ6641
355,A2D009L2PJ6641,30,Female,badlands_21.jpg,badlands_21.jpg,badlands_1.jpg,left,badlands_21.jpg,mountain_26.jpg,playground_124.jpg,bridge_123.jpg,bridge_123.jpg,bridge_123.jpg,0.0,left,1.4635,0.0,badlands,badlands_1.jpg,8.333333333,1.8528,A2D009L2PJ6641
356,A2D009L2PJ6641,30,Female,bridge_172.jpg,bridge_163.jpg,bridge_172.jpg,right,badlands_173.jpg,highway_175.jpg,bridge_172.jpg,mountain_107.jpg,mountain_107.jpg,mountain_107.jpg,2.0,left,1.5978,1.0,bridge,bridge_163.jpg,8.333333333,1.3752,A2D009L2PJ6641
357,A2D009L2PJ6641,30,Female,mountain_293.jpg,mountain_47.jpg,mountain_293.jpg,right,highway_159.jpg,badlands_54.jpg,mountain_293.jpg,playground_108.jpg,playground_108.jpg,playground_108.jpg,2.0,right,2.0427,1.0,mountain,mountain_47.jpg,8.40625,1.7869,A2D009L2PJ6641
358,A2D009L2PJ6641,30,Female,mountain_154.jpg,mountain_95.jpg,mountain_154.jpg,right,bridge_106.jpg,mountain_154.jpg,playground_77.jpg,badlands_174.jpg,badlands_174.jpg,badlands_174.jpg,1.0,right,1.4355,1.0,mountain,mountain_95.jpg,6.395833333,5.6439,A2D009L2PJ6641
359,A2D009L2PJ6641,30,Female,playground_145.jpg,playground_145.jpg,playground_229.jpg,left,mountain_228.jpg,badlands_45.jpg,playground_145.jpg,highway_402.jpg,highway_402.jpg,highway_402.jpg,2.0,right,2.3037,0.0,playground,playground_229.jpg,7.166666667,2.1673,A2D009L2PJ6641
360,A27B8SXCOOF807,30,male,mountain_123.jpg,mountain_189.jpg,mountain_123.jpg,right,badlands_226.jpg,mountain_123.jpg,bridge_52.jpg,golf_course_27.jpg,golf_course_27.jpg,golf_course_27.jpg,1.0,right,1.0612,1.0,mountain,mountain_189.jpg,6.883694262,3.9721,A27B8SXCOOF807
361,A27B8SXCOOF807,30,male,badlands_137.jpg,badlands_137.jpg,badlands_194.jpg,left,mountain_126.jpg,golf_course_102.jpg,badlands_137.jpg,playground_6.jpg,playground_6.jpg,playground_6.jpg,2.0,left,0.5982,0.0,badlands,badlands_194.jpg,7.634045217,1.1506,A27B8SXCOOF807
362,A27B8SXCOOF807,30,male,highway_273.jpg,highway_273.jpg,highway_384.jpg,left,playground_124.jpg,highway_273.jpg,bridge_158.jpg,golf_course_60.jpg,golf_course_60.jpg,golf_course_60.jpg,1.0,right,0.0672,0.0,highway,highway_384.jpg,8.040485649,1.0094,A27B8SXCOOF807
363,A27B8SXCOOF807,30,male,golf_course_87.jpg,golf_course_87.jpg,golf_course_161.jpg,left,bridge_239.jpg,golf_course_87.jpg,mountain_107.jpg,playground_178.jpg,playground_178.jpg,playground_178.jpg,1.0,left,2.6543,1.0,golf,golf_course_161.jpg,6.049970626,1.1071,A27B8SXCOOF807
364,A27B8SXCOOF807,30,male,playground_145.jpg,playground_145.jpg,playground_229.jpg,left,bridge_106.jpg,highway_196.jpg,playground_145.jpg,mountain_301.jpg,mountain_301.jpg,mountain_301.jpg,2.0,right,4.4639,0.0,playground,playground_229.jpg,6.633577012,0.6725,A27B8SXCOOF807
365,A27B8SXCOOF807,30,male,mountain_154.jpg,mountain_154.jpg,mountain_95.jpg,left,mountain_154.jpg,golf_course_316.jpg,highway_75.jpg,playground_30.jpg,playground_30.jpg,playground_30.jpg,0.0,right,8.9489,1.0,mountain,mountain_95.jpg,6.696106126,1.1729,A27B8SXCOOF807
366,A27B8SXCOOF807,30,male,golf_course_331.jpg,golf_course_331.jpg,golf_course_26.jpg,left,bridge_25.jpg,mountain_71.jpg,golf_course_331.jpg,badlands_27.jpg,badlands_27.jpg,badlands_27.jpg,2.0,right,7.9602,1.0,golf,golf_course_26.jpg,7.654888785,0.8219,A27B8SXCOOF807
367,A27B8SXCOOF807,30,male,bridge_65.jpg,bridge_181.jpg,bridge_65.jpg,right,playground_77.jpg,badlands_142.jpg,bridge_65.jpg,highway_402.jpg,highway_402.jpg,highway_402.jpg,2.0,left,5.3117,0.0,bridge,bridge_181.jpg,6.894115649,0.9727,A27B8SXCOOF807
368,A27B8SXCOOF807,30,male,golf_course_78.jpg,golf_course_101.jpg,golf_course_78.jpg,right,golf_course_78.jpg,badlands_31.jpg,playground_41.jpg,bridge_21.jpg,bridge_21.jpg,bridge_21.jpg,0.0,left,4.1825,1.0,golf,golf_course_101.jpg,5.820696943,1.2794,A27B8SXCOOF807
369,A27B8SXCOOF807,30,male,bridge_202.jpg,bridge_202.jpg,bridge_31.jpg,left,mountain_224.jpg,golf_course_206.jpg,bridge_202.jpg,badlands_210.jpg,badlands_210.jpg,badlands_210.jpg,2.0,left,10.6456,0.0,bridge,bridge_31.jpg,7.988377922,1.8114,A27B8SXCOOF807
370,A27B8SXCOOF807,30,male,bridge_91.jpg,bridge_253.jpg,bridge_91.jpg,right,golf_course_128.jpg,bridge_91.jpg,badlands_166.jpg,playground_90.jpg,playground_90.jpg,playground_90.jpg,1.0,left,3.7924,0.0,bridge,bridge_253.jpg,7.967535149,25.2252,A27B8SXCOOF807
371,A27B8SXCOOF807,30,male,golf_course_214.jpg,golf_course_317.jpg,golf_course_214.jpg,right,badlands_75.jpg,golf_course_214.jpg,bridge_10.jpg,highway_244.jpg,highway_244.jpg,highway_244.jpg,1.0,left,57.1268,1.0,golf,golf_course_317.jpg,8.394818354,0.84,A27B8SXCOOF807
372,A27B8SXCOOF807,30,male,playground_76.jpg,playground_72.jpg,playground_76.jpg,right,bridge_124.jpg,mountain_160.jpg,playground_76.jpg,badlands_220.jpg,badlands_220.jpg,badlands_220.jpg,2.0,left,1.1591,1.0,playground,playground_72.jpg,8.509455195,0.275,A27B8SXCOOF807
373,A27B8SXCOOF807,30,male,golf_course_195.jpg,golf_course_195.jpg,golf_course_2.jpg,left,golf_course_195.jpg,badlands_54.jpg,playground_249.jpg,highway_398.jpg,highway_398.jpg,highway_398.jpg,0.0,left,1.4516,1.0,golf,golf_course_2.jpg,8.196808831,0.2704,A27B8SXCOOF807
374,A27B8SXCOOF807,30,male,mountain_57.jpg,mountain_193.jpg,mountain_57.jpg,right,golf_course_83.jpg,mountain_57.jpg,bridge_259.jpg,playground_200.jpg,playground_200.jpg,playground_200.jpg,1.0,left,1.3692,0.0,mountain,mountain_193.jpg,6.987909717,0.2308,A27B8SXCOOF807
375,A27B8SXCOOF807,30,male,badlands_52.jpg,badlands_52.jpg,badlands_63.jpg,left,badlands_52.jpg,mountain_161.jpg,playground_116.jpg,golf_course_198.jpg,golf_course_198.jpg,golf_course_198.jpg,0.0,left,1.014,1.0,badlands,badlands_63.jpg,6.842007921,0.2809,A27B8SXCOOF807
376,A27B8SXCOOF807,30,male,mountain_232.jpg,mountain_3.jpg,mountain_232.jpg,right,highway_234.jpg,bridge_130.jpg,mountain_232.jpg,golf_course_325.jpg,golf_course_325.jpg,golf_course_325.jpg,2.0,left,1.116,0.0,mountain,mountain_3.jpg,6.633577012,0.2517,A27B8SXCOOF807
377,A27B8SXCOOF807,30,male,highway_93.jpg,highway_369.jpg,highway_93.jpg,right,highway_93.jpg,golf_course_156.jpg,badlands_100.jpg,mountain_44.jpg,mountain_44.jpg,mountain_44.jpg,0.0,right,0.7369,1.0,highway,highway_369.jpg,6.602312853,0.2688,A27B8SXCOOF807
378,A27B8SXCOOF807,30,male,highway_415.jpg,highway_174.jpg,highway_415.jpg,right,highway_415.jpg,playground_5.jpg,badlands_64.jpg,bridge_49.jpg,bridge_49.jpg,bridge_49.jpg,0.0,left,0.9242,1.0,highway,highway_174.jpg,7.894583854,0.6684,A27B8SXCOOF807
379,A27B8SXCOOF807,30,male,mountain_156.jpg,mountain_156.jpg,mountain_128.jpg,left,mountain_156.jpg,badlands_174.jpg,playground_42.jpg,golf_course_302.jpg,golf_course_302.jpg,golf_course_302.jpg,0.0,right,1.2461,0.0,mountain,mountain_128.jpg,7.894583854,0.242,A27B8SXCOOF807
380,A27B8SXCOOF807,30,male,bridge_191.jpg,bridge_191.jpg,bridge_75.jpg,left,badlands_99.jpg,mountain_104.jpg,bridge_191.jpg,golf_course_122.jpg,golf_course_122.jpg,golf_course_122.jpg,2.0,left,1.4004,1.0,bridge,bridge_75.jpg,8.363553399,0.5585,A27B8SXCOOF807
