,workID,Age,Gender,target,image1,image2,correct,background_0,background_1,background_2,background_3,background_4,background_5,target_index,test_key_resp.keys,test_key_resp.rt,distractor_level,category,selected_dist,slider_part2.response,slider_part2.rt,subject
0,A2FAAOGWUTTTF5,46,Female,highway_273.jpg,highway_273.jpg,highway_384.jpg,left,badlands_200.jpg,highway_273.jpg,golf_course_206.jpg,mountain_199.jpg,mountain_199.jpg,mountain_199.jpg,1.0,left,2.8364,0.0,highway,highway_384.jpg,6.007407407,3.3783,A2FAAOGWUTTTF5
1,A2FAAOGWUTTTF5,46,Female,golf_course_195.jpg,golf_course_195.jpg,golf_course_25.jpg,left,badlands_186.jpg,mountain_202.jpg,golf_course_195.jpg,bridge_78.jpg,bridge_78.jpg,bridge_78.jpg,2.0,left,2.0591,0.0,golf,golf_course_25.jpg,6.992592593,30.0809,A2FAAOGWUTTTF5
2,A2FAAOGWUTTTF5,46,Female,playground_131.jpg,playground_164.jpg,playground_131.jpg,right,badlands_75.jpg,playground_131.jpg,highway_357.jpg,golf_course_264.jpg,golf_course_264.jpg,golf_course_264.jpg,1.0,right,2.0967,1.0,playground,playground_164.jpg,4.992592593,1.8085,A2FAAOGWUTTTF5
3,A2FAAOGWUTTTF5,46,Female,golf_course_193.jpg,golf_course_193.jpg,golf_course_235.jpg,left,golf_course_193.jpg,badlands_27.jpg,playground_42.jpg,mountain_253.jpg,mountain_253.jpg,mountain_253.jpg,0.0,right,2.0728,0.0,golf,golf_course_235.jpg,7.955555556,1.5734,A2FAAOGWUTTTF5
4,A2FAAOGWUTTTF5,46,Female,bridge_128.jpg,bridge_128.jpg,bridge_61.jpg,left,golf_course_102.jpg,playground_158.jpg,bridge_128.jpg,highway_248.jpg,highway_248.jpg,highway_248.jpg,2.0,left,1.4963,0.0,bridge,bridge_61.jpg,5.992592593,1.5494,A2FAAOGWUTTTF5
5,A2FAAOGWUTTTF5,46,Female,playground_144.jpg,playground_144.jpg,playground_137.jpg,left,badlands_176.jpg,playground_144.jpg,bridge_48.jpg,golf_course_204.jpg,golf_course_204.jpg,golf_course_204.jpg,1.0,left,7.8168,0.0,playground,playground_137.jpg,8.044444444,24.9372,A2FAAOGWUTTTF5
6,A2FAAOGWUTTTF5,46,Female,mountain_110.jpg,mountain_110.jpg,mountain_223.jpg,left,badlands_174.jpg,mountain_110.jpg,bridge_124.jpg,highway_25.jpg,highway_25.jpg,highway_25.jpg,1.0,left,14.6013,1.0,mountain,mountain_223.jpg,6.022222222,2.1878,A2FAAOGWUTTTF5
7,A2FAAOGWUTTTF5,46,Female,highway_245.jpg,highway_245.jpg,highway_206.jpg,left,mountain_162.jpg,highway_245.jpg,bridge_182.jpg,playground_46.jpg,playground_46.jpg,playground_46.jpg,1.0,right,4.2623,1.0,highway,highway_206.jpg,7.014814815,1.8164,A2FAAOGWUTTTF5
8,A2FAAOGWUTTTF5,46,Female,playground_219.jpg,playground_21.jpg,playground_219.jpg,right,playground_219.jpg,badlands_59.jpg,highway_249.jpg,bridge_34.jpg,bridge_34.jpg,bridge_34.jpg,0.0,left,14.4981,0.0,playground,playground_21.jpg,3.992592593,1.5395,A2FAAOGWUTTTF5
9,A2FAAOGWUTTTF5,46,Female,bridge_108.jpg,bridge_116.jpg,bridge_108.jpg,right,playground_66.jpg,mountain_132.jpg,bridge_108.jpg,golf_course_198.jpg,golf_course_198.jpg,golf_course_198.jpg,2.0,right,4.631,0.0,bridge,bridge_116.jpg,7.977777778,1.8781,A2FAAOGWUTTTF5
10,A2FAAOGWUTTTF5,46,Female,highway_415.jpg,highway_415.jpg,highway_60.jpg,left,highway_415.jpg,mountain_44.jpg,bridge_177.jpg,golf_course_128.jpg,golf_course_128.jpg,golf_course_128.jpg,0.0,left,6.6783,0.0,highway,highway_60.jpg,5.992592593,5.2875,A2FAAOGWUTTTF5
11,A2FAAOGWUTTTF5,46,Female,highway_359.jpg,highway_359.jpg,highway_389.jpg,left,highway_359.jpg,bridge_204.jpg,mountain_66.jpg,badlands_173.jpg,badlands_173.jpg,badlands_173.jpg,0.0,left,6.0002,0.0,highway,highway_389.jpg,5.955555556,69.6556,A2FAAOGWUTTTF5
12,A2FAAOGWUTTTF5,46,Female,golf_course_188.jpg,golf_course_188.jpg,golf_course_157.jpg,left,playground_7.jpg,bridge_239.jpg,golf_course_188.jpg,badlands_153.jpg,badlands_153.jpg,badlands_153.jpg,2.0,left,6.0924,0.0,golf,golf_course_157.jpg,6.096296296,51.1316,A2FAAOGWUTTTF5
13,A2FAAOGWUTTTF5,46,Female,mountain_123.jpg,mountain_94.jpg,mountain_123.jpg,right,mountain_123.jpg,badlands_193.jpg,highway_159.jpg,golf_course_58.jpg,golf_course_58.jpg,golf_course_58.jpg,0.0,right,1.7479,0.0,mountain,mountain_94.jpg,5.97037037,103.2783,A2FAAOGWUTTTF5
14,A2FAAOGWUTTTF5,46,Female,bridge_172.jpg,bridge_172.jpg,bridge_163.jpg,left,bridge_172.jpg,badlands_142.jpg,golf_course_223.jpg,highway_114.jpg,highway_114.jpg,highway_114.jpg,0.0,left,11.9248,1.0,bridge,bridge_163.jpg,7.014814815,1.3711,A2FAAOGWUTTTF5
15,A2FAAOGWUTTTF5,46,Female,mountain_101.jpg,mountain_221.jpg,mountain_101.jpg,right,badlands_152.jpg,mountain_101.jpg,golf_course_320.jpg,bridge_26.jpg,bridge_26.jpg,bridge_26.jpg,1.0,left,10.2956,1.0,mountain,mountain_221.jpg,3.933333333,2.4634,A2FAAOGWUTTTF5
16,A2FAAOGWUTTTF5,46,Female,playground_60.jpg,playground_60.jpg,playground_268.jpg,left,badlands_58.jpg,highway_12.jpg,playground_60.jpg,mountain_126.jpg,mountain_126.jpg,mountain_126.jpg,2.0,left,10.3076,0.0,playground,playground_268.jpg,6.392592593,1.2727,A2FAAOGWUTTTF5
17,A2FAAOGWUTTTF5,46,Female,mountain_222.jpg,mountain_93.jpg,mountain_222.jpg,right,mountain_222.jpg,highway_166.jpg,golf_course_258.jpg,badlands_54.jpg,badlands_54.jpg,badlands_54.jpg,0.0,right,1.9768,1.0,mountain,mountain_93.jpg,5.911111111,1.0023,A2FAAOGWUTTTF5
18,A2FAAOGWUTTTF5,46,Female,playground_240.jpg,playground_240.jpg,playground_40.jpg,left,bridge_238.jpg,playground_240.jpg,mountain_111.jpg,badlands_177.jpg,badlands_177.jpg,badlands_177.jpg,1.0,left,0.9386,1.0,playground,playground_40.jpg,4.82962963,0.5941,A2FAAOGWUTTTF5
19,A2FAAOGWUTTTF5,46,Female,golf_course_15.jpg,golf_course_97.jpg,golf_course_15.jpg,right,golf_course_15.jpg,badlands_130.jpg,highway_336.jpg,mountain_24.jpg,mountain_24.jpg,mountain_24.jpg,0.0,left,3.3779,1.0,golf,golf_course_97.jpg,7.059259259,0.9243,A2FAAOGWUTTTF5
20,A2FAAOGWUTTTF5,46,Female,mountain_57.jpg,mountain_138.jpg,mountain_57.jpg,right,mountain_57.jpg,badlands_2.jpg,golf_course_290.jpg,bridge_218.jpg,bridge_218.jpg,bridge_218.jpg,0.0,left,0.0159,1.0,mountain,mountain_138.jpg,4.037037037,0.7685,A2FAAOGWUTTTF5
21,A2FAAOGWUTTTF5,46,Female,highway_394.jpg,highway_406.jpg,highway_394.jpg,right,highway_394.jpg,bridge_132.jpg,golf_course_43.jpg,playground_178.jpg,playground_178.jpg,playground_178.jpg,0.0,left,4.4169,1.0,highway,highway_406.jpg,6.940740741,0.9672,A2FAAOGWUTTTF5
22,A2FAAOGWUTTTF5,46,Female,golf_course_217.jpg,golf_course_217.jpg,golf_course_262.jpg,left,playground_41.jpg,golf_course_217.jpg,highway_196.jpg,mountain_115.jpg,mountain_115.jpg,mountain_115.jpg,1.0,right,1.759,1.0,golf,golf_course_262.jpg,6.007407407,0.5737,A2FAAOGWUTTTF5
23,A2FAAOGWUTTTF5,46,Female,playground_76.jpg,playground_22.jpg,playground_76.jpg,right,playground_76.jpg,mountain_160.jpg,bridge_47.jpg,badlands_100.jpg,badlands_100.jpg,badlands_100.jpg,0.0,left,3.0398,0.0,playground,playground_22.jpg,4.896296296,0.4235,A2FAAOGWUTTTF5
24,A2FAAOGWUTTTF5,46,Female,mountain_230.jpg,mountain_230.jpg,mountain_184.jpg,left,mountain_230.jpg,golf_course_316.jpg,highway_23.jpg,bridge_158.jpg,bridge_158.jpg,bridge_158.jpg,0.0,left,9.1003,0.0,mountain,mountain_184.jpg,3.562962963,0.7618,A2FAAOGWUTTTF5
25,A2FAAOGWUTTTF5,46,Female,playground_10.jpg,playground_12.jpg,playground_10.jpg,right,highway_319.jpg,mountain_161.jpg,playground_10.jpg,golf_course_88.jpg,golf_course_88.jpg,golf_course_88.jpg,2.0,left,10.2425,1.0,playground,playground_12.jpg,7.074074074,0.8024,A2FAAOGWUTTTF5
26,A2FAAOGWUTTTF5,46,Female,bridge_91.jpg,bridge_253.jpg,bridge_91.jpg,right,bridge_91.jpg,mountain_105.jpg,golf_course_57.jpg,highway_342.jpg,highway_342.jpg,highway_342.jpg,0.0,left,17.342,0.0,bridge,bridge_253.jpg,7.903703704,0.5931,A2FAAOGWUTTTF5
27,A2FAAOGWUTTTF5,46,Female,playground_145.jpg,playground_145.jpg,playground_242.jpg,left,badlands_218.jpg,golf_course_156.jpg,playground_145.jpg,mountain_307.jpg,mountain_307.jpg,mountain_307.jpg,2.0,left,1.4052,1.0,playground,playground_242.jpg,4.948148148,1.7492,A2FAAOGWUTTTF5
28,A2FAAOGWUTTTF5,46,Female,bridge_256.jpg,bridge_256.jpg,bridge_211.jpg,left,bridge_256.jpg,badlands_31.jpg,mountain_228.jpg,golf_course_21.jpg,golf_course_21.jpg,golf_course_21.jpg,0.0,left,0.9541,1.0,bridge,bridge_211.jpg,5.911111111,1.8808,A2FAAOGWUTTTF5
29,A2FAAOGWUTTTF5,46,Female,golf_course_309.jpg,golf_course_309.jpg,golf_course_209.jpg,left,playground_5.jpg,golf_course_309.jpg,bridge_106.jpg,badlands_220.jpg,badlands_220.jpg,badlands_220.jpg,1.0,left,10.3929,1.0,golf,golf_course_209.jpg,6.977777778,0.9645,A2FAAOGWUTTTF5
30,A2FAAOGWUTTTF5,46,Female,mountain_156.jpg,mountain_128.jpg,mountain_156.jpg,right,mountain_156.jpg,golf_course_46.jpg,playground_123.jpg,bridge_179.jpg,bridge_179.jpg,bridge_179.jpg,0.0,left,6.0765,0.0,mountain,mountain_128.jpg,8.0,0.9647,A2FAAOGWUTTTF5
31,A2FAAOGWUTTTF5,46,Female,badlands_21.jpg,badlands_1.jpg,badlands_21.jpg,right,badlands_21.jpg,highway_261.jpg,playground_173.jpg,bridge_19.jpg,bridge_19.jpg,bridge_19.jpg,0.0,left,18.7601,0.0,badlands,badlands_1.jpg,6.014814815,23.1795,A2FAAOGWUTTTF5
32,A2FAAOGWUTTTF5,46,Female,badlands_137.jpg,badlands_137.jpg,badlands_139.jpg,left,golf_course_60.jpg,badlands_137.jpg,highway_149.jpg,bridge_263.jpg,bridge_263.jpg,bridge_263.jpg,1.0,left,14.7282,1.0,badlands,badlands_139.jpg,6.940740741,1.7375,A2FAAOGWUTTTF5
33,A2FAAOGWUTTTF5,46,Female,golf_course_214.jpg,golf_course_317.jpg,golf_course_214.jpg,right,golf_course_214.jpg,mountain_224.jpg,highway_227.jpg,bridge_251.jpg,bridge_251.jpg,bridge_251.jpg,0.0,right,2.1701,1.0,golf,golf_course_317.jpg,4.82962963,0.9983,A2FAAOGWUTTTF5
34,A2FAAOGWUTTTF5,46,Female,mountain_154.jpg,mountain_154.jpg,mountain_131.jpg,left,playground_6.jpg,badlands_210.jpg,mountain_154.jpg,highway_18.jpg,highway_18.jpg,highway_18.jpg,2.0,left,0.5636,0.0,mountain,mountain_131.jpg,5.985185185,0.801,A2FAAOGWUTTTF5
35,A2FAAOGWUTTTF5,46,Female,badlands_52.jpg,badlands_94.jpg,badlands_52.jpg,right,highway_144.jpg,badlands_52.jpg,mountain_166.jpg,playground_209.jpg,playground_209.jpg,playground_209.jpg,1.0,right,4.0646,0.0,badlands,badlands_94.jpg,6.985185185,0.8022,A2FAAOGWUTTTF5
36,A2FAAOGWUTTTF5,46,Female,highway_93.jpg,highway_93.jpg,highway_85.jpg,left,bridge_2.jpg,mountain_292.jpg,highway_93.jpg,badlands_30.jpg,badlands_30.jpg,badlands_30.jpg,2.0,left,3.4152,0.0,highway,highway_85.jpg,7.985185185,0.7966,A2FAAOGWUTTTF5
37,A2FAAOGWUTTTF5,46,Female,highway_177.jpg,highway_278.jpg,highway_177.jpg,right,playground_181.jpg,bridge_169.jpg,highway_177.jpg,mountain_84.jpg,mountain_84.jpg,mountain_84.jpg,2.0,left,1.159,1.0,highway,highway_278.jpg,8.896296296,0.7804,A2FAAOGWUTTTF5
38,A2FAAOGWUTTTF5,46,Female,mountain_232.jpg,mountain_3.jpg,mountain_232.jpg,right,mountain_232.jpg,golf_course_52.jpg,highway_117.jpg,playground_90.jpg,playground_90.jpg,playground_90.jpg,0.0,right,1.5526,0.0,mountain,mountain_3.jpg,4.059259259,0.7591,A2FAAOGWUTTTF5
39,A2FAAOGWUTTTF5,46,Female,highway_294.jpg,highway_368.jpg,highway_294.jpg,right,badlands_35.jpg,highway_294.jpg,playground_235.jpg,bridge_259.jpg,bridge_259.jpg,bridge_259.jpg,1.0,left,1.5621,1.0,highway,highway_368.jpg,5.377777778,0.806,A2FAAOGWUTTTF5
40,A2FAAOGWUTTTF5,46,Female,badlands_221.jpg,badlands_221.jpg,badlands_207.jpg,left,highway_234.jpg,badlands_221.jpg,playground_168.jpg,golf_course_1.jpg,golf_course_1.jpg,golf_course_1.jpg,1.0,left,1.3585,1.0,badlands,badlands_207.jpg,6.4,0.6086,A2FAAOGWUTTTF5
41,A2FAAOGWUTTTF5,46,Female,golf_course_87.jpg,golf_course_161.jpg,golf_course_87.jpg,right,bridge_230.jpg,badlands_99.jpg,golf_course_87.jpg,highway_37.jpg,highway_37.jpg,highway_37.jpg,2.0,left,1.5506,1.0,golf,golf_course_161.jpg,7.311111111,0.6158,A2FAAOGWUTTTF5
42,A2FAAOGWUTTTF5,46,Female,playground_117.jpg,playground_167.jpg,playground_117.jpg,right,playground_117.jpg,highway_75.jpg,mountain_233.jpg,bridge_103.jpg,bridge_103.jpg,bridge_103.jpg,0.0,left,1.1514,0.0,playground,playground_167.jpg,7.0,5.674,A2FAAOGWUTTTF5
43,A2FAAOGWUTTTF5,46,Female,highway_156.jpg,highway_293.jpg,highway_156.jpg,right,highway_156.jpg,badlands_38.jpg,golf_course_302.jpg,bridge_257.jpg,bridge_257.jpg,bridge_257.jpg,0.0,left,15.5964,1.0,highway,highway_293.jpg,8.0,1.0021,A2FAAOGWUTTTF5
44,A2FAAOGWUTTTF5,46,Female,bridge_65.jpg,bridge_181.jpg,bridge_65.jpg,right,bridge_65.jpg,badlands_136.jpg,golf_course_159.jpg,mountain_301.jpg,mountain_301.jpg,mountain_301.jpg,0.0,left,2.8777,0.0,bridge,bridge_181.jpg,4.992592593,1.0292,A2FAAOGWUTTTF5
45,A2FAAOGWUTTTF5,46,Female,golf_course_78.jpg,golf_course_78.jpg,golf_course_134.jpg,left,badlands_89.jpg,mountain_34.jpg,golf_course_78.jpg,playground_259.jpg,playground_259.jpg,playground_259.jpg,2.0,left,19.3849,0.0,golf,golf_course_134.jpg,6.014814815,0.6123,A2FAAOGWUTTTF5
46,A2FAAOGWUTTTF5,46,Female,bridge_202.jpg,bridge_38.jpg,bridge_202.jpg,right,highway_112.jpg,playground_241.jpg,bridge_202.jpg,mountain_26.jpg,mountain_26.jpg,mountain_26.jpg,2.0,left,8.5893,1.0,bridge,bridge_38.jpg,6.962962963,0.8001,A2FAAOGWUTTTF5
47,A2FAAOGWUTTTF5,46,Female,highway_209.jpg,highway_209.jpg,highway_122.jpg,left,golf_course_185.jpg,highway_209.jpg,badlands_64.jpg,bridge_206.jpg,bridge_206.jpg,bridge_206.jpg,1.0,left,1.5487,1.0,highway,highway_122.jpg,7.992592593,0.6212,A2FAAOGWUTTTF5
48,A2FAAOGWUTTTF5,46,Female,badlands_24.jpg,badlands_24.jpg,badlands_3.jpg,left,mountain_12.jpg,badlands_24.jpg,highway_175.jpg,playground_191.jpg,playground_191.jpg,playground_191.jpg,1.0,right,1.1717,0.0,badlands,badlands_3.jpg,8.948148148,0.6282,A2FAAOGWUTTTF5
49,A2FAAOGWUTTTF5,46,Female,golf_course_331.jpg,golf_course_331.jpg,golf_course_26.jpg,left,mountain_280.jpg,playground_95.jpg,golf_course_331.jpg,highway_147.jpg,highway_147.jpg,highway_147.jpg,2.0,left,1.1678,1.0,golf,golf_course_26.jpg,5.007407407,0.9946,A2FAAOGWUTTTF5
50,A2FAAOGWUTTTF5,46,Female,badlands_23.jpg,badlands_101.jpg,badlands_23.jpg,right,bridge_162.jpg,badlands_23.jpg,golf_course_325.jpg,playground_193.jpg,playground_193.jpg,playground_193.jpg,1.0,left,2.8978,1.0,badlands,badlands_101.jpg,6.02962963,0.7854,A2FAAOGWUTTTF5
51,A2FAAOGWUTTTF5,46,Female,mountain_293.jpg,mountain_293.jpg,mountain_47.jpg,left,playground_172.jpg,mountain_293.jpg,golf_course_334.jpg,badlands_45.jpg,badlands_45.jpg,badlands_45.jpg,1.0,left,12.4772,1.0,mountain,mountain_47.jpg,7.0,0.5836,A2FAAOGWUTTTF5
52,A2FAAOGWUTTTF5,46,Female,bridge_191.jpg,bridge_191.jpg,bridge_184.jpg,left,bridge_191.jpg,golf_course_152.jpg,playground_200.jpg,mountain_71.jpg,mountain_71.jpg,mountain_71.jpg,0.0,right,2.3208,0.0,bridge,bridge_184.jpg,8.037037037,0.621,A2FAAOGWUTTTF5
53,A2FAAOGWUTTTF5,46,Female,badlands_70.jpg,badlands_102.jpg,badlands_70.jpg,right,golf_course_337.jpg,bridge_25.jpg,badlands_70.jpg,highway_11.jpg,highway_11.jpg,highway_11.jpg,2.0,left,2.0427,0.0,badlands,badlands_102.jpg,6.97037037,3.94,A2FAAOGWUTTTF5
54,A2FAAOGWUTTTF5,46,Female,playground_257.jpg,playground_257.jpg,playground_215.jpg,left,playground_257.jpg,bridge_52.jpg,golf_course_83.jpg,highway_402.jpg,highway_402.jpg,highway_402.jpg,0.0,left,7.6409,1.0,playground,playground_215.jpg,5.992592593,0.5913,A2FAAOGWUTTTF5
55,A2FAAOGWUTTTF5,46,Female,bridge_250.jpg,bridge_250.jpg,bridge_205.jpg,left,golf_course_173.jpg,bridge_250.jpg,playground_124.jpg,highway_99.jpg,highway_99.jpg,highway_99.jpg,1.0,left,14.0217,1.0,bridge,bridge_205.jpg,7.955555556,0.6219,A2FAAOGWUTTTF5
56,A2FAAOGWUTTTF5,46,Female,badlands_184.jpg,badlands_103.jpg,badlands_184.jpg,right,badlands_184.jpg,mountain_15.jpg,playground_77.jpg,bridge_64.jpg,bridge_64.jpg,bridge_64.jpg,0.0,right,9.6974,1.0,badlands,badlands_103.jpg,6.755555556,1.035,A2FAAOGWUTTTF5
57,A2FAAOGWUTTTF5,46,Female,badlands_113.jpg,badlands_225.jpg,badlands_113.jpg,right,mountain_104.jpg,badlands_113.jpg,golf_course_229.jpg,bridge_21.jpg,bridge_21.jpg,bridge_21.jpg,1.0,left,3.4727,0.0,badlands,badlands_225.jpg,6.096296296,0.4068,A2FAAOGWUTTTF5
58,A2FAAOGWUTTTF5,46,Female,badlands_222.jpg,badlands_34.jpg,badlands_222.jpg,right,mountain_212.jpg,playground_103.jpg,badlands_222.jpg,highway_13.jpg,highway_13.jpg,highway_13.jpg,2.0,right,4.7918,0.0,badlands,badlands_34.jpg,4.925925926,0.6093,A2FAAOGWUTTTF5
59,A2FAAOGWUTTTF5,46,Female,bridge_146.jpg,bridge_27.jpg,bridge_146.jpg,right,mountain_21.jpg,playground_3.jpg,bridge_146.jpg,golf_course_260.jpg,golf_course_260.jpg,golf_course_260.jpg,2.0,left,2.0755,0.0,bridge,bridge_27.jpg,4.2,0.7739,A2FAAOGWUTTTF5
60,A3EZTGN5K8K95R,30,male,mountain_154.jpg,mountain_95.jpg,mountain_154.jpg,right,mountain_154.jpg,golf_course_52.jpg,bridge_47.jpg,playground_235.jpg,playground_235.jpg,playground_235.jpg,0.0,left,1.6099,1.0,mountain,mountain_95.jpg,2.97,2.0328,A3EZTGN5K8K95R
61,A3EZTGN5K8K95R,30,male,bridge_191.jpg,bridge_75.jpg,bridge_191.jpg,right,bridge_191.jpg,highway_219.jpg,golf_course_198.jpg,playground_5.jpg,playground_5.jpg,playground_5.jpg,0.0,right,0.8518,1.0,bridge,bridge_75.jpg,4.03,1.4987,A3EZTGN5K8K95R
62,A3EZTGN5K8K95R,30,male,playground_10.jpg,playground_10.jpg,playground_122.jpg,left,badlands_27.jpg,golf_course_337.jpg,playground_10.jpg,bridge_21.jpg,bridge_21.jpg,bridge_21.jpg,2.0,right,0.0787,0.0,playground,playground_122.jpg,6.0,2.7034,A3EZTGN5K8K95R
63,A3EZTGN5K8K95R,30,male,mountain_156.jpg,mountain_156.jpg,mountain_295.jpg,left,golf_course_57.jpg,highway_112.jpg,mountain_156.jpg,badlands_89.jpg,badlands_89.jpg,badlands_89.jpg,2.0,left,0.0823,1.0,mountain,mountain_295.jpg,4.01,1.4841,A3EZTGN5K8K95R
64,A3EZTGN5K8K95R,30,male,highway_294.jpg,highway_368.jpg,highway_294.jpg,right,golf_course_58.jpg,highway_294.jpg,mountain_202.jpg,playground_90.jpg,playground_90.jpg,playground_90.jpg,1.0,left,1.7143,1.0,highway,highway_368.jpg,3.07,1.5561,A3EZTGN5K8K95R
65,A3EZTGN5K8K95R,30,male,badlands_52.jpg,badlands_52.jpg,badlands_63.jpg,left,highway_166.jpg,badlands_52.jpg,mountain_104.jpg,golf_course_223.jpg,golf_course_223.jpg,golf_course_223.jpg,1.0,right,2.3508,1.0,badlands,badlands_63.jpg,4.98,1.7128,A3EZTGN5K8K95R
66,A3EZTGN5K8K95R,30,male,playground_131.jpg,playground_131.jpg,playground_164.jpg,left,golf_course_325.jpg,playground_131.jpg,highway_11.jpg,bridge_26.jpg,bridge_26.jpg,bridge_26.jpg,1.0,left,1.5629,1.0,playground,playground_164.jpg,4.02,1.726,A3EZTGN5K8K95R
67,A3EZTGN5K8K95R,30,male,badlands_222.jpg,badlands_222.jpg,badlands_34.jpg,left,golf_course_122.jpg,badlands_222.jpg,highway_196.jpg,mountain_280.jpg,mountain_280.jpg,mountain_280.jpg,1.0,left,1.5036,0.0,badlands,badlands_34.jpg,3.11,2.2984,A3EZTGN5K8K95R
68,A3EZTGN5K8K95R,30,male,mountain_123.jpg,mountain_123.jpg,mountain_94.jpg,left,mountain_123.jpg,badlands_173.jpg,highway_25.jpg,playground_6.jpg,playground_6.jpg,playground_6.jpg,0.0,left,1.8959,0.0,mountain,mountain_94.jpg,3.06,0.9519,A3EZTGN5K8K95R
69,A3EZTGN5K8K95R,30,male,bridge_256.jpg,bridge_211.jpg,bridge_256.jpg,right,bridge_256.jpg,badlands_220.jpg,golf_course_260.jpg,mountain_235.jpg,mountain_235.jpg,mountain_235.jpg,0.0,left,2.7443,1.0,bridge,bridge_211.jpg,7.03,1.5629,A3EZTGN5K8K95R
70,A3EZTGN5K8K95R,30,male,playground_60.jpg,playground_60.jpg,playground_244.jpg,left,badlands_142.jpg,playground_60.jpg,bridge_120.jpg,mountain_166.jpg,mountain_166.jpg,mountain_166.jpg,1.0,right,33.9618,1.0,playground,playground_244.jpg,8.05,1.6319,A3EZTGN5K8K95R
71,A3EZTGN5K8K95R,30,male,playground_144.jpg,playground_144.jpg,playground_137.jpg,left,playground_144.jpg,golf_course_329.jpg,mountain_4.jpg,bridge_162.jpg,bridge_162.jpg,bridge_162.jpg,0.0,left,0.6234,0.0,playground,playground_137.jpg,6.97,1.3223,A3EZTGN5K8K95R
72,A3EZTGN5K8K95R,30,male,playground_240.jpg,playground_40.jpg,playground_240.jpg,right,golf_course_302.jpg,playground_240.jpg,highway_159.jpg,badlands_13.jpg,badlands_13.jpg,badlands_13.jpg,1.0,right,1.9625,1.0,playground,playground_40.jpg,6.04,1.6416,A3EZTGN5K8K95R
73,A3EZTGN5K8K95R,30,male,playground_145.jpg,playground_229.jpg,playground_145.jpg,right,badlands_95.jpg,mountain_301.jpg,playground_145.jpg,bridge_182.jpg,bridge_182.jpg,bridge_182.jpg,2.0,left,1.1456,0.0,playground,playground_229.jpg,4.99,1.0421,A3EZTGN5K8K95R
74,A3EZTGN5K8K95R,30,male,bridge_202.jpg,bridge_31.jpg,bridge_202.jpg,right,golf_course_321.jpg,highway_248.jpg,bridge_202.jpg,mountain_26.jpg,mountain_26.jpg,mountain_26.jpg,2.0,right,1.9087,0.0,bridge,bridge_31.jpg,4.01,1.192,A3EZTGN5K8K95R
75,A3EZTGN5K8K95R,30,male,bridge_146.jpg,bridge_121.jpg,bridge_146.jpg,right,badlands_200.jpg,bridge_146.jpg,golf_course_334.jpg,highway_12.jpg,highway_12.jpg,highway_12.jpg,1.0,left,0.8588,1.0,bridge,bridge_121.jpg,2.96,1.9614,A3EZTGN5K8K95R
76,A3EZTGN5K8K95R,30,male,golf_course_195.jpg,golf_course_2.jpg,golf_course_195.jpg,right,golf_course_195.jpg,highway_146.jpg,bridge_34.jpg,mountain_228.jpg,mountain_228.jpg,mountain_228.jpg,0.0,left,1.0028,1.0,golf,golf_course_2.jpg,6.04,1.397,A3EZTGN5K8K95R
77,A3EZTGN5K8K95R,30,male,highway_209.jpg,highway_209.jpg,highway_314.jpg,left,highway_209.jpg,bridge_158.jpg,mountain_21.jpg,badlands_136.jpg,badlands_136.jpg,badlands_136.jpg,0.0,right,1.2954,0.0,highway,highway_314.jpg,7.0,1.2472,A3EZTGN5K8K95R
78,A3EZTGN5K8K95R,30,male,golf_course_331.jpg,golf_course_114.jpg,golf_course_331.jpg,right,highway_13.jpg,playground_209.jpg,golf_course_331.jpg,bridge_169.jpg,bridge_169.jpg,bridge_169.jpg,2.0,left,3.4338,0.0,golf,golf_course_114.jpg,8.01,0.9421,A3EZTGN5K8K95R
79,A3EZTGN5K8K95R,30,male,playground_257.jpg,playground_214.jpg,playground_257.jpg,right,bridge_204.jpg,playground_257.jpg,golf_course_27.jpg,badlands_210.jpg,badlands_210.jpg,badlands_210.jpg,1.0,right,1.3858,0.0,playground,playground_214.jpg,8.97,0.8678,A3EZTGN5K8K95R
80,A3EZTGN5K8K95R,30,male,playground_219.jpg,playground_219.jpg,playground_21.jpg,left,highway_18.jpg,bridge_259.jpg,playground_219.jpg,badlands_153.jpg,badlands_153.jpg,badlands_153.jpg,2.0,left,0.8503,0.0,playground,playground_21.jpg,3.0,1.7826,A3EZTGN5K8K95R
81,A3EZTGN5K8K95R,30,male,bridge_91.jpg,bridge_253.jpg,bridge_91.jpg,right,mountain_34.jpg,bridge_91.jpg,highway_37.jpg,badlands_64.jpg,badlands_64.jpg,badlands_64.jpg,1.0,right,3.5255,0.0,bridge,bridge_253.jpg,3.95,1.6367,A3EZTGN5K8K95R
82,A3EZTGN5K8K95R,30,male,badlands_24.jpg,badlands_3.jpg,badlands_24.jpg,right,playground_178.jpg,badlands_24.jpg,golf_course_21.jpg,highway_149.jpg,highway_149.jpg,highway_149.jpg,1.0,left,2.8008,0.0,badlands,badlands_3.jpg,4.0,12.6344,A3EZTGN5K8K95R
83,A3EZTGN5K8K95R,30,male,badlands_21.jpg,badlands_21.jpg,badlands_1.jpg,left,badlands_21.jpg,highway_175.jpg,bridge_80.jpg,mountain_91.jpg,mountain_91.jpg,mountain_91.jpg,0.0,left,0.849,0.0,badlands,badlands_1.jpg,4.99,1.1004,A3EZTGN5K8K95R
84,A3EZTGN5K8K95R,30,male,bridge_250.jpg,bridge_250.jpg,bridge_134.jpg,left,bridge_250.jpg,highway_227.jpg,playground_108.jpg,golf_course_33.jpg,golf_course_33.jpg,golf_course_33.jpg,0.0,left,1.2431,0.0,bridge,bridge_134.jpg,5.97,0.8793,A3EZTGN5K8K95R
85,A3EZTGN5K8K95R,30,male,highway_245.jpg,highway_206.jpg,highway_245.jpg,right,mountain_162.jpg,highway_245.jpg,badlands_193.jpg,playground_42.jpg,playground_42.jpg,playground_42.jpg,1.0,right,4.4919,1.0,highway,highway_206.jpg,6.99,1.3236,A3EZTGN5K8K95R
86,A3EZTGN5K8K95R,30,male,golf_course_217.jpg,golf_course_35.jpg,golf_course_217.jpg,right,bridge_103.jpg,mountain_107.jpg,golf_course_217.jpg,playground_103.jpg,playground_103.jpg,playground_103.jpg,2.0,right,3.9396,0.0,golf,golf_course_35.jpg,6.99,7.091,A3EZTGN5K8K95R
87,A3EZTGN5K8K95R,30,male,highway_394.jpg,highway_406.jpg,highway_394.jpg,right,playground_264.jpg,highway_394.jpg,mountain_12.jpg,bridge_9.jpg,bridge_9.jpg,bridge_9.jpg,1.0,right,11.7938,1.0,highway,highway_406.jpg,8.0,1.7099,A3EZTGN5K8K95R
88,A3EZTGN5K8K95R,30,male,mountain_293.jpg,mountain_293.jpg,mountain_72.jpg,left,highway_301.jpg,mountain_293.jpg,bridge_179.jpg,badlands_177.jpg,badlands_177.jpg,badlands_177.jpg,1.0,left,1.4267,0.0,mountain,mountain_72.jpg,8.97,4.5512,A3EZTGN5K8K95R
89,A3EZTGN5K8K95R,30,male,mountain_101.jpg,mountain_171.jpg,mountain_101.jpg,right,badlands_218.jpg,golf_course_159.jpg,mountain_101.jpg,bridge_177.jpg,bridge_177.jpg,bridge_177.jpg,2.0,right,1.5021,0.0,mountain,mountain_171.jpg,5.96,2.1514,A3EZTGN5K8K95R
90,A3EZTGN5K8K95R,30,male,bridge_65.jpg,bridge_65.jpg,bridge_60.jpg,left,mountain_71.jpg,bridge_65.jpg,badlands_186.jpg,golf_course_128.jpg,golf_course_128.jpg,golf_course_128.jpg,1.0,left,2.6135,1.0,bridge,bridge_60.jpg,5.0,1.4009,A3EZTGN5K8K95R
91,A3EZTGN5K8K95R,30,male,mountain_232.jpg,mountain_232.jpg,mountain_3.jpg,left,highway_147.jpg,bridge_132.jpg,mountain_232.jpg,playground_13.jpg,playground_13.jpg,playground_13.jpg,2.0,right,3.6238,0.0,mountain,mountain_3.jpg,2.98,6.8282,A3EZTGN5K8K95R
92,A3EZTGN5K8K95R,30,male,golf_course_15.jpg,golf_course_15.jpg,golf_course_97.jpg,left,bridge_25.jpg,golf_course_15.jpg,badlands_58.jpg,playground_95.jpg,playground_95.jpg,playground_95.jpg,1.0,left,2.3615,1.0,golf,golf_course_97.jpg,3.96,1.7073,A3EZTGN5K8K95R
93,A3EZTGN5K8K95R,30,male,golf_course_188.jpg,golf_course_188.jpg,golf_course_157.jpg,left,golf_course_188.jpg,mountain_68.jpg,playground_200.jpg,bridge_123.jpg,bridge_123.jpg,bridge_123.jpg,0.0,right,1.4679,0.0,golf,golf_course_157.jpg,5.01,1.3897,A3EZTGN5K8K95R
94,A3EZTGN5K8K95R,30,male,badlands_113.jpg,badlands_203.jpg,badlands_113.jpg,right,playground_25.jpg,highway_114.jpg,badlands_113.jpg,golf_course_258.jpg,golf_course_258.jpg,golf_course_258.jpg,2.0,right,1.2165,1.0,badlands,badlands_203.jpg,6.0,1.1614,A3EZTGN5K8K95R
95,A3EZTGN5K8K95R,30,male,highway_359.jpg,highway_379.jpg,highway_359.jpg,right,highway_359.jpg,mountain_296.jpg,golf_course_166.jpg,badlands_104.jpg,badlands_104.jpg,badlands_104.jpg,0.0,left,2.6615,1.0,highway,highway_379.jpg,6.97,1.3978,A3EZTGN5K8K95R
96,A3EZTGN5K8K95R,30,male,highway_93.jpg,highway_93.jpg,highway_369.jpg,left,highway_93.jpg,golf_course_156.jpg,bridge_263.jpg,badlands_100.jpg,badlands_100.jpg,badlands_100.jpg,0.0,right,1.4324,1.0,highway,highway_369.jpg,7.99,0.9881,A3EZTGN5K8K95R
97,A3EZTGN5K8K95R,30,male,highway_273.jpg,highway_273.jpg,highway_171.jpg,left,highway_273.jpg,badlands_108.jpg,playground_183.jpg,bridge_10.jpg,bridge_10.jpg,bridge_10.jpg,0.0,right,0.0048,1.0,highway,highway_171.jpg,2.01,1.791,A3EZTGN5K8K95R
98,A3EZTGN5K8K95R,30,male,playground_117.jpg,playground_127.jpg,playground_117.jpg,right,mountain_292.jpg,highway_357.jpg,playground_117.jpg,golf_course_173.jpg,golf_course_173.jpg,golf_course_173.jpg,2.0,left,0.4556,1.0,playground,playground_127.jpg,3.02,1.0212,A3EZTGN5K8K95R
99,A3EZTGN5K8K95R,30,male,golf_course_87.jpg,golf_course_130.jpg,golf_course_87.jpg,right,golf_course_87.jpg,playground_77.jpg,badlands_149.jpg,mountain_24.jpg,mountain_24.jpg,mountain_24.jpg,0.0,left,2.6036,0.0,golf,golf_course_130.jpg,3.99,1.0174,A3EZTGN5K8K95R
100,A3EZTGN5K8K95R,30,male,badlands_70.jpg,badlands_70.jpg,badlands_102.jpg,left,badlands_70.jpg,highway_333.jpg,golf_course_83.jpg,bridge_230.jpg,bridge_230.jpg,bridge_230.jpg,0.0,right,0.6991,0.0,badlands,badlands_102.jpg,4.96,1.0834,A3EZTGN5K8K95R
101,A3EZTGN5K8K95R,30,male,badlands_137.jpg,badlands_194.jpg,badlands_137.jpg,right,badlands_137.jpg,mountain_204.jpg,highway_88.jpg,playground_168.jpg,playground_168.jpg,playground_168.jpg,0.0,right,1.0656,0.0,badlands,badlands_194.jpg,6.03,0.9355,A3EZTGN5K8K95R
102,A3EZTGN5K8K95R,30,male,mountain_230.jpg,mountain_230.jpg,mountain_184.jpg,left,playground_52.jpg,golf_course_316.jpg,mountain_230.jpg,bridge_48.jpg,bridge_48.jpg,bridge_48.jpg,2.0,left,2.2104,0.0,mountain,mountain_184.jpg,6.96,0.8632,A3EZTGN5K8K95R
103,A3EZTGN5K8K95R,30,male,highway_177.jpg,highway_177.jpg,highway_87.jpg,left,mountain_132.jpg,bridge_238.jpg,highway_177.jpg,golf_course_102.jpg,golf_course_102.jpg,golf_course_102.jpg,2.0,right,3.4192,0.0,highway,highway_87.jpg,8.05,0.7954,A3EZTGN5K8K95R
104,A3EZTGN5K8K95R,30,male,golf_course_214.jpg,golf_course_317.jpg,golf_course_214.jpg,right,highway_117.jpg,golf_course_214.jpg,bridge_78.jpg,playground_158.jpg,playground_158.jpg,playground_158.jpg,1.0,right,2.1314,1.0,golf,golf_course_317.jpg,8.02,0.9302,A3EZTGN5K8K95R
105,A3EZTGN5K8K95R,30,male,golf_course_309.jpg,golf_course_309.jpg,golf_course_16.jpg,left,playground_70.jpg,badlands_152.jpg,golf_course_309.jpg,bridge_18.jpg,bridge_18.jpg,bridge_18.jpg,2.0,left,0.7722,0.0,golf,golf_course_16.jpg,7.0,1.4034,A3EZTGN5K8K95R
106,A3EZTGN5K8K95R,30,male,bridge_108.jpg,bridge_108.jpg,bridge_148.jpg,left,bridge_108.jpg,playground_46.jpg,highway_234.jpg,mountain_179.jpg,mountain_179.jpg,mountain_179.jpg,0.0,right,11.3526,1.0,bridge,bridge_148.jpg,6.07,1.7151,A3EZTGN5K8K95R
107,A3EZTGN5K8K95R,30,male,mountain_222.jpg,mountain_222.jpg,mountain_93.jpg,left,mountain_222.jpg,playground_3.jpg,badlands_180.jpg,highway_75.jpg,highway_75.jpg,highway_75.jpg,0.0,right,17.5486,1.0,mountain,mountain_93.jpg,5.05,1.6407,A3EZTGN5K8K95R
108,A3EZTGN5K8K95R,30,male,golf_course_193.jpg,golf_course_123.jpg,golf_course_193.jpg,right,highway_319.jpg,golf_course_193.jpg,badlands_38.jpg,playground_241.jpg,playground_241.jpg,playground_241.jpg,1.0,right,1.5256,1.0,golf,golf_course_123.jpg,4.06,1.0118,A3EZTGN5K8K95R
109,A3EZTGN5K8K95R,30,male,playground_76.jpg,playground_22.jpg,playground_76.jpg,right,highway_261.jpg,playground_76.jpg,bridge_130.jpg,badlands_226.jpg,badlands_226.jpg,badlands_226.jpg,1.0,right,1.2821,0.0,playground,playground_22.jpg,5.03,1.1637,A3EZTGN5K8K95R
110,A3EZTGN5K8K95R,30,male,bridge_172.jpg,bridge_172.jpg,bridge_17.jpg,left,bridge_172.jpg,golf_course_229.jpg,badlands_174.jpg,highway_336.jpg,highway_336.jpg,highway_336.jpg,0.0,right,1.304,0.0,bridge,bridge_17.jpg,5.95,1.0119,A3EZTGN5K8K95R
111,A3EZTGN5K8K95R,30,male,highway_156.jpg,highway_156.jpg,highway_293.jpg,left,highway_156.jpg,playground_54.jpg,badlands_143.jpg,golf_course_43.jpg,golf_course_43.jpg,golf_course_43.jpg,0.0,right,2.4523,1.0,highway,highway_293.jpg,7.0,0.9502,A3EZTGN5K8K95R
112,A3EZTGN5K8K95R,30,male,mountain_57.jpg,mountain_193.jpg,mountain_57.jpg,right,mountain_57.jpg,badlands_176.jpg,playground_36.jpg,golf_course_204.jpg,golf_course_204.jpg,golf_course_204.jpg,0.0,left,0.913,0.0,mountain,mountain_193.jpg,8.0,1.0925,A3EZTGN5K8K95R
113,A3EZTGN5K8K95R,30,male,golf_course_78.jpg,golf_course_101.jpg,golf_course_78.jpg,right,playground_259.jpg,golf_course_78.jpg,bridge_251.jpg,badlands_130.jpg,badlands_130.jpg,badlands_130.jpg,1.0,right,2.652,1.0,golf,golf_course_101.jpg,2.06,4.0548,A3EZTGN5K8K95R
114,A3EZTGN5K8K95R,30,male,highway_415.jpg,highway_174.jpg,highway_415.jpg,right,mountain_105.jpg,bridge_257.jpg,highway_415.jpg,playground_181.jpg,playground_181.jpg,playground_181.jpg,2.0,right,1.368,1.0,highway,highway_174.jpg,2.98,1.1691,A3EZTGN5K8K95R
115,A3EZTGN5K8K95R,30,male,mountain_110.jpg,mountain_110.jpg,mountain_223.jpg,left,mountain_110.jpg,badlands_99.jpg,highway_144.jpg,playground_80.jpg,playground_80.jpg,playground_80.jpg,0.0,left,2.4897,1.0,mountain,mountain_223.jpg,4.03,1.0869,A3EZTGN5K8K95R
116,A3EZTGN5K8K95R,30,male,badlands_23.jpg,badlands_23.jpg,badlands_101.jpg,left,bridge_124.jpg,badlands_23.jpg,highway_249.jpg,playground_41.jpg,playground_41.jpg,playground_41.jpg,1.0,right,2.6661,1.0,badlands,badlands_101.jpg,5.01,1.2406,A3EZTGN5K8K95R
117,A3EZTGN5K8K95R,30,male,bridge_128.jpg,bridge_128.jpg,bridge_61.jpg,left,badlands_59.jpg,golf_course_152.jpg,bridge_128.jpg,mountain_214.jpg,mountain_214.jpg,mountain_214.jpg,2.0,left,3.9734,0.0,bridge,bridge_61.jpg,5.97,3.2265,A3EZTGN5K8K95R
118,A3EZTGN5K8K95R,30,male,badlands_221.jpg,badlands_207.jpg,badlands_221.jpg,right,playground_7.jpg,badlands_221.jpg,mountain_160.jpg,bridge_218.jpg,bridge_218.jpg,bridge_218.jpg,1.0,left,0.762,1.0,badlands,badlands_207.jpg,6.99,0.7826,A3EZTGN5K8K95R
119,A3EZTGN5K8K95R,30,male,badlands_184.jpg,badlands_184.jpg,badlands_228.jpg,left,bridge_239.jpg,badlands_184.jpg,golf_course_42.jpg,mountain_212.jpg,mountain_212.jpg,mountain_212.jpg,1.0,right,1.8248,0.0,badlands,badlands_228.jpg,8.05,0.9551,A3EZTGN5K8K95R
120,A10A7EZUXBD0II,35,female,mountain_57.jpg,mountain_138.jpg,mountain_57.jpg,right,badlands_149.jpg,highway_336.jpg,mountain_57.jpg,golf_course_42.jpg,golf_course_42.jpg,golf_course_42.jpg,2.0,right,1.2663,1.0,mountain,mountain_138.jpg,6.940740741,16.4744,A10A7EZUXBD0II
121,A10A7EZUXBD0II,35,female,badlands_221.jpg,badlands_207.jpg,badlands_221.jpg,right,badlands_221.jpg,playground_90.jpg,mountain_4.jpg,bridge_49.jpg,bridge_49.jpg,bridge_49.jpg,0.0,right,1.4695,1.0,badlands,badlands_207.jpg,6.97037037,0.8618,A10A7EZUXBD0II
122,A10A7EZUXBD0II,35,female,golf_course_188.jpg,golf_course_160.jpg,golf_course_188.jpg,right,bridge_80.jpg,mountain_84.jpg,golf_course_188.jpg,badlands_108.jpg,badlands_108.jpg,badlands_108.jpg,2.0,right,1.335,1.0,golf,golf_course_160.jpg,8.007407407,4.1812,A10A7EZUXBD0II
123,A10A7EZUXBD0II,35,female,playground_257.jpg,playground_257.jpg,playground_214.jpg,left,playground_257.jpg,mountain_214.jpg,badlands_2.jpg,highway_331.jpg,highway_331.jpg,highway_331.jpg,0.0,left,1.4253,0.0,playground,playground_214.jpg,5.992592593,3.1675,A10A7EZUXBD0II
124,A10A7EZUXBD0II,35,female,mountain_154.jpg,mountain_154.jpg,mountain_131.jpg,left,mountain_154.jpg,playground_249.jpg,golf_course_33.jpg,badlands_226.jpg,badlands_226.jpg,badlands_226.jpg,0.0,left,1.7789,0.0,mountain,mountain_131.jpg,4.992592593,16.9699,A10A7EZUXBD0II
125,A10A7EZUXBD0II,35,female,golf_course_195.jpg,golf_course_25.jpg,golf_course_195.jpg,right,mountain_26.jpg,golf_course_195.jpg,highway_149.jpg,bridge_158.jpg,bridge_158.jpg,bridge_158.jpg,1.0,right,1.28,0.0,golf,golf_course_25.jpg,6.0,3.229,A10A7EZUXBD0II
126,A10A7EZUXBD0II,35,female,playground_60.jpg,playground_244.jpg,playground_60.jpg,right,highway_99.jpg,playground_60.jpg,bridge_132.jpg,badlands_173.jpg,badlands_173.jpg,badlands_173.jpg,1.0,left,1.7929,1.0,playground,playground_244.jpg,7.962962963,7.4358,A10A7EZUXBD0II
127,A10A7EZUXBD0II,35,female,mountain_123.jpg,mountain_189.jpg,mountain_123.jpg,right,bridge_64.jpg,mountain_123.jpg,golf_course_264.jpg,badlands_186.jpg,badlands_186.jpg,badlands_186.jpg,1.0,left,1.2471,1.0,mountain,mountain_189.jpg,7.977777778,4.9458,A10A7EZUXBD0II
128,A10A7EZUXBD0II,35,female,badlands_222.jpg,badlands_222.jpg,badlands_62.jpg,left,golf_course_320.jpg,bridge_130.jpg,badlands_222.jpg,highway_402.jpg,highway_402.jpg,highway_402.jpg,2.0,left,1.5894,1.0,badlands,badlands_62.jpg,6.962962963,4.3912,A10A7EZUXBD0II
129,A10A7EZUXBD0II,35,female,mountain_110.jpg,mountain_110.jpg,mountain_157.jpg,left,bridge_264.jpg,golf_course_1.jpg,mountain_110.jpg,playground_103.jpg,playground_103.jpg,playground_103.jpg,2.0,left,1.7942,0.0,mountain,mountain_157.jpg,7.962962963,2.6227,A10A7EZUXBD0II
130,A10A7EZUXBD0II,35,female,mountain_230.jpg,mountain_230.jpg,mountain_184.jpg,left,mountain_230.jpg,playground_3.jpg,badlands_59.jpg,bridge_206.jpg,bridge_206.jpg,bridge_206.jpg,0.0,left,1.1127,0.0,mountain,mountain_184.jpg,6.97037037,2.3106,A10A7EZUXBD0II
131,A10A7EZUXBD0II,35,female,golf_course_15.jpg,golf_course_15.jpg,golf_course_113.jpg,left,golf_course_15.jpg,bridge_251.jpg,playground_158.jpg,badlands_35.jpg,badlands_35.jpg,badlands_35.jpg,0.0,right,1.0807,0.0,golf,golf_course_113.jpg,6.0,4.533,A10A7EZUXBD0II
132,A10A7EZUXBD0II,35,female,badlands_52.jpg,badlands_94.jpg,badlands_52.jpg,right,badlands_52.jpg,bridge_78.jpg,golf_course_152.jpg,playground_54.jpg,playground_54.jpg,playground_54.jpg,0.0,left,1.0635,0.0,badlands,badlands_94.jpg,5.985185185,2.0299,A10A7EZUXBD0II
133,A10A7EZUXBD0II,35,female,badlands_184.jpg,badlands_184.jpg,badlands_103.jpg,left,highway_37.jpg,golf_course_337.jpg,badlands_184.jpg,mountain_307.jpg,mountain_307.jpg,mountain_307.jpg,2.0,right,1.0586,1.0,badlands,badlands_103.jpg,6.940740741,1.5281,A10A7EZUXBD0II
134,A10A7EZUXBD0II,35,female,badlands_113.jpg,badlands_225.jpg,badlands_113.jpg,right,mountain_224.jpg,highway_114.jpg,badlands_113.jpg,bridge_218.jpg,bridge_218.jpg,bridge_218.jpg,2.0,left,1.3893,0.0,badlands,badlands_225.jpg,8.985185185,2.4194,A10A7EZUXBD0II
135,A10A7EZUXBD0II,35,female,mountain_222.jpg,mountain_93.jpg,mountain_222.jpg,right,mountain_222.jpg,bridge_179.jpg,golf_course_57.jpg,highway_319.jpg,highway_319.jpg,highway_319.jpg,0.0,right,1.0242,1.0,mountain,mountain_93.jpg,6.962962963,5.0474,A10A7EZUXBD0II
136,A10A7EZUXBD0II,35,female,playground_10.jpg,playground_10.jpg,playground_122.jpg,left,playground_10.jpg,badlands_220.jpg,mountain_132.jpg,highway_144.jpg,highway_144.jpg,highway_144.jpg,0.0,left,0.0177,0.0,playground,playground_122.jpg,7.985185185,3.9722,A10A7EZUXBD0II
137,A10A7EZUXBD0II,35,female,mountain_156.jpg,mountain_128.jpg,mountain_156.jpg,right,playground_42.jpg,mountain_156.jpg,bridge_19.jpg,highway_75.jpg,highway_75.jpg,highway_75.jpg,1.0,right,1.1441,0.0,mountain,mountain_128.jpg,6.992592593,4.4519,A10A7EZUXBD0II
138,A10A7EZUXBD0II,35,female,highway_294.jpg,highway_294.jpg,highway_368.jpg,left,highway_294.jpg,golf_course_198.jpg,playground_5.jpg,bridge_47.jpg,bridge_47.jpg,bridge_47.jpg,0.0,left,1.0319,1.0,highway,highway_368.jpg,8.992592593,9.9001,A10A7EZUXBD0II
139,A10A7EZUXBD0II,35,female,playground_240.jpg,playground_40.jpg,playground_240.jpg,right,playground_240.jpg,golf_course_290.jpg,badlands_30.jpg,highway_342.jpg,highway_342.jpg,highway_342.jpg,0.0,right,1.2157,1.0,playground,playground_40.jpg,8.97037037,1.9771,A10A7EZUXBD0II
140,A10A7EZUXBD0II,35,female,mountain_101.jpg,mountain_101.jpg,mountain_171.jpg,left,bridge_239.jpg,highway_301.jpg,mountain_101.jpg,playground_13.jpg,playground_13.jpg,playground_13.jpg,2.0,left,0.2243,0.0,mountain,mountain_171.jpg,8.977777778,2.7806,A10A7EZUXBD0II
141,A10A7EZUXBD0II,35,female,badlands_137.jpg,badlands_137.jpg,badlands_139.jpg,left,badlands_137.jpg,highway_23.jpg,bridge_25.jpg,golf_course_316.jpg,golf_course_316.jpg,golf_course_316.jpg,0.0,right,1.0343,1.0,badlands,badlands_139.jpg,5.97037037,2.8806,A10A7EZUXBD0II
142,A10A7EZUXBD0II,35,female,highway_394.jpg,highway_394.jpg,highway_406.jpg,left,bridge_21.jpg,golf_course_325.jpg,highway_394.jpg,badlands_95.jpg,badlands_95.jpg,badlands_95.jpg,2.0,left,1.1773,1.0,highway,highway_406.jpg,5.088888889,3.0836,A10A7EZUXBD0II
143,A10A7EZUXBD0II,35,female,golf_course_87.jpg,golf_course_130.jpg,golf_course_87.jpg,right,golf_course_87.jpg,mountain_115.jpg,playground_200.jpg,badlands_143.jpg,badlands_143.jpg,badlands_143.jpg,0.0,right,1.5497,0.0,golf,golf_course_130.jpg,7.977777778,3.6004,A10A7EZUXBD0II
144,A10A7EZUXBD0II,35,female,playground_144.jpg,playground_144.jpg,playground_65.jpg,left,highway_325.jpg,bridge_34.jpg,playground_144.jpg,badlands_54.jpg,badlands_54.jpg,badlands_54.jpg,2.0,left,1.3897,1.0,playground,playground_65.jpg,8.007407407,3.1033,A10A7EZUXBD0II
145,A10A7EZUXBD0II,35,female,playground_131.jpg,playground_131.jpg,playground_164.jpg,left,golf_course_43.jpg,playground_131.jpg,mountain_24.jpg,highway_179.jpg,highway_179.jpg,highway_179.jpg,1.0,left,1.2244,1.0,playground,playground_164.jpg,7.948148148,2.5908,A10A7EZUXBD0II
146,A10A7EZUXBD0II,35,female,highway_245.jpg,highway_245.jpg,highway_206.jpg,left,mountain_71.jpg,highway_245.jpg,playground_193.jpg,golf_course_159.jpg,golf_course_159.jpg,golf_course_159.jpg,1.0,right,1.2664,1.0,highway,highway_206.jpg,7.007407407,2.6223,A10A7EZUXBD0II
147,A10A7EZUXBD0II,35,female,mountain_232.jpg,mountain_232.jpg,mountain_3.jpg,left,mountain_232.jpg,playground_191.jpg,highway_234.jpg,badlands_166.jpg,badlands_166.jpg,badlands_166.jpg,0.0,left,0.2237,0.0,mountain,mountain_3.jpg,8.0,1.6273,A10A7EZUXBD0II
148,A10A7EZUXBD0II,35,female,golf_course_214.jpg,golf_course_317.jpg,golf_course_214.jpg,right,playground_52.jpg,golf_course_214.jpg,highway_249.jpg,mountain_44.jpg,mountain_44.jpg,mountain_44.jpg,1.0,right,1.1796,1.0,golf,golf_course_317.jpg,8.97037037,2.8467,A10A7EZUXBD0II
149,A10A7EZUXBD0II,35,female,highway_415.jpg,highway_174.jpg,highway_415.jpg,right,highway_415.jpg,playground_178.jpg,golf_course_185.jpg,bridge_230.jpg,bridge_230.jpg,bridge_230.jpg,0.0,left,1.1848,1.0,highway,highway_174.jpg,7.985185185,2.4333,A10A7EZUXBD0II
150,A10A7EZUXBD0II,35,female,bridge_172.jpg,bridge_172.jpg,bridge_17.jpg,left,highway_112.jpg,badlands_174.jpg,bridge_172.jpg,mountain_301.jpg,mountain_301.jpg,mountain_301.jpg,2.0,right,0.9948,0.0,bridge,bridge_17.jpg,7.014814815,1.7547,A10A7EZUXBD0II
151,A10A7EZUXBD0II,35,female,bridge_146.jpg,bridge_146.jpg,bridge_27.jpg,left,badlands_218.jpg,bridge_146.jpg,mountain_105.jpg,playground_116.jpg,playground_116.jpg,playground_116.jpg,1.0,left,0.8347,0.0,bridge,bridge_27.jpg,6.0,1.2266,A10A7EZUXBD0II
152,A10A7EZUXBD0II,35,female,bridge_256.jpg,bridge_54.jpg,bridge_256.jpg,right,bridge_256.jpg,highway_159.jpg,mountain_166.jpg,playground_168.jpg,playground_168.jpg,playground_168.jpg,0.0,right,0.9732,0.0,bridge,bridge_54.jpg,6.985185185,1.813,A10A7EZUXBD0II
153,A10A7EZUXBD0II,35,female,golf_course_193.jpg,golf_course_235.jpg,golf_course_193.jpg,right,golf_course_193.jpg,mountain_233.jpg,playground_70.jpg,badlands_64.jpg,badlands_64.jpg,badlands_64.jpg,0.0,left,1.06,0.0,golf,golf_course_235.jpg,8.007407407,2.2275,A10A7EZUXBD0II
154,A10A7EZUXBD0II,35,female,highway_359.jpg,highway_359.jpg,highway_389.jpg,left,bridge_238.jpg,highway_359.jpg,badlands_45.jpg,mountain_104.jpg,mountain_104.jpg,mountain_104.jpg,1.0,right,0.4385,0.0,highway,highway_389.jpg,6.992592593,2.3283,A10A7EZUXBD0II
155,A10A7EZUXBD0II,35,female,highway_273.jpg,highway_273.jpg,highway_171.jpg,left,golf_course_52.jpg,mountain_111.jpg,highway_273.jpg,badlands_193.jpg,badlands_193.jpg,badlands_193.jpg,2.0,left,1.401,1.0,highway,highway_171.jpg,6.02962963,1.6705,A10A7EZUXBD0II
156,A10A7EZUXBD0II,35,female,highway_177.jpg,highway_278.jpg,highway_177.jpg,right,mountain_160.jpg,badlands_13.jpg,highway_177.jpg,golf_course_21.jpg,golf_course_21.jpg,golf_course_21.jpg,2.0,right,0.8538,1.0,highway,highway_278.jpg,6.97037037,1.4815,A10A7EZUXBD0II
157,A10A7EZUXBD0II,35,female,bridge_202.jpg,bridge_38.jpg,bridge_202.jpg,right,badlands_89.jpg,bridge_202.jpg,mountain_12.jpg,highway_219.jpg,highway_219.jpg,highway_219.jpg,1.0,left,0.9949,1.0,bridge,bridge_38.jpg,8.014814815,1.5494,A10A7EZUXBD0II
158,A10A7EZUXBD0II,35,female,badlands_23.jpg,badlands_101.jpg,badlands_23.jpg,right,playground_264.jpg,badlands_23.jpg,golf_course_27.jpg,mountain_126.jpg,mountain_126.jpg,mountain_126.jpg,1.0,right,0.9875,1.0,badlands,badlands_101.jpg,6.977777778,2.1411,A10A7EZUXBD0II
159,A10A7EZUXBD0II,35,female,bridge_91.jpg,bridge_91.jpg,bridge_253.jpg,left,bridge_91.jpg,playground_183.jpg,highway_12.jpg,badlands_152.jpg,badlands_152.jpg,badlands_152.jpg,0.0,left,1.4729,0.0,bridge,bridge_253.jpg,6.992592593,1.4245,A10A7EZUXBD0II
160,A10A7EZUXBD0II,35,female,golf_course_78.jpg,golf_course_78.jpg,golf_course_134.jpg,left,mountain_292.jpg,golf_course_78.jpg,highway_244.jpg,badlands_58.jpg,badlands_58.jpg,badlands_58.jpg,1.0,right,1.3811,0.0,golf,golf_course_134.jpg,7.992592593,2.6755,A10A7EZUXBD0II
161,A10A7EZUXBD0II,35,female,highway_156.jpg,highway_160.jpg,highway_156.jpg,right,badlands_130.jpg,golf_course_156.jpg,highway_156.jpg,bridge_162.jpg,bridge_162.jpg,bridge_162.jpg,2.0,left,1.3752,0.0,highway,highway_160.jpg,6.037037037,1.7849,A10A7EZUXBD0II
162,A10A7EZUXBD0II,35,female,playground_76.jpg,playground_72.jpg,playground_76.jpg,right,golf_course_334.jpg,playground_76.jpg,mountain_212.jpg,highway_196.jpg,highway_196.jpg,highway_196.jpg,1.0,right,1.1614,1.0,playground,playground_72.jpg,5.014814815,3.6476,A10A7EZUXBD0II
163,A10A7EZUXBD0II,35,female,badlands_70.jpg,badlands_102.jpg,badlands_70.jpg,right,playground_108.jpg,badlands_70.jpg,golf_course_166.jpg,bridge_9.jpg,bridge_9.jpg,bridge_9.jpg,1.0,right,1.288,0.0,badlands,badlands_102.jpg,1.948148148,4.3826,A10A7EZUXBD0II
164,A10A7EZUXBD0II,35,female,badlands_21.jpg,badlands_98.jpg,badlands_21.jpg,right,badlands_21.jpg,bridge_204.jpg,playground_77.jpg,highway_18.jpg,highway_18.jpg,highway_18.jpg,0.0,left,0.8965,1.0,badlands,badlands_98.jpg,7.992592593,7.5151,A10A7EZUXBD0II
165,A10A7EZUXBD0II,35,female,golf_course_217.jpg,golf_course_217.jpg,golf_course_262.jpg,left,golf_course_217.jpg,mountain_179.jpg,badlands_100.jpg,playground_66.jpg,playground_66.jpg,playground_66.jpg,0.0,right,0.438,1.0,golf,golf_course_262.jpg,8.007407407,5.6613,A10A7EZUXBD0II
166,A10A7EZUXBD0II,35,female,playground_219.jpg,playground_219.jpg,playground_205.jpg,left,playground_219.jpg,badlands_200.jpg,highway_357.jpg,bridge_103.jpg,bridge_103.jpg,bridge_103.jpg,0.0,right,1.5226,1.0,playground,playground_205.jpg,7.97037037,2.9587,A10A7EZUXBD0II
167,A10A7EZUXBD0II,35,female,highway_93.jpg,highway_93.jpg,highway_369.jpg,left,badlands_216.jpg,highway_93.jpg,mountain_66.jpg,playground_259.jpg,playground_259.jpg,playground_259.jpg,1.0,left,1.1825,1.0,highway,highway_369.jpg,7.955555556,3.0318,A10A7EZUXBD0II
168,A10A7EZUXBD0II,35,female,bridge_191.jpg,bridge_191.jpg,bridge_184.jpg,left,mountain_15.jpg,golf_course_319.jpg,bridge_191.jpg,playground_209.jpg,playground_209.jpg,playground_209.jpg,2.0,right,1.5077,0.0,bridge,bridge_184.jpg,2.007407407,6.8545,A10A7EZUXBD0II
169,A10A7EZUXBD0II,35,female,golf_course_309.jpg,golf_course_309.jpg,golf_course_209.jpg,left,badlands_210.jpg,mountain_107.jpg,golf_course_309.jpg,playground_173.jpg,playground_173.jpg,playground_173.jpg,2.0,left,1.1749,1.0,golf,golf_course_209.jpg,5.0,3.1975,A10A7EZUXBD0II
170,A10A7EZUXBD0II,35,female,bridge_250.jpg,bridge_250.jpg,bridge_134.jpg,left,highway_263.jpg,bridge_250.jpg,badlands_38.jpg,playground_235.jpg,playground_235.jpg,playground_235.jpg,1.0,left,1.3243,0.0,bridge,bridge_134.jpg,5.0,2.3737,A10A7EZUXBD0II
171,A10A7EZUXBD0II,35,female,mountain_293.jpg,mountain_293.jpg,mountain_72.jpg,left,bridge_26.jpg,golf_course_122.jpg,mountain_293.jpg,badlands_153.jpg,badlands_153.jpg,badlands_153.jpg,2.0,right,1.5681,0.0,mountain,mountain_72.jpg,8.977777778,4.0148,A10A7EZUXBD0II
172,A10A7EZUXBD0II,35,female,highway_209.jpg,highway_209.jpg,highway_314.jpg,left,bridge_257.jpg,highway_209.jpg,playground_30.jpg,badlands_104.jpg,badlands_104.jpg,badlands_104.jpg,1.0,left,1.2791,0.0,highway,highway_314.jpg,6.992592593,2.6276,A10A7EZUXBD0II
173,A10A7EZUXBD0II,35,female,playground_145.jpg,playground_229.jpg,playground_145.jpg,right,playground_145.jpg,badlands_75.jpg,bridge_169.jpg,mountain_235.jpg,mountain_235.jpg,mountain_235.jpg,0.0,left,1.1475,0.0,playground,playground_229.jpg,6.022222222,2.7706,A10A7EZUXBD0II
174,A10A7EZUXBD0II,35,female,bridge_128.jpg,bridge_128.jpg,bridge_244.jpg,left,bridge_128.jpg,playground_80.jpg,highway_147.jpg,badlands_177.jpg,badlands_177.jpg,badlands_177.jpg,0.0,right,1.359,1.0,bridge,bridge_244.jpg,7.014814815,2.4076,A10A7EZUXBD0II
175,A10A7EZUXBD0II,35,female,playground_117.jpg,playground_117.jpg,playground_167.jpg,left,playground_117.jpg,badlands_27.jpg,highway_333.jpg,golf_course_173.jpg,golf_course_173.jpg,golf_course_173.jpg,0.0,left,0.883,0.0,playground,playground_167.jpg,7.977777778,3.8144,A10A7EZUXBD0II
176,A10A7EZUXBD0II,35,female,golf_course_331.jpg,golf_course_331.jpg,golf_course_26.jpg,left,bridge_124.jpg,golf_course_331.jpg,mountain_34.jpg,highway_13.jpg,highway_13.jpg,highway_13.jpg,1.0,right,1.0588,1.0,golf,golf_course_26.jpg,7.977777778,1.6098,A10A7EZUXBD0II
177,A10A7EZUXBD0II,35,female,badlands_24.jpg,badlands_3.jpg,badlands_24.jpg,right,highway_398.jpg,badlands_24.jpg,playground_95.jpg,mountain_204.jpg,mountain_204.jpg,mountain_204.jpg,1.0,left,0.8817,0.0,badlands,badlands_3.jpg,6.977777778,2.1605,A10A7EZUXBD0II
178,A10A7EZUXBD0II,35,female,bridge_108.jpg,bridge_116.jpg,bridge_108.jpg,right,highway_25.jpg,playground_241.jpg,bridge_108.jpg,golf_course_60.jpg,golf_course_60.jpg,golf_course_60.jpg,2.0,left,1.3867,0.0,bridge,bridge_116.jpg,7.985185185,1.5324,A10A7EZUXBD0II
179,A10A7EZUXBD0II,35,female,bridge_65.jpg,bridge_60.jpg,bridge_65.jpg,right,bridge_65.jpg,mountain_91.jpg,badlands_176.jpg,highway_88.jpg,highway_88.jpg,highway_88.jpg,0.0,right,0.8988,1.0,bridge,bridge_60.jpg,5.985185185,1.6017,A10A7EZUXBD0II
180,A1DXL97NBCBV8Z,30,male,playground_219.jpg,playground_219.jpg,playground_21.jpg,left,playground_219.jpg,mountain_161.jpg,bridge_132.jpg,badlands_104.jpg,badlands_104.jpg,badlands_104.jpg,0.0,left,11.528,0.0,playground,playground_21.jpg,5.885416667,13.957,A1DXL97NBCBV8Z
181,A1DXL97NBCBV8Z,30,male,golf_course_309.jpg,golf_course_309.jpg,golf_course_209.jpg,left,bridge_238.jpg,playground_173.jpg,golf_course_309.jpg,badlands_130.jpg,badlands_130.jpg,badlands_130.jpg,2.0,left,3.891,1.0,golf,golf_course_209.jpg,6.010416667,4.399,A1DXL97NBCBV8Z
182,A1DXL97NBCBV8Z,30,male,mountain_293.jpg,mountain_293.jpg,mountain_47.jpg,left,golf_course_88.jpg,mountain_293.jpg,playground_181.jpg,highway_147.jpg,highway_147.jpg,highway_147.jpg,1.0,left,0.968,1.0,mountain,mountain_47.jpg,6.010416667,1.823,A1DXL97NBCBV8Z
183,A1DXL97NBCBV8Z,30,male,bridge_191.jpg,bridge_191.jpg,bridge_75.jpg,left,bridge_191.jpg,badlands_13.jpg,playground_7.jpg,highway_261.jpg,highway_261.jpg,highway_261.jpg,0.0,left,4.532,1.0,bridge,bridge_75.jpg,5.052083333,2.799,A1DXL97NBCBV8Z
184,A1DXL97NBCBV8Z,30,male,mountain_230.jpg,mountain_230.jpg,mountain_97.jpg,left,mountain_230.jpg,golf_course_43.jpg,bridge_206.jpg,badlands_89.jpg,badlands_89.jpg,badlands_89.jpg,0.0,left,8.705,1.0,mountain,mountain_97.jpg,4.96875,4.123,A1DXL97NBCBV8Z
185,A1DXL97NBCBV8Z,30,male,bridge_65.jpg,bridge_65.jpg,bridge_60.jpg,left,badlands_59.jpg,mountain_202.jpg,bridge_65.jpg,playground_36.jpg,playground_36.jpg,playground_36.jpg,2.0,right,0.486,1.0,bridge,bridge_60.jpg,5.989583333,2.462,A1DXL97NBCBV8Z
186,A1DXL97NBCBV8Z,30,male,highway_209.jpg,highway_314.jpg,highway_209.jpg,right,highway_209.jpg,golf_course_152.jpg,badlands_218.jpg,mountain_132.jpg,mountain_132.jpg,mountain_132.jpg,0.0,right,4.544,0.0,highway,highway_314.jpg,6.03125,40.644,A1DXL97NBCBV8Z
187,A1DXL97NBCBV8Z,30,male,badlands_113.jpg,badlands_203.jpg,badlands_113.jpg,right,badlands_113.jpg,mountain_107.jpg,golf_course_329.jpg,bridge_18.jpg,bridge_18.jpg,bridge_18.jpg,0.0,right,2.956,1.0,badlands,badlands_203.jpg,4.927083333,2.358,A1DXL97NBCBV8Z
188,A1DXL97NBCBV8Z,30,male,playground_144.jpg,playground_144.jpg,playground_137.jpg,left,highway_331.jpg,playground_144.jpg,golf_course_185.jpg,badlands_99.jpg,badlands_99.jpg,badlands_99.jpg,1.0,left,5.977,0.0,playground,playground_137.jpg,5.114583333,0.508,A1DXL97NBCBV8Z
189,A1DXL97NBCBV8Z,30,male,mountain_156.jpg,mountain_156.jpg,mountain_128.jpg,left,mountain_156.jpg,bridge_239.jpg,highway_325.jpg,playground_103.jpg,playground_103.jpg,playground_103.jpg,0.0,left,3.229,0.0,mountain,mountain_128.jpg,4.864583333,2.261,A1DXL97NBCBV8Z
190,A1DXL97NBCBV8Z,30,male,mountain_57.jpg,mountain_193.jpg,mountain_57.jpg,right,mountain_57.jpg,bridge_10.jpg,badlands_95.jpg,highway_114.jpg,highway_114.jpg,highway_114.jpg,0.0,right,0.262,0.0,mountain,mountain_193.jpg,5.020833333,0.298,A1DXL97NBCBV8Z
191,A1DXL97NBCBV8Z,30,male,playground_257.jpg,playground_214.jpg,playground_257.jpg,right,mountain_162.jpg,playground_257.jpg,highway_402.jpg,golf_course_229.jpg,golf_course_229.jpg,golf_course_229.jpg,1.0,right,4.885,0.0,playground,playground_214.jpg,5.020833333,1.022,A1DXL97NBCBV8Z
192,A1DXL97NBCBV8Z,30,male,playground_145.jpg,playground_229.jpg,playground_145.jpg,right,playground_145.jpg,golf_course_166.jpg,badlands_143.jpg,mountain_235.jpg,mountain_235.jpg,mountain_235.jpg,0.0,left,0.517,0.0,playground,playground_229.jpg,5.875,5.198,A1DXL97NBCBV8Z
193,A1DXL97NBCBV8Z,30,male,golf_course_188.jpg,golf_course_188.jpg,golf_course_157.jpg,left,playground_41.jpg,highway_146.jpg,golf_course_188.jpg,badlands_216.jpg,badlands_216.jpg,badlands_216.jpg,2.0,left,0.245,0.0,golf,golf_course_157.jpg,6.010416667,0.316,A1DXL97NBCBV8Z
194,A1DXL97NBCBV8Z,30,male,golf_course_193.jpg,golf_course_193.jpg,golf_course_235.jpg,left,golf_course_193.jpg,playground_191.jpg,bridge_80.jpg,mountain_224.jpg,mountain_224.jpg,mountain_224.jpg,0.0,left,2.542,0.0,golf,golf_course_235.jpg,6.020833333,2.411,A1DXL97NBCBV8Z
195,A1DXL97NBCBV8Z,30,male,playground_10.jpg,playground_12.jpg,playground_10.jpg,right,playground_10.jpg,bridge_169.jpg,badlands_31.jpg,golf_course_159.jpg,golf_course_159.jpg,golf_course_159.jpg,0.0,left,0.011,1.0,playground,playground_12.jpg,6.864583333,0.42,A1DXL97NBCBV8Z
196,A1DXL97NBCBV8Z,30,male,bridge_128.jpg,bridge_244.jpg,bridge_128.jpg,right,badlands_220.jpg,playground_158.jpg,bridge_128.jpg,golf_course_206.jpg,golf_course_206.jpg,golf_course_206.jpg,2.0,right,7.248,1.0,bridge,bridge_244.jpg,5.052083333,1.074,A1DXL97NBCBV8Z
197,A1DXL97NBCBV8Z,30,male,highway_273.jpg,highway_171.jpg,highway_273.jpg,right,highway_273.jpg,playground_13.jpg,golf_course_128.jpg,badlands_38.jpg,badlands_38.jpg,badlands_38.jpg,0.0,left,1.917,1.0,highway,highway_171.jpg,5.052083333,2.622,A1DXL97NBCBV8Z
198,A1DXL97NBCBV8Z,30,male,golf_course_15.jpg,golf_course_15.jpg,golf_course_113.jpg,left,golf_course_15.jpg,badlands_27.jpg,mountain_34.jpg,playground_183.jpg,playground_183.jpg,playground_183.jpg,0.0,left,2.215,0.0,golf,golf_course_113.jpg,5.052083333,3.435,A1DXL97NBCBV8Z
199,A1DXL97NBCBV8Z,30,male,golf_course_87.jpg,golf_course_87.jpg,golf_course_130.jpg,left,golf_course_87.jpg,highway_11.jpg,badlands_152.jpg,bridge_130.jpg,bridge_130.jpg,bridge_130.jpg,0.0,left,1.038,0.0,golf,golf_course_130.jpg,5.052083333,6.657,A1DXL97NBCBV8Z
200,A1DXL97NBCBV8Z,30,male,mountain_101.jpg,mountain_171.jpg,mountain_101.jpg,right,mountain_101.jpg,badlands_153.jpg,golf_course_264.jpg,highway_357.jpg,highway_357.jpg,highway_357.jpg,0.0,left,0.987,0.0,mountain,mountain_171.jpg,5.052083333,0.452,A1DXL97NBCBV8Z
201,A1DXL97NBCBV8Z,30,male,badlands_137.jpg,badlands_137.jpg,badlands_139.jpg,left,golf_course_46.jpg,highway_144.jpg,badlands_137.jpg,playground_235.jpg,playground_235.jpg,playground_235.jpg,2.0,left,0.288,1.0,badlands,badlands_139.jpg,5.052083333,5.716,A1DXL97NBCBV8Z
202,A1DXL97NBCBV8Z,30,male,mountain_123.jpg,mountain_123.jpg,mountain_94.jpg,left,badlands_174.jpg,bridge_25.jpg,mountain_123.jpg,highway_166.jpg,highway_166.jpg,highway_166.jpg,2.0,right,0.725,0.0,mountain,mountain_94.jpg,5.052083333,0.285,A1DXL97NBCBV8Z
203,A1DXL97NBCBV8Z,30,male,highway_156.jpg,highway_156.jpg,highway_160.jpg,left,bridge_103.jpg,highway_156.jpg,badlands_177.jpg,playground_77.jpg,playground_77.jpg,playground_77.jpg,1.0,right,5.517,0.0,highway,highway_160.jpg,5.052083333,0.397,A1DXL97NBCBV8Z
204,A1DXL97NBCBV8Z,30,male,playground_240.jpg,playground_40.jpg,playground_240.jpg,right,badlands_142.jpg,playground_240.jpg,bridge_177.jpg,highway_244.jpg,highway_244.jpg,highway_244.jpg,1.0,left,10.734,1.0,playground,playground_40.jpg,5.052083333,1.715,A1DXL97NBCBV8Z
205,A1DXL97NBCBV8Z,30,male,highway_294.jpg,highway_203.jpg,highway_294.jpg,right,highway_294.jpg,golf_course_83.jpg,playground_200.jpg,bridge_106.jpg,bridge_106.jpg,bridge_106.jpg,0.0,left,0.535,0.0,highway,highway_203.jpg,5.052083333,2.133,A1DXL97NBCBV8Z
206,A1DXL97NBCBV8Z,30,male,golf_course_217.jpg,golf_course_262.jpg,golf_course_217.jpg,right,badlands_180.jpg,golf_course_217.jpg,bridge_257.jpg,mountain_228.jpg,mountain_228.jpg,mountain_228.jpg,1.0,right,0.017,1.0,golf,golf_course_262.jpg,6.010416667,0.324,A1DXL97NBCBV8Z
207,A1DXL97NBCBV8Z,30,male,highway_245.jpg,highway_206.jpg,highway_245.jpg,right,mountain_166.jpg,highway_245.jpg,playground_52.jpg,bridge_26.jpg,bridge_26.jpg,bridge_26.jpg,1.0,left,0.514,1.0,highway,highway_206.jpg,4.96875,5.484,A1DXL97NBCBV8Z
208,A1DXL97NBCBV8Z,30,male,golf_course_214.jpg,golf_course_317.jpg,golf_course_214.jpg,right,highway_227.jpg,playground_249.jpg,golf_course_214.jpg,bridge_179.jpg,bridge_179.jpg,bridge_179.jpg,2.0,right,8.655,1.0,golf,golf_course_317.jpg,4.96875,1.714,A1DXL97NBCBV8Z
209,A1DXL97NBCBV8Z,30,male,bridge_256.jpg,bridge_256.jpg,bridge_211.jpg,left,mountain_115.jpg,bridge_256.jpg,badlands_173.jpg,golf_course_316.jpg,golf_course_316.jpg,golf_course_316.jpg,1.0,right,0.015,1.0,bridge,bridge_211.jpg,5.989583333,7.851,A1DXL97NBCBV8Z
210,A1DXL97NBCBV8Z,30,male,highway_415.jpg,highway_174.jpg,highway_415.jpg,right,mountain_21.jpg,golf_course_60.jpg,highway_415.jpg,bridge_263.jpg,bridge_263.jpg,bridge_263.jpg,2.0,right,1.835,1.0,highway,highway_174.jpg,5.989583333,7.53,A1DXL97NBCBV8Z
211,A1DXL97NBCBV8Z,30,male,bridge_202.jpg,bridge_31.jpg,bridge_202.jpg,right,golf_course_122.jpg,bridge_202.jpg,playground_241.jpg,highway_37.jpg,highway_37.jpg,highway_37.jpg,1.0,right,0.757,0.0,bridge,bridge_31.jpg,3.989583333,0.34,A1DXL97NBCBV8Z
212,A1DXL97NBCBV8Z,30,male,highway_394.jpg,highway_406.jpg,highway_394.jpg,right,highway_394.jpg,bridge_52.jpg,mountain_4.jpg,playground_54.jpg,playground_54.jpg,playground_54.jpg,0.0,left,0.022,1.0,highway,highway_406.jpg,4.90625,0.294,A1DXL97NBCBV8Z
213,A1DXL97NBCBV8Z,30,male,highway_359.jpg,highway_359.jpg,highway_389.jpg,left,mountain_292.jpg,highway_359.jpg,playground_42.jpg,bridge_48.jpg,bridge_48.jpg,bridge_48.jpg,1.0,left,0.012,0.0,highway,highway_389.jpg,5.947916667,0.346,A1DXL97NBCBV8Z
214,A1DXL97NBCBV8Z,30,male,mountain_232.jpg,mountain_54.jpg,mountain_232.jpg,right,mountain_232.jpg,golf_course_290.jpg,bridge_124.jpg,highway_336.jpg,highway_336.jpg,highway_336.jpg,0.0,right,1.248,1.0,mountain,mountain_54.jpg,5.0,9.047,A1DXL97NBCBV8Z
215,A1DXL97NBCBV8Z,30,male,bridge_108.jpg,bridge_108.jpg,bridge_148.jpg,left,golf_course_302.jpg,bridge_108.jpg,highway_99.jpg,playground_6.jpg,playground_6.jpg,playground_6.jpg,1.0,right,0.018,1.0,bridge,bridge_148.jpg,6.083333333,0.365,A1DXL97NBCBV8Z
216,A1DXL97NBCBV8Z,30,male,badlands_70.jpg,badlands_70.jpg,badlands_102.jpg,left,mountain_15.jpg,badlands_70.jpg,bridge_64.jpg,playground_124.jpg,playground_124.jpg,playground_124.jpg,1.0,left,1.757,0.0,badlands,badlands_102.jpg,5.958333333,3.553,A1DXL97NBCBV8Z
217,A1DXL97NBCBV8Z,30,male,badlands_184.jpg,badlands_184.jpg,badlands_228.jpg,left,bridge_49.jpg,badlands_184.jpg,mountain_212.jpg,highway_88.jpg,highway_88.jpg,highway_88.jpg,1.0,left,0.017,0.0,badlands,badlands_228.jpg,4.947916667,0.295,A1DXL97NBCBV8Z
218,A1DXL97NBCBV8Z,30,male,bridge_146.jpg,bridge_27.jpg,bridge_146.jpg,right,highway_248.jpg,mountain_12.jpg,bridge_146.jpg,golf_course_1.jpg,golf_course_1.jpg,golf_course_1.jpg,2.0,right,3.635,0.0,bridge,bridge_27.jpg,4.947916667,4.028,A1DXL97NBCBV8Z
219,A1DXL97NBCBV8Z,30,male,highway_177.jpg,highway_278.jpg,highway_177.jpg,right,bridge_2.jpg,playground_90.jpg,highway_177.jpg,golf_course_258.jpg,golf_course_258.jpg,golf_course_258.jpg,2.0,right,1.527,1.0,highway,highway_278.jpg,4.947916667,0.439,A1DXL97NBCBV8Z
220,A1DXL97NBCBV8Z,30,male,playground_117.jpg,playground_167.jpg,playground_117.jpg,right,highway_23.jpg,playground_117.jpg,golf_course_27.jpg,bridge_123.jpg,bridge_123.jpg,bridge_123.jpg,1.0,right,4.28,0.0,playground,playground_167.jpg,4.958333333,21.321,A1DXL97NBCBV8Z
221,A1DXL97NBCBV8Z,30,male,badlands_21.jpg,badlands_1.jpg,badlands_21.jpg,right,golf_course_204.jpg,badlands_21.jpg,playground_178.jpg,mountain_91.jpg,mountain_91.jpg,mountain_91.jpg,1.0,left,4.194,0.0,badlands,badlands_1.jpg,4.958333333,0.292,A1DXL97NBCBV8Z
222,A1DXL97NBCBV8Z,30,male,badlands_24.jpg,badlands_53.jpg,badlands_24.jpg,right,golf_course_33.jpg,badlands_24.jpg,highway_25.jpg,bridge_264.jpg,bridge_264.jpg,bridge_264.jpg,1.0,left,0.263,1.0,badlands,badlands_53.jpg,4.958333333,3.288,A1DXL97NBCBV8Z
223,A1DXL97NBCBV8Z,30,male,golf_course_195.jpg,golf_course_195.jpg,golf_course_2.jpg,left,playground_30.jpg,golf_course_195.jpg,highway_398.jpg,badlands_75.jpg,badlands_75.jpg,badlands_75.jpg,1.0,left,0.534,1.0,golf,golf_course_2.jpg,4.958333333,0.307,A1DXL97NBCBV8Z
224,A1DXL97NBCBV8Z,30,male,bridge_91.jpg,bridge_91.jpg,bridge_82.jpg,left,golf_course_260.jpg,bridge_91.jpg,mountain_84.jpg,badlands_100.jpg,badlands_100.jpg,badlands_100.jpg,1.0,left,0.017,1.0,bridge,bridge_82.jpg,5.916666667,3.147,A1DXL97NBCBV8Z
225,A1DXL97NBCBV8Z,30,male,playground_60.jpg,playground_60.jpg,playground_268.jpg,left,badlands_193.jpg,playground_60.jpg,mountain_66.jpg,highway_159.jpg,highway_159.jpg,highway_159.jpg,1.0,right,1.162,0.0,playground,playground_268.jpg,4.989583333,0.354,A1DXL97NBCBV8Z
226,A1DXL97NBCBV8Z,30,male,badlands_221.jpg,badlands_207.jpg,badlands_221.jpg,right,badlands_221.jpg,highway_263.jpg,bridge_78.jpg,mountain_296.jpg,mountain_296.jpg,mountain_296.jpg,0.0,right,2.869,1.0,badlands,badlands_207.jpg,4.979166667,4.927,A1DXL97NBCBV8Z
227,A1DXL97NBCBV8Z,30,male,bridge_172.jpg,bridge_17.jpg,bridge_172.jpg,right,badlands_45.jpg,playground_209.jpg,bridge_172.jpg,mountain_301.jpg,mountain_301.jpg,mountain_301.jpg,2.0,left,0.011,0.0,bridge,bridge_17.jpg,5.979166667,0.34,A1DXL97NBCBV8Z
228,A1DXL97NBCBV8Z,30,male,playground_76.jpg,playground_76.jpg,playground_22.jpg,left,highway_333.jpg,mountain_214.jpg,playground_76.jpg,badlands_200.jpg,badlands_200.jpg,badlands_200.jpg,2.0,right,1.208,0.0,playground,playground_22.jpg,4.895833333,5.024,A1DXL97NBCBV8Z
229,A1DXL97NBCBV8Z,30,male,mountain_222.jpg,mountain_222.jpg,mountain_93.jpg,left,bridge_182.jpg,golf_course_102.jpg,mountain_222.jpg,playground_123.jpg,playground_123.jpg,playground_123.jpg,2.0,right,1.64,1.0,mountain,mountain_93.jpg,4.895833333,1.048,A1DXL97NBCBV8Z
230,A1DXL97NBCBV8Z,30,male,mountain_154.jpg,mountain_95.jpg,mountain_154.jpg,right,highway_175.jpg,playground_5.jpg,mountain_154.jpg,bridge_230.jpg,bridge_230.jpg,bridge_230.jpg,2.0,left,0.009,1.0,mountain,mountain_95.jpg,5.989583333,0.309,A1DXL97NBCBV8Z
231,A1DXL97NBCBV8Z,30,male,bridge_250.jpg,bridge_250.jpg,bridge_134.jpg,left,badlands_210.jpg,highway_13.jpg,bridge_250.jpg,mountain_126.jpg,mountain_126.jpg,mountain_126.jpg,2.0,right,28.207,0.0,bridge,bridge_134.jpg,4.96875,0.325,A1DXL97NBCBV8Z
232,A1DXL97NBCBV8Z,30,male,mountain_110.jpg,mountain_157.jpg,mountain_110.jpg,right,bridge_120.jpg,mountain_110.jpg,badlands_176.jpg,golf_course_198.jpg,golf_course_198.jpg,golf_course_198.jpg,1.0,right,0.541,0.0,mountain,mountain_157.jpg,6.0,3.467,A1DXL97NBCBV8Z
233,A1DXL97NBCBV8Z,30,male,golf_course_78.jpg,golf_course_78.jpg,golf_course_101.jpg,left,bridge_9.jpg,mountain_160.jpg,golf_course_78.jpg,badlands_136.jpg,badlands_136.jpg,badlands_136.jpg,2.0,left,1.018,1.0,golf,golf_course_101.jpg,5.989583333,0.327,A1DXL97NBCBV8Z
234,A1DXL97NBCBV8Z,30,male,badlands_52.jpg,badlands_52.jpg,badlands_94.jpg,left,badlands_52.jpg,playground_70.jpg,golf_course_58.jpg,mountain_71.jpg,mountain_71.jpg,mountain_71.jpg,0.0,left,2.147,0.0,badlands,badlands_94.jpg,5.989583333,1.973,A1DXL97NBCBV8Z
235,A1DXL97NBCBV8Z,30,male,golf_course_331.jpg,golf_course_26.jpg,golf_course_331.jpg,right,golf_course_331.jpg,highway_117.jpg,playground_46.jpg,mountain_233.jpg,mountain_233.jpg,mountain_233.jpg,0.0,left,0.961,1.0,golf,golf_course_26.jpg,5.989583333,3.479,A1DXL97NBCBV8Z
236,A1DXL97NBCBV8Z,30,male,badlands_222.jpg,badlands_222.jpg,badlands_34.jpg,left,highway_319.jpg,badlands_222.jpg,bridge_19.jpg,playground_116.jpg,playground_116.jpg,playground_116.jpg,1.0,left,0.489,0.0,badlands,badlands_34.jpg,5.989583333,0.345,A1DXL97NBCBV8Z
237,A1DXL97NBCBV8Z,30,male,playground_131.jpg,playground_131.jpg,playground_164.jpg,left,mountain_199.jpg,playground_131.jpg,golf_course_42.jpg,highway_18.jpg,highway_18.jpg,highway_18.jpg,1.0,left,2.185,1.0,playground,playground_164.jpg,5.989583333,3.279,A1DXL97NBCBV8Z
238,A1DXL97NBCBV8Z,30,male,badlands_23.jpg,badlands_23.jpg,badlands_101.jpg,left,playground_168.jpg,bridge_158.jpg,badlands_23.jpg,golf_course_57.jpg,golf_course_57.jpg,golf_course_57.jpg,2.0,right,1.152,1.0,badlands,badlands_101.jpg,5.989583333,3.115,A1DXL97NBCBV8Z
239,A1DXL97NBCBV8Z,30,male,highway_93.jpg,highway_93.jpg,highway_85.jpg,left,highway_93.jpg,golf_course_334.jpg,badlands_166.jpg,bridge_47.jpg,bridge_47.jpg,bridge_47.jpg,0.0,left,3.347,0.0,highway,highway_85.jpg,5.989583333,2.744,A1DXL97NBCBV8Z
240,A1OVRL7IWO5JF0,32,MALE,mountain_293.jpg,mountain_47.jpg,mountain_293.jpg,right,mountain_293.jpg,playground_158.jpg,highway_159.jpg,bridge_251.jpg,bridge_251.jpg,bridge_251.jpg,0.0,left,1.0059,1.0,mountain,mountain_47.jpg,8.0336,2.3474,A1OVRL7IWO5JF0
241,A1OVRL7IWO5JF0,32,MALE,playground_76.jpg,playground_22.jpg,playground_76.jpg,right,mountain_214.jpg,playground_76.jpg,highway_179.jpg,bridge_204.jpg,bridge_204.jpg,bridge_204.jpg,1.0,left,0.3349,0.0,playground,playground_22.jpg,7.9696,0.6321,A1OVRL7IWO5JF0
242,A1OVRL7IWO5JF0,32,MALE,mountain_232.jpg,mountain_3.jpg,mountain_232.jpg,right,mountain_232.jpg,highway_99.jpg,golf_course_290.jpg,badlands_108.jpg,badlands_108.jpg,badlands_108.jpg,0.0,left,1.1509,0.0,mountain,mountain_3.jpg,7.9696,0.3188,A1OVRL7IWO5JF0
243,A1OVRL7IWO5JF0,32,MALE,badlands_113.jpg,badlands_225.jpg,badlands_113.jpg,right,badlands_113.jpg,golf_course_316.jpg,mountain_34.jpg,playground_181.jpg,playground_181.jpg,playground_181.jpg,0.0,left,0.238,0.0,badlands,badlands_225.jpg,7.9696,0.3446,A1OVRL7IWO5JF0
244,A1OVRL7IWO5JF0,32,MALE,bridge_146.jpg,bridge_146.jpg,bridge_121.jpg,left,bridge_146.jpg,playground_108.jpg,golf_course_229.jpg,highway_146.jpg,highway_146.jpg,highway_146.jpg,0.0,right,1.6776,1.0,bridge,bridge_121.jpg,7.9696,0.2126,A1OVRL7IWO5JF0
245,A1OVRL7IWO5JF0,32,MALE,highway_245.jpg,highway_245.jpg,highway_134.jpg,left,golf_course_204.jpg,highway_245.jpg,badlands_104.jpg,bridge_162.jpg,bridge_162.jpg,bridge_162.jpg,1.0,left,0.2534,0.0,highway,highway_134.jpg,7.9696,0.1974,A1OVRL7IWO5JF0
246,A1OVRL7IWO5JF0,32,MALE,highway_273.jpg,highway_384.jpg,highway_273.jpg,right,golf_course_27.jpg,mountain_162.jpg,highway_273.jpg,playground_173.jpg,playground_173.jpg,playground_173.jpg,2.0,left,1.1954,0.0,highway,highway_384.jpg,7.9696,0.2773,A1OVRL7IWO5JF0
247,A1OVRL7IWO5JF0,32,MALE,highway_359.jpg,highway_389.jpg,highway_359.jpg,right,highway_359.jpg,golf_course_337.jpg,badlands_99.jpg,mountain_280.jpg,mountain_280.jpg,mountain_280.jpg,0.0,left,0.0119,0.0,highway,highway_389.jpg,7.9696,0.2073,A1OVRL7IWO5JF0
248,A1OVRL7IWO5JF0,32,MALE,mountain_110.jpg,mountain_110.jpg,mountain_223.jpg,left,playground_95.jpg,highway_18.jpg,mountain_110.jpg,golf_course_156.jpg,golf_course_156.jpg,golf_course_156.jpg,2.0,left,1.2136,1.0,mountain,mountain_223.jpg,7.9696,0.2417,A1OVRL7IWO5JF0
249,A1OVRL7IWO5JF0,32,MALE,playground_144.jpg,playground_144.jpg,playground_65.jpg,left,playground_144.jpg,mountain_104.jpg,golf_course_42.jpg,highway_261.jpg,highway_261.jpg,highway_261.jpg,0.0,left,1.1062,1.0,playground,playground_65.jpg,7.9696,0.3697,A1OVRL7IWO5JF0
250,A1OVRL7IWO5JF0,32,MALE,mountain_230.jpg,mountain_97.jpg,mountain_230.jpg,right,highway_234.jpg,bridge_26.jpg,mountain_230.jpg,badlands_2.jpg,badlands_2.jpg,badlands_2.jpg,2.0,right,1.2957,1.0,mountain,mountain_97.jpg,7.9696,0.2392,A1OVRL7IWO5JF0
251,A1OVRL7IWO5JF0,32,MALE,playground_219.jpg,playground_219.jpg,playground_205.jpg,left,highway_147.jpg,playground_219.jpg,bridge_132.jpg,badlands_35.jpg,badlands_35.jpg,badlands_35.jpg,1.0,right,1.4674,1.0,playground,playground_205.jpg,7.9696,0.2094,A1OVRL7IWO5JF0
252,A1OVRL7IWO5JF0,32,MALE,bridge_65.jpg,bridge_60.jpg,bridge_65.jpg,right,highway_112.jpg,playground_5.jpg,bridge_65.jpg,mountain_84.jpg,mountain_84.jpg,mountain_84.jpg,2.0,left,1.6475,1.0,bridge,bridge_60.jpg,7.9696,0.1939,A1OVRL7IWO5JF0
253,A1OVRL7IWO5JF0,32,MALE,bridge_250.jpg,bridge_134.jpg,bridge_250.jpg,right,badlands_143.jpg,bridge_250.jpg,playground_183.jpg,mountain_126.jpg,mountain_126.jpg,mountain_126.jpg,1.0,right,0.9386,0.0,bridge,bridge_134.jpg,7.0224,0.9046,A1OVRL7IWO5JF0
254,A1OVRL7IWO5JF0,32,MALE,mountain_154.jpg,mountain_131.jpg,mountain_154.jpg,right,playground_124.jpg,highway_37.jpg,mountain_154.jpg,golf_course_60.jpg,golf_course_60.jpg,golf_course_60.jpg,2.0,right,1.6646,0.0,mountain,mountain_131.jpg,8.0592,0.5881,A1OVRL7IWO5JF0
255,A1OVRL7IWO5JF0,32,MALE,mountain_101.jpg,mountain_101.jpg,mountain_171.jpg,left,mountain_101.jpg,bridge_49.jpg,highway_144.jpg,badlands_166.jpg,badlands_166.jpg,badlands_166.jpg,0.0,right,1.5685,0.0,mountain,mountain_171.jpg,8.0592,0.3652,A1OVRL7IWO5JF0
256,A1OVRL7IWO5JF0,32,MALE,badlands_222.jpg,badlands_62.jpg,badlands_222.jpg,right,bridge_259.jpg,badlands_222.jpg,playground_103.jpg,highway_249.jpg,highway_249.jpg,highway_249.jpg,1.0,right,1.485,1.0,badlands,badlands_62.jpg,8.0592,0.3758,A1OVRL7IWO5JF0
257,A1OVRL7IWO5JF0,32,MALE,golf_course_309.jpg,golf_course_209.jpg,golf_course_309.jpg,right,playground_116.jpg,mountain_21.jpg,golf_course_309.jpg,badlands_186.jpg,badlands_186.jpg,badlands_186.jpg,2.0,left,1.1483,1.0,golf,golf_course_209.jpg,8.0592,0.2799,A1OVRL7IWO5JF0
258,A1OVRL7IWO5JF0,32,MALE,highway_93.jpg,highway_93.jpg,highway_369.jpg,left,mountain_12.jpg,highway_93.jpg,bridge_206.jpg,golf_course_258.jpg,golf_course_258.jpg,golf_course_258.jpg,1.0,right,0.7928,1.0,highway,highway_369.jpg,8.1232,0.3624,A1OVRL7IWO5JF0
259,A1OVRL7IWO5JF0,32,MALE,badlands_52.jpg,badlands_52.jpg,badlands_94.jpg,left,playground_13.jpg,badlands_52.jpg,mountain_15.jpg,golf_course_223.jpg,golf_course_223.jpg,golf_course_223.jpg,1.0,left,1.3592,0.0,badlands,badlands_94.jpg,8.1232,0.2651,A1OVRL7IWO5JF0
260,A1OVRL7IWO5JF0,32,MALE,badlands_184.jpg,badlands_103.jpg,badlands_184.jpg,right,golf_course_159.jpg,badlands_184.jpg,mountain_301.jpg,highway_263.jpg,highway_263.jpg,highway_263.jpg,1.0,left,0.8228,1.0,badlands,badlands_103.jpg,8.0464,0.329,A1OVRL7IWO5JF0
261,A1OVRL7IWO5JF0,32,MALE,badlands_70.jpg,badlands_119.jpg,badlands_70.jpg,right,badlands_70.jpg,mountain_4.jpg,bridge_52.jpg,playground_41.jpg,playground_41.jpg,playground_41.jpg,0.0,left,0.3234,1.0,badlands,badlands_119.jpg,8.0336,0.2901,A1OVRL7IWO5JF0
262,A1OVRL7IWO5JF0,32,MALE,highway_394.jpg,highway_394.jpg,highway_406.jpg,left,bridge_263.jpg,mountain_111.jpg,highway_394.jpg,badlands_218.jpg,badlands_218.jpg,badlands_218.jpg,2.0,left,1.3841,1.0,highway,highway_406.jpg,8.0336,0.2144,A1OVRL7IWO5JF0
263,A1OVRL7IWO5JF0,32,MALE,mountain_222.jpg,mountain_93.jpg,mountain_222.jpg,right,mountain_222.jpg,badlands_31.jpg,playground_77.jpg,bridge_9.jpg,bridge_9.jpg,bridge_9.jpg,0.0,right,1.4063,1.0,mountain,mountain_93.jpg,7.9952,0.3808,A1OVRL7IWO5JF0
264,A1OVRL7IWO5JF0,32,MALE,golf_course_188.jpg,golf_course_160.jpg,golf_course_188.jpg,right,playground_42.jpg,badlands_89.jpg,golf_course_188.jpg,bridge_130.jpg,bridge_130.jpg,bridge_130.jpg,2.0,left,1.6858,1.0,golf,golf_course_160.jpg,7.9952,0.2073,A1OVRL7IWO5JF0
265,A1OVRL7IWO5JF0,32,MALE,playground_131.jpg,playground_43.jpg,playground_131.jpg,right,golf_course_52.jpg,playground_131.jpg,badlands_13.jpg,bridge_19.jpg,bridge_19.jpg,bridge_19.jpg,1.0,left,1.5824,0.0,playground,playground_43.jpg,7.9952,0.1994,A1OVRL7IWO5JF0
266,A1OVRL7IWO5JF0,32,MALE,mountain_123.jpg,mountain_189.jpg,mountain_123.jpg,right,mountain_123.jpg,highway_357.jpg,playground_25.jpg,bridge_218.jpg,bridge_218.jpg,bridge_218.jpg,0.0,right,1.6303,1.0,mountain,mountain_189.jpg,7.496,0.8858,A1OVRL7IWO5JF0
267,A1OVRL7IWO5JF0,32,MALE,highway_156.jpg,highway_156.jpg,highway_293.jpg,left,badlands_174.jpg,highway_156.jpg,golf_course_46.jpg,mountain_115.jpg,mountain_115.jpg,mountain_115.jpg,1.0,left,1.3712,1.0,highway,highway_293.jpg,7.9568,0.4431,A1OVRL7IWO5JF0
268,A1OVRL7IWO5JF0,32,MALE,highway_209.jpg,highway_314.jpg,highway_209.jpg,right,highway_209.jpg,bridge_18.jpg,badlands_142.jpg,golf_course_122.jpg,golf_course_122.jpg,golf_course_122.jpg,0.0,right,0.8696,0.0,highway,highway_314.jpg,7.9568,0.2496,A1OVRL7IWO5JF0
269,A1OVRL7IWO5JF0,32,MALE,golf_course_214.jpg,golf_course_214.jpg,golf_course_317.jpg,left,playground_259.jpg,golf_course_214.jpg,bridge_103.jpg,mountain_161.jpg,mountain_161.jpg,mountain_161.jpg,1.0,right,1.7054,1.0,golf,golf_course_317.jpg,7.9568,0.3594,A1OVRL7IWO5JF0
270,A1OVRL7IWO5JF0,32,MALE,bridge_256.jpg,bridge_256.jpg,bridge_54.jpg,left,golf_course_33.jpg,bridge_256.jpg,badlands_153.jpg,highway_12.jpg,highway_12.jpg,highway_12.jpg,1.0,left,1.9784,0.0,bridge,bridge_54.jpg,7.9568,0.1887,A1OVRL7IWO5JF0
271,A1OVRL7IWO5JF0,32,MALE,badlands_137.jpg,badlands_194.jpg,badlands_137.jpg,right,bridge_182.jpg,badlands_137.jpg,playground_209.jpg,golf_course_329.jpg,golf_course_329.jpg,golf_course_329.jpg,1.0,right,1.0264,0.0,badlands,badlands_194.jpg,7.9568,0.1952,A1OVRL7IWO5JF0
272,A1OVRL7IWO5JF0,32,MALE,golf_course_87.jpg,golf_course_130.jpg,golf_course_87.jpg,right,playground_54.jpg,badlands_75.jpg,golf_course_87.jpg,highway_11.jpg,highway_11.jpg,highway_11.jpg,2.0,right,1.8302,0.0,golf,golf_course_130.jpg,7.9568,0.1822,A1OVRL7IWO5JF0
273,A1OVRL7IWO5JF0,32,MALE,bridge_128.jpg,bridge_128.jpg,bridge_61.jpg,left,highway_301.jpg,bridge_128.jpg,mountain_68.jpg,badlands_180.jpg,badlands_180.jpg,badlands_180.jpg,1.0,left,0.5356,0.0,bridge,bridge_61.jpg,7.9696,0.1925,A1OVRL7IWO5JF0
274,A1OVRL7IWO5JF0,32,MALE,badlands_21.jpg,badlands_98.jpg,badlands_21.jpg,right,playground_178.jpg,badlands_21.jpg,highway_227.jpg,bridge_179.jpg,bridge_179.jpg,bridge_179.jpg,1.0,left,1.2018,1.0,badlands,badlands_98.jpg,7.9696,0.3836,A1OVRL7IWO5JF0
275,A1OVRL7IWO5JF0,32,MALE,playground_117.jpg,playground_117.jpg,playground_167.jpg,left,golf_course_319.jpg,playground_117.jpg,bridge_25.jpg,highway_342.jpg,highway_342.jpg,highway_342.jpg,1.0,left,1.4439,0.0,playground,playground_167.jpg,7.9696,0.2099,A1OVRL7IWO5JF0
276,A1OVRL7IWO5JF0,32,MALE,golf_course_195.jpg,golf_course_195.jpg,golf_course_25.jpg,left,playground_193.jpg,golf_course_195.jpg,badlands_210.jpg,bridge_2.jpg,bridge_2.jpg,bridge_2.jpg,1.0,left,2.1982,0.0,golf,golf_course_25.jpg,7.9696,0.1863,A1OVRL7IWO5JF0
277,A1OVRL7IWO5JF0,32,MALE,golf_course_193.jpg,golf_course_235.jpg,golf_course_193.jpg,right,playground_52.jpg,golf_course_193.jpg,badlands_130.jpg,mountain_204.jpg,mountain_204.jpg,mountain_204.jpg,1.0,right,2.3541,0.0,golf,golf_course_235.jpg,7.9696,0.2152,A1OVRL7IWO5JF0
278,A1OVRL7IWO5JF0,32,MALE,golf_course_15.jpg,golf_course_97.jpg,golf_course_15.jpg,right,golf_course_15.jpg,bridge_48.jpg,mountain_179.jpg,badlands_193.jpg,badlands_193.jpg,badlands_193.jpg,0.0,right,1.4195,1.0,golf,golf_course_97.jpg,7.9696,0.1466,A1OVRL7IWO5JF0
279,A1OVRL7IWO5JF0,32,MALE,golf_course_78.jpg,golf_course_101.jpg,golf_course_78.jpg,right,highway_23.jpg,mountain_233.jpg,golf_course_78.jpg,playground_191.jpg,playground_191.jpg,playground_191.jpg,2.0,left,1.7238,1.0,golf,golf_course_101.jpg,7.9696,0.3266,A1OVRL7IWO5JF0
280,A1OVRL7IWO5JF0,32,MALE,badlands_23.jpg,badlands_114.jpg,badlands_23.jpg,right,playground_7.jpg,bridge_238.jpg,badlands_23.jpg,mountain_235.jpg,mountain_235.jpg,mountain_235.jpg,2.0,right,1.7738,0.0,badlands,badlands_114.jpg,7.9696,0.3454,A1OVRL7IWO5JF0
281,A1OVRL7IWO5JF0,32,MALE,badlands_221.jpg,badlands_207.jpg,badlands_221.jpg,right,highway_325.jpg,bridge_10.jpg,badlands_221.jpg,golf_course_325.jpg,golf_course_325.jpg,golf_course_325.jpg,2.0,right,1.399,1.0,badlands,badlands_207.jpg,7.9696,0.2161,A1OVRL7IWO5JF0
282,A1OVRL7IWO5JF0,32,MALE,playground_60.jpg,playground_268.jpg,playground_60.jpg,right,playground_60.jpg,mountain_212.jpg,badlands_30.jpg,highway_13.jpg,highway_13.jpg,highway_13.jpg,0.0,left,1.8026,0.0,playground,playground_268.jpg,7.9696,0.1305,A1OVRL7IWO5JF0
283,A1OVRL7IWO5JF0,32,MALE,bridge_202.jpg,bridge_38.jpg,bridge_202.jpg,right,bridge_202.jpg,golf_course_206.jpg,mountain_91.jpg,badlands_64.jpg,badlands_64.jpg,badlands_64.jpg,0.0,right,1.2242,1.0,bridge,bridge_38.jpg,7.9696,0.2374,A1OVRL7IWO5JF0
284,A1OVRL7IWO5JF0,32,MALE,highway_177.jpg,highway_177.jpg,highway_87.jpg,left,playground_235.jpg,highway_177.jpg,badlands_226.jpg,mountain_224.jpg,mountain_224.jpg,mountain_224.jpg,1.0,left,1.3225,0.0,highway,highway_87.jpg,7.9696,0.202,A1OVRL7IWO5JF0
285,A1OVRL7IWO5JF0,32,MALE,bridge_91.jpg,bridge_91.jpg,bridge_253.jpg,left,bridge_91.jpg,mountain_160.jpg,badlands_54.jpg,highway_336.jpg,highway_336.jpg,highway_336.jpg,0.0,left,2.505,0.0,bridge,bridge_253.jpg,7.9696,0.1924,A1OVRL7IWO5JF0
286,A1OVRL7IWO5JF0,32,MALE,mountain_57.jpg,mountain_138.jpg,mountain_57.jpg,right,golf_course_320.jpg,mountain_57.jpg,badlands_176.jpg,highway_398.jpg,highway_398.jpg,highway_398.jpg,1.0,left,1.5313,1.0,mountain,mountain_138.jpg,7.9696,0.1829,A1OVRL7IWO5JF0
287,A1OVRL7IWO5JF0,32,MALE,playground_240.jpg,playground_2.jpg,playground_240.jpg,right,highway_196.jpg,playground_240.jpg,badlands_58.jpg,bridge_106.jpg,bridge_106.jpg,bridge_106.jpg,1.0,right,1.7256,0.0,playground,playground_2.jpg,7.9696,0.28,A1OVRL7IWO5JF0
288,A1OVRL7IWO5JF0,32,MALE,golf_course_331.jpg,golf_course_331.jpg,golf_course_114.jpg,left,golf_course_331.jpg,bridge_34.jpg,highway_319.jpg,playground_172.jpg,playground_172.jpg,playground_172.jpg,0.0,left,1.0307,0.0,golf,golf_course_114.jpg,7.9696,0.1156,A1OVRL7IWO5JF0
289,A1OVRL7IWO5JF0,32,MALE,playground_10.jpg,playground_10.jpg,playground_12.jpg,left,playground_10.jpg,highway_166.jpg,badlands_38.jpg,mountain_24.jpg,mountain_24.jpg,mountain_24.jpg,0.0,right,0.7172,1.0,playground,playground_12.jpg,7.9696,0.2676,A1OVRL7IWO5JF0
290,A1OVRL7IWO5JF0,32,MALE,playground_145.jpg,playground_229.jpg,playground_145.jpg,right,playground_145.jpg,bridge_64.jpg,mountain_166.jpg,badlands_152.jpg,badlands_152.jpg,badlands_152.jpg,0.0,left,1.0809,0.0,playground,playground_229.jpg,7.9696,0.1013,A1OVRL7IWO5JF0
291,A1OVRL7IWO5JF0,32,MALE,bridge_108.jpg,bridge_108.jpg,bridge_148.jpg,left,playground_3.jpg,bridge_108.jpg,highway_117.jpg,golf_course_264.jpg,golf_course_264.jpg,golf_course_264.jpg,1.0,right,0.2648,1.0,bridge,bridge_148.jpg,7.9696,0.2171,A1OVRL7IWO5JF0
292,A1OVRL7IWO5JF0,32,MALE,highway_415.jpg,highway_415.jpg,highway_60.jpg,left,golf_course_83.jpg,highway_415.jpg,bridge_177.jpg,playground_168.jpg,playground_168.jpg,playground_168.jpg,1.0,left,0.4329,0.0,highway,highway_60.jpg,7.1632,0.7356,A1OVRL7IWO5JF0
293,A1OVRL7IWO5JF0,32,MALE,golf_course_217.jpg,golf_course_262.jpg,golf_course_217.jpg,right,golf_course_217.jpg,mountain_296.jpg,bridge_158.jpg,playground_30.jpg,playground_30.jpg,playground_30.jpg,0.0,right,0.9212,1.0,golf,golf_course_262.jpg,8.2512,0.5368,A1OVRL7IWO5JF0
294,A1OVRL7IWO5JF0,32,MALE,badlands_24.jpg,badlands_3.jpg,badlands_24.jpg,right,badlands_24.jpg,highway_331.jpg,playground_6.jpg,golf_course_128.jpg,golf_course_128.jpg,golf_course_128.jpg,0.0,right,1.2379,0.0,badlands,badlands_3.jpg,7.1376,0.6456,A1OVRL7IWO5JF0
295,A1OVRL7IWO5JF0,32,MALE,playground_257.jpg,playground_215.jpg,playground_257.jpg,right,mountain_44.jpg,bridge_21.jpg,playground_257.jpg,highway_175.jpg,highway_175.jpg,highway_175.jpg,2.0,right,1.4283,1.0,playground,playground_215.jpg,7.5984,0.3364,A1OVRL7IWO5JF0
296,A1OVRL7IWO5JF0,32,MALE,bridge_191.jpg,bridge_191.jpg,bridge_184.jpg,left,mountain_71.jpg,badlands_95.jpg,bridge_191.jpg,playground_241.jpg,playground_241.jpg,playground_241.jpg,2.0,left,1.6352,0.0,bridge,bridge_184.jpg,7.6496,0.3446,A1OVRL7IWO5JF0
297,A1OVRL7IWO5JF0,32,MALE,highway_294.jpg,highway_203.jpg,highway_294.jpg,right,playground_36.jpg,highway_294.jpg,golf_course_302.jpg,mountain_107.jpg,mountain_107.jpg,mountain_107.jpg,1.0,left,1.0696,0.0,highway,highway_203.jpg,7.6496,0.3334,A1OVRL7IWO5JF0
298,A1OVRL7IWO5JF0,32,MALE,bridge_172.jpg,bridge_172.jpg,bridge_163.jpg,left,bridge_172.jpg,playground_249.jpg,highway_75.jpg,badlands_177.jpg,badlands_177.jpg,badlands_177.jpg,0.0,left,0.8497,1.0,bridge,bridge_163.jpg,7.6496,0.2317,A1OVRL7IWO5JF0
299,A1OVRL7IWO5JF0,32,MALE,mountain_156.jpg,mountain_156.jpg,mountain_295.jpg,left,bridge_80.jpg,mountain_156.jpg,badlands_149.jpg,highway_149.jpg,highway_149.jpg,highway_149.jpg,1.0,left,1.3027,1.0,mountain,mountain_295.jpg,7.6496,0.1901,A1OVRL7IWO5JF0
300,A2SPCX677KPO7H,22,Female,golf_course_309.jpg,golf_course_209.jpg,golf_course_309.jpg,right,golf_course_309.jpg,bridge_162.jpg,mountain_84.jpg,playground_241.jpg,playground_241.jpg,playground_241.jpg,0.0,right,2.522,1.0,golf,golf_course_209.jpg,4.013333333,6.737,A2SPCX677KPO7H
301,A2SPCX677KPO7H,22,Female,golf_course_193.jpg,golf_course_193.jpg,golf_course_123.jpg,left,bridge_25.jpg,golf_course_193.jpg,badlands_176.jpg,highway_147.jpg,highway_147.jpg,highway_147.jpg,1.0,left,2.006,1.0,golf,golf_course_123.jpg,2.964444444,2.243,A2SPCX677KPO7H
302,A2SPCX677KPO7H,22,Female,golf_course_195.jpg,golf_course_195.jpg,golf_course_25.jpg,left,bridge_2.jpg,playground_30.jpg,golf_course_195.jpg,highway_23.jpg,highway_23.jpg,highway_23.jpg,2.0,right,2.418,0.0,golf,golf_course_25.jpg,5.088888889,2.845,A2SPCX677KPO7H
303,A2SPCX677KPO7H,22,Female,playground_144.jpg,playground_137.jpg,playground_144.jpg,right,playground_144.jpg,golf_course_43.jpg,highway_175.jpg,badlands_27.jpg,badlands_27.jpg,badlands_27.jpg,0.0,right,1.89,0.0,playground,playground_137.jpg,4.626666667,2.412,A2SPCX677KPO7H
304,A2SPCX677KPO7H,22,Female,playground_257.jpg,playground_214.jpg,playground_257.jpg,right,playground_257.jpg,golf_course_264.jpg,bridge_259.jpg,mountain_199.jpg,mountain_199.jpg,mountain_199.jpg,0.0,left,2.2,0.0,playground,playground_214.jpg,5.942222222,2.438,A2SPCX677KPO7H
305,A2SPCX677KPO7H,22,Female,mountain_230.jpg,mountain_230.jpg,mountain_184.jpg,left,bridge_64.jpg,highway_117.jpg,mountain_230.jpg,badlands_193.jpg,badlands_193.jpg,badlands_193.jpg,2.0,right,3.386,0.0,mountain,mountain_184.jpg,4.342222222,2.455,A2SPCX677KPO7H
306,A2SPCX677KPO7H,22,Female,golf_course_217.jpg,golf_course_217.jpg,golf_course_262.jpg,left,golf_course_217.jpg,badlands_31.jpg,bridge_34.jpg,mountain_280.jpg,mountain_280.jpg,mountain_280.jpg,0.0,left,1.546,1.0,golf,golf_course_262.jpg,4.946666667,2.836,A2SPCX677KPO7H
307,A2SPCX677KPO7H,22,Female,highway_93.jpg,highway_93.jpg,highway_369.jpg,left,mountain_12.jpg,golf_course_325.jpg,highway_93.jpg,badlands_54.jpg,badlands_54.jpg,badlands_54.jpg,2.0,right,3.765,1.0,highway,highway_369.jpg,6.92,2.227,A2SPCX677KPO7H
308,A2SPCX677KPO7H,22,Female,mountain_123.jpg,mountain_123.jpg,mountain_189.jpg,left,playground_42.jpg,mountain_123.jpg,badlands_89.jpg,golf_course_198.jpg,golf_course_198.jpg,golf_course_198.jpg,1.0,right,1.854,1.0,mountain,mountain_189.jpg,7.924444444,2.218,A2SPCX677KPO7H
309,A2SPCX677KPO7H,22,Female,badlands_221.jpg,badlands_115.jpg,badlands_221.jpg,right,badlands_221.jpg,mountain_160.jpg,golf_course_46.jpg,playground_158.jpg,playground_158.jpg,playground_158.jpg,0.0,left,1.986,0.0,badlands,badlands_115.jpg,7.017777778,3.281,A2SPCX677KPO7H
310,A2SPCX677KPO7H,22,Female,golf_course_78.jpg,golf_course_101.jpg,golf_course_78.jpg,right,bridge_19.jpg,playground_103.jpg,golf_course_78.jpg,mountain_26.jpg,mountain_26.jpg,mountain_26.jpg,2.0,right,2.183,1.0,golf,golf_course_101.jpg,4.351111111,2.151,A2SPCX677KPO7H
311,A2SPCX677KPO7H,22,Female,bridge_250.jpg,bridge_134.jpg,bridge_250.jpg,right,highway_159.jpg,bridge_250.jpg,golf_course_52.jpg,playground_108.jpg,playground_108.jpg,playground_108.jpg,1.0,left,1.565,0.0,bridge,bridge_134.jpg,4.884444444,1.757,A2SPCX677KPO7H
312,A2SPCX677KPO7H,22,Female,badlands_52.jpg,badlands_52.jpg,badlands_94.jpg,left,badlands_52.jpg,mountain_233.jpg,bridge_179.jpg,golf_course_260.jpg,golf_course_260.jpg,golf_course_260.jpg,0.0,left,3.336,0.0,badlands,badlands_94.jpg,5.924444444,2.458,A2SPCX677KPO7H
313,A2SPCX677KPO7H,22,Female,golf_course_188.jpg,golf_course_157.jpg,golf_course_188.jpg,right,golf_course_188.jpg,bridge_106.jpg,playground_3.jpg,mountain_307.jpg,mountain_307.jpg,mountain_307.jpg,0.0,right,5.285,0.0,golf,golf_course_157.jpg,3.56,1.781,A2SPCX677KPO7H
314,A2SPCX677KPO7H,22,Female,badlands_24.jpg,badlands_24.jpg,badlands_3.jpg,left,badlands_24.jpg,highway_75.jpg,bridge_263.jpg,playground_46.jpg,playground_46.jpg,playground_46.jpg,0.0,left,2.752,0.0,badlands,badlands_3.jpg,4.857777778,1.866,A2SPCX677KPO7H
315,A2SPCX677KPO7H,22,Female,highway_415.jpg,highway_174.jpg,highway_415.jpg,right,bridge_49.jpg,golf_course_21.jpg,highway_415.jpg,mountain_204.jpg,mountain_204.jpg,mountain_204.jpg,2.0,right,12.982,1.0,highway,highway_174.jpg,6.973333333,2.045,A2SPCX677KPO7H
316,A2SPCX677KPO7H,22,Female,mountain_57.jpg,mountain_57.jpg,mountain_138.jpg,left,bridge_21.jpg,badlands_166.jpg,mountain_57.jpg,golf_course_337.jpg,golf_course_337.jpg,golf_course_337.jpg,2.0,left,1.348,1.0,mountain,mountain_138.jpg,3.053333333,1.82,A2SPCX677KPO7H
317,A2SPCX677KPO7H,22,Female,bridge_172.jpg,bridge_163.jpg,bridge_172.jpg,right,mountain_91.jpg,bridge_172.jpg,badlands_153.jpg,highway_263.jpg,highway_263.jpg,highway_263.jpg,1.0,right,1.105,1.0,bridge,bridge_163.jpg,4.262222222,2.0,A2SPCX677KPO7H
318,A2SPCX677KPO7H,22,Female,playground_240.jpg,playground_40.jpg,playground_240.jpg,right,highway_196.jpg,bridge_47.jpg,playground_240.jpg,mountain_166.jpg,mountain_166.jpg,mountain_166.jpg,2.0,right,1.368,1.0,playground,playground_40.jpg,6.591111111,2.01,A2SPCX677KPO7H
319,A2SPCX677KPO7H,22,Female,mountain_222.jpg,mountain_93.jpg,mountain_222.jpg,right,mountain_222.jpg,playground_124.jpg,highway_325.jpg,bridge_177.jpg,bridge_177.jpg,bridge_177.jpg,0.0,right,1.333,1.0,mountain,mountain_93.jpg,4.884444444,1.997,A2SPCX677KPO7H
320,A2SPCX677KPO7H,22,Female,highway_245.jpg,highway_245.jpg,highway_134.jpg,left,bridge_78.jpg,mountain_15.jpg,highway_245.jpg,playground_66.jpg,playground_66.jpg,playground_66.jpg,2.0,left,1.088,0.0,highway,highway_134.jpg,6.013333333,1.885,A2SPCX677KPO7H
321,A2SPCX677KPO7H,22,Female,highway_359.jpg,highway_389.jpg,highway_359.jpg,right,highway_359.jpg,bridge_132.jpg,mountain_202.jpg,golf_course_88.jpg,golf_course_88.jpg,golf_course_88.jpg,0.0,right,1.353,0.0,highway,highway_389.jpg,3.0,4.179,A2SPCX677KPO7H
322,A2SPCX677KPO7H,22,Female,badlands_23.jpg,badlands_114.jpg,badlands_23.jpg,right,golf_course_229.jpg,bridge_26.jpg,badlands_23.jpg,highway_112.jpg,highway_112.jpg,highway_112.jpg,2.0,left,3.682,0.0,badlands,badlands_114.jpg,3.32,5.737,A2SPCX677KPO7H
323,A2SPCX677KPO7H,22,Female,playground_60.jpg,playground_268.jpg,playground_60.jpg,right,playground_60.jpg,highway_25.jpg,golf_course_316.jpg,mountain_179.jpg,mountain_179.jpg,mountain_179.jpg,0.0,left,1.703,0.0,playground,playground_268.jpg,6.92,5.668,A2SPCX677KPO7H
324,A2SPCX677KPO7H,22,Female,bridge_191.jpg,bridge_191.jpg,bridge_75.jpg,left,bridge_191.jpg,badlands_226.jpg,highway_99.jpg,mountain_107.jpg,mountain_107.jpg,mountain_107.jpg,0.0,right,1.145,1.0,bridge,bridge_75.jpg,7.328888889,4.336,A2SPCX677KPO7H
325,A2SPCX677KPO7H,22,Female,badlands_137.jpg,badlands_137.jpg,badlands_139.jpg,left,golf_course_152.jpg,badlands_137.jpg,mountain_4.jpg,highway_114.jpg,highway_114.jpg,highway_114.jpg,1.0,right,1.775,1.0,badlands,badlands_139.jpg,3.888888889,2.008,A2SPCX677KPO7H
326,A2SPCX677KPO7H,22,Female,badlands_21.jpg,badlands_1.jpg,badlands_21.jpg,right,mountain_253.jpg,playground_259.jpg,badlands_21.jpg,highway_244.jpg,highway_244.jpg,highway_244.jpg,2.0,right,1.588,0.0,badlands,badlands_1.jpg,3.88,1.624,A2SPCX677KPO7H
327,A2SPCX677KPO7H,22,Female,playground_145.jpg,playground_242.jpg,playground_145.jpg,right,highway_149.jpg,badlands_149.jpg,playground_145.jpg,bridge_230.jpg,bridge_230.jpg,bridge_230.jpg,2.0,left,2.239,1.0,playground,playground_242.jpg,5.168888889,1.559,A2SPCX677KPO7H
328,A2SPCX677KPO7H,22,Female,bridge_146.jpg,bridge_146.jpg,bridge_121.jpg,left,bridge_146.jpg,mountain_104.jpg,badlands_173.jpg,playground_191.jpg,playground_191.jpg,playground_191.jpg,0.0,left,2.046,1.0,bridge,bridge_121.jpg,6.484444444,2.029,A2SPCX677KPO7H
329,A2SPCX677KPO7H,22,Female,mountain_154.jpg,mountain_131.jpg,mountain_154.jpg,right,mountain_154.jpg,highway_166.jpg,bridge_257.jpg,badlands_75.jpg,badlands_75.jpg,badlands_75.jpg,0.0,left,1.489,0.0,mountain,mountain_131.jpg,4.253333333,2.224,A2SPCX677KPO7H
330,A2SPCX677KPO7H,22,Female,golf_course_87.jpg,golf_course_161.jpg,golf_course_87.jpg,right,golf_course_87.jpg,badlands_142.jpg,mountain_66.jpg,bridge_169.jpg,bridge_169.jpg,bridge_169.jpg,0.0,right,1.51,1.0,golf,golf_course_161.jpg,5.088888889,2.164,A2SPCX677KPO7H
331,A2SPCX677KPO7H,22,Female,playground_131.jpg,playground_164.jpg,playground_131.jpg,right,bridge_52.jpg,playground_131.jpg,golf_course_321.jpg,badlands_174.jpg,badlands_174.jpg,badlands_174.jpg,1.0,right,1.825,1.0,playground,playground_164.jpg,6.368888889,1.994,A2SPCX677KPO7H
332,A2SPCX677KPO7H,22,Female,bridge_108.jpg,bridge_148.jpg,bridge_108.jpg,right,golf_course_258.jpg,playground_172.jpg,bridge_108.jpg,badlands_143.jpg,badlands_143.jpg,badlands_143.jpg,2.0,left,1.982,1.0,bridge,bridge_148.jpg,7.346666667,1.971,A2SPCX677KPO7H
333,A2SPCX677KPO7H,22,Female,bridge_91.jpg,bridge_253.jpg,bridge_91.jpg,right,bridge_91.jpg,golf_course_33.jpg,badlands_30.jpg,mountain_132.jpg,mountain_132.jpg,mountain_132.jpg,0.0,left,2.672,0.0,bridge,bridge_253.jpg,3.808888889,2.218,A2SPCX677KPO7H
334,A2SPCX677KPO7H,22,Female,mountain_110.jpg,mountain_110.jpg,mountain_223.jpg,left,badlands_177.jpg,mountain_110.jpg,golf_course_122.jpg,highway_37.jpg,highway_37.jpg,highway_37.jpg,1.0,right,1.733,1.0,mountain,mountain_223.jpg,5.48,2.001,A2SPCX677KPO7H
335,A2SPCX677KPO7H,22,Female,highway_394.jpg,highway_394.jpg,highway_204.jpg,left,golf_course_102.jpg,badlands_136.jpg,highway_394.jpg,playground_95.jpg,playground_95.jpg,playground_95.jpg,2.0,left,1.352,0.0,highway,highway_204.jpg,5.204444444,3.821,A2SPCX677KPO7H
336,A2SPCX677KPO7H,22,Female,badlands_113.jpg,badlands_113.jpg,badlands_203.jpg,left,golf_course_206.jpg,bridge_103.jpg,badlands_113.jpg,mountain_44.jpg,mountain_44.jpg,mountain_44.jpg,2.0,left,1.523,1.0,badlands,badlands_203.jpg,7.355555556,2.237,A2SPCX677KPO7H
337,A2SPCX677KPO7H,22,Female,mountain_156.jpg,mountain_156.jpg,mountain_295.jpg,left,golf_course_57.jpg,mountain_156.jpg,bridge_204.jpg,playground_168.jpg,playground_168.jpg,playground_168.jpg,1.0,right,1.539,1.0,mountain,mountain_295.jpg,4.644444444,2.399,A2SPCX677KPO7H
338,A2SPCX677KPO7H,22,Female,badlands_70.jpg,badlands_70.jpg,badlands_119.jpg,left,badlands_70.jpg,highway_333.jpg,mountain_68.jpg,golf_course_185.jpg,golf_course_185.jpg,golf_course_185.jpg,0.0,left,1.998,1.0,badlands,badlands_119.jpg,5.524444444,2.921,A2SPCX677KPO7H
339,A2SPCX677KPO7H,22,Female,golf_course_214.jpg,golf_course_312.jpg,golf_course_214.jpg,right,golf_course_214.jpg,badlands_104.jpg,playground_193.jpg,highway_357.jpg,highway_357.jpg,highway_357.jpg,0.0,right,1.328,0.0,golf,golf_course_312.jpg,7.24,2.686,A2SPCX677KPO7H
340,A2SPCX677KPO7H,22,Female,highway_156.jpg,highway_156.jpg,highway_160.jpg,left,mountain_105.jpg,highway_156.jpg,playground_25.jpg,badlands_13.jpg,badlands_13.jpg,badlands_13.jpg,1.0,right,1.077,0.0,highway,highway_160.jpg,5.213333333,2.483,A2SPCX677KPO7H
341,A2SPCX677KPO7H,22,Female,golf_course_331.jpg,golf_course_331.jpg,golf_course_114.jpg,left,golf_course_331.jpg,highway_301.jpg,badlands_186.jpg,mountain_235.jpg,mountain_235.jpg,mountain_235.jpg,0.0,left,1.502,0.0,golf,golf_course_114.jpg,5.168888889,2.632,A2SPCX677KPO7H
342,A2SPCX677KPO7H,22,Female,highway_209.jpg,highway_314.jpg,highway_209.jpg,right,playground_5.jpg,highway_209.jpg,badlands_38.jpg,bridge_48.jpg,bridge_48.jpg,bridge_48.jpg,1.0,right,1.078,0.0,highway,highway_314.jpg,4.52,2.435,A2SPCX677KPO7H
343,A2SPCX677KPO7H,22,Female,mountain_101.jpg,mountain_171.jpg,mountain_101.jpg,right,playground_181.jpg,mountain_101.jpg,golf_course_42.jpg,badlands_216.jpg,badlands_216.jpg,badlands_216.jpg,1.0,right,2.005,0.0,mountain,mountain_171.jpg,6.644444444,2.272,A2SPCX677KPO7H
344,A2SPCX677KPO7H,22,Female,playground_76.jpg,playground_76.jpg,playground_22.jpg,left,golf_course_173.jpg,playground_76.jpg,mountain_214.jpg,highway_227.jpg,highway_227.jpg,highway_227.jpg,1.0,left,3.162,0.0,playground,playground_22.jpg,6.644444444,1.995,A2SPCX677KPO7H
345,A2SPCX677KPO7H,22,Female,bridge_202.jpg,bridge_31.jpg,bridge_202.jpg,right,bridge_202.jpg,mountain_111.jpg,highway_248.jpg,golf_course_166.jpg,golf_course_166.jpg,golf_course_166.jpg,0.0,left,2.55,0.0,bridge,bridge_31.jpg,4.52,2.043,A2SPCX677KPO7H
346,A2SPCX677KPO7H,22,Female,highway_294.jpg,highway_203.jpg,highway_294.jpg,right,playground_264.jpg,badlands_95.jpg,highway_294.jpg,golf_course_60.jpg,golf_course_60.jpg,golf_course_60.jpg,2.0,left,1.955,0.0,highway,highway_203.jpg,5.124444444,2.003,A2SPCX677KPO7H
347,A2SPCX677KPO7H,22,Female,playground_117.jpg,playground_117.jpg,playground_167.jpg,left,bridge_218.jpg,golf_course_319.jpg,playground_117.jpg,mountain_21.jpg,mountain_21.jpg,mountain_21.jpg,2.0,left,2.904,0.0,playground,playground_167.jpg,7.613333333,1.87,A2SPCX677KPO7H
348,A2SPCX677KPO7H,22,Female,badlands_222.jpg,badlands_34.jpg,badlands_222.jpg,right,badlands_222.jpg,golf_course_334.jpg,playground_6.jpg,mountain_296.jpg,mountain_296.jpg,mountain_296.jpg,0.0,left,1.303,0.0,badlands,badlands_34.jpg,4.68,1.878,A2SPCX677KPO7H
349,A2SPCX677KPO7H,22,Female,mountain_293.jpg,mountain_293.jpg,mountain_47.jpg,left,highway_342.jpg,playground_54.jpg,mountain_293.jpg,badlands_108.jpg,badlands_108.jpg,badlands_108.jpg,2.0,right,2.019,1.0,mountain,mountain_47.jpg,5.293333333,3.189,A2SPCX677KPO7H
350,A2SPCX677KPO7H,22,Female,highway_273.jpg,highway_273.jpg,highway_171.jpg,left,golf_course_302.jpg,highway_273.jpg,playground_209.jpg,mountain_34.jpg,mountain_34.jpg,mountain_34.jpg,1.0,left,1.337,1.0,highway,highway_171.jpg,6.386666667,2.207,A2SPCX677KPO7H
351,A2SPCX677KPO7H,22,Female,playground_219.jpg,playground_205.jpg,playground_219.jpg,right,playground_219.jpg,badlands_180.jpg,highway_234.jpg,golf_course_83.jpg,golf_course_83.jpg,golf_course_83.jpg,0.0,left,1.727,1.0,playground,playground_205.jpg,7.364444444,2.049,A2SPCX677KPO7H
352,A2SPCX677KPO7H,22,Female,playground_10.jpg,playground_10.jpg,playground_12.jpg,left,playground_10.jpg,badlands_99.jpg,bridge_239.jpg,golf_course_329.jpg,golf_course_329.jpg,golf_course_329.jpg,0.0,left,4.395,1.0,playground,playground_12.jpg,7.72,1.842,A2SPCX677KPO7H
353,A2SPCX677KPO7H,22,Female,highway_177.jpg,highway_177.jpg,highway_278.jpg,left,bridge_130.jpg,playground_70.jpg,highway_177.jpg,golf_course_204.jpg,golf_course_204.jpg,golf_course_204.jpg,2.0,left,1.086,1.0,highway,highway_278.jpg,7.72,1.524,A2SPCX677KPO7H
354,A2SPCX677KPO7H,22,Female,bridge_128.jpg,bridge_128.jpg,bridge_61.jpg,left,bridge_128.jpg,highway_144.jpg,golf_course_159.jpg,playground_52.jpg,playground_52.jpg,playground_52.jpg,0.0,right,1.548,0.0,bridge,bridge_61.jpg,6.013333333,1.96,A2SPCX677KPO7H
355,A2SPCX677KPO7H,22,Female,mountain_232.jpg,mountain_54.jpg,mountain_232.jpg,right,playground_183.jpg,mountain_232.jpg,badlands_220.jpg,bridge_18.jpg,bridge_18.jpg,bridge_18.jpg,1.0,left,2.291,1.0,mountain,mountain_54.jpg,4.164444444,1.982,A2SPCX677KPO7H
356,A2SPCX677KPO7H,22,Female,bridge_256.jpg,bridge_54.jpg,bridge_256.jpg,right,highway_249.jpg,golf_course_58.jpg,bridge_256.jpg,playground_123.jpg,playground_123.jpg,playground_123.jpg,2.0,right,1.758,0.0,bridge,bridge_54.jpg,5.764444444,1.849,A2SPCX677KPO7H
357,A2SPCX677KPO7H,22,Female,badlands_184.jpg,badlands_184.jpg,badlands_103.jpg,left,badlands_184.jpg,mountain_162.jpg,highway_261.jpg,bridge_158.jpg,bridge_158.jpg,bridge_158.jpg,0.0,left,1.322,1.0,badlands,badlands_103.jpg,4.92,1.971,A2SPCX677KPO7H
358,A2SPCX677KPO7H,22,Female,bridge_65.jpg,bridge_65.jpg,bridge_181.jpg,left,bridge_65.jpg,playground_200.jpg,badlands_210.jpg,highway_331.jpg,highway_331.jpg,highway_331.jpg,0.0,left,1.516,0.0,bridge,bridge_181.jpg,5.115555556,2.41,A2SPCX677KPO7H
359,A2SPCX677KPO7H,22,Female,golf_course_15.jpg,golf_course_15.jpg,golf_course_97.jpg,left,bridge_120.jpg,highway_398.jpg,golf_course_15.jpg,playground_90.jpg,playground_90.jpg,playground_90.jpg,2.0,right,2.054,1.0,golf,golf_course_97.jpg,6.768888889,1.819,A2SPCX677KPO7H
360,AC4I7XU10MQXK,35,Male,badlands_221.jpg,badlands_207.jpg,badlands_221.jpg,right,highway_234.jpg,mountain_34.jpg,badlands_221.jpg,bridge_130.jpg,bridge_130.jpg,bridge_130.jpg,2.0,right,2.0438,1.0,badlands,badlands_207.jpg,3.052083333,5.5502,AC4I7XU10MQXK
361,AC4I7XU10MQXK,35,Male,golf_course_331.jpg,golf_course_114.jpg,golf_course_331.jpg,right,playground_124.jpg,highway_227.jpg,golf_course_331.jpg,mountain_84.jpg,mountain_84.jpg,mountain_84.jpg,2.0,right,2.5208,0.0,golf,golf_course_114.jpg,4.947916667,7.2968,AC4I7XU10MQXK
362,AC4I7XU10MQXK,35,Male,mountain_123.jpg,mountain_189.jpg,mountain_123.jpg,right,mountain_123.jpg,golf_course_321.jpg,bridge_52.jpg,highway_114.jpg,highway_114.jpg,highway_114.jpg,0.0,right,3.9562,1.0,mountain,mountain_189.jpg,7.166666667,4.9914,AC4I7XU10MQXK
363,AC4I7XU10MQXK,35,Male,bridge_128.jpg,bridge_61.jpg,bridge_128.jpg,right,highway_144.jpg,bridge_128.jpg,mountain_161.jpg,golf_course_319.jpg,golf_course_319.jpg,golf_course_319.jpg,1.0,left,2.6026,0.0,bridge,bridge_61.jpg,7.166666667,0.8787,AC4I7XU10MQXK
364,AC4I7XU10MQXK,35,Male,playground_117.jpg,playground_127.jpg,playground_117.jpg,right,playground_117.jpg,badlands_99.jpg,mountain_66.jpg,golf_course_185.jpg,golf_course_185.jpg,golf_course_185.jpg,0.0,right,3.2083,1.0,playground,playground_127.jpg,8.6875,3.951,AC4I7XU10MQXK
365,AC4I7XU10MQXK,35,Male,highway_394.jpg,highway_406.jpg,highway_394.jpg,right,golf_course_27.jpg,playground_70.jpg,highway_394.jpg,badlands_59.jpg,badlands_59.jpg,badlands_59.jpg,2.0,right,3.5516,1.0,highway,highway_406.jpg,8.6875,1.4625,AC4I7XU10MQXK
366,AC4I7XU10MQXK,35,Male,playground_60.jpg,playground_60.jpg,playground_244.jpg,left,highway_261.jpg,playground_60.jpg,golf_course_204.jpg,badlands_216.jpg,badlands_216.jpg,badlands_216.jpg,1.0,right,2.6327,1.0,playground,playground_244.jpg,8.6875,2.2819,AC4I7XU10MQXK
367,AC4I7XU10MQXK,35,Male,badlands_52.jpg,badlands_52.jpg,badlands_94.jpg,left,bridge_251.jpg,highway_336.jpg,badlands_52.jpg,playground_241.jpg,playground_241.jpg,playground_241.jpg,2.0,left,2.7948,0.0,badlands,badlands_94.jpg,7.09375,3.2183,AC4I7XU10MQXK
368,AC4I7XU10MQXK,35,Male,bridge_108.jpg,bridge_116.jpg,bridge_108.jpg,right,golf_course_128.jpg,playground_173.jpg,bridge_108.jpg,badlands_149.jpg,badlands_149.jpg,badlands_149.jpg,2.0,left,3.974,0.0,bridge,bridge_116.jpg,5.34375,4.3458,AC4I7XU10MQXK
369,AC4I7XU10MQXK,35,Male,mountain_293.jpg,mountain_293.jpg,mountain_72.jpg,left,bridge_206.jpg,mountain_293.jpg,playground_172.jpg,golf_course_88.jpg,golf_course_88.jpg,golf_course_88.jpg,1.0,left,3.2266,0.0,mountain,mountain_72.jpg,7.9375,4.508,AC4I7XU10MQXK
370,AC4I7XU10MQXK,35,Male,mountain_222.jpg,mountain_222.jpg,mountain_93.jpg,left,highway_319.jpg,mountain_222.jpg,bridge_120.jpg,playground_6.jpg,playground_6.jpg,playground_6.jpg,1.0,left,2.2471,1.0,mountain,mountain_93.jpg,7.1875,3.5125,AC4I7XU10MQXK
371,AC4I7XU10MQXK,35,Male,golf_course_309.jpg,golf_course_209.jpg,golf_course_309.jpg,right,mountain_235.jpg,playground_80.jpg,golf_course_309.jpg,bridge_132.jpg,bridge_132.jpg,bridge_132.jpg,2.0,right,1.6489,1.0,golf,golf_course_209.jpg,2.364583333,3.2355,AC4I7XU10MQXK
372,AC4I7XU10MQXK,35,Male,highway_156.jpg,highway_160.jpg,highway_156.jpg,right,highway_156.jpg,playground_123.jpg,mountain_126.jpg,badlands_136.jpg,badlands_136.jpg,badlands_136.jpg,0.0,right,2.1413,0.0,highway,highway_160.jpg,6.677083333,3.8528,AC4I7XU10MQXK
373,AC4I7XU10MQXK,35,Male,playground_257.jpg,playground_257.jpg,playground_215.jpg,left,playground_257.jpg,mountain_91.jpg,bridge_257.jpg,highway_13.jpg,highway_13.jpg,highway_13.jpg,0.0,left,2.5015,1.0,playground,playground_215.jpg,7.654490107,14.1581,AC4I7XU10MQXK
374,AC4I7XU10MQXK,35,Male,mountain_230.jpg,mountain_184.jpg,mountain_230.jpg,right,bridge_80.jpg,playground_200.jpg,mountain_230.jpg,golf_course_42.jpg,golf_course_42.jpg,golf_course_42.jpg,2.0,right,2.2613,0.0,mountain,mountain_184.jpg,2.382039574,2.6335,AC4I7XU10MQXK
375,AC4I7XU10MQXK,35,Male,highway_209.jpg,highway_209.jpg,highway_314.jpg,left,mountain_68.jpg,highway_209.jpg,golf_course_57.jpg,playground_181.jpg,playground_181.jpg,playground_181.jpg,1.0,right,1.8679,0.0,highway,highway_314.jpg,6.254185693,2.3408,AC4I7XU10MQXK
376,AC4I7XU10MQXK,35,Male,mountain_101.jpg,mountain_221.jpg,mountain_101.jpg,right,mountain_101.jpg,playground_54.jpg,badlands_130.jpg,bridge_48.jpg,bridge_48.jpg,bridge_48.jpg,0.0,right,2.3103,1.0,mountain,mountain_221.jpg,7.435312024,2.48,AC4I7XU10MQXK
377,AC4I7XU10MQXK,35,Male,highway_294.jpg,highway_203.jpg,highway_294.jpg,right,highway_294.jpg,bridge_204.jpg,badlands_104.jpg,mountain_71.jpg,mountain_71.jpg,mountain_71.jpg,0.0,right,1.5312,0.0,highway,highway_203.jpg,2.101978691,4.3309,AC4I7XU10MQXK
378,AC4I7XU10MQXK,35,Male,bridge_250.jpg,bridge_134.jpg,bridge_250.jpg,right,highway_357.jpg,bridge_250.jpg,playground_264.jpg,mountain_107.jpg,mountain_107.jpg,mountain_107.jpg,1.0,right,1.9685,0.0,bridge,bridge_134.jpg,7.910197869,3.5529,AC4I7XU10MQXK
379,AC4I7XU10MQXK,35,Male,golf_course_217.jpg,golf_course_217.jpg,golf_course_262.jpg,left,playground_90.jpg,golf_course_217.jpg,bridge_18.jpg,mountain_307.jpg,mountain_307.jpg,mountain_307.jpg,1.0,left,2.073,1.0,golf,golf_course_262.jpg,4.707762557,5.9566,AC4I7XU10MQXK
