key_resp.keys,key_resp_2.keys,key_resp_2.rt,demo_test_key_resp.keys,demo_test_key_resp.rt,demo_loops.thisRepN,demo_loops.thisTrialN,demo_loops.thisN,demo_loops.thisIndex,demo_loops.ran,target,image1,image2,correct,background_0,background_1,background_2,background_3,background_4,background_5,target_index,workID,Age,Gender,Hours slept (last night),date,expName,psychopyVersion,OS,frameRate,key_resp_after_demo.keys,key_resp_after_demo.rt,test_key_resp.keys,test_key_resp.rt,exp_loops.thisRepN,exp_loops.thisTrialN,exp_loops.thisN,exp_loops.thisIndex,exp_loops.ran,selected_dist,distractor_level,category,key_resp_4.keys,key_resp_4.rt,slider_part2.response,slider_part2.rt,exp_loops_part2.thisRepN,exp_loops_part2.thisTrialN,exp_loops_part2.thisN,exp_loops_part2.thisIndex,exp_loops_part2.ran,key_resp_last_slide.keys,key_resp_last_slide.rt
,space,16.2047,right,5.592,0,0,0,0,1,flower1.jpg,flower1.jpg,flower1_pair.jpg,left,leaf3.jpg,trail1.jpg,flower1.jpg,bird1.jpg,tree3.jpg,fence4.jpg,2,AUQ3XC7O2CU5U,32,female,7,2023-07-16_10h02.44.260,working,2022.2.4,Win32,16,,,,,,,,,,,,,,,,,,,,,,,
,,,left,1.6787,0,1,1,1,1,leaf2.jpg,leaf1.jpg,leaf2.jpg,right,trail2.jpg,leaf2.jpg,bird2.jpg,tree2.jpg,fence3.jpg,flower2.jpg,1,AUQ3XC7O2CU5U,32,female,7,2023-07-16_10h02.44.260,working,2022.2.4,Win32,16,,,,,,,,,,,,,,,,,,,,,,,
,,,left,1.5847,0,2,2,2,1,fence1.jpg,fence1.jpg,fence2.jpg,left,tree1.jpg,bird3.jpg,trail3.jpg,fence1.jpg,leaf4.jpg,flower3.jpg,3,AUQ3XC7O2CU5U,32,female,7,2023-07-16_10h02.44.260,working,2022.2.4,Win32,16,,,,,,,,,,,,,,,,,,,,,,,
,,,,,,,,,,bridge_191.jpg,bridge_75.jpg,bridge_191.jpg,right,bridge_191.jpg,mountain_4.jpg,golf_course_302.jpg,playground_70.jpg,playground_70.jpg,playground_70.jpg,0,AUQ3XC7O2CU5U,32,female,7,2023-07-16_10h02.44.260,working,2022.2.4,Win32,16,space,4.6928,right,1.6168,0,0,0,0,1,bridge_75.jpg,1,bridge,,,,,,,,,,,
,,,,,,,,,,playground_144.jpg,playground_65.jpg,playground_144.jpg,right,playground_144.jpg,golf_course_325.jpg,highway_99.jpg,bridge_179.jpg,bridge_179.jpg,bridge_179.jpg,0,AUQ3XC7O2CU5U,32,female,7,2023-07-16_10h02.44.260,working,2022.2.4,Win32,16,,,right,1.4748,0,1,1,1,1,playground_65.jpg,1,playground,,,,,,,,,,,
,,,,,,,,,,golf_course_331.jpg,golf_course_331.jpg,golf_course_114.jpg,left,highway_175.jpg,bridge_130.jpg,golf_course_331.jpg,mountain_24.jpg,mountain_24.jpg,mountain_24.jpg,2,AUQ3XC7O2CU5U,32,female,7,2023-07-16_10h02.44.260,working,2022.2.4,Win32,16,,,left,2.2826,0,2,2,2,1,golf_course_114.jpg,0,golf,,,,,,,,,,,
,,,,,,,,,,badlands_21.jpg,badlands_98.jpg,badlands_21.jpg,right,bridge_19.jpg,badlands_21.jpg,mountain_21.jpg,highway_357.jpg,highway_357.jpg,highway_357.jpg,1,AUQ3XC7O2CU5U,32,female,7,2023-07-16_10h02.44.260,working,2022.2.4,Win32,16,,,left,2.8819,0,3,3,3,1,badlands_98.jpg,1,badlands,,,,,,,,,,,
,,,,,,,,,,bridge_172.jpg,bridge_17.jpg,bridge_172.jpg,right,bridge_172.jpg,golf_course_320.jpg,playground_108.jpg,highway_117.jpg,highway_117.jpg,highway_117.jpg,0,AUQ3XC7O2CU5U,32,female,7,2023-07-16_10h02.44.260,working,2022.2.4,Win32,16,,,right,1.4918,0,4,4,4,1,bridge_17.jpg,0,bridge,,,,,,,,,,,
,,,,,,,,,,bridge_65.jpg,bridge_181.jpg,bridge_65.jpg,right,highway_333.jpg,mountain_233.jpg,bridge_65.jpg,playground_25.jpg,playground_25.jpg,playground_25.jpg,2,AUQ3XC7O2CU5U,32,female,7,2023-07-16_10h02.44.260,working,2022.2.4,Win32,16,,,left,2.6255,0,5,5,5,1,bridge_181.jpg,0,bridge,,,,,,,,,,,
,,,,,,,,,,badlands_52.jpg,badlands_94.jpg,badlands_52.jpg,right,badlands_52.jpg,mountain_26.jpg,bridge_132.jpg,highway_149.jpg,highway_149.jpg,highway_149.jpg,0,AUQ3XC7O2CU5U,32,female,7,2023-07-16_10h02.44.260,working,2022.2.4,Win32,16,,,right,1.7286,0,6,6,6,1,badlands_94.jpg,0,badlands,,,,,,,,,,,
,,,,,,,,,,golf_course_309.jpg,golf_course_309.jpg,golf_course_209.jpg,left,mountain_107.jpg,golf_course_309.jpg,playground_172.jpg,badlands_177.jpg,badlands_177.jpg,badlands_177.jpg,1,AUQ3XC7O2CU5U,32,female,7,2023-07-16_10h02.44.260,working,2022.2.4,Win32,16,,,left,2.0063,0,7,7,7,1,golf_course_209.jpg,1,golf,,,,,,,,,,,
,,,,,,,,,,highway_294.jpg,highway_368.jpg,highway_294.jpg,right,highway_294.jpg,mountain_296.jpg,playground_124.jpg,bridge_204.jpg,bridge_204.jpg,bridge_204.jpg,0,AUQ3XC7O2CU5U,32,female,7,2023-07-16_10h02.44.260,working,2022.2.4,Win32,16,,,left,1.4005,0,8,8,8,1,highway_368.jpg,1,highway,,,,,,,,,,,
,,,,,,,,,,bridge_256.jpg,bridge_256.jpg,bridge_211.jpg,left,bridge_256.jpg,golf_course_337.jpg,mountain_44.jpg,highway_18.jpg,highway_18.jpg,highway_18.jpg,0,AUQ3XC7O2CU5U,32,female,7,2023-07-16_10h02.44.260,working,2022.2.4,Win32,16,,,left,1.124,0,9,9,9,1,bridge_211.jpg,1,bridge,,,,,,,,,,,
,,,,,,,,,,bridge_250.jpg,bridge_134.jpg,bridge_250.jpg,right,highway_37.jpg,bridge_250.jpg,mountain_104.jpg,playground_52.jpg,playground_52.jpg,playground_52.jpg,1,AUQ3XC7O2CU5U,32,female,7,2023-07-16_10h02.44.260,working,2022.2.4,Win32,16,,,right,1.9491,0,10,10,10,1,bridge_134.jpg,0,bridge,,,,,,,,,,,
,,,,,,,,,,badlands_70.jpg,badlands_102.jpg,badlands_70.jpg,right,badlands_70.jpg,playground_200.jpg,mountain_34.jpg,golf_course_42.jpg,golf_course_42.jpg,golf_course_42.jpg,0,AUQ3XC7O2CU5U,32,female,7,2023-07-16_10h02.44.260,working,2022.2.4,Win32,16,,,right,3.1712,0,11,11,11,1,badlands_102.jpg,0,badlands,,,,,,,,,,,
,,,,,,,,,,playground_76.jpg,playground_76.jpg,playground_22.jpg,left,playground_76.jpg,golf_course_260.jpg,mountain_68.jpg,highway_23.jpg,highway_23.jpg,highway_23.jpg,0,AUQ3XC7O2CU5U,32,female,7,2023-07-16_10h02.44.260,working,2022.2.4,Win32,16,,,right,2.1749,0,12,12,12,1,playground_22.jpg,0,playground,,,,,,,,,,,
,,,,,,,,,,mountain_232.jpg,mountain_232.jpg,mountain_54.jpg,left,bridge_169.jpg,mountain_232.jpg,golf_course_33.jpg,playground_90.jpg,playground_90.jpg,playground_90.jpg,1,AUQ3XC7O2CU5U,32,female,7,2023-07-16_10h02.44.260,working,2022.2.4,Win32,16,,,right,1.1507,0,13,13,13,1,mountain_54.jpg,1,mountain,,,,,,,,,,,
,,,,,,,,,,playground_257.jpg,playground_257.jpg,playground_214.jpg,left,mountain_12.jpg,badlands_142.jpg,playground_257.jpg,golf_course_185.jpg,golf_course_185.jpg,golf_course_185.jpg,2,AUQ3XC7O2CU5U,32,female,7,2023-07-16_10h02.44.260,working,2022.2.4,Win32,16,,,left,1.8335,0,14,14,14,1,playground_214.jpg,0,playground,,,,,,,,,,,
,,,,,,,,,,mountain_123.jpg,mountain_123.jpg,mountain_94.jpg,left,bridge_251.jpg,mountain_123.jpg,golf_course_329.jpg,badlands_130.jpg,badlands_130.jpg,badlands_130.jpg,1,AUQ3XC7O2CU5U,32,female,7,2023-07-16_10h02.44.260,working,2022.2.4,Win32,16,,,left,1.1962,0,15,15,15,1,mountain_94.jpg,0,mountain,,,,,,,,,,,
,,,,,,,,,,highway_273.jpg,highway_171.jpg,highway_273.jpg,right,playground_42.jpg,highway_273.jpg,mountain_199.jpg,golf_course_57.jpg,golf_course_57.jpg,golf_course_57.jpg,1,AUQ3XC7O2CU5U,32,female,7,2023-07-16_10h02.44.260,working,2022.2.4,Win32,16,,,left,1.0297,0,16,16,16,1,highway_171.jpg,1,highway,,,,,,,,,,,
,,,,,,,,,,golf_course_188.jpg,golf_course_157.jpg,golf_course_188.jpg,right,badlands_59.jpg,golf_course_188.jpg,playground_181.jpg,bridge_218.jpg,bridge_218.jpg,bridge_218.jpg,1,AUQ3XC7O2CU5U,32,female,7,2023-07-16_10h02.44.260,working,2022.2.4,Win32,16,,,right,3.8003,0,17,17,17,1,golf_course_157.jpg,0,golf,,,,,,,,,,,
,,,,,,,,,,mountain_57.jpg,mountain_57.jpg,mountain_193.jpg,left,golf_course_319.jpg,bridge_239.jpg,mountain_57.jpg,playground_80.jpg,playground_80.jpg,playground_80.jpg,2,AUQ3XC7O2CU5U,32,female,7,2023-07-16_10h02.44.260,working,2022.2.4,Win32,16,,,right,0.9881,0,18,18,18,1,mountain_193.jpg,0,mountain,,,,,,,,,,,
,,,,,,,,,,bridge_146.jpg,bridge_121.jpg,bridge_146.jpg,right,bridge_146.jpg,mountain_301.jpg,playground_13.jpg,badlands_186.jpg,badlands_186.jpg,badlands_186.jpg,0,AUQ3XC7O2CU5U,32,female,7,2023-07-16_10h02.44.260,working,2022.2.4,Win32,16,,,left,2.0175,0,19,19,19,1,bridge_121.jpg,1,bridge,,,,,,,,,,,
,,,,,,,,,,playground_240.jpg,playground_40.jpg,playground_240.jpg,right,badlands_2.jpg,golf_course_43.jpg,playground_240.jpg,bridge_238.jpg,bridge_238.jpg,bridge_238.jpg,2,AUQ3XC7O2CU5U,32,female,7,2023-07-16_10h02.44.260,working,2022.2.4,Win32,16,,,left,5.5674,0,20,20,20,1,playground_40.jpg,1,playground,,,,,,,,,,,
,,,,,,,,,,playground_131.jpg,playground_43.jpg,playground_131.jpg,right,golf_course_60.jpg,mountain_307.jpg,playground_131.jpg,highway_325.jpg,highway_325.jpg,highway_325.jpg,2,AUQ3XC7O2CU5U,32,female,7,2023-07-16_10h02.44.260,working,2022.2.4,Win32,16,,,right,2.5783,0,21,21,21,1,playground_43.jpg,0,playground,,,,,,,,,,,
,,,,,,,,,,golf_course_15.jpg,golf_course_15.jpg,golf_course_97.jpg,left,bridge_264.jpg,mountain_162.jpg,golf_course_15.jpg,playground_116.jpg,playground_116.jpg,playground_116.jpg,2,AUQ3XC7O2CU5U,32,female,7,2023-07-16_10h02.44.260,working,2022.2.4,Win32,16,,,left,8.1448,0,22,22,22,1,golf_course_97.jpg,1,golf,,,,,,,,,,,
,,,,,,,,,,mountain_293.jpg,mountain_72.jpg,mountain_293.jpg,right,playground_241.jpg,highway_75.jpg,mountain_293.jpg,bridge_80.jpg,bridge_80.jpg,bridge_80.jpg,2,AUQ3XC7O2CU5U,32,female,7,2023-07-16_10h02.44.260,working,2022.2.4,Win32,16,,,left,5.684,0,23,23,23,1,mountain_72.jpg,0,mountain,,,,,,,,,,,
,,,,,,,,,,golf_course_87.jpg,golf_course_87.jpg,golf_course_130.jpg,left,golf_course_87.jpg,bridge_177.jpg,badlands_220.jpg,playground_209.jpg,playground_209.jpg,playground_209.jpg,0,AUQ3XC7O2CU5U,32,female,7,2023-07-16_10h02.44.260,working,2022.2.4,Win32,16,,,left,2.2671,0,24,24,24,1,golf_course_130.jpg,0,golf,,,,,,,,,,,
,,,,,,,,,,mountain_154.jpg,mountain_131.jpg,mountain_154.jpg,right,playground_7.jpg,mountain_154.jpg,badlands_45.jpg,highway_402.jpg,highway_402.jpg,highway_402.jpg,1,AUQ3XC7O2CU5U,32,female,7,2023-07-16_10h02.44.260,working,2022.2.4,Win32,16,,,left,3.1264,0,25,25,25,1,mountain_131.jpg,0,mountain,,,,,,,,,,,
,,,,,,,,,,mountain_110.jpg,mountain_110.jpg,mountain_157.jpg,left,golf_course_122.jpg,mountain_110.jpg,playground_123.jpg,highway_88.jpg,highway_88.jpg,highway_88.jpg,1,AUQ3XC7O2CU5U,32,female,7,2023-07-16_10h02.44.260,working,2022.2.4,Win32,16,,,right,2.0766,0,26,26,26,1,mountain_157.jpg,0,mountain,,,,,,,,,,,
,,,,,,,,,,mountain_230.jpg,mountain_230.jpg,mountain_184.jpg,left,mountain_230.jpg,golf_course_206.jpg,bridge_52.jpg,highway_227.jpg,highway_227.jpg,highway_227.jpg,0,AUQ3XC7O2CU5U,32,female,7,2023-07-16_10h02.44.260,working,2022.2.4,Win32,16,,,left,2.6988,0,27,27,27,1,mountain_184.jpg,0,mountain,,,,,,,,,,,
,,,,,,,,,,highway_177.jpg,highway_87.jpg,highway_177.jpg,right,bridge_10.jpg,highway_177.jpg,golf_course_27.jpg,badlands_38.jpg,badlands_38.jpg,badlands_38.jpg,1,AUQ3XC7O2CU5U,32,female,7,2023-07-16_10h02.44.260,working,2022.2.4,Win32,16,,,left,3.1016,0,28,28,28,1,highway_87.jpg,0,highway,,,,,,,,,,,
,,,,,,,,,,bridge_202.jpg,bridge_38.jpg,bridge_202.jpg,right,bridge_202.jpg,playground_103.jpg,badlands_58.jpg,golf_course_223.jpg,golf_course_223.jpg,golf_course_223.jpg,0,AUQ3XC7O2CU5U,32,female,7,2023-07-16_10h02.44.260,working,2022.2.4,Win32,16,,,left,3.8152,0,29,29,29,1,bridge_38.jpg,1,bridge,,,,,,,,,,,
,,,,,,,,,,playground_117.jpg,playground_117.jpg,playground_167.jpg,left,playground_117.jpg,badlands_176.jpg,golf_course_159.jpg,highway_25.jpg,highway_25.jpg,highway_25.jpg,0,AUQ3XC7O2CU5U,32,female,7,2023-07-16_10h02.44.260,working,2022.2.4,Win32,16,,,left,4.0315,0,30,30,30,1,playground_167.jpg,0,playground,,,,,,,,,,,
,,,,,,,,,,highway_156.jpg,highway_293.jpg,highway_156.jpg,right,highway_156.jpg,badlands_95.jpg,bridge_120.jpg,mountain_204.jpg,mountain_204.jpg,mountain_204.jpg,0,AUQ3XC7O2CU5U,32,female,7,2023-07-16_10h02.44.260,working,2022.2.4,Win32,16,,,left,1.4045,0,31,31,31,1,highway_293.jpg,1,highway,,,,,,,,,,,
,,,,,,,,,,mountain_222.jpg,mountain_93.jpg,mountain_222.jpg,right,playground_259.jpg,badlands_89.jpg,mountain_222.jpg,golf_course_229.jpg,golf_course_229.jpg,golf_course_229.jpg,2,AUQ3XC7O2CU5U,32,female,7,2023-07-16_10h02.44.260,working,2022.2.4,Win32,16,,,right,6.5019,0,32,32,32,1,mountain_93.jpg,1,mountain,,,,,,,,,,,
,,,,,,,,,,playground_60.jpg,playground_244.jpg,playground_60.jpg,right,mountain_91.jpg,golf_course_46.jpg,playground_60.jpg,badlands_100.jpg,badlands_100.jpg,badlands_100.jpg,2,AUQ3XC7O2CU5U,32,female,7,2023-07-16_10h02.44.260,working,2022.2.4,Win32,16,,,left,5.6108,0,33,33,33,1,playground_244.jpg,1,playground,,,,,,,,,,,
,,,,,,,,,,playground_145.jpg,playground_242.jpg,playground_145.jpg,right,playground_145.jpg,mountain_214.jpg,highway_234.jpg,bridge_162.jpg,bridge_162.jpg,bridge_162.jpg,0,AUQ3XC7O2CU5U,32,female,7,2023-07-16_10h02.44.260,working,2022.2.4,Win32,16,,,right,0.8871,0,34,34,34,1,playground_242.jpg,1,playground,,,,,,,,,,,
,,,,,,,,,,badlands_222.jpg,badlands_62.jpg,badlands_222.jpg,right,badlands_222.jpg,bridge_2.jpg,playground_173.jpg,golf_course_258.jpg,golf_course_258.jpg,golf_course_258.jpg,0,AUQ3XC7O2CU5U,32,female,7,2023-07-16_10h02.44.260,working,2022.2.4,Win32,16,,,right,0.0069,0,35,35,35,1,badlands_62.jpg,1,badlands,,,,,,,,,,,
,,,,,,,,,,golf_course_78.jpg,golf_course_78.jpg,golf_course_101.jpg,left,mountain_202.jpg,bridge_206.jpg,golf_course_78.jpg,highway_219.jpg,highway_219.jpg,highway_219.jpg,2,AUQ3XC7O2CU5U,32,female,7,2023-07-16_10h02.44.260,working,2022.2.4,Win32,16,,,left,0.1309,0,36,36,36,1,golf_course_101.jpg,1,golf,,,,,,,,,,,
,,,,,,,,,,mountain_156.jpg,mountain_295.jpg,mountain_156.jpg,right,badlands_149.jpg,mountain_156.jpg,bridge_230.jpg,golf_course_166.jpg,golf_course_166.jpg,golf_course_166.jpg,1,AUQ3XC7O2CU5U,32,female,7,2023-07-16_10h02.44.260,working,2022.2.4,Win32,16,,,right,0.2352,0,37,37,37,1,mountain_295.jpg,1,mountain,,,,,,,,,,,
,,,,,,,,,,highway_394.jpg,highway_394.jpg,highway_406.jpg,left,badlands_108.jpg,bridge_9.jpg,highway_394.jpg,playground_3.jpg,playground_3.jpg,playground_3.jpg,2,AUQ3XC7O2CU5U,32,female,7,2023-07-16_10h02.44.260,working,2022.2.4,Win32,16,,,left,0.1211,0,38,38,38,1,highway_406.jpg,1,highway,,,,,,,,,,,
,,,,,,,,,,golf_course_217.jpg,golf_course_262.jpg,golf_course_217.jpg,right,highway_331.jpg,bridge_64.jpg,golf_course_217.jpg,playground_66.jpg,playground_66.jpg,playground_66.jpg,2,AUQ3XC7O2CU5U,32,female,7,2023-07-16_10h02.44.260,working,2022.2.4,Win32,16,,,right,0.1323,0,39,39,39,1,golf_course_262.jpg,1,golf,,,,,,,,,,,
,,,,,,,,,,bridge_128.jpg,bridge_128.jpg,bridge_244.jpg,left,badlands_75.jpg,bridge_128.jpg,playground_46.jpg,mountain_224.jpg,mountain_224.jpg,mountain_224.jpg,1,AUQ3XC7O2CU5U,32,female,7,2023-07-16_10h02.44.260,working,2022.2.4,Win32,16,,,right,0.0072,0,40,40,40,1,bridge_244.jpg,1,bridge,,,,,,,,,,,
,,,,,,,,,,bridge_108.jpg,bridge_148.jpg,bridge_108.jpg,right,golf_course_102.jpg,badlands_166.jpg,bridge_108.jpg,mountain_126.jpg,mountain_126.jpg,mountain_126.jpg,2,AUQ3XC7O2CU5U,32,female,7,2023-07-16_10h02.44.260,working,2022.2.4,Win32,16,,,right,3.9441,0,41,41,41,1,bridge_148.jpg,1,bridge,,,,,,,,,,,
,,,,,,,,,,golf_course_214.jpg,golf_course_214.jpg,golf_course_312.jpg,left,golf_course_214.jpg,highway_179.jpg,mountain_179.jpg,badlands_143.jpg,badlands_143.jpg,badlands_143.jpg,0,AUQ3XC7O2CU5U,32,female,7,2023-07-16_10h02.44.260,working,2022.2.4,Win32,16,,,right,0.3049,0,42,42,42,1,golf_course_312.jpg,0,golf,,,,,,,,,,,
,,,,,,,,,,badlands_137.jpg,badlands_137.jpg,badlands_194.jpg,left,mountain_235.jpg,playground_183.jpg,badlands_137.jpg,golf_course_334.jpg,golf_course_334.jpg,golf_course_334.jpg,2,AUQ3XC7O2CU5U,32,female,7,2023-07-16_10h02.44.260,working,2022.2.4,Win32,16,,,right,0.3965,0,43,43,43,1,badlands_194.jpg,0,badlands,,,,,,,,,,,
,,,,,,,,,,playground_219.jpg,playground_219.jpg,playground_21.jpg,left,mountain_280.jpg,playground_219.jpg,bridge_21.jpg,badlands_174.jpg,badlands_174.jpg,badlands_174.jpg,1,AUQ3XC7O2CU5U,32,female,7,2023-07-16_10h02.44.260,working,2022.2.4,Win32,16,,,right,1.1443,0,44,44,44,1,playground_21.jpg,0,playground,,,,,,,,,,,
,,,,,,,,,,golf_course_195.jpg,golf_course_195.jpg,golf_course_25.jpg,left,mountain_71.jpg,golf_course_195.jpg,badlands_27.jpg,playground_30.jpg,playground_30.jpg,playground_30.jpg,1,AUQ3XC7O2CU5U,32,female,7,2023-07-16_10h02.44.260,working,2022.2.4,Win32,16,,,right,12.2881,0,45,45,45,1,golf_course_25.jpg,0,golf,,,,,,,,,,,
,,,,,,,,,,badlands_24.jpg,badlands_53.jpg,badlands_24.jpg,right,highway_336.jpg,mountain_160.jpg,badlands_24.jpg,bridge_48.jpg,bridge_48.jpg,bridge_48.jpg,2,AUQ3XC7O2CU5U,32,female,7,2023-07-16_10h02.44.260,working,2022.2.4,Win32,16,,,right,0.0077,0,46,46,46,1,badlands_53.jpg,1,badlands,,,,,,,,,,,
,,,,,,,,,,highway_93.jpg,highway_93.jpg,highway_85.jpg,left,golf_course_128.jpg,bridge_18.jpg,highway_93.jpg,playground_54.jpg,playground_54.jpg,playground_54.jpg,2,AUQ3XC7O2CU5U,32,female,7,2023-07-16_10h02.44.260,working,2022.2.4,Win32,16,,,left,7.9389,0,47,47,47,1,highway_85.jpg,0,highway,,,,,,,,,,,
,,,,,,,,,,highway_209.jpg,highway_209.jpg,highway_314.jpg,left,mountain_132.jpg,highway_209.jpg,golf_course_52.jpg,playground_77.jpg,playground_77.jpg,playground_77.jpg,1,AUQ3XC7O2CU5U,32,female,7,2023-07-16_10h02.44.260,working,2022.2.4,Win32,16,,,right,52.9538,0,48,48,48,1,highway_314.jpg,0,highway,,,,,,,,,,,
,,,,,,,,,,badlands_23.jpg,badlands_101.jpg,badlands_23.jpg,right,badlands_23.jpg,highway_114.jpg,golf_course_156.jpg,bridge_182.jpg,bridge_182.jpg,bridge_182.jpg,0,AUQ3XC7O2CU5U,32,female,7,2023-07-16_10h02.44.260,working,2022.2.4,Win32,16,,,right,2.0116,0,49,49,49,1,badlands_101.jpg,1,badlands,,,,,,,,,,,
,,,,,,,,,,badlands_184.jpg,badlands_103.jpg,badlands_184.jpg,right,mountain_115.jpg,golf_course_290.jpg,badlands_184.jpg,playground_191.jpg,playground_191.jpg,playground_191.jpg,2,AUQ3XC7O2CU5U,32,female,7,2023-07-16_10h02.44.260,working,2022.2.4,Win32,16,,,left,0.1883,0,50,50,50,1,badlands_103.jpg,1,badlands,,,,,,,,,,,
,,,,,,,,,,badlands_221.jpg,badlands_221.jpg,badlands_207.jpg,left,badlands_221.jpg,mountain_105.jpg,golf_course_204.jpg,highway_112.jpg,highway_112.jpg,highway_112.jpg,0,AUQ3XC7O2CU5U,32,female,7,2023-07-16_10h02.44.260,working,2022.2.4,Win32,16,,,left,26.3158,0,51,51,51,1,badlands_207.jpg,1,badlands,,,,,,,,,,,
,,,,,,,,,,highway_359.jpg,highway_359.jpg,highway_379.jpg,left,badlands_104.jpg,highway_359.jpg,mountain_15.jpg,bridge_34.jpg,bridge_34.jpg,bridge_34.jpg,1,AUQ3XC7O2CU5U,32,female,7,2023-07-16_10h02.44.260,working,2022.2.4,Win32,16,,,left,2.8436,0,52,52,52,1,highway_379.jpg,1,highway,,,,,,,,,,,
,,,,,,,,,,badlands_113.jpg,badlands_113.jpg,badlands_203.jpg,left,bridge_103.jpg,badlands_113.jpg,golf_course_83.jpg,highway_166.jpg,highway_166.jpg,highway_166.jpg,1,AUQ3XC7O2CU5U,32,female,7,2023-07-16_10h02.44.260,working,2022.2.4,Win32,16,,,right,1.4024,0,53,53,53,1,badlands_203.jpg,1,badlands,,,,,,,,,,,
,,,,,,,,,,highway_415.jpg,highway_60.jpg,highway_415.jpg,right,golf_course_198.jpg,highway_415.jpg,bridge_78.jpg,badlands_136.jpg,badlands_136.jpg,badlands_136.jpg,1,AUQ3XC7O2CU5U,32,female,7,2023-07-16_10h02.44.260,working,2022.2.4,Win32,16,,,right,0.2443,0,54,54,54,1,highway_60.jpg,0,highway,,,,,,,,,,,
,,,,,,,,,,golf_course_193.jpg,golf_course_235.jpg,golf_course_193.jpg,right,mountain_84.jpg,golf_course_193.jpg,bridge_123.jpg,badlands_153.jpg,badlands_153.jpg,badlands_153.jpg,1,AUQ3XC7O2CU5U,32,female,7,2023-07-16_10h02.44.260,working,2022.2.4,Win32,16,,,right,0.1217,0,55,55,55,1,golf_course_235.jpg,0,golf,,,,,,,,,,,
,,,,,,,,,,highway_245.jpg,highway_206.jpg,highway_245.jpg,right,highway_245.jpg,mountain_253.jpg,badlands_99.jpg,bridge_158.jpg,bridge_158.jpg,bridge_158.jpg,0,AUQ3XC7O2CU5U,32,female,7,2023-07-16_10h02.44.260,working,2022.2.4,Win32,16,,,right,30.6187,0,56,56,56,1,highway_206.jpg,1,highway,,,,,,,,,,,
,,,,,,,,,,mountain_101.jpg,mountain_171.jpg,mountain_101.jpg,right,bridge_47.jpg,mountain_101.jpg,golf_course_321.jpg,playground_158.jpg,playground_158.jpg,playground_158.jpg,1,AUQ3XC7O2CU5U,32,female,7,2023-07-16_10h02.44.260,working,2022.2.4,Win32,16,,,left,0.8013,0,57,57,57,1,mountain_171.jpg,0,mountain,,,,,,,,,,,
,,,,,,,,,,playground_10.jpg,playground_122.jpg,playground_10.jpg,right,bridge_124.jpg,mountain_166.jpg,playground_10.jpg,highway_13.jpg,highway_13.jpg,highway_13.jpg,2,AUQ3XC7O2CU5U,32,female,7,2023-07-16_10h02.44.260,working,2022.2.4,Win32,16,,,left,2.4663,0,58,58,58,1,playground_122.jpg,0,playground,,,,,,,,,,,
,,,,,,,,,,bridge_91.jpg,bridge_253.jpg,bridge_91.jpg,right,bridge_91.jpg,golf_course_173.jpg,highway_159.jpg,badlands_173.jpg,badlands_173.jpg,badlands_173.jpg,0,AUQ3XC7O2CU5U,32,female,7,2023-07-16_10h02.44.260,working,2022.2.4,Win32,16,,,left,10.0352,0,59,59,59,1,bridge_253.jpg,0,bridge,,,,,,,,,,,
,,,,,,,,,,bridge_191.jpg,bridge_75.jpg,bridge_191.jpg,right,bridge_191.jpg,mountain_4.jpg,golf_course_302.jpg,playground_70.jpg,playground_70.jpg,playground_70.jpg,0,AUQ3XC7O2CU5U,32,female,7,2023-07-16_10h02.44.260,working,2022.2.4,Win32,16,,,,,,,,,,bridge_75.jpg,1,bridge,space,40.1973,7.520833333,2.3251,0,0,0,0,1,,
,,,,,,,,,,playground_144.jpg,playground_65.jpg,playground_144.jpg,right,playground_144.jpg,golf_course_325.jpg,highway_99.jpg,bridge_179.jpg,bridge_179.jpg,bridge_179.jpg,0,AUQ3XC7O2CU5U,32,female,7,2023-07-16_10h02.44.260,working,2022.2.4,Win32,16,,,,,,,,,,playground_65.jpg,1,playground,,,8.322916667,3.383,0,1,1,1,1,,
,,,,,,,,,,golf_course_331.jpg,golf_course_331.jpg,golf_course_114.jpg,left,highway_175.jpg,bridge_130.jpg,golf_course_331.jpg,mountain_24.jpg,mountain_24.jpg,mountain_24.jpg,2,AUQ3XC7O2CU5U,32,female,7,2023-07-16_10h02.44.260,working,2022.2.4,Win32,16,,,,,,,,,,golf_course_114.jpg,0,golf,,,8.322916667,4.4912,0,2,2,2,1,,
,,,,,,,,,,badlands_21.jpg,badlands_98.jpg,badlands_21.jpg,right,bridge_19.jpg,badlands_21.jpg,mountain_21.jpg,highway_357.jpg,highway_357.jpg,highway_357.jpg,1,AUQ3XC7O2CU5U,32,female,7,2023-07-16_10h02.44.260,working,2022.2.4,Win32,16,,,,,,,,,,badlands_98.jpg,1,badlands,,,8.302083333,4.6361,0,3,3,3,1,,
,,,,,,,,,,bridge_172.jpg,bridge_17.jpg,bridge_172.jpg,right,bridge_172.jpg,golf_course_320.jpg,playground_108.jpg,highway_117.jpg,highway_117.jpg,highway_117.jpg,0,AUQ3XC7O2CU5U,32,female,7,2023-07-16_10h02.44.260,working,2022.2.4,Win32,16,,,,,,,,,,bridge_17.jpg,0,bridge,,,8.302083333,4.902,0,4,4,4,1,,
,,,,,,,,,,bridge_65.jpg,bridge_181.jpg,bridge_65.jpg,right,highway_333.jpg,mountain_233.jpg,bridge_65.jpg,playground_25.jpg,playground_25.jpg,playground_25.jpg,2,AUQ3XC7O2CU5U,32,female,7,2023-07-16_10h02.44.260,working,2022.2.4,Win32,16,,,,,,,,,,bridge_181.jpg,0,bridge,,,8.302083333,5.4811,0,5,5,5,1,,
,,,,,,,,,,badlands_52.jpg,badlands_94.jpg,badlands_52.jpg,right,badlands_52.jpg,mountain_26.jpg,bridge_132.jpg,highway_149.jpg,highway_149.jpg,highway_149.jpg,0,AUQ3XC7O2CU5U,32,female,7,2023-07-16_10h02.44.260,working,2022.2.4,Win32,16,,,,,,,,,,badlands_94.jpg,0,badlands,,,8.229166667,5.4922,0,6,6,6,1,,
,,,,,,,,,,golf_course_309.jpg,golf_course_309.jpg,golf_course_209.jpg,left,mountain_107.jpg,golf_course_309.jpg,playground_172.jpg,badlands_177.jpg,badlands_177.jpg,badlands_177.jpg,1,AUQ3XC7O2CU5U,32,female,7,2023-07-16_10h02.44.260,working,2022.2.4,Win32,16,,,,,,,,,,golf_course_209.jpg,1,golf,,,8.229166667,5.3337,0,7,7,7,1,,
,,,,,,,,,,highway_294.jpg,highway_368.jpg,highway_294.jpg,right,highway_294.jpg,mountain_296.jpg,playground_124.jpg,bridge_204.jpg,bridge_204.jpg,bridge_204.jpg,0,AUQ3XC7O2CU5U,32,female,7,2023-07-16_10h02.44.260,working,2022.2.4,Win32,16,,,,,,,,,,highway_368.jpg,1,highway,,,8.229166667,14.7716,0,8,8,8,1,,
,,,,,,,,,,bridge_256.jpg,bridge_256.jpg,bridge_211.jpg,left,bridge_256.jpg,golf_course_337.jpg,mountain_44.jpg,highway_18.jpg,highway_18.jpg,highway_18.jpg,0,AUQ3XC7O2CU5U,32,female,7,2023-07-16_10h02.44.260,working,2022.2.4,Win32,16,,,,,,,,,,bridge_211.jpg,1,bridge,,,8.229166667,7.8702,0,9,9,9,1,,
,,,,,,,,,,bridge_250.jpg,bridge_134.jpg,bridge_250.jpg,right,highway_37.jpg,bridge_250.jpg,mountain_104.jpg,playground_52.jpg,playground_52.jpg,playground_52.jpg,1,AUQ3XC7O2CU5U,32,female,7,2023-07-16_10h02.44.260,working,2022.2.4,Win32,16,,,,,,,,,,bridge_134.jpg,0,bridge,,,8.229166667,0.7296,0,10,10,10,1,,
,,,,,,,,,,badlands_70.jpg,badlands_102.jpg,badlands_70.jpg,right,badlands_70.jpg,playground_200.jpg,mountain_34.jpg,golf_course_42.jpg,golf_course_42.jpg,golf_course_42.jpg,0,AUQ3XC7O2CU5U,32,female,7,2023-07-16_10h02.44.260,working,2022.2.4,Win32,16,,,,,,,,,,badlands_102.jpg,0,badlands,,,8.229166667,3.0123,0,11,11,11,1,,
,,,,,,,,,,playground_76.jpg,playground_76.jpg,playground_22.jpg,left,playground_76.jpg,golf_course_260.jpg,mountain_68.jpg,highway_23.jpg,highway_23.jpg,highway_23.jpg,0,AUQ3XC7O2CU5U,32,female,7,2023-07-16_10h02.44.260,working,2022.2.4,Win32,16,,,,,,,,,,playground_22.jpg,0,playground,,,8.041666667,216.4094,0,12,12,12,1,,
,,,,,,,,,,mountain_232.jpg,mountain_232.jpg,mountain_54.jpg,left,bridge_169.jpg,mountain_232.jpg,golf_course_33.jpg,playground_90.jpg,playground_90.jpg,playground_90.jpg,1,AUQ3XC7O2CU5U,32,female,7,2023-07-16_10h02.44.260,working,2022.2.4,Win32,16,,,,,,,,,,mountain_54.jpg,1,mountain,,,7.979166667,2.1114,0,13,13,13,1,,
,,,,,,,,,,playground_257.jpg,playground_257.jpg,playground_214.jpg,left,mountain_12.jpg,badlands_142.jpg,playground_257.jpg,golf_course_185.jpg,golf_course_185.jpg,golf_course_185.jpg,2,AUQ3XC7O2CU5U,32,female,7,2023-07-16_10h02.44.260,working,2022.2.4,Win32,16,,,,,,,,,,playground_214.jpg,0,playground,,,7.979166667,0.7516,0,14,14,14,1,,
,,,,,,,,,,mountain_123.jpg,mountain_123.jpg,mountain_94.jpg,left,bridge_251.jpg,mountain_123.jpg,golf_course_329.jpg,badlands_130.jpg,badlands_130.jpg,badlands_130.jpg,1,AUQ3XC7O2CU5U,32,female,7,2023-07-16_10h02.44.260,working,2022.2.4,Win32,16,,,,,,,,,,mountain_94.jpg,0,mountain,,,7.979166667,0.5499,0,15,15,15,1,,
,,,,,,,,,,highway_273.jpg,highway_171.jpg,highway_273.jpg,right,playground_42.jpg,highway_273.jpg,mountain_199.jpg,golf_course_57.jpg,golf_course_57.jpg,golf_course_57.jpg,1,AUQ3XC7O2CU5U,32,female,7,2023-07-16_10h02.44.260,working,2022.2.4,Win32,16,,,,,,,,,,highway_171.jpg,1,highway,,,7.979166667,0.6233,0,16,16,16,1,,
,,,,,,,,,,golf_course_188.jpg,golf_course_157.jpg,golf_course_188.jpg,right,badlands_59.jpg,golf_course_188.jpg,playground_181.jpg,bridge_218.jpg,bridge_218.jpg,bridge_218.jpg,1,AUQ3XC7O2CU5U,32,female,7,2023-07-16_10h02.44.260,working,2022.2.4,Win32,16,,,,,,,,,,golf_course_157.jpg,0,golf,,,6.885416667,1.6195,0,17,17,17,1,,
,,,,,,,,,,mountain_57.jpg,mountain_57.jpg,mountain_193.jpg,left,golf_course_319.jpg,bridge_239.jpg,mountain_57.jpg,playground_80.jpg,playground_80.jpg,playground_80.jpg,2,AUQ3XC7O2CU5U,32,female,7,2023-07-16_10h02.44.260,working,2022.2.4,Win32,16,,,,,,,,,,mountain_193.jpg,0,mountain,,,6.895833333,0.6112,0,18,18,18,1,,
,,,,,,,,,,bridge_146.jpg,bridge_121.jpg,bridge_146.jpg,right,bridge_146.jpg,mountain_301.jpg,playground_13.jpg,badlands_186.jpg,badlands_186.jpg,badlands_186.jpg,0,AUQ3XC7O2CU5U,32,female,7,2023-07-16_10h02.44.260,working,2022.2.4,Win32,16,,,,,,,,,,bridge_121.jpg,1,bridge,,,7.052083333,1.685,0,19,19,19,1,,
,,,,,,,,,,playground_240.jpg,playground_40.jpg,playground_240.jpg,right,badlands_2.jpg,golf_course_43.jpg,playground_240.jpg,bridge_238.jpg,bridge_238.jpg,bridge_238.jpg,2,AUQ3XC7O2CU5U,32,female,7,2023-07-16_10h02.44.260,working,2022.2.4,Win32,16,,,,,,,,,,playground_40.jpg,1,playground,,,7.052083333,0.9762,0,20,20,20,1,,
,,,,,,,,,,playground_131.jpg,playground_43.jpg,playground_131.jpg,right,golf_course_60.jpg,mountain_307.jpg,playground_131.jpg,highway_325.jpg,highway_325.jpg,highway_325.jpg,2,AUQ3XC7O2CU5U,32,female,7,2023-07-16_10h02.44.260,working,2022.2.4,Win32,16,,,,,,,,,,playground_43.jpg,0,playground,,,7.052083333,1.024,0,21,21,21,1,,
,,,,,,,,,,golf_course_15.jpg,golf_course_15.jpg,golf_course_97.jpg,left,bridge_264.jpg,mountain_162.jpg,golf_course_15.jpg,playground_116.jpg,playground_116.jpg,playground_116.jpg,2,AUQ3XC7O2CU5U,32,female,7,2023-07-16_10h02.44.260,working,2022.2.4,Win32,16,,,,,,,,,,golf_course_97.jpg,1,golf,,,7.052083333,1.28,0,22,22,22,1,,
,,,,,,,,,,mountain_293.jpg,mountain_72.jpg,mountain_293.jpg,right,playground_241.jpg,highway_75.jpg,mountain_293.jpg,bridge_80.jpg,bridge_80.jpg,bridge_80.jpg,2,AUQ3XC7O2CU5U,32,female,7,2023-07-16_10h02.44.260,working,2022.2.4,Win32,16,,,,,,,,,,mountain_72.jpg,0,mountain,,,7.052083333,9.6724,0,23,23,23,1,,
,,,,,,,,,,golf_course_87.jpg,golf_course_87.jpg,golf_course_130.jpg,left,golf_course_87.jpg,bridge_177.jpg,badlands_220.jpg,playground_209.jpg,playground_209.jpg,playground_209.jpg,0,AUQ3XC7O2CU5U,32,female,7,2023-07-16_10h02.44.260,working,2022.2.4,Win32,16,,,,,,,,,,golf_course_130.jpg,0,golf,,,7.989583333,304.8654,0,24,24,24,1,,
,,,,,,,,,,mountain_154.jpg,mountain_131.jpg,mountain_154.jpg,right,playground_7.jpg,mountain_154.jpg,badlands_45.jpg,highway_402.jpg,highway_402.jpg,highway_402.jpg,1,AUQ3XC7O2CU5U,32,female,7,2023-07-16_10h02.44.260,working,2022.2.4,Win32,16,,,,,,,,,,mountain_131.jpg,0,mountain,,,7.979166667,2.4939,0,25,25,25,1,,
,,,,,,,,,,mountain_110.jpg,mountain_110.jpg,mountain_157.jpg,left,golf_course_122.jpg,mountain_110.jpg,playground_123.jpg,highway_88.jpg,highway_88.jpg,highway_88.jpg,1,AUQ3XC7O2CU5U,32,female,7,2023-07-16_10h02.44.260,working,2022.2.4,Win32,16,,,,,,,,,,mountain_157.jpg,0,mountain,,,6.895833333,9.4512,0,26,26,26,1,,
,,,,,,,,,,mountain_230.jpg,mountain_230.jpg,mountain_184.jpg,left,mountain_230.jpg,golf_course_206.jpg,bridge_52.jpg,highway_227.jpg,highway_227.jpg,highway_227.jpg,0,AUQ3XC7O2CU5U,32,female,7,2023-07-16_10h02.44.260,working,2022.2.4,Win32,16,,,,,,,,,,mountain_184.jpg,0,mountain,,,6.979166667,1.8207,0,27,27,27,1,,
,,,,,,,,,,highway_177.jpg,highway_87.jpg,highway_177.jpg,right,bridge_10.jpg,highway_177.jpg,golf_course_27.jpg,badlands_38.jpg,badlands_38.jpg,badlands_38.jpg,1,AUQ3XC7O2CU5U,32,female,7,2023-07-16_10h02.44.260,working,2022.2.4,Win32,16,,,,,,,,,,highway_87.jpg,0,highway,,,6.979166667,6.2924,0,28,28,28,1,,
,,,,,,,,,,bridge_202.jpg,bridge_38.jpg,bridge_202.jpg,right,bridge_202.jpg,playground_103.jpg,badlands_58.jpg,golf_course_223.jpg,golf_course_223.jpg,golf_course_223.jpg,0,AUQ3XC7O2CU5U,32,female,7,2023-07-16_10h02.44.260,working,2022.2.4,Win32,16,,,,,,,,,,bridge_38.jpg,1,bridge,,,6.979166667,1.732,0,29,29,29,1,,
,,,,,,,,,,playground_117.jpg,playground_117.jpg,playground_167.jpg,left,playground_117.jpg,badlands_176.jpg,golf_course_159.jpg,highway_25.jpg,highway_25.jpg,highway_25.jpg,0,AUQ3XC7O2CU5U,32,female,7,2023-07-16_10h02.44.260,working,2022.2.4,Win32,16,,,,,,,,,,playground_167.jpg,0,playground,,,6.96875,0.8058,0,30,30,30,1,,
,,,,,,,,,,highway_156.jpg,highway_293.jpg,highway_156.jpg,right,highway_156.jpg,badlands_95.jpg,bridge_120.jpg,mountain_204.jpg,mountain_204.jpg,mountain_204.jpg,0,AUQ3XC7O2CU5U,32,female,7,2023-07-16_10h02.44.260,working,2022.2.4,Win32,16,,,,,,,,,,highway_293.jpg,1,highway,,,7.864583333,4.0809,0,31,31,31,1,,
,,,,,,,,,,mountain_222.jpg,mountain_93.jpg,mountain_222.jpg,right,playground_259.jpg,badlands_89.jpg,mountain_222.jpg,golf_course_229.jpg,golf_course_229.jpg,golf_course_229.jpg,2,AUQ3XC7O2CU5U,32,female,7,2023-07-16_10h02.44.260,working,2022.2.4,Win32,16,,,,,,,,,,mountain_93.jpg,1,mountain,,,7.625,31.1597,0,32,32,32,1,,
,,,,,,,,,,playground_60.jpg,playground_244.jpg,playground_60.jpg,right,mountain_91.jpg,golf_course_46.jpg,playground_60.jpg,badlands_100.jpg,badlands_100.jpg,badlands_100.jpg,2,AUQ3XC7O2CU5U,32,female,7,2023-07-16_10h02.44.260,working,2022.2.4,Win32,16,,,,,,,,,,playground_244.jpg,1,playground,,,7.625,0.4786,0,33,33,33,1,,
,,,,,,,,,,playground_145.jpg,playground_242.jpg,playground_145.jpg,right,playground_145.jpg,mountain_214.jpg,highway_234.jpg,bridge_162.jpg,bridge_162.jpg,bridge_162.jpg,0,AUQ3XC7O2CU5U,32,female,7,2023-07-16_10h02.44.260,working,2022.2.4,Win32,16,,,,,,,,,,playground_242.jpg,1,playground,,,7.625,0.4778,0,34,34,34,1,,
,,,,,,,,,,badlands_222.jpg,badlands_62.jpg,badlands_222.jpg,right,badlands_222.jpg,bridge_2.jpg,playground_173.jpg,golf_course_258.jpg,golf_course_258.jpg,golf_course_258.jpg,0,AUQ3XC7O2CU5U,32,female,7,2023-07-16_10h02.44.260,working,2022.2.4,Win32,16,,,,,,,,,,badlands_62.jpg,1,badlands,,,7.625,0.3673,0,35,35,35,1,,
,,,,,,,,,,golf_course_78.jpg,golf_course_78.jpg,golf_course_101.jpg,left,mountain_202.jpg,bridge_206.jpg,golf_course_78.jpg,highway_219.jpg,highway_219.jpg,highway_219.jpg,2,AUQ3XC7O2CU5U,32,female,7,2023-07-16_10h02.44.260,working,2022.2.4,Win32,16,,,,,,,,,,golf_course_101.jpg,1,golf,,,6.84375,0.4415,0,36,36,36,1,,
,,,,,,,,,,mountain_156.jpg,mountain_295.jpg,mountain_156.jpg,right,badlands_149.jpg,mountain_156.jpg,bridge_230.jpg,golf_course_166.jpg,golf_course_166.jpg,golf_course_166.jpg,1,AUQ3XC7O2CU5U,32,female,7,2023-07-16_10h02.44.260,working,2022.2.4,Win32,16,,,,,,,,,,mountain_295.jpg,1,mountain,,,7.041666667,0.3696,0,37,37,37,1,,
,,,,,,,,,,highway_394.jpg,highway_394.jpg,highway_406.jpg,left,badlands_108.jpg,bridge_9.jpg,highway_394.jpg,playground_3.jpg,playground_3.jpg,playground_3.jpg,2,AUQ3XC7O2CU5U,32,female,7,2023-07-16_10h02.44.260,working,2022.2.4,Win32,16,,,,,,,,,,highway_406.jpg,1,highway,,,7.041666667,0.3666,0,38,38,38,1,,
,,,,,,,,,,golf_course_217.jpg,golf_course_262.jpg,golf_course_217.jpg,right,highway_331.jpg,bridge_64.jpg,golf_course_217.jpg,playground_66.jpg,playground_66.jpg,playground_66.jpg,2,AUQ3XC7O2CU5U,32,female,7,2023-07-16_10h02.44.260,working,2022.2.4,Win32,16,,,,,,,,,,golf_course_262.jpg,1,golf,,,7.010416667,0.3091,0,39,39,39,1,,
,,,,,,,,,,bridge_128.jpg,bridge_128.jpg,bridge_244.jpg,left,badlands_75.jpg,bridge_128.jpg,playground_46.jpg,mountain_224.jpg,mountain_224.jpg,mountain_224.jpg,1,AUQ3XC7O2CU5U,32,female,7,2023-07-16_10h02.44.260,working,2022.2.4,Win32,16,,,,,,,,,,bridge_244.jpg,1,bridge,,,7.010416667,0.3185,0,40,40,40,1,,
,,,,,,,,,,bridge_108.jpg,bridge_148.jpg,bridge_108.jpg,right,golf_course_102.jpg,badlands_166.jpg,bridge_108.jpg,mountain_126.jpg,mountain_126.jpg,mountain_126.jpg,2,AUQ3XC7O2CU5U,32,female,7,2023-07-16_10h02.44.260,working,2022.2.4,Win32,16,,,,,,,,,,bridge_148.jpg,1,bridge,,,7.010416667,0.4439,0,41,41,41,1,,
,,,,,,,,,,golf_course_214.jpg,golf_course_214.jpg,golf_course_312.jpg,left,golf_course_214.jpg,highway_179.jpg,mountain_179.jpg,badlands_143.jpg,badlands_143.jpg,badlands_143.jpg,0,AUQ3XC7O2CU5U,32,female,7,2023-07-16_10h02.44.260,working,2022.2.4,Win32,16,,,,,,,,,,golf_course_312.jpg,0,golf,,,7.010416667,0.5002,0,42,42,42,1,,
,,,,,,,,,,badlands_137.jpg,badlands_137.jpg,badlands_194.jpg,left,mountain_235.jpg,playground_183.jpg,badlands_137.jpg,golf_course_334.jpg,golf_course_334.jpg,golf_course_334.jpg,2,AUQ3XC7O2CU5U,32,female,7,2023-07-16_10h02.44.260,working,2022.2.4,Win32,16,,,,,,,,,,badlands_194.jpg,0,badlands,,,7.21875,0.3759,0,43,43,43,1,,
,,,,,,,,,,playground_219.jpg,playground_219.jpg,playground_21.jpg,left,mountain_280.jpg,playground_219.jpg,bridge_21.jpg,badlands_174.jpg,badlands_174.jpg,badlands_174.jpg,1,AUQ3XC7O2CU5U,32,female,7,2023-07-16_10h02.44.260,working,2022.2.4,Win32,16,,,,,,,,,,playground_21.jpg,0,playground,,,7.364583333,0.3978,0,44,44,44,1,,
,,,,,,,,,,golf_course_195.jpg,golf_course_195.jpg,golf_course_25.jpg,left,mountain_71.jpg,golf_course_195.jpg,badlands_27.jpg,playground_30.jpg,playground_30.jpg,playground_30.jpg,1,AUQ3XC7O2CU5U,32,female,7,2023-07-16_10h02.44.260,working,2022.2.4,Win32,16,,,,,,,,,,golf_course_25.jpg,0,golf,,,6.96875,0.4351,0,45,45,45,1,,
,,,,,,,,,,badlands_24.jpg,badlands_53.jpg,badlands_24.jpg,right,highway_336.jpg,mountain_160.jpg,badlands_24.jpg,bridge_48.jpg,bridge_48.jpg,bridge_48.jpg,2,AUQ3XC7O2CU5U,32,female,7,2023-07-16_10h02.44.260,working,2022.2.4,Win32,16,,,,,,,,,,badlands_53.jpg,1,badlands,,,6.958333333,0.3731,0,46,46,46,1,,
,,,,,,,,,,highway_93.jpg,highway_93.jpg,highway_85.jpg,left,golf_course_128.jpg,bridge_18.jpg,highway_93.jpg,playground_54.jpg,playground_54.jpg,playground_54.jpg,2,AUQ3XC7O2CU5U,32,female,7,2023-07-16_10h02.44.260,working,2022.2.4,Win32,16,,,,,,,,,,highway_85.jpg,0,highway,,,6.958333333,0.3019,0,47,47,47,1,,
,,,,,,,,,,highway_209.jpg,highway_209.jpg,highway_314.jpg,left,mountain_132.jpg,highway_209.jpg,golf_course_52.jpg,playground_77.jpg,playground_77.jpg,playground_77.jpg,1,AUQ3XC7O2CU5U,32,female,7,2023-07-16_10h02.44.260,working,2022.2.4,Win32,16,,,,,,,,,,highway_314.jpg,0,highway,,,6.958333333,0.4829,0,48,48,48,1,,
,,,,,,,,,,badlands_23.jpg,badlands_101.jpg,badlands_23.jpg,right,badlands_23.jpg,highway_114.jpg,golf_course_156.jpg,bridge_182.jpg,bridge_182.jpg,bridge_182.jpg,0,AUQ3XC7O2CU5U,32,female,7,2023-07-16_10h02.44.260,working,2022.2.4,Win32,16,,,,,,,,,,badlands_101.jpg,1,badlands,,,6.958333333,0.3103,0,49,49,49,1,,
,,,,,,,,,,badlands_184.jpg,badlands_103.jpg,badlands_184.jpg,right,mountain_115.jpg,golf_course_290.jpg,badlands_184.jpg,playground_191.jpg,playground_191.jpg,playground_191.jpg,2,AUQ3XC7O2CU5U,32,female,7,2023-07-16_10h02.44.260,working,2022.2.4,Win32,16,,,,,,,,,,badlands_103.jpg,1,badlands,,,6.958333333,0.2446,0,50,50,50,1,,
,,,,,,,,,,badlands_221.jpg,badlands_221.jpg,badlands_207.jpg,left,badlands_221.jpg,mountain_105.jpg,golf_course_204.jpg,highway_112.jpg,highway_112.jpg,highway_112.jpg,0,AUQ3XC7O2CU5U,32,female,7,2023-07-16_10h02.44.260,working,2022.2.4,Win32,16,,,,,,,,,,badlands_207.jpg,1,badlands,,,6.958333333,0.1973,0,51,51,51,1,,
,,,,,,,,,,highway_359.jpg,highway_359.jpg,highway_379.jpg,left,badlands_104.jpg,highway_359.jpg,mountain_15.jpg,bridge_34.jpg,bridge_34.jpg,bridge_34.jpg,1,AUQ3XC7O2CU5U,32,female,7,2023-07-16_10h02.44.260,working,2022.2.4,Win32,16,,,,,,,,,,highway_379.jpg,1,highway,,,6.958333333,0.2072,0,52,52,52,1,,
,,,,,,,,,,badlands_113.jpg,badlands_113.jpg,badlands_203.jpg,left,bridge_103.jpg,badlands_113.jpg,golf_course_83.jpg,highway_166.jpg,highway_166.jpg,highway_166.jpg,1,AUQ3XC7O2CU5U,32,female,7,2023-07-16_10h02.44.260,working,2022.2.4,Win32,16,,,,,,,,,,badlands_203.jpg,1,badlands,,,6.958333333,0.25,0,53,53,53,1,,
,,,,,,,,,,highway_415.jpg,highway_60.jpg,highway_415.jpg,right,golf_course_198.jpg,highway_415.jpg,bridge_78.jpg,badlands_136.jpg,badlands_136.jpg,badlands_136.jpg,1,AUQ3XC7O2CU5U,32,female,7,2023-07-16_10h02.44.260,working,2022.2.4,Win32,16,,,,,,,,,,highway_60.jpg,0,highway,,,6.958333333,0.183,0,54,54,54,1,,
,,,,,,,,,,golf_course_193.jpg,golf_course_235.jpg,golf_course_193.jpg,right,mountain_84.jpg,golf_course_193.jpg,bridge_123.jpg,badlands_153.jpg,badlands_153.jpg,badlands_153.jpg,1,AUQ3XC7O2CU5U,32,female,7,2023-07-16_10h02.44.260,working,2022.2.4,Win32,16,,,,,,,,,,golf_course_235.jpg,0,golf,,,6.958333333,0.2507,0,55,55,55,1,,
,,,,,,,,,,highway_245.jpg,highway_206.jpg,highway_245.jpg,right,highway_245.jpg,mountain_253.jpg,badlands_99.jpg,bridge_158.jpg,bridge_158.jpg,bridge_158.jpg,0,AUQ3XC7O2CU5U,32,female,7,2023-07-16_10h02.44.260,working,2022.2.4,Win32,16,,,,,,,,,,highway_206.jpg,1,highway,,,6.958333333,0.4354,0,56,56,56,1,,
,,,,,,,,,,mountain_101.jpg,mountain_171.jpg,mountain_101.jpg,right,bridge_47.jpg,mountain_101.jpg,golf_course_321.jpg,playground_158.jpg,playground_158.jpg,playground_158.jpg,1,AUQ3XC7O2CU5U,32,female,7,2023-07-16_10h02.44.260,working,2022.2.4,Win32,16,,,,,,,,,,mountain_171.jpg,0,mountain,,,6.958333333,0.4307,0,57,57,57,1,,
,,,,,,,,,,playground_10.jpg,playground_122.jpg,playground_10.jpg,right,bridge_124.jpg,mountain_166.jpg,playground_10.jpg,highway_13.jpg,highway_13.jpg,highway_13.jpg,2,AUQ3XC7O2CU5U,32,female,7,2023-07-16_10h02.44.260,working,2022.2.4,Win32,16,,,,,,,,,,playground_122.jpg,0,playground,,,6.958333333,0.2411,0,58,58,58,1,,
,,,,,,,,,,bridge_91.jpg,bridge_253.jpg,bridge_91.jpg,right,bridge_91.jpg,golf_course_173.jpg,highway_159.jpg,badlands_173.jpg,badlands_173.jpg,badlands_173.jpg,0,AUQ3XC7O2CU5U,32,female,7,2023-07-16_10h02.44.260,working,2022.2.4,Win32,16,,,,,,,,,,bridge_253.jpg,0,bridge,,,6.958333333,0.2514,0,59,59,59,1,,
,,,,,,,,,,,,,,,,,,,,,AUQ3XC7O2CU5U,32,female,7,2023-07-16_10h02.44.260,working,2022.2.4,Win32,16,,,,,,,,,,,,,,,,,,,,,,space,38.8403
