key_resp.keys,key_resp_2.keys,key_resp_2.rt,demo_test_key_resp.keys,demo_test_key_resp.rt,demo_loops.thisRepN,demo_loops.thisTrialN,demo_loops.thisN,demo_loops.thisIndex,demo_loops.ran,target,image1,image2,correct,background_0,background_1,background_2,background_3,background_4,background_5,target_index,workID,Age,Gender,Hours slept (last night),date,expName,psychopyVersion,OS,frameRate,key_resp_after_demo.keys,key_resp_after_demo.rt,test_key_resp.keys,test_key_resp.rt,exp_loops.thisRepN,exp_loops.thisTrialN,exp_loops.thisN,exp_loops.thisIndex,exp_loops.ran,selected_dist,distractor_level,category,key_resp_4.keys,key_resp_4.rt,slider_part2.response,slider_part2.rt,exp_loops_part2.thisRepN,exp_loops_part2.thisTrialN,exp_loops_part2.thisN,exp_loops_part2.thisIndex,exp_loops_part2.ran,key_resp_last_slide.keys,key_resp_last_slide.rt
,space,13.5131,right,2.6244,0,0,0,0,1,flower1.jpg,flower1.jpg,flower1_pair.jpg,left,leaf3.jpg,trail1.jpg,flower1.jpg,bird1.jpg,tree3.jpg,fence4.jpg,2,AWGNBPBMKCGAP,32,male,5,2023-07-16_10h20.37.288,working,2022.2.4,Win32,15.54533018,,,,,,,,,,,,,,,,,,,,,,,
,,,left,0.5569,0,1,1,1,1,leaf2.jpg,leaf1.jpg,leaf2.jpg,right,trail2.jpg,leaf2.jpg,bird2.jpg,tree2.jpg,fence3.jpg,flower2.jpg,1,AWGNBPBMKCGAP,32,male,5,2023-07-16_10h20.37.288,working,2022.2.4,Win32,15.54533018,,,,,,,,,,,,,,,,,,,,,,,
,,,right,1.0467,0,2,2,2,1,fence1.jpg,fence1.jpg,fence2.jpg,left,tree1.jpg,bird3.jpg,trail3.jpg,fence1.jpg,leaf4.jpg,flower3.jpg,3,AWGNBPBMKCGAP,32,male,5,2023-07-16_10h20.37.288,working,2022.2.4,Win32,15.54533018,,,,,,,,,,,,,,,,,,,,,,,
,,,,,,,,,,mountain_154.jpg,mountain_131.jpg,mountain_154.jpg,right,mountain_154.jpg,playground_172.jpg,bridge_2.jpg,golf_course_204.jpg,golf_course_204.jpg,golf_course_204.jpg,0,AWGNBPBMKCGAP,32,male,5,2023-07-16_10h20.37.288,working,2022.2.4,Win32,15.54533018,space,2.0327,left,0.7981,0,0,0,0,1,mountain_131.jpg,0,mountain,,,,,,,,,,,
,,,,,,,,,,playground_131.jpg,playground_164.jpg,playground_131.jpg,right,badlands_177.jpg,playground_131.jpg,highway_166.jpg,golf_course_325.jpg,golf_course_325.jpg,golf_course_325.jpg,1,AWGNBPBMKCGAP,32,male,5,2023-07-16_10h20.37.288,working,2022.2.4,Win32,15.54533018,,,right,0.8992,0,1,1,1,1,playground_164.jpg,1,playground,,,,,,,,,,,
,,,,,,,,,,highway_394.jpg,highway_406.jpg,highway_394.jpg,right,highway_394.jpg,playground_52.jpg,mountain_126.jpg,bridge_78.jpg,bridge_78.jpg,bridge_78.jpg,0,AWGNBPBMKCGAP,32,male,5,2023-07-16_10h20.37.288,working,2022.2.4,Win32,15.54533018,,,left,0.3026,0,2,2,2,1,highway_406.jpg,1,highway,,,,,,,,,,,
,,,,,,,,,,golf_course_87.jpg,golf_course_87.jpg,golf_course_130.jpg,left,highway_219.jpg,mountain_179.jpg,golf_course_87.jpg,bridge_130.jpg,bridge_130.jpg,bridge_130.jpg,2,AWGNBPBMKCGAP,32,male,5,2023-07-16_10h20.37.288,working,2022.2.4,Win32,15.54533018,,,right,4.1654,0,3,3,3,1,golf_course_130.jpg,0,golf,,,,,,,,,,,
,,,,,,,,,,playground_145.jpg,playground_145.jpg,playground_229.jpg,left,mountain_15.jpg,highway_149.jpg,playground_145.jpg,badlands_108.jpg,badlands_108.jpg,badlands_108.jpg,2,AWGNBPBMKCGAP,32,male,5,2023-07-16_10h20.37.288,working,2022.2.4,Win32,15.54533018,,,left,3.696,0,4,4,4,1,playground_229.jpg,0,playground,,,,,,,,,,,
,,,,,,,,,,badlands_184.jpg,badlands_184.jpg,badlands_103.jpg,left,bridge_19.jpg,badlands_184.jpg,mountain_292.jpg,highway_227.jpg,highway_227.jpg,highway_227.jpg,1,AWGNBPBMKCGAP,32,male,5,2023-07-16_10h20.37.288,working,2022.2.4,Win32,15.54533018,,,right,0.6964,0,5,5,5,1,badlands_103.jpg,1,badlands,,,,,,,,,,,
,,,,,,,,,,badlands_52.jpg,badlands_94.jpg,badlands_52.jpg,right,playground_183.jpg,badlands_52.jpg,mountain_228.jpg,bridge_238.jpg,bridge_238.jpg,bridge_238.jpg,1,AWGNBPBMKCGAP,32,male,5,2023-07-16_10h20.37.288,working,2022.2.4,Win32,15.54533018,,,left,1.4581,0,6,6,6,1,badlands_94.jpg,0,badlands,,,,,,,,,,,
,,,,,,,,,,golf_course_214.jpg,golf_course_317.jpg,golf_course_214.jpg,right,highway_248.jpg,golf_course_214.jpg,bridge_9.jpg,mountain_132.jpg,mountain_132.jpg,mountain_132.jpg,1,AWGNBPBMKCGAP,32,male,5,2023-07-16_10h20.37.288,working,2022.2.4,Win32,15.54533018,,,right,0.008,0,7,7,7,1,golf_course_317.jpg,1,golf,,,,,,,,,,,
,,,,,,,,,,highway_359.jpg,highway_389.jpg,highway_359.jpg,right,highway_359.jpg,playground_6.jpg,golf_course_88.jpg,mountain_84.jpg,mountain_84.jpg,mountain_84.jpg,0,AWGNBPBMKCGAP,32,male,5,2023-07-16_10h20.37.288,working,2022.2.4,Win32,15.54533018,,,right,5.8925,0,8,8,8,1,highway_389.jpg,0,highway,,,,,,,,,,,
,,,,,,,,,,badlands_70.jpg,badlands_70.jpg,badlands_119.jpg,left,playground_200.jpg,mountain_280.jpg,badlands_70.jpg,bridge_177.jpg,bridge_177.jpg,bridge_177.jpg,2,AWGNBPBMKCGAP,32,male,5,2023-07-16_10h20.37.288,working,2022.2.4,Win32,15.54533018,,,right,1.0656,0,9,9,9,1,badlands_119.jpg,1,badlands,,,,,,,,,,,
,,,,,,,,,,highway_415.jpg,highway_415.jpg,highway_60.jpg,left,playground_42.jpg,highway_415.jpg,mountain_161.jpg,golf_course_42.jpg,golf_course_42.jpg,golf_course_42.jpg,1,AWGNBPBMKCGAP,32,male,5,2023-07-16_10h20.37.288,working,2022.2.4,Win32,15.54533018,,,left,1.0564,0,10,10,10,1,highway_60.jpg,0,highway,,,,,,,,,,,
,,,,,,,,,,playground_144.jpg,playground_137.jpg,playground_144.jpg,right,playground_144.jpg,golf_course_166.jpg,mountain_26.jpg,highway_144.jpg,highway_144.jpg,highway_144.jpg,0,AWGNBPBMKCGAP,32,male,5,2023-07-16_10h20.37.288,working,2022.2.4,Win32,15.54533018,,,right,0.6293,0,11,11,11,1,playground_137.jpg,0,playground,,,,,,,,,,,
,,,,,,,,,,playground_10.jpg,playground_122.jpg,playground_10.jpg,right,playground_10.jpg,highway_336.jpg,bridge_132.jpg,mountain_301.jpg,mountain_301.jpg,mountain_301.jpg,0,AWGNBPBMKCGAP,32,male,5,2023-07-16_10h20.37.288,working,2022.2.4,Win32,15.54533018,,,right,0.9946,0,12,12,12,1,playground_122.jpg,0,playground,,,,,,,,,,,
,,,,,,,,,,playground_219.jpg,playground_219.jpg,playground_205.jpg,left,badlands_99.jpg,playground_219.jpg,golf_course_33.jpg,bridge_257.jpg,bridge_257.jpg,bridge_257.jpg,1,AWGNBPBMKCGAP,32,male,5,2023-07-16_10h20.37.288,working,2022.2.4,Win32,15.54533018,,,left,1.7794,0,13,13,13,1,playground_205.jpg,1,playground,,,,,,,,,,,
,,,,,,,,,,mountain_101.jpg,mountain_221.jpg,mountain_101.jpg,right,playground_193.jpg,mountain_101.jpg,bridge_259.jpg,golf_course_52.jpg,golf_course_52.jpg,golf_course_52.jpg,1,AWGNBPBMKCGAP,32,male,5,2023-07-16_10h20.37.288,working,2022.2.4,Win32,15.54533018,,,right,1.5391,0,14,14,14,1,mountain_221.jpg,1,mountain,,,,,,,,,,,
,,,,,,,,,,bridge_256.jpg,bridge_211.jpg,bridge_256.jpg,right,golf_course_264.jpg,highway_342.jpg,bridge_256.jpg,mountain_162.jpg,mountain_162.jpg,mountain_162.jpg,2,AWGNBPBMKCGAP,32,male,5,2023-07-16_10h20.37.288,working,2022.2.4,Win32,15.54533018,,,left,2.2693,0,15,15,15,1,bridge_211.jpg,1,bridge,,,,,,,,,,,
,,,,,,,,,,highway_156.jpg,highway_156.jpg,highway_160.jpg,left,badlands_130.jpg,golf_course_334.jpg,highway_156.jpg,bridge_120.jpg,bridge_120.jpg,bridge_120.jpg,2,AWGNBPBMKCGAP,32,male,5,2023-07-16_10h20.37.288,working,2022.2.4,Win32,15.54533018,,,right,2.5349,0,16,16,16,1,highway_160.jpg,0,highway,,,,,,,,,,,
,,,,,,,,,,playground_60.jpg,playground_60.jpg,playground_244.jpg,left,badlands_89.jpg,bridge_251.jpg,playground_60.jpg,highway_146.jpg,highway_146.jpg,highway_146.jpg,2,AWGNBPBMKCGAP,32,male,5,2023-07-16_10h20.37.288,working,2022.2.4,Win32,15.54533018,,,left,1.8343,0,17,17,17,1,playground_244.jpg,1,playground,,,,,,,,,,,
,,,,,,,,,,badlands_24.jpg,badlands_24.jpg,badlands_3.jpg,left,badlands_24.jpg,playground_25.jpg,highway_117.jpg,bridge_103.jpg,bridge_103.jpg,bridge_103.jpg,0,AWGNBPBMKCGAP,32,male,5,2023-07-16_10h20.37.288,working,2022.2.4,Win32,15.54533018,,,right,1.2414,0,18,18,18,1,badlands_3.jpg,0,badlands,,,,,,,,,,,
,,,,,,,,,,bridge_191.jpg,bridge_191.jpg,bridge_184.jpg,left,playground_181.jpg,golf_course_43.jpg,bridge_191.jpg,badlands_226.jpg,badlands_226.jpg,badlands_226.jpg,2,AWGNBPBMKCGAP,32,male,5,2023-07-16_10h20.37.288,working,2022.2.4,Win32,15.54533018,,,left,1.3249,0,19,19,19,1,bridge_184.jpg,0,bridge,,,,,,,,,,,
,,,,,,,,,,playground_257.jpg,playground_215.jpg,playground_257.jpg,right,mountain_204.jpg,playground_257.jpg,highway_147.jpg,golf_course_185.jpg,golf_course_185.jpg,golf_course_185.jpg,1,AWGNBPBMKCGAP,32,male,5,2023-07-16_10h20.37.288,working,2022.2.4,Win32,15.54533018,,,right,1.7806,0,20,20,20,1,playground_215.jpg,1,playground,,,,,,,,,,,
,,,,,,,,,,playground_240.jpg,playground_2.jpg,playground_240.jpg,right,badlands_186.jpg,playground_240.jpg,bridge_26.jpg,golf_course_83.jpg,golf_course_83.jpg,golf_course_83.jpg,1,AWGNBPBMKCGAP,32,male,5,2023-07-16_10h20.37.288,working,2022.2.4,Win32,15.54533018,,,left,0.795,0,21,21,21,1,playground_2.jpg,0,playground,,,,,,,,,,,
,,,,,,,,,,bridge_91.jpg,bridge_82.jpg,bridge_91.jpg,right,golf_course_260.jpg,mountain_115.jpg,bridge_91.jpg,badlands_75.jpg,badlands_75.jpg,badlands_75.jpg,2,AWGNBPBMKCGAP,32,male,5,2023-07-16_10h20.37.288,working,2022.2.4,Win32,15.54533018,,,right,1.4141,0,22,22,22,1,bridge_82.jpg,1,bridge,,,,,,,,,,,
,,,,,,,,,,mountain_156.jpg,mountain_295.jpg,mountain_156.jpg,right,bridge_80.jpg,mountain_156.jpg,badlands_13.jpg,playground_41.jpg,playground_41.jpg,playground_41.jpg,1,AWGNBPBMKCGAP,32,male,5,2023-07-16_10h20.37.288,working,2022.2.4,Win32,15.54533018,,,right,1.4181,0,23,23,23,1,mountain_295.jpg,1,mountain,,,,,,,,,,,
,,,,,,,,,,highway_294.jpg,highway_368.jpg,highway_294.jpg,right,mountain_44.jpg,playground_80.jpg,highway_294.jpg,badlands_153.jpg,badlands_153.jpg,badlands_153.jpg,2,AWGNBPBMKCGAP,32,male,5,2023-07-16_10h20.37.288,working,2022.2.4,Win32,15.54533018,,,left,2.2751,0,24,24,24,1,highway_368.jpg,1,highway,,,,,,,,,,,
,,,,,,,,,,mountain_232.jpg,mountain_232.jpg,mountain_54.jpg,left,mountain_232.jpg,bridge_49.jpg,golf_course_229.jpg,highway_88.jpg,highway_88.jpg,highway_88.jpg,0,AWGNBPBMKCGAP,32,male,5,2023-07-16_10h20.37.288,working,2022.2.4,Win32,15.54533018,,,right,1.7831,0,25,25,25,1,mountain_54.jpg,1,mountain,,,,,,,,,,,
,,,,,,,,,,bridge_250.jpg,bridge_205.jpg,bridge_250.jpg,right,bridge_250.jpg,mountain_104.jpg,highway_398.jpg,playground_103.jpg,playground_103.jpg,playground_103.jpg,0,AWGNBPBMKCGAP,32,male,5,2023-07-16_10h20.37.288,working,2022.2.4,Win32,15.54533018,,,left,0.8731,0,26,26,26,1,bridge_205.jpg,1,bridge,,,,,,,,,,,
,,,,,,,,,,bridge_65.jpg,bridge_181.jpg,bridge_65.jpg,right,playground_168.jpg,highway_333.jpg,bridge_65.jpg,badlands_45.jpg,badlands_45.jpg,badlands_45.jpg,2,AWGNBPBMKCGAP,32,male,5,2023-07-16_10h20.37.288,working,2022.2.4,Win32,15.54533018,,,right,1.2512,0,27,27,27,1,bridge_181.jpg,0,bridge,,,,,,,,,,,
,,,,,,,,,,bridge_146.jpg,bridge_121.jpg,bridge_146.jpg,right,bridge_146.jpg,badlands_100.jpg,mountain_296.jpg,playground_3.jpg,playground_3.jpg,playground_3.jpg,0,AWGNBPBMKCGAP,32,male,5,2023-07-16_10h20.37.288,working,2022.2.4,Win32,15.54533018,,,left,13.9736,0,28,28,28,1,bridge_121.jpg,1,bridge,,,,,,,,,,,
,,,,,,,,,,highway_245.jpg,highway_206.jpg,highway_245.jpg,right,highway_245.jpg,golf_course_223.jpg,bridge_230.jpg,playground_77.jpg,playground_77.jpg,playground_77.jpg,0,AWGNBPBMKCGAP,32,male,5,2023-07-16_10h20.37.288,working,2022.2.4,Win32,15.54533018,,,left,0.6999,0,29,29,29,1,highway_206.jpg,1,highway,,,,,,,,,,,
,,,,,,,,,,mountain_57.jpg,mountain_57.jpg,mountain_193.jpg,left,mountain_57.jpg,bridge_25.jpg,golf_course_27.jpg,playground_209.jpg,playground_209.jpg,playground_209.jpg,0,AWGNBPBMKCGAP,32,male,5,2023-07-16_10h20.37.288,working,2022.2.4,Win32,15.54533018,,,left,0.7657,0,30,30,30,1,mountain_193.jpg,0,mountain,,,,,,,,,,,
,,,,,,,,,,golf_course_193.jpg,golf_course_123.jpg,golf_course_193.jpg,right,highway_11.jpg,golf_course_193.jpg,mountain_107.jpg,playground_158.jpg,playground_158.jpg,playground_158.jpg,1,AWGNBPBMKCGAP,32,male,5,2023-07-16_10h20.37.288,working,2022.2.4,Win32,15.54533018,,,left,0.7801,0,31,31,31,1,golf_course_123.jpg,1,golf,,,,,,,,,,,
,,,,,,,,,,badlands_23.jpg,badlands_101.jpg,badlands_23.jpg,right,mountain_4.jpg,playground_5.jpg,badlands_23.jpg,bridge_47.jpg,bridge_47.jpg,bridge_47.jpg,2,AWGNBPBMKCGAP,32,male,5,2023-07-16_10h20.37.288,working,2022.2.4,Win32,15.54533018,,,right,1.1522,0,32,32,32,1,badlands_101.jpg,1,badlands,,,,,,,,,,,
,,,,,,,,,,mountain_230.jpg,mountain_230.jpg,mountain_97.jpg,left,mountain_230.jpg,playground_108.jpg,badlands_27.jpg,highway_319.jpg,highway_319.jpg,highway_319.jpg,0,AWGNBPBMKCGAP,32,male,5,2023-07-16_10h20.37.288,working,2022.2.4,Win32,15.54533018,,,right,0.1795,0,33,33,33,1,mountain_97.jpg,1,mountain,,,,,,,,,,,
,,,,,,,,,,golf_course_195.jpg,golf_course_195.jpg,golf_course_2.jpg,left,golf_course_195.jpg,playground_7.jpg,badlands_54.jpg,mountain_71.jpg,mountain_71.jpg,mountain_71.jpg,0,AWGNBPBMKCGAP,32,male,5,2023-07-16_10h20.37.288,working,2022.2.4,Win32,15.54533018,,,right,1.3742,0,34,34,34,1,golf_course_2.jpg,1,golf,,,,,,,,,,,
,,,,,,,,,,highway_273.jpg,highway_384.jpg,highway_273.jpg,right,golf_course_58.jpg,highway_273.jpg,bridge_162.jpg,badlands_35.jpg,badlands_35.jpg,badlands_35.jpg,1,AWGNBPBMKCGAP,32,male,5,2023-07-16_10h20.37.288,working,2022.2.4,Win32,15.54533018,,,left,3.3852,0,35,35,35,1,highway_384.jpg,0,highway,,,,,,,,,,,
,,,,,,,,,,badlands_113.jpg,badlands_113.jpg,badlands_225.jpg,left,badlands_113.jpg,bridge_123.jpg,playground_264.jpg,golf_course_302.jpg,golf_course_302.jpg,golf_course_302.jpg,0,AWGNBPBMKCGAP,32,male,5,2023-07-16_10h20.37.288,working,2022.2.4,Win32,15.54533018,,,right,1.125,0,36,36,36,1,badlands_225.jpg,0,badlands,,,,,,,,,,,
,,,,,,,,,,mountain_222.jpg,mountain_222.jpg,mountain_244.jpg,left,badlands_218.jpg,mountain_222.jpg,highway_114.jpg,playground_66.jpg,playground_66.jpg,playground_66.jpg,1,AWGNBPBMKCGAP,32,male,5,2023-07-16_10h20.37.288,working,2022.2.4,Win32,15.54533018,,,right,1.0329,0,37,37,37,1,mountain_244.jpg,0,mountain,,,,,,,,,,,
,,,,,,,,,,highway_209.jpg,highway_209.jpg,highway_314.jpg,left,golf_course_156.jpg,mountain_21.jpg,highway_209.jpg,bridge_263.jpg,bridge_263.jpg,bridge_263.jpg,2,AWGNBPBMKCGAP,32,male,5,2023-07-16_10h20.37.288,working,2022.2.4,Win32,15.54533018,,,left,1.3665,0,38,38,38,1,highway_314.jpg,0,highway,,,,,,,,,,,
,,,,,,,,,,bridge_108.jpg,bridge_116.jpg,bridge_108.jpg,right,playground_259.jpg,badlands_64.jpg,bridge_108.jpg,golf_course_1.jpg,golf_course_1.jpg,golf_course_1.jpg,2,AWGNBPBMKCGAP,32,male,5,2023-07-16_10h20.37.288,working,2022.2.4,Win32,15.54533018,,,left,1.6544,0,39,39,39,1,bridge_116.jpg,0,bridge,,,,,,,,,,,
,,,,,,,,,,playground_117.jpg,playground_167.jpg,playground_117.jpg,right,playground_117.jpg,badlands_30.jpg,mountain_224.jpg,golf_course_258.jpg,golf_course_258.jpg,golf_course_258.jpg,0,AWGNBPBMKCGAP,32,male,5,2023-07-16_10h20.37.288,working,2022.2.4,Win32,15.54533018,,,right,1.288,0,40,40,40,1,playground_167.jpg,0,playground,,,,,,,,,,,
,,,,,,,,,,mountain_110.jpg,mountain_223.jpg,mountain_110.jpg,right,mountain_110.jpg,golf_course_320.jpg,playground_36.jpg,badlands_149.jpg,badlands_149.jpg,badlands_149.jpg,0,AWGNBPBMKCGAP,32,male,5,2023-07-16_10h20.37.288,working,2022.2.4,Win32,15.54533018,,,left,1.0287,0,41,41,41,1,mountain_223.jpg,1,mountain,,,,,,,,,,,
,,,,,,,,,,bridge_172.jpg,bridge_172.jpg,bridge_17.jpg,left,badlands_152.jpg,bridge_172.jpg,highway_23.jpg,golf_course_102.jpg,golf_course_102.jpg,golf_course_102.jpg,1,AWGNBPBMKCGAP,32,male,5,2023-07-16_10h20.37.288,working,2022.2.4,Win32,15.54533018,,,right,1.37,0,42,42,42,1,bridge_17.jpg,0,bridge,,,,,,,,,,,
,,,,,,,,,,bridge_202.jpg,bridge_202.jpg,bridge_31.jpg,left,playground_178.jpg,bridge_202.jpg,mountain_68.jpg,badlands_104.jpg,badlands_104.jpg,badlands_104.jpg,1,AWGNBPBMKCGAP,32,male,5,2023-07-16_10h20.37.288,working,2022.2.4,Win32,15.54533018,,,left,1.1266,0,43,43,43,1,bridge_31.jpg,0,bridge,,,,,,,,,,,
,,,,,,,,,,badlands_21.jpg,badlands_98.jpg,badlands_21.jpg,right,bridge_218.jpg,badlands_21.jpg,mountain_66.jpg,highway_175.jpg,highway_175.jpg,highway_175.jpg,1,AWGNBPBMKCGAP,32,male,5,2023-07-16_10h20.37.288,working,2022.2.4,Win32,15.54533018,,,right,1.4596,0,44,44,44,1,badlands_98.jpg,1,badlands,,,,,,,,,,,
,,,,,,,,,,golf_course_331.jpg,golf_course_26.jpg,golf_course_331.jpg,right,playground_124.jpg,golf_course_331.jpg,mountain_233.jpg,bridge_48.jpg,bridge_48.jpg,bridge_48.jpg,1,AWGNBPBMKCGAP,32,male,5,2023-07-16_10h20.37.288,working,2022.2.4,Win32,15.54533018,,,right,1.5517,0,45,45,45,1,golf_course_26.jpg,1,golf,,,,,,,,,,,
,,,,,,,,,,golf_course_78.jpg,golf_course_78.jpg,golf_course_101.jpg,left,bridge_52.jpg,golf_course_78.jpg,mountain_166.jpg,playground_54.jpg,playground_54.jpg,playground_54.jpg,1,AWGNBPBMKCGAP,32,male,5,2023-07-16_10h20.37.288,working,2022.2.4,Win32,15.54533018,,,left,1.3021,0,46,46,46,1,golf_course_101.jpg,1,golf,,,,,,,,,,,
,,,,,,,,,,playground_76.jpg,playground_76.jpg,playground_22.jpg,left,highway_25.jpg,playground_76.jpg,golf_course_321.jpg,badlands_2.jpg,badlands_2.jpg,badlands_2.jpg,1,AWGNBPBMKCGAP,32,male,5,2023-07-16_10h20.37.288,working,2022.2.4,Win32,15.54533018,,,left,0.3529,0,47,47,47,1,playground_22.jpg,0,playground,,,,,,,,,,,
,,,,,,,,,,golf_course_15.jpg,golf_course_97.jpg,golf_course_15.jpg,right,highway_12.jpg,bridge_182.jpg,golf_course_15.jpg,playground_30.jpg,playground_30.jpg,playground_30.jpg,2,AWGNBPBMKCGAP,32,male,5,2023-07-16_10h20.37.288,working,2022.2.4,Win32,15.54533018,,,right,1.6328,0,48,48,48,1,golf_course_97.jpg,1,golf,,,,,,,,,,,
,,,,,,,,,,badlands_137.jpg,badlands_137.jpg,badlands_194.jpg,left,golf_course_290.jpg,badlands_137.jpg,playground_46.jpg,mountain_212.jpg,mountain_212.jpg,mountain_212.jpg,1,AWGNBPBMKCGAP,32,male,5,2023-07-16_10h20.37.288,working,2022.2.4,Win32,15.54533018,,,left,1.3029,0,49,49,49,1,badlands_194.jpg,0,badlands,,,,,,,,,,,
,,,,,,,,,,badlands_221.jpg,badlands_115.jpg,badlands_221.jpg,right,bridge_106.jpg,highway_244.jpg,badlands_221.jpg,mountain_12.jpg,mountain_12.jpg,mountain_12.jpg,2,AWGNBPBMKCGAP,32,male,5,2023-07-16_10h20.37.288,working,2022.2.4,Win32,15.54533018,,,right,1.4688,0,50,50,50,1,badlands_115.jpg,0,badlands,,,,,,,,,,,
,,,,,,,,,,bridge_128.jpg,bridge_128.jpg,bridge_61.jpg,left,bridge_128.jpg,highway_402.jpg,playground_13.jpg,badlands_58.jpg,badlands_58.jpg,badlands_58.jpg,0,AWGNBPBMKCGAP,32,male,5,2023-07-16_10h20.37.288,working,2022.2.4,Win32,15.54533018,,,left,0.9417,0,51,51,51,1,bridge_61.jpg,0,bridge,,,,,,,,,,,
,,,,,,,,,,golf_course_309.jpg,golf_course_16.jpg,golf_course_309.jpg,right,golf_course_309.jpg,playground_235.jpg,highway_159.jpg,bridge_206.jpg,bridge_206.jpg,bridge_206.jpg,0,AWGNBPBMKCGAP,32,male,5,2023-07-16_10h20.37.288,working,2022.2.4,Win32,15.54533018,,,right,1.1993,0,52,52,52,1,golf_course_16.jpg,0,golf,,,,,,,,,,,
,,,,,,,,,,highway_177.jpg,highway_278.jpg,highway_177.jpg,right,mountain_253.jpg,golf_course_21.jpg,highway_177.jpg,bridge_158.jpg,bridge_158.jpg,bridge_158.jpg,2,AWGNBPBMKCGAP,32,male,5,2023-07-16_10h20.37.288,working,2022.2.4,Win32,15.54533018,,,left,1.2791,0,53,53,53,1,highway_278.jpg,1,highway,,,,,,,,,,,
,,,,,,,,,,mountain_293.jpg,mountain_293.jpg,mountain_72.jpg,left,highway_331.jpg,playground_116.jpg,mountain_293.jpg,golf_course_57.jpg,golf_course_57.jpg,golf_course_57.jpg,2,AWGNBPBMKCGAP,32,male,5,2023-07-16_10h20.37.288,working,2022.2.4,Win32,15.54533018,,,left,2.4039,0,54,54,54,1,mountain_72.jpg,0,mountain,,,,,,,,,,,
,,,,,,,,,,badlands_222.jpg,badlands_62.jpg,badlands_222.jpg,right,playground_241.jpg,badlands_222.jpg,mountain_199.jpg,golf_course_128.jpg,golf_course_128.jpg,golf_course_128.jpg,1,AWGNBPBMKCGAP,32,male,5,2023-07-16_10h20.37.288,working,2022.2.4,Win32,15.54533018,,,right,1.0473,0,55,55,55,1,badlands_62.jpg,1,badlands,,,,,,,,,,,
,,,,,,,,,,golf_course_188.jpg,golf_course_188.jpg,golf_course_160.jpg,left,highway_261.jpg,badlands_95.jpg,golf_course_188.jpg,bridge_264.jpg,bridge_264.jpg,bridge_264.jpg,2,AWGNBPBMKCGAP,32,male,5,2023-07-16_10h20.37.288,working,2022.2.4,Win32,15.54533018,,,left,1.1983,0,56,56,56,1,golf_course_160.jpg,1,golf,,,,,,,,,,,
,,,,,,,,,,mountain_123.jpg,mountain_123.jpg,mountain_189.jpg,left,bridge_21.jpg,golf_course_337.jpg,mountain_123.jpg,highway_249.jpg,highway_249.jpg,highway_249.jpg,2,AWGNBPBMKCGAP,32,male,5,2023-07-16_10h20.37.288,working,2022.2.4,Win32,15.54533018,,,right,0.7764,0,57,57,57,1,mountain_189.jpg,1,mountain,,,,,,,,,,,
,,,,,,,,,,golf_course_217.jpg,golf_course_35.jpg,golf_course_217.jpg,right,highway_99.jpg,playground_95.jpg,golf_course_217.jpg,mountain_91.jpg,mountain_91.jpg,mountain_91.jpg,2,AWGNBPBMKCGAP,32,male,5,2023-07-16_10h20.37.288,working,2022.2.4,Win32,15.54533018,,,left,1.3683,0,58,58,58,1,golf_course_35.jpg,0,golf,,,,,,,,,,,
,,,,,,,,,,highway_93.jpg,highway_93.jpg,highway_85.jpg,left,golf_course_152.jpg,badlands_59.jpg,highway_93.jpg,mountain_34.jpg,mountain_34.jpg,mountain_34.jpg,2,AWGNBPBMKCGAP,32,male,5,2023-07-16_10h20.37.288,working,2022.2.4,Win32,15.54533018,,,right,1.2046,0,59,59,59,1,highway_85.jpg,0,highway,,,,,,,,,,,
,,,,,,,,,,mountain_154.jpg,mountain_131.jpg,mountain_154.jpg,right,mountain_154.jpg,playground_172.jpg,bridge_2.jpg,golf_course_204.jpg,golf_course_204.jpg,golf_course_204.jpg,0,AWGNBPBMKCGAP,32,male,5,2023-07-16_10h20.37.288,working,2022.2.4,Win32,15.54533018,,,,,,,,,,mountain_131.jpg,0,mountain,space,4.8852,8.927083333,16.7398,0,0,0,0,1,,
,,,,,,,,,,playground_131.jpg,playground_164.jpg,playground_131.jpg,right,badlands_177.jpg,playground_131.jpg,highway_166.jpg,golf_course_325.jpg,golf_course_325.jpg,golf_course_325.jpg,1,AWGNBPBMKCGAP,32,male,5,2023-07-16_10h20.37.288,working,2022.2.4,Win32,15.54533018,,,,,,,,,,playground_164.jpg,1,playground,,,8.979166667,2.0311,0,1,1,1,1,,
,,,,,,,,,,highway_394.jpg,highway_406.jpg,highway_394.jpg,right,highway_394.jpg,playground_52.jpg,mountain_126.jpg,bridge_78.jpg,bridge_78.jpg,bridge_78.jpg,0,AWGNBPBMKCGAP,32,male,5,2023-07-16_10h20.37.288,working,2022.2.4,Win32,15.54533018,,,,,,,,,,highway_406.jpg,1,highway,,,7.979166667,1.6683,0,2,2,2,1,,
,,,,,,,,,,golf_course_87.jpg,golf_course_87.jpg,golf_course_130.jpg,left,highway_219.jpg,mountain_179.jpg,golf_course_87.jpg,bridge_130.jpg,bridge_130.jpg,bridge_130.jpg,2,AWGNBPBMKCGAP,32,male,5,2023-07-16_10h20.37.288,working,2022.2.4,Win32,15.54533018,,,,,,,,,,golf_course_130.jpg,0,golf,,,7.052083333,1.6834,0,3,3,3,1,,
,,,,,,,,,,playground_145.jpg,playground_145.jpg,playground_229.jpg,left,mountain_15.jpg,highway_149.jpg,playground_145.jpg,badlands_108.jpg,badlands_108.jpg,badlands_108.jpg,2,AWGNBPBMKCGAP,32,male,5,2023-07-16_10h20.37.288,working,2022.2.4,Win32,15.54533018,,,,,,,,,,playground_229.jpg,0,playground,,,5.979166667,1.7712,0,4,4,4,1,,
,,,,,,,,,,badlands_184.jpg,badlands_184.jpg,badlands_103.jpg,left,bridge_19.jpg,badlands_184.jpg,mountain_292.jpg,highway_227.jpg,highway_227.jpg,highway_227.jpg,1,AWGNBPBMKCGAP,32,male,5,2023-07-16_10h20.37.288,working,2022.2.4,Win32,15.54533018,,,,,,,,,,badlands_103.jpg,1,badlands,,,4.958333333,1.3936,0,5,5,5,1,,
,,,,,,,,,,badlands_52.jpg,badlands_94.jpg,badlands_52.jpg,right,playground_183.jpg,badlands_52.jpg,mountain_228.jpg,bridge_238.jpg,bridge_238.jpg,bridge_238.jpg,1,AWGNBPBMKCGAP,32,male,5,2023-07-16_10h20.37.288,working,2022.2.4,Win32,15.54533018,,,,,,,,,,badlands_94.jpg,0,badlands,,,6.96875,1.5074,0,6,6,6,1,,
,,,,,,,,,,golf_course_214.jpg,golf_course_317.jpg,golf_course_214.jpg,right,highway_248.jpg,golf_course_214.jpg,bridge_9.jpg,mountain_132.jpg,mountain_132.jpg,mountain_132.jpg,1,AWGNBPBMKCGAP,32,male,5,2023-07-16_10h20.37.288,working,2022.2.4,Win32,15.54533018,,,,,,,,,,golf_course_317.jpg,1,golf,,,8.302083333,1.2491,0,7,7,7,1,,
,,,,,,,,,,highway_359.jpg,highway_389.jpg,highway_359.jpg,right,highway_359.jpg,playground_6.jpg,golf_course_88.jpg,mountain_84.jpg,mountain_84.jpg,mountain_84.jpg,0,AWGNBPBMKCGAP,32,male,5,2023-07-16_10h20.37.288,working,2022.2.4,Win32,15.54533018,,,,,,,,,,highway_389.jpg,0,highway,,,7.96875,1.1572,0,8,8,8,1,,
,,,,,,,,,,badlands_70.jpg,badlands_70.jpg,badlands_119.jpg,left,playground_200.jpg,mountain_280.jpg,badlands_70.jpg,bridge_177.jpg,bridge_177.jpg,bridge_177.jpg,2,AWGNBPBMKCGAP,32,male,5,2023-07-16_10h20.37.288,working,2022.2.4,Win32,15.54533018,,,,,,,,,,badlands_119.jpg,1,badlands,,,8.947916667,1.2413,0,9,9,9,1,,
,,,,,,,,,,highway_415.jpg,highway_415.jpg,highway_60.jpg,left,playground_42.jpg,highway_415.jpg,mountain_161.jpg,golf_course_42.jpg,golf_course_42.jpg,golf_course_42.jpg,1,AWGNBPBMKCGAP,32,male,5,2023-07-16_10h20.37.288,working,2022.2.4,Win32,15.54533018,,,,,,,,,,highway_60.jpg,0,highway,,,8.895833333,2.6412,0,10,10,10,1,,
,,,,,,,,,,playground_144.jpg,playground_137.jpg,playground_144.jpg,right,playground_144.jpg,golf_course_166.jpg,mountain_26.jpg,highway_144.jpg,highway_144.jpg,highway_144.jpg,0,AWGNBPBMKCGAP,32,male,5,2023-07-16_10h20.37.288,working,2022.2.4,Win32,15.54533018,,,,,,,,,,playground_137.jpg,0,playground,,,7.979166667,1.4189,0,11,11,11,1,,
,,,,,,,,,,playground_10.jpg,playground_122.jpg,playground_10.jpg,right,playground_10.jpg,highway_336.jpg,bridge_132.jpg,mountain_301.jpg,mountain_301.jpg,mountain_301.jpg,0,AWGNBPBMKCGAP,32,male,5,2023-07-16_10h20.37.288,working,2022.2.4,Win32,15.54533018,,,,,,,,,,playground_122.jpg,0,playground,,,5.989583333,1.4901,0,12,12,12,1,,
,,,,,,,,,,playground_219.jpg,playground_219.jpg,playground_205.jpg,left,badlands_99.jpg,playground_219.jpg,golf_course_33.jpg,bridge_257.jpg,bridge_257.jpg,bridge_257.jpg,1,AWGNBPBMKCGAP,32,male,5,2023-07-16_10h20.37.288,working,2022.2.4,Win32,15.54533018,,,,,,,,,,playground_205.jpg,1,playground,,,5.104166667,1.6574,0,13,13,13,1,,
,,,,,,,,,,mountain_101.jpg,mountain_221.jpg,mountain_101.jpg,right,playground_193.jpg,mountain_101.jpg,bridge_259.jpg,golf_course_52.jpg,golf_course_52.jpg,golf_course_52.jpg,1,AWGNBPBMKCGAP,32,male,5,2023-07-16_10h20.37.288,working,2022.2.4,Win32,15.54533018,,,,,,,,,,mountain_221.jpg,1,mountain,,,6.989583333,1.6793,0,14,14,14,1,,
,,,,,,,,,,bridge_256.jpg,bridge_211.jpg,bridge_256.jpg,right,golf_course_264.jpg,highway_342.jpg,bridge_256.jpg,mountain_162.jpg,mountain_162.jpg,mountain_162.jpg,2,AWGNBPBMKCGAP,32,male,5,2023-07-16_10h20.37.288,working,2022.2.4,Win32,15.54533018,,,,,,,,,,bridge_211.jpg,1,bridge,,,7.885416667,1.1524,0,15,15,15,1,,
,,,,,,,,,,highway_156.jpg,highway_156.jpg,highway_160.jpg,left,badlands_130.jpg,golf_course_334.jpg,highway_156.jpg,bridge_120.jpg,bridge_120.jpg,bridge_120.jpg,2,AWGNBPBMKCGAP,32,male,5,2023-07-16_10h20.37.288,working,2022.2.4,Win32,15.54533018,,,,,,,,,,highway_160.jpg,0,highway,,,8.96875,1.5802,0,16,16,16,1,,
,,,,,,,,,,playground_60.jpg,playground_60.jpg,playground_244.jpg,left,badlands_89.jpg,bridge_251.jpg,playground_60.jpg,highway_146.jpg,highway_146.jpg,highway_146.jpg,2,AWGNBPBMKCGAP,32,male,5,2023-07-16_10h20.37.288,working,2022.2.4,Win32,15.54533018,,,,,,,,,,playground_244.jpg,1,playground,,,7.9375,1.3913,0,17,17,17,1,,
,,,,,,,,,,badlands_24.jpg,badlands_24.jpg,badlands_3.jpg,left,badlands_24.jpg,playground_25.jpg,highway_117.jpg,bridge_103.jpg,bridge_103.jpg,bridge_103.jpg,0,AWGNBPBMKCGAP,32,male,5,2023-07-16_10h20.37.288,working,2022.2.4,Win32,15.54533018,,,,,,,,,,badlands_3.jpg,0,badlands,,,6.864583333,1.4238,0,18,18,18,1,,
,,,,,,,,,,bridge_191.jpg,bridge_191.jpg,bridge_184.jpg,left,playground_181.jpg,golf_course_43.jpg,bridge_191.jpg,badlands_226.jpg,badlands_226.jpg,badlands_226.jpg,2,AWGNBPBMKCGAP,32,male,5,2023-07-16_10h20.37.288,working,2022.2.4,Win32,15.54533018,,,,,,,,,,bridge_184.jpg,0,bridge,,,6.979166667,3.4914,0,19,19,19,1,,
,,,,,,,,,,playground_257.jpg,playground_215.jpg,playground_257.jpg,right,mountain_204.jpg,playground_257.jpg,highway_147.jpg,golf_course_185.jpg,golf_course_185.jpg,golf_course_185.jpg,1,AWGNBPBMKCGAP,32,male,5,2023-07-16_10h20.37.288,working,2022.2.4,Win32,15.54533018,,,,,,,,,,playground_215.jpg,1,playground,,,7.958333333,1.449,0,20,20,20,1,,
,,,,,,,,,,playground_240.jpg,playground_2.jpg,playground_240.jpg,right,badlands_186.jpg,playground_240.jpg,bridge_26.jpg,golf_course_83.jpg,golf_course_83.jpg,golf_course_83.jpg,1,AWGNBPBMKCGAP,32,male,5,2023-07-16_10h20.37.288,working,2022.2.4,Win32,15.54533018,,,,,,,,,,playground_2.jpg,0,playground,,,8.96875,1.4762,0,21,21,21,1,,
,,,,,,,,,,bridge_91.jpg,bridge_82.jpg,bridge_91.jpg,right,golf_course_260.jpg,mountain_115.jpg,bridge_91.jpg,badlands_75.jpg,badlands_75.jpg,badlands_75.jpg,2,AWGNBPBMKCGAP,32,male,5,2023-07-16_10h20.37.288,working,2022.2.4,Win32,15.54533018,,,,,,,,,,bridge_82.jpg,1,bridge,,,6.916666667,1.6513,0,22,22,22,1,,
,,,,,,,,,,mountain_156.jpg,mountain_295.jpg,mountain_156.jpg,right,bridge_80.jpg,mountain_156.jpg,badlands_13.jpg,playground_41.jpg,playground_41.jpg,playground_41.jpg,1,AWGNBPBMKCGAP,32,male,5,2023-07-16_10h20.37.288,working,2022.2.4,Win32,15.54533018,,,,,,,,,,mountain_295.jpg,1,mountain,,,6.895833333,1.4748,0,23,23,23,1,,
,,,,,,,,,,highway_294.jpg,highway_368.jpg,highway_294.jpg,right,mountain_44.jpg,playground_80.jpg,highway_294.jpg,badlands_153.jpg,badlands_153.jpg,badlands_153.jpg,2,AWGNBPBMKCGAP,32,male,5,2023-07-16_10h20.37.288,working,2022.2.4,Win32,15.54533018,,,,,,,,,,highway_368.jpg,1,highway,,,7.96875,1.236,0,24,24,24,1,,
,,,,,,,,,,mountain_232.jpg,mountain_232.jpg,mountain_54.jpg,left,mountain_232.jpg,bridge_49.jpg,golf_course_229.jpg,highway_88.jpg,highway_88.jpg,highway_88.jpg,0,AWGNBPBMKCGAP,32,male,5,2023-07-16_10h20.37.288,working,2022.2.4,Win32,15.54533018,,,,,,,,,,mountain_54.jpg,1,mountain,,,8.916666667,2.9933,0,25,25,25,1,,
,,,,,,,,,,bridge_250.jpg,bridge_205.jpg,bridge_250.jpg,right,bridge_250.jpg,mountain_104.jpg,highway_398.jpg,playground_103.jpg,playground_103.jpg,playground_103.jpg,0,AWGNBPBMKCGAP,32,male,5,2023-07-16_10h20.37.288,working,2022.2.4,Win32,15.54533018,,,,,,,,,,bridge_205.jpg,1,bridge,,,8.958333333,1.0871,0,26,26,26,1,,
,,,,,,,,,,bridge_65.jpg,bridge_181.jpg,bridge_65.jpg,right,playground_168.jpg,highway_333.jpg,bridge_65.jpg,badlands_45.jpg,badlands_45.jpg,badlands_45.jpg,2,AWGNBPBMKCGAP,32,male,5,2023-07-16_10h20.37.288,working,2022.2.4,Win32,15.54533018,,,,,,,,,,bridge_181.jpg,0,bridge,,,7.989583333,1.4792,0,27,27,27,1,,
,,,,,,,,,,bridge_146.jpg,bridge_121.jpg,bridge_146.jpg,right,bridge_146.jpg,badlands_100.jpg,mountain_296.jpg,playground_3.jpg,playground_3.jpg,playground_3.jpg,0,AWGNBPBMKCGAP,32,male,5,2023-07-16_10h20.37.288,working,2022.2.4,Win32,15.54533018,,,,,,,,,,bridge_121.jpg,1,bridge,,,7,1.3404,0,28,28,28,1,,
,,,,,,,,,,highway_245.jpg,highway_206.jpg,highway_245.jpg,right,highway_245.jpg,golf_course_223.jpg,bridge_230.jpg,playground_77.jpg,playground_77.jpg,playground_77.jpg,0,AWGNBPBMKCGAP,32,male,5,2023-07-16_10h20.37.288,working,2022.2.4,Win32,15.54533018,,,,,,,,,,highway_206.jpg,1,highway,,,5.96875,1.4318,0,29,29,29,1,,
,,,,,,,,,,mountain_57.jpg,mountain_57.jpg,mountain_193.jpg,left,mountain_57.jpg,bridge_25.jpg,golf_course_27.jpg,playground_209.jpg,playground_209.jpg,playground_209.jpg,0,AWGNBPBMKCGAP,32,male,5,2023-07-16_10h20.37.288,working,2022.2.4,Win32,15.54533018,,,,,,,,,,mountain_193.jpg,0,mountain,,,6.875,1.6506,0,30,30,30,1,,
,,,,,,,,,,golf_course_193.jpg,golf_course_123.jpg,golf_course_193.jpg,right,highway_11.jpg,golf_course_193.jpg,mountain_107.jpg,playground_158.jpg,playground_158.jpg,playground_158.jpg,1,AWGNBPBMKCGAP,32,male,5,2023-07-16_10h20.37.288,working,2022.2.4,Win32,15.54533018,,,,,,,,,,golf_course_123.jpg,1,golf,,,7.958333333,1.166,0,31,31,31,1,,
,,,,,,,,,,badlands_23.jpg,badlands_101.jpg,badlands_23.jpg,right,mountain_4.jpg,playground_5.jpg,badlands_23.jpg,bridge_47.jpg,bridge_47.jpg,bridge_47.jpg,2,AWGNBPBMKCGAP,32,male,5,2023-07-16_10h20.37.288,working,2022.2.4,Win32,15.54533018,,,,,,,,,,badlands_101.jpg,1,badlands,,,7.947916667,3.1856,0,32,32,32,1,,
,,,,,,,,,,mountain_230.jpg,mountain_230.jpg,mountain_97.jpg,left,mountain_230.jpg,playground_108.jpg,badlands_27.jpg,highway_319.jpg,highway_319.jpg,highway_319.jpg,0,AWGNBPBMKCGAP,32,male,5,2023-07-16_10h20.37.288,working,2022.2.4,Win32,15.54533018,,,,,,,,,,mountain_97.jpg,1,mountain,,,7.947916667,1.0455,0,33,33,33,1,,
,,,,,,,,,,golf_course_195.jpg,golf_course_195.jpg,golf_course_2.jpg,left,golf_course_195.jpg,playground_7.jpg,badlands_54.jpg,mountain_71.jpg,mountain_71.jpg,mountain_71.jpg,0,AWGNBPBMKCGAP,32,male,5,2023-07-16_10h20.37.288,working,2022.2.4,Win32,15.54533018,,,,,,,,,,golf_course_2.jpg,1,golf,,,7.947916667,0.8522,0,34,34,34,1,,
,,,,,,,,,,highway_273.jpg,highway_384.jpg,highway_273.jpg,right,golf_course_58.jpg,highway_273.jpg,bridge_162.jpg,badlands_35.jpg,badlands_35.jpg,badlands_35.jpg,1,AWGNBPBMKCGAP,32,male,5,2023-07-16_10h20.37.288,working,2022.2.4,Win32,15.54533018,,,,,,,,,,highway_384.jpg,0,highway,,,7.947916667,0.7969,0,35,35,35,1,,
,,,,,,,,,,badlands_113.jpg,badlands_113.jpg,badlands_225.jpg,left,badlands_113.jpg,bridge_123.jpg,playground_264.jpg,golf_course_302.jpg,golf_course_302.jpg,golf_course_302.jpg,0,AWGNBPBMKCGAP,32,male,5,2023-07-16_10h20.37.288,working,2022.2.4,Win32,15.54533018,,,,,,,,,,badlands_225.jpg,0,badlands,,,7.947916667,0.7053,0,36,36,36,1,,
,,,,,,,,,,mountain_222.jpg,mountain_222.jpg,mountain_244.jpg,left,badlands_218.jpg,mountain_222.jpg,highway_114.jpg,playground_66.jpg,playground_66.jpg,playground_66.jpg,1,AWGNBPBMKCGAP,32,male,5,2023-07-16_10h20.37.288,working,2022.2.4,Win32,15.54533018,,,,,,,,,,mountain_244.jpg,0,mountain,,,7.947916667,0.7255,0,37,37,37,1,,
,,,,,,,,,,highway_209.jpg,highway_209.jpg,highway_314.jpg,left,golf_course_156.jpg,mountain_21.jpg,highway_209.jpg,bridge_263.jpg,bridge_263.jpg,bridge_263.jpg,2,AWGNBPBMKCGAP,32,male,5,2023-07-16_10h20.37.288,working,2022.2.4,Win32,15.54533018,,,,,,,,,,highway_314.jpg,0,highway,,,7.947916667,0.9747,0,38,38,38,1,,
,,,,,,,,,,bridge_108.jpg,bridge_116.jpg,bridge_108.jpg,right,playground_259.jpg,badlands_64.jpg,bridge_108.jpg,golf_course_1.jpg,golf_course_1.jpg,golf_course_1.jpg,2,AWGNBPBMKCGAP,32,male,5,2023-07-16_10h20.37.288,working,2022.2.4,Win32,15.54533018,,,,,,,,,,bridge_116.jpg,0,bridge,,,7.947916667,0.7981,0,39,39,39,1,,
,,,,,,,,,,playground_117.jpg,playground_167.jpg,playground_117.jpg,right,playground_117.jpg,badlands_30.jpg,mountain_224.jpg,golf_course_258.jpg,golf_course_258.jpg,golf_course_258.jpg,0,AWGNBPBMKCGAP,32,male,5,2023-07-16_10h20.37.288,working,2022.2.4,Win32,15.54533018,,,,,,,,,,playground_167.jpg,0,playground,,,7.947916667,0.5388,0,40,40,40,1,,
,,,,,,,,,,mountain_110.jpg,mountain_223.jpg,mountain_110.jpg,right,mountain_110.jpg,golf_course_320.jpg,playground_36.jpg,badlands_149.jpg,badlands_149.jpg,badlands_149.jpg,0,AWGNBPBMKCGAP,32,male,5,2023-07-16_10h20.37.288,working,2022.2.4,Win32,15.54533018,,,,,,,,,,mountain_223.jpg,1,mountain,,,7.947916667,5.5615,0,41,41,41,1,,
,,,,,,,,,,bridge_172.jpg,bridge_172.jpg,bridge_17.jpg,left,badlands_152.jpg,bridge_172.jpg,highway_23.jpg,golf_course_102.jpg,golf_course_102.jpg,golf_course_102.jpg,1,AWGNBPBMKCGAP,32,male,5,2023-07-16_10h20.37.288,working,2022.2.4,Win32,15.54533018,,,,,,,,,,bridge_17.jpg,0,bridge,,,8.010416667,2.8879,0,42,42,42,1,,
,,,,,,,,,,bridge_202.jpg,bridge_202.jpg,bridge_31.jpg,left,playground_178.jpg,bridge_202.jpg,mountain_68.jpg,badlands_104.jpg,badlands_104.jpg,badlands_104.jpg,1,AWGNBPBMKCGAP,32,male,5,2023-07-16_10h20.37.288,working,2022.2.4,Win32,15.54533018,,,,,,,,,,bridge_31.jpg,0,bridge,,,8.9375,1.4829,0,43,43,43,1,,
,,,,,,,,,,badlands_21.jpg,badlands_98.jpg,badlands_21.jpg,right,bridge_218.jpg,badlands_21.jpg,mountain_66.jpg,highway_175.jpg,highway_175.jpg,highway_175.jpg,1,AWGNBPBMKCGAP,32,male,5,2023-07-16_10h20.37.288,working,2022.2.4,Win32,15.54533018,,,,,,,,,,badlands_98.jpg,1,badlands,,,8.9375,0.9671,0,44,44,44,1,,
,,,,,,,,,,golf_course_331.jpg,golf_course_26.jpg,golf_course_331.jpg,right,playground_124.jpg,golf_course_331.jpg,mountain_233.jpg,bridge_48.jpg,bridge_48.jpg,bridge_48.jpg,1,AWGNBPBMKCGAP,32,male,5,2023-07-16_10h20.37.288,working,2022.2.4,Win32,15.54533018,,,,,,,,,,golf_course_26.jpg,1,golf,,,7.885416667,1.6689,0,45,45,45,1,,
,,,,,,,,,,golf_course_78.jpg,golf_course_78.jpg,golf_course_101.jpg,left,bridge_52.jpg,golf_course_78.jpg,mountain_166.jpg,playground_54.jpg,playground_54.jpg,playground_54.jpg,1,AWGNBPBMKCGAP,32,male,5,2023-07-16_10h20.37.288,working,2022.2.4,Win32,15.54533018,,,,,,,,,,golf_course_101.jpg,1,golf,,,6.958333333,1.6683,0,46,46,46,1,,
,,,,,,,,,,playground_76.jpg,playground_76.jpg,playground_22.jpg,left,highway_25.jpg,playground_76.jpg,golf_course_321.jpg,badlands_2.jpg,badlands_2.jpg,badlands_2.jpg,1,AWGNBPBMKCGAP,32,male,5,2023-07-16_10h20.37.288,working,2022.2.4,Win32,15.54533018,,,,,,,,,,playground_22.jpg,0,playground,,,8.03125,1.7467,0,47,47,47,1,,
,,,,,,,,,,golf_course_15.jpg,golf_course_97.jpg,golf_course_15.jpg,right,highway_12.jpg,bridge_182.jpg,golf_course_15.jpg,playground_30.jpg,playground_30.jpg,playground_30.jpg,2,AWGNBPBMKCGAP,32,male,5,2023-07-16_10h20.37.288,working,2022.2.4,Win32,15.54533018,,,,,,,,,,golf_course_97.jpg,1,golf,,,7.979166667,0.8916,0,48,48,48,1,,
,,,,,,,,,,badlands_137.jpg,badlands_137.jpg,badlands_194.jpg,left,golf_course_290.jpg,badlands_137.jpg,playground_46.jpg,mountain_212.jpg,mountain_212.jpg,mountain_212.jpg,1,AWGNBPBMKCGAP,32,male,5,2023-07-16_10h20.37.288,working,2022.2.4,Win32,15.54533018,,,,,,,,,,badlands_194.jpg,0,badlands,,,8.90625,1.1468,0,49,49,49,1,,
,,,,,,,,,,badlands_221.jpg,badlands_115.jpg,badlands_221.jpg,right,bridge_106.jpg,highway_244.jpg,badlands_221.jpg,mountain_12.jpg,mountain_12.jpg,mountain_12.jpg,2,AWGNBPBMKCGAP,32,male,5,2023-07-16_10h20.37.288,working,2022.2.4,Win32,15.54533018,,,,,,,,,,badlands_115.jpg,0,badlands,,,8.9375,0.6263,0,50,50,50,1,,
,,,,,,,,,,bridge_128.jpg,bridge_128.jpg,bridge_61.jpg,left,bridge_128.jpg,highway_402.jpg,playground_13.jpg,badlands_58.jpg,badlands_58.jpg,badlands_58.jpg,0,AWGNBPBMKCGAP,32,male,5,2023-07-16_10h20.37.288,working,2022.2.4,Win32,15.54533018,,,,,,,,,,bridge_61.jpg,0,bridge,,,8.96875,1.0579,0,51,51,51,1,,
,,,,,,,,,,golf_course_309.jpg,golf_course_16.jpg,golf_course_309.jpg,right,golf_course_309.jpg,playground_235.jpg,highway_159.jpg,bridge_206.jpg,bridge_206.jpg,bridge_206.jpg,0,AWGNBPBMKCGAP,32,male,5,2023-07-16_10h20.37.288,working,2022.2.4,Win32,15.54533018,,,,,,,,,,golf_course_16.jpg,0,golf,,,7.989583333,1.4901,0,52,52,52,1,,
,,,,,,,,,,highway_177.jpg,highway_278.jpg,highway_177.jpg,right,mountain_253.jpg,golf_course_21.jpg,highway_177.jpg,bridge_158.jpg,bridge_158.jpg,bridge_158.jpg,2,AWGNBPBMKCGAP,32,male,5,2023-07-16_10h20.37.288,working,2022.2.4,Win32,15.54533018,,,,,,,,,,highway_278.jpg,1,highway,,,8.916666667,1.8316,0,53,53,53,1,,
,,,,,,,,,,mountain_293.jpg,mountain_293.jpg,mountain_72.jpg,left,highway_331.jpg,playground_116.jpg,mountain_293.jpg,golf_course_57.jpg,golf_course_57.jpg,golf_course_57.jpg,2,AWGNBPBMKCGAP,32,male,5,2023-07-16_10h20.37.288,working,2022.2.4,Win32,15.54533018,,,,,,,,,,mountain_72.jpg,0,mountain,,,8.96875,1.3266,0,54,54,54,1,,
,,,,,,,,,,badlands_222.jpg,badlands_62.jpg,badlands_222.jpg,right,playground_241.jpg,badlands_222.jpg,mountain_199.jpg,golf_course_128.jpg,golf_course_128.jpg,golf_course_128.jpg,1,AWGNBPBMKCGAP,32,male,5,2023-07-16_10h20.37.288,working,2022.2.4,Win32,15.54533018,,,,,,,,,,badlands_62.jpg,1,badlands,,,7.958333333,1.5826,0,55,55,55,1,,
,,,,,,,,,,golf_course_188.jpg,golf_course_188.jpg,golf_course_160.jpg,left,highway_261.jpg,badlands_95.jpg,golf_course_188.jpg,bridge_264.jpg,bridge_264.jpg,bridge_264.jpg,2,AWGNBPBMKCGAP,32,male,5,2023-07-16_10h20.37.288,working,2022.2.4,Win32,15.54533018,,,,,,,,,,golf_course_160.jpg,1,golf,,,6.989583333,1.6801,0,56,56,56,1,,
,,,,,,,,,,mountain_123.jpg,mountain_123.jpg,mountain_189.jpg,left,bridge_21.jpg,golf_course_337.jpg,mountain_123.jpg,highway_249.jpg,highway_249.jpg,highway_249.jpg,2,AWGNBPBMKCGAP,32,male,5,2023-07-16_10h20.37.288,working,2022.2.4,Win32,15.54533018,,,,,,,,,,mountain_189.jpg,1,mountain,,,7.802083333,1.0628,0,57,57,57,1,,
,,,,,,,,,,golf_course_217.jpg,golf_course_35.jpg,golf_course_217.jpg,right,highway_99.jpg,playground_95.jpg,golf_course_217.jpg,mountain_91.jpg,mountain_91.jpg,mountain_91.jpg,2,AWGNBPBMKCGAP,32,male,5,2023-07-16_10h20.37.288,working,2022.2.4,Win32,15.54533018,,,,,,,,,,golf_course_35.jpg,0,golf,,,8.052083333,0.6277,0,58,58,58,1,,
,,,,,,,,,,highway_93.jpg,highway_93.jpg,highway_85.jpg,left,golf_course_152.jpg,badlands_59.jpg,highway_93.jpg,mountain_34.jpg,mountain_34.jpg,mountain_34.jpg,2,AWGNBPBMKCGAP,32,male,5,2023-07-16_10h20.37.288,working,2022.2.4,Win32,15.54533018,,,,,,,,,,highway_85.jpg,0,highway,,,8.041666667,3.0767,0,59,59,59,1,,
,,,,,,,,,,,,,,,,,,,,,AWGNBPBMKCGAP,32,male,5,2023-07-16_10h20.37.288,working,2022.2.4,Win32,15.54533018,,,,,,,,,,,,,,,,,,,,,,space,4.3832
