button.numClicks,button.timesOn,button.timesOff,workID,Age,Gender,Hours slept (last night),date,expName,psychopyVersion,OS,frameRate,space_key_responce.keys,space_key_responce.rt,demo_encoding_response.keys,demo_encoding_response.corr,demo_encoding_loop.thisRepN,demo_encoding_loop.thisTrialN,demo_encoding_loop.thisN,demo_encoding_loop.thisIndex,demo_encoding_loop.ran,DemoImage,DemoCorrect,demo_encoding_response.rt,demo_test_response.keys,demo_test_response.corr,demo_test_response.rt,demo_test_loop.thisRepN,demo_test_loop.thisTrialN,demo_test_loop.thisN,demo_test_loop.thisIndex,demo_test_loop.ran,DemoImage1,DemoImage2,DemoCorrectTest,test_encoding_response.keys,test_encoding_response.corr,trials.thisRepN,trials.thisTrialN,trials.thisN,trials.thisIndex,trials.ran,target_image,pair,layer,correct,test_encoding_response.rt,key_resp_end.keys,key_resp_end.rt,test_test_response.keys,test_test_response.corr,test_test_response.rt,trials_2.thisRepN,trials_2.thisTrialN,trials_2.thisN,trials_2.thisIndex,trials_2.ran,image1,image2,key_resp_end_2.keys,key_resp_end_2.rt
1,[40.971999999999994],[40.9721000000001],A3QYA7EFCS7BA2,35,female,7,2022-10-19_09h04.54.524,memory_pilot_most_recent,2022.2.4,Win32,3.335145429,,,,,,,,,,,,,,,,,,,,,,,,,,,,,,,,,,,,,,,,,,,,,,,,,
,,,A3QYA7EFCS7BA2,35,female,7,2022-10-19_09h04.54.524,memory_pilot_most_recent,2022.2.4,Win32,3.335145429,,,,,,,,,,,,,,,,,,,,,,,,,,,,,,,,,,,,,,,,,,,,,,,,,
,,,A3QYA7EFCS7BA2,35,female,7,2022-10-19_09h04.54.524,memory_pilot_most_recent,2022.2.4,Win32,3.335145429,space,4.3013,,,,,,,,,,,,,,,,,,,,,,,,,,,,,,,,,,,,,,,,,,,,,,,
,,,A3QYA7EFCS7BA2,35,female,7,2022-10-19_09h04.54.524,memory_pilot_most_recent,2022.2.4,Win32,3.335145429,,,,,,,,,,,,,,,,,,,,,,,,,,,,,,,,,,,,,,,,,,,,,,,,,
,,,A3QYA7EFCS7BA2,35,female,7,2022-10-19_09h04.54.524,memory_pilot_most_recent,2022.2.4,Win32,3.335145429,,,,1,0,0,0,0,1,flower1.jpg,,,,,,,,,,,,,,,,,,,,,,,,,,,,,,,,,,,,,,,
,,,A3QYA7EFCS7BA2,35,female,7,2022-10-19_09h04.54.524,memory_pilot_most_recent,2022.2.4,Win32,3.335145429,,,,1,0,1,1,1,1,flower2.jpg,,,,,,,,,,,,,,,,,,,,,,,,,,,,,,,,,,,,,,,
,,,A3QYA7EFCS7BA2,35,female,7,2022-10-19_09h04.54.524,memory_pilot_most_recent,2022.2.4,Win32,3.335145429,,,left,1,0,2,2,2,1,left.jpg,left,0.7878,,,,,,,,,,,,,,,,,,,,,,,,,,,,,,,,,,,,,
,,,A3QYA7EFCS7BA2,35,female,7,2022-10-19_09h04.54.524,memory_pilot_most_recent,2022.2.4,Win32,3.335145429,,,,1,0,3,3,3,1,flower3.jpg,,,,,,,,,,,,,,,,,,,,,,,,,,,,,,,,,,,,,,,
,,,A3QYA7EFCS7BA2,35,female,7,2022-10-19_09h04.54.524,memory_pilot_most_recent,2022.2.4,Win32,3.335145429,,,,1,0,4,4,4,1,flower4.jpg,,,,,,,,,,,,,,,,,,,,,,,,,,,,,,,,,,,,,,,
,,,A3QYA7EFCS7BA2,35,female,7,2022-10-19_09h04.54.524,memory_pilot_most_recent,2022.2.4,Win32,3.335145429,,,,1,0,5,5,5,1,flower5.jpg,,,,,,,,,,,,,,,,,,,,,,,,,,,,,,,,,,,,,,,
,,,A3QYA7EFCS7BA2,35,female,7,2022-10-19_09h04.54.524,memory_pilot_most_recent,2022.2.4,Win32,3.335145429,,,,1,0,6,6,6,1,flower6.jpg,,,,,,,,,,,,,,,,,,,,,,,,,,,,,,,,,,,,,,,
,,,A3QYA7EFCS7BA2,35,female,7,2022-10-19_09h04.54.524,memory_pilot_most_recent,2022.2.4,Win32,3.335145429,,,,,,,,,,,,,,,,,,,,,,,,,,,,,,,,,,,,,,,,,,,,,,,,,
,,,A3QYA7EFCS7BA2,35,female,7,2022-10-19_09h04.54.524,memory_pilot_most_recent,2022.2.4,Win32,3.335145429,,,,,,,,,,,,,left,1,1.5557,0,0,0,0,1,flower1.jpg,flower1_pair.jpg,left,,,,,,,,,,,,,,,,,,,,,,,,,,
,,,A3QYA7EFCS7BA2,35,female,7,2022-10-19_09h04.54.524,memory_pilot_most_recent,2022.2.4,Win32,3.335145429,,,,,,,,,,,,,right,1,1.4409,0,1,1,1,1,flower2_pair.jpg,flower2.jpg,right,,,,,,,,,,,,,,,,,,,,,,,,,,
,,,A3QYA7EFCS7BA2,35,female,7,2022-10-19_09h04.54.524,memory_pilot_most_recent,2022.2.4,Win32,3.335145429,,,,,,,,,,,,,left,1,1.123,0,2,2,2,1,flower3.jpg,flower3_pair.jpg,left,,,,,,,,,,,,,,,,,,,,,,,,,,
,,,A3QYA7EFCS7BA2,35,female,7,2022-10-19_09h04.54.524,memory_pilot_most_recent,2022.2.4,Win32,3.335145429,,,,,,,,,,,,,left,1,1.5163,0,3,3,3,1,flower4.jpg,flower4_pair.jpg,left,,,,,,,,,,,,,,,,,,,,,,,,,,
,,,A3QYA7EFCS7BA2,35,female,7,2022-10-19_09h04.54.524,memory_pilot_most_recent,2022.2.4,Win32,3.335145429,,,,,,,,,,,,,right,1,1.0967,0,4,4,4,1,flower5_pair.jpg,flower5.jpg,right,,,,,,,,,,,,,,,,,,,,,,,,,,
,,,A3QYA7EFCS7BA2,35,female,7,2022-10-19_09h04.54.524,memory_pilot_most_recent,2022.2.4,Win32,3.335145429,,,,,,,,,,,,,left,1,1.0987,0,5,5,5,1,flower6.jpg,flower6_pair.jpg,left,,,,,,,,,,,,,,,,,,,,,,,,,,
,,,A3QYA7EFCS7BA2,35,female,7,2022-10-19_09h04.54.524,memory_pilot_most_recent,2022.2.4,Win32,3.335145429,,,,,,,,,,,,,,,,,,,,,,,,,,,,,,,,,,,,,,,,,,,,,,,,,
,,,A3QYA7EFCS7BA2,35,female,7,2022-10-19_09h04.54.524,memory_pilot_most_recent,2022.2.4,Win32,3.335145429,space,1.9679,,,,,,,,,,,,,,,,,,,,,,,,,,,,,,,,,,,,,,,,,,,,,,,
,,,A3QYA7EFCS7BA2,35,female,7,2022-10-19_09h04.54.524,memory_pilot_most_recent,2022.2.4,Win32,3.335145429,,,,,,,,,,,,,,,,,,,,,,,,,1,0,0,0,0,1,2238481198-19822.jpg,2901946436-293242.jpg,2,,,,,,,,,,,,,,,,
,,,A3QYA7EFCS7BA2,35,female,7,2022-10-19_09h04.54.524,memory_pilot_most_recent,2022.2.4,Win32,3.335145429,,,,,,,,,,,,,,,,,,,,,,,,,1,0,1,1,1,1,2901947423-70311.jpg,2238577590-185467.jpg,3,,,,,,,,,,,,,,,,
,,,A3QYA7EFCS7BA2,35,female,7,2022-10-19_09h04.54.524,memory_pilot_most_recent,2022.2.4,Win32,3.335145429,,,,,,,,,,,,,,,,,,,,,,,,,1,0,2,2,2,1,2446759347-347016.jpg,2901951350-218702.jpg,2,,,,,,,,,,,,,,,,
,,,A3QYA7EFCS7BA2,35,female,7,2022-10-19_09h04.54.524,memory_pilot_most_recent,2022.2.4,Win32,3.335145429,,,,,,,,,,,,,,,,,,,,,,,,,1,0,3,3,3,1,2898635428-69104.jpg,2898625336-291572.jpg,3,,,,,,,,,,,,,,,,
,,,A3QYA7EFCS7BA2,35,female,7,2022-10-19_09h04.54.524,memory_pilot_most_recent,2022.2.4,Win32,3.335145429,,,,,,,,,,,,,,,,,,,,,,,,,1,0,4,4,4,1,2898617468-68274.jpg,2964207374-144577.jpg,3,,,,,,,,,,,,,,,,
,,,A3QYA7EFCS7BA2,35,female,7,2022-10-19_09h04.54.524,memory_pilot_most_recent,2022.2.4,Win32,3.335145429,,,,,,,,,,,,,,,,,,,,,,,,,1,0,5,5,5,1,2460547467-349422.jpg,2898618440-216545.jpg,1,,,,,,,,,,,,,,,,
,,,A3QYA7EFCS7BA2,35,female,7,2022-10-19_09h04.54.524,memory_pilot_most_recent,2022.2.4,Win32,3.335145429,,,,,,,,,,,,,,,,,,,,,,,,,1,0,6,6,6,1,2460547508-51571.jpg,2460547291-274110.jpg,1,,,,,,,,,,,,,,,,
,,,A3QYA7EFCS7BA2,35,female,7,2022-10-19_09h04.54.524,memory_pilot_most_recent,2022.2.4,Win32,3.335145429,,,,,,,,,,,,,,,,,,,,,,,,,1,0,7,7,7,1,2592380177-354629.jpg,2512875587-350044.jpg,3,,,,,,,,,,,,,,,,
,,,A3QYA7EFCS7BA2,35,female,7,2022-10-19_09h04.54.524,memory_pilot_most_recent,2022.2.4,Win32,3.335145429,,,,,,,,,,,,,,,,,,,,,,,,left,1,0,8,8,8,1,left.jpg,,,left,0.8598,,,,,,,,,,,,,,
,,,A3QYA7EFCS7BA2,35,female,7,2022-10-19_09h04.54.524,memory_pilot_most_recent,2022.2.4,Win32,3.335145429,,,,,,,,,,,,,,,,,,,,,,,,,1,0,9,9,9,1,2901952513-70703.jpg,2868469411-287540.jpg,2,,,,,,,,,,,,,,,,
,,,A3QYA7EFCS7BA2,35,female,7,2022-10-19_09h04.54.524,memory_pilot_most_recent,2022.2.4,Win32,3.335145429,,,,,,,,,,,,,,,,,,,,,,,,,1,0,10,10,10,1,2238560245-182099.jpg,2549106624-127823.jpg,1,,,,,,,,,,,,,,,,
,,,A3QYA7EFCS7BA2,35,female,7,2022-10-19_09h04.54.524,memory_pilot_most_recent,2022.2.4,Win32,3.335145429,,,,,,,,,,,,,,,,,,,,,,,,,1,0,11,11,11,1,2449441881-272368.jpg,2984615358-72439.jpg,2,,,,,,,,,,,,,,,,
,,,A3QYA7EFCS7BA2,35,female,7,2022-10-19_09h04.54.524,memory_pilot_most_recent,2022.2.4,Win32,3.335145429,,,,,,,,,,,,,,,,,,,,,,,,,1,0,12,12,12,1,2883268412-365898.jpg,2238436252-314037.jpg,3,,,,,,,,,,,,,,,,
,,,A3QYA7EFCS7BA2,35,female,7,2022-10-19_09h04.54.524,memory_pilot_most_recent,2022.2.4,Win32,3.335145429,,,,,,,,,,,,,,,,,,,,,,,,,1,0,13,13,13,1,2874302418-65979.jpg,2413147898-43548.jpg,1,,,,,,,,,,,,,,,,
,,,A3QYA7EFCS7BA2,35,female,7,2022-10-19_09h04.54.524,memory_pilot_most_recent,2022.2.4,Win32,3.335145429,,,,,,,,,,,,,,,,,,,,,,,,,1,0,14,14,14,1,2986451363-73599.jpg,2860302315-210704.jpg,2,,,,,,,,,,,,,,,,
,,,A3QYA7EFCS7BA2,35,female,7,2022-10-19_09h04.54.524,memory_pilot_most_recent,2022.2.4,Win32,3.335145429,,,,,,,,,,,,,,,,,,,,,,,,,1,0,15,15,15,1,2452380832-348593.jpg,2238481813-19930.jpg,2,,,,,,,,,,,,,,,,
,,,A3QYA7EFCS7BA2,35,female,7,2022-10-19_09h04.54.524,memory_pilot_most_recent,2022.2.4,Win32,3.335145429,,,,,,,,,,,,,,,,,,,,,,,,,1,0,16,16,16,1,2964218374-144967.jpg,2883254439-140940.jpg,2,,,,,,,,,,,,,,,,
,,,A3QYA7EFCS7BA2,35,female,7,2022-10-19_09h04.54.524,memory_pilot_most_recent,2022.2.4,Win32,3.335145429,,,,,,,,,,,,,,,,,,,,,,,,,1,0,17,17,17,1,2898635427-367120.jpg,2868479517-363220.jpg,2,,,,,,,,,,,,,,,,
,,,A3QYA7EFCS7BA2,35,female,7,2022-10-19_09h04.54.524,memory_pilot_most_recent,2022.2.4,Win32,3.335145429,,,,,,,,,,,,,,,,,,,,,,,,,1,0,18,18,18,1,2964223381-294447.jpg,2901941438-69836.jpg,2,,,,,,,,,,,,,,,,
,,,A3QYA7EFCS7BA2,35,female,7,2022-10-19_09h04.54.524,memory_pilot_most_recent,2022.2.4,Win32,3.335145429,,,,,,,,,,,,,,,,,,,,,,,,,1,0,19,19,19,1,2874302418-65978.jpg,2898626385-216899.jpg,1,,,,,,,,,,,,,,,,
,,,A3QYA7EFCS7BA2,35,female,7,2022-10-19_09h04.54.524,memory_pilot_most_recent,2022.2.4,Win32,3.335145429,,,,,,,,,,,,,,,,,,,,,,,,,1,0,20,20,20,1,2901941401-292798.jpg,2898618327-366317.jpg,1,,,,,,,,,,,,,,,,
,,,A3QYA7EFCS7BA2,35,female,7,2022-10-19_09h04.54.524,memory_pilot_most_recent,2022.2.4,Win32,3.335145429,,,,,,,,,,,,,,,,,,,,,,,,,1,0,21,21,21,1,2452381505-199546.jpg,2901938432-367627.jpg,1,,,,,,,,,,,,,,,,
,,,A3QYA7EFCS7BA2,35,female,7,2022-10-19_09h04.54.524,memory_pilot_most_recent,2022.2.4,Win32,3.335145429,,,,,,,,,,,,,,,,,,,,,,,,,1,0,22,22,22,1,2874301407-363895.jpg,2901947323-70275.jpg,3,,,,,,,,,,,,,,,,
,,,A3QYA7EFCS7BA2,35,female,7,2022-10-19_09h04.54.524,memory_pilot_most_recent,2022.2.4,Win32,3.335145429,,,,,,,,,,,,,,,,,,,,,,,,,1,0,23,23,23,1,2883254439-140941.jpg,2981231446-294730.jpg,3,,,,,,,,,,,,,,,,
,,,A3QYA7EFCS7BA2,35,female,7,2022-10-19_09h04.54.524,memory_pilot_most_recent,2022.2.4,Win32,3.335145429,,,,,,,,,,,,,,,,,,,,,,,,left,1,0,24,24,24,1,left.jpg,,,left,0.646,,,,,,,,,,,,,,
,,,A3QYA7EFCS7BA2,35,female,7,2022-10-19_09h04.54.524,memory_pilot_most_recent,2022.2.4,Win32,3.335145429,,,,,,,,,,,,,,,,,,,,,,,,,1,0,25,25,25,1,2868475410-213219.jpg,2868474407-362885.jpg,3,,,,,,,,,,,,,,,,
,,,A3QYA7EFCS7BA2,35,female,7,2022-10-19_09h04.54.524,memory_pilot_most_recent,2022.2.4,Win32,3.335145429,,,,,,,,,,,,,,,,,,,,,,,,,1,0,26,26,26,1,2901948350-218459.jpg,2417208001-267065.jpg,2,,,,,,,,,,,,,,,,
,,,A3QYA7EFCS7BA2,35,female,7,2022-10-19_09h04.54.524,memory_pilot_most_recent,2022.2.4,Win32,3.335145429,,,,,,,,,,,,,,,,,,,,,,,,,1,0,27,27,27,1,2901939379-143479.jpg,2446758985-197610.jpg,2,,,,,,,,,,,,,,,,
,,,A3QYA7EFCS7BA2,35,female,7,2022-10-19_09h04.54.524,memory_pilot_most_recent,2022.2.4,Win32,3.335145429,,,,,,,,,,,,,,,,,,,,,,,,,1,0,28,28,28,1,2592379964-131054.jpg,2575963989-130576.jpg,1,,,,,,,,,,,,,,,,
,,,A3QYA7EFCS7BA2,35,female,7,2022-10-19_09h04.54.524,memory_pilot_most_recent,2022.2.4,Win32,3.335145429,,,,,,,,,,,,,,,,,,,,,,,,,1,0,29,29,29,1,2874307433-66280.jpg,2981246400-220365.jpg,2,,,,,,,,,,,,,,,,
,,,A3QYA7EFCS7BA2,35,female,7,2022-10-19_09h04.54.524,memory_pilot_most_recent,2022.2.4,Win32,3.335145429,,,,,,,,,,,,,,,,,,,,,,,,,1,0,30,30,30,1,2458347385-199723.jpg,2238480434-93829.jpg,1,,,,,,,,,,,,,,,,
,,,A3QYA7EFCS7BA2,35,female,7,2022-10-19_09h04.54.524,memory_pilot_most_recent,2022.2.4,Win32,3.335145429,,,,,,,,,,,,,,,,,,,,,,,,right,1,0,31,31,31,1,right.jpg,,,right,0.5394,,,,,,,,,,,,,,
,,,A3QYA7EFCS7BA2,35,female,7,2022-10-19_09h04.54.524,memory_pilot_most_recent,2022.2.4,Win32,3.335145429,,,,,,,,,,,,,,,,,,,,,,,,,1,0,32,32,32,1,2449442529-124445.jpg,2898632385-217137.jpg,3,,,,,,,,,,,,,,,,
,,,A3QYA7EFCS7BA2,35,female,7,2022-10-19_09h04.54.524,memory_pilot_most_recent,2022.2.4,Win32,3.335145429,,,,,,,,,,,,,,,,,,,,,,,,,1,0,33,33,33,1,2981231403-71642.jpg,2981244403-72215.jpg,2,,,,,,,,,,,,,,,,
,,,A3QYA7EFCS7BA2,35,female,7,2022-10-19_09h04.54.524,memory_pilot_most_recent,2022.2.4,Win32,3.335145429,,,,,,,,,,,,,,,,,,,,,,,,,1,0,34,34,34,1,2449442529-124446.jpg,2446759803-49251.jpg,1,,,,,,,,,,,,,,,,
,,,A3QYA7EFCS7BA2,35,female,7,2022-10-19_09h04.54.524,memory_pilot_most_recent,2022.2.4,Win32,3.335145429,,,,,,,,,,,,,,,,,,,,,,,,,1,0,35,35,35,1,2883268471-290842.jpg,2901947448-70314.jpg,3,,,,,,,,,,,,,,,,
,,,A3QYA7EFCS7BA2,35,female,7,2022-10-19_09h04.54.524,memory_pilot_most_recent,2022.2.4,Win32,3.335145429,,,,,,,,,,,,,,,,,,,,,,,,,1,0,36,36,36,1,2981241414-145842.jpg,2427873848-47312.jpg,3,,,,,,,,,,,,,,,,
,,,A3QYA7EFCS7BA2,35,female,7,2022-10-19_09h04.54.524,memory_pilot_most_recent,2022.2.4,Win32,3.335145429,,,,,,,,,,,,,,,,,,,,,,,,,1,0,37,37,37,1,2446759803-49249.jpg,2446760601-272099.jpg,1,,,,,,,,,,,,,,,,
,,,A3QYA7EFCS7BA2,35,female,7,2022-10-19_09h04.54.524,memory_pilot_most_recent,2022.2.4,Win32,3.335145429,,,,,,,,,,,,,,,,,,,,,,,,,1,0,38,38,38,1,2874303365-214262.jpg,2238563377-332054.jpg,2,,,,,,,,,,,,,,,,
,,,A3QYA7EFCS7BA2,35,female,7,2022-10-19_09h04.54.524,memory_pilot_most_recent,2022.2.4,Win32,3.335145429,,,,,,,,,,,,,,,,,,,,,,,,,1,0,39,39,39,1,2898618390-216538.jpg,2986449336-296644.jpg,1,,,,,,,,,,,,,,,,
,,,A3QYA7EFCS7BA2,35,female,7,2022-10-19_09h04.54.524,memory_pilot_most_recent,2022.2.4,Win32,3.335145429,,,,,,,,,,,,,,,,,,,,,,,,left,1,0,40,40,40,1,left.jpg,,,left,0.5702,,,,,,,,,,,,,,
,,,A3QYA7EFCS7BA2,35,female,7,2022-10-19_09h04.54.524,memory_pilot_most_recent,2022.2.4,Win32,3.335145429,,,,,,,,,,,,,,,,,,,,,,,,,1,0,41,41,41,1,2460547467-349421.jpg,2898631394-142727.jpg,1,,,,,,,,,,,,,,,,
,,,A3QYA7EFCS7BA2,35,female,7,2022-10-19_09h04.54.524,memory_pilot_most_recent,2022.2.4,Win32,3.335145429,,,,,,,,,,,,,,,,,,,,,,,,,1,0,42,42,42,1,2874299429-139695.jpg,2446760917-347439.jpg,3,,,,,,,,,,,,,,,,
,,,A3QYA7EFCS7BA2,35,female,7,2022-10-19_09h04.54.524,memory_pilot_most_recent,2022.2.4,Win32,3.335145429,,,,,,,,,,,,,,,,,,,,,,,,,1,0,43,43,43,1,2883256307-365057.jpg,2964210336-293945.jpg,2,,,,,,,,,,,,,,,,
,,,A3QYA7EFCS7BA2,35,female,7,2022-10-19_09h04.54.524,memory_pilot_most_recent,2022.2.4,Win32,3.335145429,,,,,,,,,,,,,,,,,,,,,,,,,1,0,44,44,44,1,2575120738-55529.jpg,2238531493-28260.jpg,3,,,,,,,,,,,,,,,,
,,,A3QYA7EFCS7BA2,35,female,7,2022-10-19_09h04.54.524,memory_pilot_most_recent,2022.2.4,Win32,3.335145429,,,,,,,,,,,,,,,,,,,,,,,,,1,0,45,45,45,1,2864907432-362042.jpg,2864901420-212147.jpg,1,,,,,,,,,,,,,,,,
,,,A3QYA7EFCS7BA2,35,female,7,2022-10-19_09h04.54.524,memory_pilot_most_recent,2022.2.4,Win32,3.335145429,,,,,,,,,,,,,,,,,,,,,,,,,1,0,46,46,46,1,2964216465-219242.jpg,2238544191-252422.jpg,1,,,,,,,,,,,,,,,,
,,,A3QYA7EFCS7BA2,35,female,7,2022-10-19_09h04.54.524,memory_pilot_most_recent,2022.2.4,Win32,3.335145429,,,,,,,,,,,,,,,,,,,,,,,,,1,0,47,47,47,1,2238428357-313623.jpg,2984615361-295509.jpg,2,,,,,,,,,,,,,,,,
,,,A3QYA7EFCS7BA2,35,female,7,2022-10-19_09h04.54.524,memory_pilot_most_recent,2022.2.4,Win32,3.335145429,,,,,,,,,,,,,,,,,,,,,,,,,1,0,48,48,48,1,2964213381-294060.jpg,2458348012-349114.jpg,2,,,,,,,,,,,,,,,,
,,,A3QYA7EFCS7BA2,35,female,7,2022-10-19_09h04.54.524,memory_pilot_most_recent,2022.2.4,Win32,3.335145429,,,,,,,,,,,,,,,,,,,,,,,,,1,0,49,49,49,1,2898618444-142233.jpg,2898631359-142721.jpg,1,,,,,,,,,,,,,,,,
,,,A3QYA7EFCS7BA2,35,female,7,2022-10-19_09h04.54.524,memory_pilot_most_recent,2022.2.4,Win32,3.335145429,,,,,,,,,,,,,,,,,,,,,,,,,1,0,50,50,50,1,2238425482-313537.jpg,2238471391-240918.jpg,1,,,,,,,,,,,,,,,,
,,,A3QYA7EFCS7BA2,35,female,7,2022-10-19_09h04.54.524,memory_pilot_most_recent,2022.2.4,Win32,3.335145429,,,,,,,,,,,,,,,,,,,,,,,,right,1,0,51,51,51,1,right.jpg,,,right,0.5937,,,,,,,,,,,,,,
,,,A3QYA7EFCS7BA2,35,female,7,2022-10-19_09h04.54.524,memory_pilot_most_recent,2022.2.4,Win32,3.335145429,,,,,,,,,,,,,,,,,,,,,,,,,1,0,52,52,52,1,2238580740-186218.jpg,2964220333-71258.jpg,3,,,,,,,,,,,,,,,,
,,,A3QYA7EFCS7BA2,35,female,7,2022-10-19_09h04.54.524,memory_pilot_most_recent,2022.2.4,Win32,3.335145429,,,,,,,,,,,,,,,,,,,,,,,,,1,0,53,53,53,1,2238480677-317399.jpg,2238481630-168218.jpg,1,,,,,,,,,,,,,,,,
,,,A3QYA7EFCS7BA2,35,female,7,2022-10-19_09h04.54.524,memory_pilot_most_recent,2022.2.4,Win32,3.335145429,,,,,,,,,,,,,,,,,,,,,,,,,1,0,54,54,54,1,2901939379-143480.jpg,2901942428-69919.jpg,1,,,,,,,,,,,,,,,,
,,,A3QYA7EFCS7BA2,35,female,7,2022-10-19_09h04.54.524,memory_pilot_most_recent,2022.2.4,Win32,3.335145429,,,,,,,,,,,,,,,,,,,,,,,,,1,0,55,55,55,1,2868474407-362883.jpg,2981246400-220363.jpg,2,,,,,,,,,,,,,,,,
,,,A3QYA7EFCS7BA2,35,female,7,2022-10-19_09h04.54.524,memory_pilot_most_recent,2022.2.4,Win32,3.335145429,,,,,,,,,,,,,,,,,,,,,,,,,1,0,56,56,56,1,2898634397-367080.jpg,2964217461-294238.jpg,3,,,,,,,,,,,,,,,,
,,,A3QYA7EFCS7BA2,35,female,7,2022-10-19_09h04.54.524,memory_pilot_most_recent,2022.2.4,Win32,3.335145429,,,,,,,,,,,,,,,,,,,,,,,,,1,0,57,57,57,1,2238481928-19949.jpg,2864900357-361688.jpg,2,,,,,,,,,,,,,,,,
,,,A3QYA7EFCS7BA2,35,female,7,2022-10-19_09h04.54.524,memory_pilot_most_recent,2022.2.4,Win32,3.335145429,,,,,,,,,,,,,,,,,,,,,,,,,1,0,58,58,58,1,2898624426-291546.jpg,2981235446-294900.jpg,3,,,,,,,,,,,,,,,,
,,,A3QYA7EFCS7BA2,35,female,7,2022-10-19_09h04.54.524,memory_pilot_most_recent,2022.2.4,Win32,3.335145429,,,,,,,,,,,,,,,,,,,,,,,,,1,0,59,59,59,1,2864910426-287204.jpg,2901939433-69672.jpg,3,,,,,,,,,,,,,,,,
,,,A3QYA7EFCS7BA2,35,female,7,2022-10-19_09h04.54.524,memory_pilot_most_recent,2022.2.4,Win32,3.335145429,,,,,,,,,,,,,,,,,,,,,,,,,1,0,60,60,60,1,2512875899-126682.jpg,2986447332-371497.jpg,3,,,,,,,,,,,,,,,,
,,,A3QYA7EFCS7BA2,35,female,7,2022-10-19_09h04.54.524,memory_pilot_most_recent,2022.2.4,Win32,3.335145429,,,,,,,,,,,,,,,,,,,,,,,,,1,0,61,61,61,1,2446758985-197609.jpg,2981240424-145795.jpg,1,,,,,,,,,,,,,,,,
,,,A3QYA7EFCS7BA2,35,female,7,2022-10-19_09h04.54.524,memory_pilot_most_recent,2022.2.4,Win32,3.335145429,,,,,,,,,,,,,,,,,,,,,,,,,1,0,62,62,62,1,2898633421-291973.jpg,2575118671-277663.jpg,2,,,,,,,,,,,,,,,,
,,,A3QYA7EFCS7BA2,35,female,7,2022-10-19_09h04.54.524,memory_pilot_most_recent,2022.2.4,Win32,3.335145429,,,,,,,,,,,,,,,,,,,,,,,,,1,0,63,63,63,1,2238572663-35822.jpg,2864903351-286874.jpg,3,,,,,,,,,,,,,,,,
,,,A3QYA7EFCS7BA2,35,female,7,2022-10-19_09h04.54.524,memory_pilot_most_recent,2022.2.4,Win32,3.335145429,,,,,,,,,,,,,,,,,,,,,,,,,1,0,64,64,64,1,2592380177-354626.jpg,2238117096-228518.jpg,3,,,,,,,,,,,,,,,,
,,,A3QYA7EFCS7BA2,35,female,7,2022-10-19_09h04.54.524,memory_pilot_most_recent,2022.2.4,Win32,3.335145429,,,,,,,,,,,,,,,,,,,,,,,,,,,,,,,,,,,,space,2.4726,,,,,,,,,,,,
,,,A3QYA7EFCS7BA2,35,female,7,2022-10-19_09h04.54.524,memory_pilot_most_recent,2022.2.4,Win32,3.335145429,,,,,,,,,,,,,,,,,,,,,,,,,,,,,,,,,,,,,,,,,,,,,,,,,
,,,A3QYA7EFCS7BA2,35,female,7,2022-10-19_09h04.54.524,memory_pilot_most_recent,2022.2.4,Win32,3.335145429,,,,,,,,,,,,,,,,,,,,,,,,,,,,,,,,,3,left,,,,left,1,1.4462,0,0,0,0,1,2901947423-70311.jpg,2238577590-185467.jpg,,
,,,A3QYA7EFCS7BA2,35,female,7,2022-10-19_09h04.54.524,memory_pilot_most_recent,2022.2.4,Win32,3.335145429,,,,,,,,,,,,,,,,,,,,,,,,,,,,,,,,,1,left,,,,right,0,1.3726,0,1,1,1,1,2898618444-142233.jpg,2898631359-142721.jpg,,
,,,A3QYA7EFCS7BA2,35,female,7,2022-10-19_09h04.54.524,memory_pilot_most_recent,2022.2.4,Win32,3.335145429,,,,,,,,,,,,,,,,,,,,,,,,,,,,,,,,,3,right,,,,left,0,1.292,0,2,2,2,1,2901939433-69672.jpg,2864910426-287204.jpg,,
,,,A3QYA7EFCS7BA2,35,female,7,2022-10-19_09h04.54.524,memory_pilot_most_recent,2022.2.4,Win32,3.335145429,,,,,,,,,,,,,,,,,,,,,,,,,,,,,,,,,2,right,,,,right,1,1.2462,0,3,3,3,1,2238481813-19930.jpg,2452380832-348593.jpg,,
,,,A3QYA7EFCS7BA2,35,female,7,2022-10-19_09h04.54.524,memory_pilot_most_recent,2022.2.4,Win32,3.335145429,,,,,,,,,,,,,,,,,,,,,,,,,,,,,,,,,2,left,,,,left,1,1.4821,0,4,4,4,1,2901939379-143479.jpg,2446758985-197610.jpg,,
,,,A3QYA7EFCS7BA2,35,female,7,2022-10-19_09h04.54.524,memory_pilot_most_recent,2022.2.4,Win32,3.335145429,,,,,,,,,,,,,,,,,,,,,,,,,,,,,,,,,1,left,,,,left,1,1.605,0,5,5,5,1,2238425482-313537.jpg,2238471391-240918.jpg,,
,,,A3QYA7EFCS7BA2,35,female,7,2022-10-19_09h04.54.524,memory_pilot_most_recent,2022.2.4,Win32,3.335145429,,,,,,,,,,,,,,,,,,,,,,,,,,,,,,,,,3,left,,,,left,1,1.2695,0,6,6,6,1,2575120738-55529.jpg,2238531493-28260.jpg,,
,,,A3QYA7EFCS7BA2,35,female,7,2022-10-19_09h04.54.524,memory_pilot_most_recent,2022.2.4,Win32,3.335145429,,,,,,,,,,,,,,,,,,,,,,,,,,,,,,,,,3,right,,,,left,0,1.802,0,7,7,7,1,2964217461-294238.jpg,2898634397-367080.jpg,,
,,,A3QYA7EFCS7BA2,35,female,7,2022-10-19_09h04.54.524,memory_pilot_most_recent,2022.2.4,Win32,3.335145429,,,,,,,,,,,,,,,,,,,,,,,,,,,,,,,,,1,left,,,,left,1,1.5488,0,8,8,8,1,2460547508-51571.jpg,2460547291-274110.jpg,,
,,,A3QYA7EFCS7BA2,35,female,7,2022-10-19_09h04.54.524,memory_pilot_most_recent,2022.2.4,Win32,3.335145429,,,,,,,,,,,,,,,,,,,,,,,,,,,,,,,,,2,left,,,,left,1,1.5708,0,9,9,9,1,2238481928-19949.jpg,2864900357-361688.jpg,,
,,,A3QYA7EFCS7BA2,35,female,7,2022-10-19_09h04.54.524,memory_pilot_most_recent,2022.2.4,Win32,3.335145429,,,,,,,,,,,,,,,,,,,,,,,,,,,,,,,,,3,right,,,,right,1,1.153,0,10,10,10,1,2964207374-144577.jpg,2898617468-68274.jpg,,
,,,A3QYA7EFCS7BA2,35,female,7,2022-10-19_09h04.54.524,memory_pilot_most_recent,2022.2.4,Win32,3.335145429,,,,,,,,,,,,,,,,,,,,,,,,,,,,,,,,,1,left,,,,left,1,1.6233,0,11,11,11,1,2864907432-362042.jpg,2864901420-212147.jpg,,
,,,A3QYA7EFCS7BA2,35,female,7,2022-10-19_09h04.54.524,memory_pilot_most_recent,2022.2.4,Win32,3.335145429,,,,,,,,,,,,,,,,,,,,,,,,,,,,,,,,,1,right,,,,right,1,1.5867,0,12,12,12,1,2898618327-366317.jpg,2901941401-292798.jpg,,
,,,A3QYA7EFCS7BA2,35,female,7,2022-10-19_09h04.54.524,memory_pilot_most_recent,2022.2.4,Win32,3.335145429,,,,,,,,,,,,,,,,,,,,,,,,,,,,,,,,,2,left,,,,left,1,1.5512,0,13,13,13,1,2964218374-144967.jpg,2883254439-140940.jpg,,
,,,A3QYA7EFCS7BA2,35,female,7,2022-10-19_09h04.54.524,memory_pilot_most_recent,2022.2.4,Win32,3.335145429,,,,,,,,,,,,,,,,,,,,,,,,,,,,,,,,,2,left,,,,left,1,1.3653,0,14,14,14,1,2898633421-291973.jpg,2575118671-277663.jpg,,
,,,A3QYA7EFCS7BA2,35,female,7,2022-10-19_09h04.54.524,memory_pilot_most_recent,2022.2.4,Win32,3.335145429,,,,,,,,,,,,,,,,,,,,,,,,,,,,,,,,,1,right,,,,right,1,1.3148,0,15,15,15,1,2446759803-49251.jpg,2449442529-124446.jpg,,
,,,A3QYA7EFCS7BA2,35,female,7,2022-10-19_09h04.54.524,memory_pilot_most_recent,2022.2.4,Win32,3.335145429,,,,,,,,,,,,,,,,,,,,,,,,,,,,,,,,,3,right,,,,left,0,1.6034,0,16,16,16,1,2964220333-71258.jpg,2238580740-186218.jpg,,
,,,A3QYA7EFCS7BA2,35,female,7,2022-10-19_09h04.54.524,memory_pilot_most_recent,2022.2.4,Win32,3.335145429,,,,,,,,,,,,,,,,,,,,,,,,,,,,,,,,,3,right,,,,right,1,1.9408,0,17,17,17,1,2901947448-70314.jpg,2883268471-290842.jpg,,
,,,A3QYA7EFCS7BA2,35,female,7,2022-10-19_09h04.54.524,memory_pilot_most_recent,2022.2.4,Win32,3.335145429,,,,,,,,,,,,,,,,,,,,,,,,,,,,,,,,,1,left,,,,right,0,2.0909,0,18,18,18,1,2452381505-199546.jpg,2901938432-367627.jpg,,
,,,A3QYA7EFCS7BA2,35,female,7,2022-10-19_09h04.54.524,memory_pilot_most_recent,2022.2.4,Win32,3.335145429,,,,,,,,,,,,,,,,,,,,,,,,,,,,,,,,,3,left,,,,left,1,1.4117,0,19,19,19,1,2512875899-126682.jpg,2986447332-371497.jpg,,
,,,A3QYA7EFCS7BA2,35,female,7,2022-10-19_09h04.54.524,memory_pilot_most_recent,2022.2.4,Win32,3.335145429,,,,,,,,,,,,,,,,,,,,,,,,,,,,,,,,,2,left,,,,left,1,1.3795,0,20,20,20,1,2238481198-19822.jpg,2901946436-293242.jpg,,
,,,A3QYA7EFCS7BA2,35,female,7,2022-10-19_09h04.54.524,memory_pilot_most_recent,2022.2.4,Win32,3.335145429,,,,,,,,,,,,,,,,,,,,,,,,,,,,,,,,,1,left,,,,left,1,1.442,0,21,21,21,1,2238560245-182099.jpg,2549106624-127823.jpg,,
,,,A3QYA7EFCS7BA2,35,female,7,2022-10-19_09h04.54.524,memory_pilot_most_recent,2022.2.4,Win32,3.335145429,,,,,,,,,,,,,,,,,,,,,,,,,,,,,,,,,3,left,,,,left,1,1.4883,0,22,22,22,1,2898635428-69104.jpg,2898625336-291572.jpg,,
,,,A3QYA7EFCS7BA2,35,female,7,2022-10-19_09h04.54.524,memory_pilot_most_recent,2022.2.4,Win32,3.335145429,,,,,,,,,,,,,,,,,,,,,,,,,,,,,,,,,3,left,,,,left,1,1.4835,0,23,23,23,1,2592380177-354629.jpg,2512875587-350044.jpg,,
,,,A3QYA7EFCS7BA2,35,female,7,2022-10-19_09h04.54.524,memory_pilot_most_recent,2022.2.4,Win32,3.335145429,,,,,,,,,,,,,,,,,,,,,,,,,,,,,,,,,2,left,,,,left,1,1.1317,0,24,24,24,1,2446759347-347016.jpg,2901951350-218702.jpg,,
,,,A3QYA7EFCS7BA2,35,female,7,2022-10-19_09h04.54.524,memory_pilot_most_recent,2022.2.4,Win32,3.335145429,,,,,,,,,,,,,,,,,,,,,,,,,,,,,,,,,3,right,,,,right,1,1.6298,0,25,25,25,1,2898632385-217137.jpg,2449442529-124445.jpg,,
,,,A3QYA7EFCS7BA2,35,female,7,2022-10-19_09h04.54.524,memory_pilot_most_recent,2022.2.4,Win32,3.335145429,,,,,,,,,,,,,,,,,,,,,,,,,,,,,,,,,3,right,,,,right,1,1.4702,0,26,26,26,1,2238117096-228518.jpg,2592380177-354626.jpg,,
,,,A3QYA7EFCS7BA2,35,female,7,2022-10-19_09h04.54.524,memory_pilot_most_recent,2022.2.4,Win32,3.335145429,,,,,,,,,,,,,,,,,,,,,,,,,,,,,,,,,3,right,,,,right,1,1.5472,0,27,27,27,1,2864903351-286874.jpg,2238572663-35822.jpg,,
,,,A3QYA7EFCS7BA2,35,female,7,2022-10-19_09h04.54.524,memory_pilot_most_recent,2022.2.4,Win32,3.335145429,,,,,,,,,,,,,,,,,,,,,,,,,,,,,,,,,1,right,,,,right,1,1.5316,0,28,28,28,1,2898618440-216545.jpg,2460547467-349422.jpg,,
,,,A3QYA7EFCS7BA2,35,female,7,2022-10-19_09h04.54.524,memory_pilot_most_recent,2022.2.4,Win32,3.335145429,,,,,,,,,,,,,,,,,,,,,,,,,,,,,,,,,1,left,,,,left,1,1.1082,0,29,29,29,1,2592379964-131054.jpg,2575963989-130576.jpg,,
,,,A3QYA7EFCS7BA2,35,female,7,2022-10-19_09h04.54.524,memory_pilot_most_recent,2022.2.4,Win32,3.335145429,,,,,,,,,,,,,,,,,,,,,,,,,,,,,,,,,2,right,,,,right,1,1.5162,0,30,30,30,1,2458348012-349114.jpg,2964213381-294060.jpg,,
,,,A3QYA7EFCS7BA2,35,female,7,2022-10-19_09h04.54.524,memory_pilot_most_recent,2022.2.4,Win32,3.335145429,,,,,,,,,,,,,,,,,,,,,,,,,,,,,,,,,1,right,,,,left,0,1.4265,0,31,31,31,1,2238480434-93829.jpg,2458347385-199723.jpg,,
,,,A3QYA7EFCS7BA2,35,female,7,2022-10-19_09h04.54.524,memory_pilot_most_recent,2022.2.4,Win32,3.335145429,,,,,,,,,,,,,,,,,,,,,,,,,,,,,,,,,1,right,,,,right,1,1.5269,0,32,32,32,1,2446760601-272099.jpg,2446759803-49249.jpg,,
,,,A3QYA7EFCS7BA2,35,female,7,2022-10-19_09h04.54.524,memory_pilot_most_recent,2022.2.4,Win32,3.335145429,,,,,,,,,,,,,,,,,,,,,,,,,,,,,,,,,2,left,,,,left,1,1.0756,0,33,33,33,1,2874303365-214262.jpg,2238563377-332054.jpg,,
,,,A3QYA7EFCS7BA2,35,female,7,2022-10-19_09h04.54.524,memory_pilot_most_recent,2022.2.4,Win32,3.335145429,,,,,,,,,,,,,,,,,,,,,,,,,,,,,,,,,2,right,,,,right,1,1.6188,0,34,34,34,1,2981244403-72215.jpg,2981231403-71642.jpg,,
,,,A3QYA7EFCS7BA2,35,female,7,2022-10-19_09h04.54.524,memory_pilot_most_recent,2022.2.4,Win32,3.335145429,,,,,,,,,,,,,,,,,,,,,,,,,,,,,,,,,1,left,,,,left,1,1.6284,0,35,35,35,1,2460547467-349421.jpg,2898631394-142727.jpg,,
,,,A3QYA7EFCS7BA2,35,female,7,2022-10-19_09h04.54.524,memory_pilot_most_recent,2022.2.4,Win32,3.335145429,,,,,,,,,,,,,,,,,,,,,,,,,,,,,,,,,3,left,,,,right,0,2.6743,0,36,36,36,1,2883268412-365898.jpg,2238436252-314037.jpg,,
,,,A3QYA7EFCS7BA2,35,female,7,2022-10-19_09h04.54.524,memory_pilot_most_recent,2022.2.4,Win32,3.335145429,,,,,,,,,,,,,,,,,,,,,,,,,,,,,,,,,1,right,,,,right,1,1.5028,0,37,37,37,1,2238544191-252422.jpg,2964216465-219242.jpg,,
,,,A3QYA7EFCS7BA2,35,female,7,2022-10-19_09h04.54.524,memory_pilot_most_recent,2022.2.4,Win32,3.335145429,,,,,,,,,,,,,,,,,,,,,,,,,,,,,,,,,1,right,,,,right,1,1.1862,0,38,38,38,1,2981240424-145795.jpg,2446758985-197609.jpg,,
,,,A3QYA7EFCS7BA2,35,female,7,2022-10-19_09h04.54.524,memory_pilot_most_recent,2022.2.4,Win32,3.335145429,,,,,,,,,,,,,,,,,,,,,,,,,,,,,,,,,2,right,,,,right,1,1.4553,0,39,39,39,1,2417208001-267065.jpg,2901948350-218459.jpg,,
,,,A3QYA7EFCS7BA2,35,female,7,2022-10-19_09h04.54.524,memory_pilot_most_recent,2022.2.4,Win32,3.335145429,,,,,,,,,,,,,,,,,,,,,,,,,,,,,,,,,2,right,,,,right,1,1.2653,0,40,40,40,1,2984615361-295509.jpg,2238428357-313623.jpg,,
,,,A3QYA7EFCS7BA2,35,female,7,2022-10-19_09h04.54.524,memory_pilot_most_recent,2022.2.4,Win32,3.335145429,,,,,,,,,,,,,,,,,,,,,,,,,,,,,,,,,2,right,,,,right,1,1.5577,0,41,41,41,1,2981246400-220365.jpg,2874307433-66280.jpg,,
,,,A3QYA7EFCS7BA2,35,female,7,2022-10-19_09h04.54.524,memory_pilot_most_recent,2022.2.4,Win32,3.335145429,,,,,,,,,,,,,,,,,,,,,,,,,,,,,,,,,1,right,,,,right,1,1.3653,0,42,42,42,1,2898626385-216899.jpg,2874302418-65978.jpg,,
,,,A3QYA7EFCS7BA2,35,female,7,2022-10-19_09h04.54.524,memory_pilot_most_recent,2022.2.4,Win32,3.335145429,,,,,,,,,,,,,,,,,,,,,,,,,,,,,,,,,2,right,,,,left,0,1.4566,0,43,43,43,1,2901941438-69836.jpg,2964223381-294447.jpg,,
,,,A3QYA7EFCS7BA2,35,female,7,2022-10-19_09h04.54.524,memory_pilot_most_recent,2022.2.4,Win32,3.335145429,,,,,,,,,,,,,,,,,,,,,,,,,,,,,,,,,1,left,,,,left,1,1.3672,0,44,44,44,1,2874302418-65979.jpg,2413147898-43548.jpg,,
,,,A3QYA7EFCS7BA2,35,female,7,2022-10-19_09h04.54.524,memory_pilot_most_recent,2022.2.4,Win32,3.335145429,,,,,,,,,,,,,,,,,,,,,,,,,,,,,,,,,1,right,,,,right,1,2.0954,0,45,45,45,1,2901942428-69919.jpg,2901939379-143480.jpg,,
,,,A3QYA7EFCS7BA2,35,female,7,2022-10-19_09h04.54.524,memory_pilot_most_recent,2022.2.4,Win32,3.335145429,,,,,,,,,,,,,,,,,,,,,,,,,,,,,,,,,3,left,,,,left,1,1.8042,0,46,46,46,1,2874299429-139695.jpg,2446760917-347439.jpg,,
,,,A3QYA7EFCS7BA2,35,female,7,2022-10-19_09h04.54.524,memory_pilot_most_recent,2022.2.4,Win32,3.335145429,,,,,,,,,,,,,,,,,,,,,,,,,,,,,,,,,3,left,,,,left,1,1.4176,0,47,47,47,1,2981241414-145842.jpg,2427873848-47312.jpg,,
,,,A3QYA7EFCS7BA2,35,female,7,2022-10-19_09h04.54.524,memory_pilot_most_recent,2022.2.4,Win32,3.335145429,,,,,,,,,,,,,,,,,,,,,,,,,,,,,,,,,3,right,,,,right,1,1.8301,0,48,48,48,1,2868474407-362885.jpg,2868475410-213219.jpg,,
,,,A3QYA7EFCS7BA2,35,female,7,2022-10-19_09h04.54.524,memory_pilot_most_recent,2022.2.4,Win32,3.335145429,,,,,,,,,,,,,,,,,,,,,,,,,,,,,,,,,3,left,,,,left,1,1.4154,0,49,49,49,1,2898624426-291546.jpg,2981235446-294900.jpg,,
,,,A3QYA7EFCS7BA2,35,female,7,2022-10-19_09h04.54.524,memory_pilot_most_recent,2022.2.4,Win32,3.335145429,,,,,,,,,,,,,,,,,,,,,,,,,,,,,,,,,2,right,,,,left,0,1.8776,0,50,50,50,1,2964210336-293945.jpg,2883256307-365057.jpg,,
,,,A3QYA7EFCS7BA2,35,female,7,2022-10-19_09h04.54.524,memory_pilot_most_recent,2022.2.4,Win32,3.335145429,,,,,,,,,,,,,,,,,,,,,,,,,,,,,,,,,2,right,,,,right,1,2.1498,0,51,51,51,1,2984615358-72439.jpg,2449441881-272368.jpg,,
,,,A3QYA7EFCS7BA2,35,female,7,2022-10-19_09h04.54.524,memory_pilot_most_recent,2022.2.4,Win32,3.335145429,,,,,,,,,,,,,,,,,,,,,,,,,,,,,,,,,1,left,,,,left,1,1.0777,0,52,52,52,1,2898618390-216538.jpg,2986449336-296644.jpg,,
,,,A3QYA7EFCS7BA2,35,female,7,2022-10-19_09h04.54.524,memory_pilot_most_recent,2022.2.4,Win32,3.335145429,,,,,,,,,,,,,,,,,,,,,,,,,,,,,,,,,2,left,,,,left,1,1.9842,0,53,53,53,1,2868474407-362883.jpg,2981246400-220363.jpg,,
,,,A3QYA7EFCS7BA2,35,female,7,2022-10-19_09h04.54.524,memory_pilot_most_recent,2022.2.4,Win32,3.335145429,,,,,,,,,,,,,,,,,,,,,,,,,,,,,,,,,2,right,,,,right,1,1.3321,0,54,54,54,1,2868469411-287540.jpg,2901952513-70703.jpg,,
,,,A3QYA7EFCS7BA2,35,female,7,2022-10-19_09h04.54.524,memory_pilot_most_recent,2022.2.4,Win32,3.335145429,,,,,,,,,,,,,,,,,,,,,,,,,,,,,,,,,1,left,,,,left,1,1.0413,0,55,55,55,1,2238480677-317399.jpg,2238481630-168218.jpg,,
,,,A3QYA7EFCS7BA2,35,female,7,2022-10-19_09h04.54.524,memory_pilot_most_recent,2022.2.4,Win32,3.335145429,,,,,,,,,,,,,,,,,,,,,,,,,,,,,,,,,3,right,,,,right,1,1.8948,0,56,56,56,1,2901947323-70275.jpg,2874301407-363895.jpg,,
,,,A3QYA7EFCS7BA2,35,female,7,2022-10-19_09h04.54.524,memory_pilot_most_recent,2022.2.4,Win32,3.335145429,,,,,,,,,,,,,,,,,,,,,,,,,,,,,,,,,2,right,,,,right,1,2.0996,0,57,57,57,1,2868479517-363220.jpg,2898635427-367120.jpg,,
,,,A3QYA7EFCS7BA2,35,female,7,2022-10-19_09h04.54.524,memory_pilot_most_recent,2022.2.4,Win32,3.335145429,,,,,,,,,,,,,,,,,,,,,,,,,,,,,,,,,2,left,,,,left,1,1.3279,0,58,58,58,1,2986451363-73599.jpg,2860302315-210704.jpg,,
,,,A3QYA7EFCS7BA2,35,female,7,2022-10-19_09h04.54.524,memory_pilot_most_recent,2022.2.4,Win32,3.335145429,,,,,,,,,,,,,,,,,,,,,,,,,,,,,,,,,3,right,,,,left,0,1.9593,0,59,59,59,1,2981231446-294730.jpg,2883254439-140941.jpg,,
,,,A3QYA7EFCS7BA2,35,female,7,2022-10-19_09h04.54.524,memory_pilot_most_recent,2022.2.4,Win32,3.335145429,,,,,,,,,,,,,,,,,,,,,,,,,,,,,,,,,,,,,,,,,,,,,,,,space,3.9378
