button.numClicks,button.timesOn,button.timesOff,workID,Age,Gender,Hours slept (last night),date,expName,psychopyVersion,OS,frameRate,space_key_responce.keys,space_key_responce.rt,demo_encoding_response.keys,demo_encoding_response.corr,demo_encoding_loop.thisRepN,demo_encoding_loop.thisTrialN,demo_encoding_loop.thisN,demo_encoding_loop.thisIndex,demo_encoding_loop.ran,DemoImage,DemoCorrect,demo_encoding_response.rt,demo_test_response.keys,demo_test_response.corr,demo_test_response.rt,demo_test_loop.thisRepN,demo_test_loop.thisTrialN,demo_test_loop.thisN,demo_test_loop.thisIndex,demo_test_loop.ran,DemoImage1,DemoImage2,DemoCorrectTest,test_encoding_response.keys,test_encoding_response.corr,trials.thisRepN,trials.thisTrialN,trials.thisN,trials.thisIndex,trials.ran,target_image,pair,layer,correct,test_encoding_response.rt,key_resp_end.keys,key_resp_end.rt,test_test_response.keys,test_test_response.corr,test_test_response.rt,trials_2.thisRepN,trials_2.thisTrialN,trials_2.thisN,trials_2.thisIndex,trials_2.ran,image1,image2,key_resp_end_2.keys,key_resp_end_2.rt
1,[163.726],[163.726],ACUK17I51KVXF,29,male,8,2022-10-19_10h23.23.440,memory_pilot_most_recent,2022.2.4,Win32,2.909090909,,,,,,,,,,,,,,,,,,,,,,,,,,,,,,,,,,,,,,,,,,,,,,,,,
,,,ACUK17I51KVXF,29,male,8,2022-10-19_10h23.23.440,memory_pilot_most_recent,2022.2.4,Win32,2.909090909,,,,,,,,,,,,,,,,,,,,,,,,,,,,,,,,,,,,,,,,,,,,,,,,,
,,,ACUK17I51KVXF,29,male,8,2022-10-19_10h23.23.440,memory_pilot_most_recent,2022.2.4,Win32,2.909090909,space,0.955,,,,,,,,,,,,,,,,,,,,,,,,,,,,,,,,,,,,,,,,,,,,,,,
,,,ACUK17I51KVXF,29,male,8,2022-10-19_10h23.23.440,memory_pilot_most_recent,2022.2.4,Win32,2.909090909,,,,,,,,,,,,,,,,,,,,,,,,,,,,,,,,,,,,,,,,,,,,,,,,,
,,,ACUK17I51KVXF,29,male,8,2022-10-19_10h23.23.440,memory_pilot_most_recent,2022.2.4,Win32,2.909090909,,,,1,0,0,0,0,1,flower1.jpg,,,,,,,,,,,,,,,,,,,,,,,,,,,,,,,,,,,,,,,
,,,ACUK17I51KVXF,29,male,8,2022-10-19_10h23.23.440,memory_pilot_most_recent,2022.2.4,Win32,2.909090909,,,,1,0,1,1,1,1,flower2.jpg,,,,,,,,,,,,,,,,,,,,,,,,,,,,,,,,,,,,,,,
,,,ACUK17I51KVXF,29,male,8,2022-10-19_10h23.23.440,memory_pilot_most_recent,2022.2.4,Win32,2.909090909,,,left,1,0,2,2,2,1,left.jpg,left,1.715,,,,,,,,,,,,,,,,,,,,,,,,,,,,,,,,,,,,,
,,,ACUK17I51KVXF,29,male,8,2022-10-19_10h23.23.440,memory_pilot_most_recent,2022.2.4,Win32,2.909090909,,,,1,0,3,3,3,1,flower3.jpg,,,,,,,,,,,,,,,,,,,,,,,,,,,,,,,,,,,,,,,
,,,ACUK17I51KVXF,29,male,8,2022-10-19_10h23.23.440,memory_pilot_most_recent,2022.2.4,Win32,2.909090909,,,,1,0,4,4,4,1,flower4.jpg,,,,,,,,,,,,,,,,,,,,,,,,,,,,,,,,,,,,,,,
,,,ACUK17I51KVXF,29,male,8,2022-10-19_10h23.23.440,memory_pilot_most_recent,2022.2.4,Win32,2.909090909,,,,1,0,5,5,5,1,flower5.jpg,,,,,,,,,,,,,,,,,,,,,,,,,,,,,,,,,,,,,,,
,,,ACUK17I51KVXF,29,male,8,2022-10-19_10h23.23.440,memory_pilot_most_recent,2022.2.4,Win32,2.909090909,,,,1,0,6,6,6,1,flower6.jpg,,,,,,,,,,,,,,,,,,,,,,,,,,,,,,,,,,,,,,,
,,,ACUK17I51KVXF,29,male,8,2022-10-19_10h23.23.440,memory_pilot_most_recent,2022.2.4,Win32,2.909090909,,,,,,,,,,,,,,,,,,,,,,,,,,,,,,,,,,,,,,,,,,,,,,,,,
,,,ACUK17I51KVXF,29,male,8,2022-10-19_10h23.23.440,memory_pilot_most_recent,2022.2.4,Win32,2.909090909,,,,,,,,,,,,,left,1,2.051,0,0,0,0,1,flower1.jpg,flower1_pair.jpg,left,,,,,,,,,,,,,,,,,,,,,,,,,,
,,,ACUK17I51KVXF,29,male,8,2022-10-19_10h23.23.440,memory_pilot_most_recent,2022.2.4,Win32,2.909090909,,,,,,,,,,,,,left,0,5.178,0,1,1,1,1,flower2_pair.jpg,flower2.jpg,right,,,,,,,,,,,,,,,,,,,,,,,,,,
,,,ACUK17I51KVXF,29,male,8,2022-10-19_10h23.23.440,memory_pilot_most_recent,2022.2.4,Win32,2.909090909,,,,,,,,,,,,,left,1,1.885,0,2,2,2,1,flower3.jpg,flower3_pair.jpg,left,,,,,,,,,,,,,,,,,,,,,,,,,,
,,,ACUK17I51KVXF,29,male,8,2022-10-19_10h23.23.440,memory_pilot_most_recent,2022.2.4,Win32,2.909090909,,,,,,,,,,,,,right,0,1.852,0,3,3,3,1,flower4.jpg,flower4_pair.jpg,left,,,,,,,,,,,,,,,,,,,,,,,,,,
,,,ACUK17I51KVXF,29,male,8,2022-10-19_10h23.23.440,memory_pilot_most_recent,2022.2.4,Win32,2.909090909,,,,,,,,,,,,,right,1,1.992,0,4,4,4,1,flower5_pair.jpg,flower5.jpg,right,,,,,,,,,,,,,,,,,,,,,,,,,,
,,,ACUK17I51KVXF,29,male,8,2022-10-19_10h23.23.440,memory_pilot_most_recent,2022.2.4,Win32,2.909090909,,,,,,,,,,,,,left,1,1.507,0,5,5,5,1,flower6.jpg,flower6_pair.jpg,left,,,,,,,,,,,,,,,,,,,,,,,,,,
,,,ACUK17I51KVXF,29,male,8,2022-10-19_10h23.23.440,memory_pilot_most_recent,2022.2.4,Win32,2.909090909,,,,,,,,,,,,,,,,,,,,,,,,,,,,,,,,,,,,,,,,,,,,,,,,,
,,,ACUK17I51KVXF,29,male,8,2022-10-19_10h23.23.440,memory_pilot_most_recent,2022.2.4,Win32,2.909090909,space,2.7,,,,,,,,,,,,,,,,,,,,,,,,,,,,,,,,,,,,,,,,,,,,,,,
,,,ACUK17I51KVXF,29,male,8,2022-10-19_10h23.23.440,memory_pilot_most_recent,2022.2.4,Win32,2.909090909,,,,,,,,,,,,,,,,,,,,,,,,,1,0,0,0,0,1,2460547467-349421.jpg,2452380166-273110.jpg,2,,,,,,,,,,,,,,,,
,,,ACUK17I51KVXF,29,male,8,2022-10-19_10h23.23.440,memory_pilot_most_recent,2022.2.4,Win32,2.909090909,,,,,,,,,,,,,,,,,,,,,,,,,1,0,1,1,1,1,2460547467-349422.jpg,2864909447-362146.jpg,3,,,,,,,,,,,,,,,,
,,,ACUK17I51KVXF,29,male,8,2022-10-19_10h23.23.440,memory_pilot_most_recent,2022.2.4,Win32,2.909090909,,,,,,,,,,,,,,,,,,,,,,,,,1,0,2,2,2,1,2868475410-213219.jpg,2868474407-362885.jpg,3,,,,,,,,,,,,,,,,
,,,ACUK17I51KVXF,29,male,8,2022-10-19_10h23.23.440,memory_pilot_most_recent,2022.2.4,Win32,2.909090909,,,,,,,,,,,,,,,,,,,,,,,,,1,0,3,3,3,1,2898635427-367120.jpg,2901946439-144040.jpg,1,,,,,,,,,,,,,,,,
,,,ACUK17I51KVXF,29,male,8,2022-10-19_10h23.23.440,memory_pilot_most_recent,2022.2.4,Win32,2.909090909,,,,,,,,,,,,,,,,,,,,,,,,,1,0,4,4,4,1,2592380177-354629.jpg,2512875587-350044.jpg,3,,,,,,,,,,,,,,,,
,,,ACUK17I51KVXF,29,male,8,2022-10-19_10h23.23.440,memory_pilot_most_recent,2022.2.4,Win32,2.909090909,,,,,,,,,,,,,,,,,,,,,,,,,1,0,5,5,5,1,2883268412-365898.jpg,2238436252-314037.jpg,3,,,,,,,,,,,,,,,,
,,,ACUK17I51KVXF,29,male,8,2022-10-19_10h23.23.440,memory_pilot_most_recent,2022.2.4,Win32,2.909090909,,,,,,,,,,,,,,,,,,,,,,,,,1,0,6,6,6,1,2238481928-19949.jpg,2981241419-145844.jpg,3,,,,,,,,,,,,,,,,
,,,ACUK17I51KVXF,29,male,8,2022-10-19_10h23.23.440,memory_pilot_most_recent,2022.2.4,Win32,2.909090909,,,,,,,,,,,,,,,,,,,,,,,,,1,0,7,7,7,1,2575120738-55529.jpg,2575120738-55528.jpg,2,,,,,,,,,,,,,,,,
,,,ACUK17I51KVXF,29,male,8,2022-10-19_10h23.23.440,memory_pilot_most_recent,2022.2.4,Win32,2.909090909,,,,,,,,,,,,,,,,,,,,,,,,,1,0,8,8,8,1,2898618390-216538.jpg,2901939327-367670.jpg,2,,,,,,,,,,,,,,,,
,,,ACUK17I51KVXF,29,male,8,2022-10-19_10h23.23.440,memory_pilot_most_recent,2022.2.4,Win32,2.909090909,,,,,,,,,,,,,,,,,,,,,,,,,1,0,9,9,9,1,2452381505-199546.jpg,2901938432-367627.jpg,1,,,,,,,,,,,,,,,,
,,,ACUK17I51KVXF,29,male,8,2022-10-19_10h23.23.440,memory_pilot_most_recent,2022.2.4,Win32,2.909090909,,,,,,,,,,,,,,,,,,,,,,,,,1,0,10,10,10,1,2964218374-144967.jpg,2981231446-294732.jpg,3,,,,,,,,,,,,,,,,
,,,ACUK17I51KVXF,29,male,8,2022-10-19_10h23.23.440,memory_pilot_most_recent,2022.2.4,Win32,2.909090909,,,,,,,,,,,,,,,,,,,,,,,,,1,0,11,11,11,1,2883254439-140941.jpg,2898632385-217136.jpg,2,,,,,,,,,,,,,,,,
,,,ACUK17I51KVXF,29,male,8,2022-10-19_10h23.23.440,memory_pilot_most_recent,2022.2.4,Win32,2.909090909,,,,,,,,,,,,,,,,,,,,,,,,,1,0,12,12,12,1,2592379964-131054.jpg,2592380272-354673.jpg,3,,,,,,,,,,,,,,,,
,,,ACUK17I51KVXF,29,male,8,2022-10-19_10h23.23.440,memory_pilot_most_recent,2022.2.4,Win32,2.909090909,,,,,,,,,,,,,,,,,,,,,,,,,0,0,13,13,13,1,left.jpg,,,left,,,,,,,,,,,,,,,
,,,ACUK17I51KVXF,29,male,8,2022-10-19_10h23.23.440,memory_pilot_most_recent,2022.2.4,Win32,2.909090909,,,,,,,,,,,,,,,,,,,,,,,,,1,0,14,14,14,1,2898634397-367080.jpg,2964217461-294238.jpg,3,,,,,,,,,,,,,,,,
,,,ACUK17I51KVXF,29,male,8,2022-10-19_10h23.23.440,memory_pilot_most_recent,2022.2.4,Win32,2.909090909,,,,,,,,,,,,,,,,,,,,,,,,,1,0,15,15,15,1,2864907432-362042.jpg,2901947423-70310.jpg,2,,,,,,,,,,,,,,,,
,,,ACUK17I51KVXF,29,male,8,2022-10-19_10h23.23.440,memory_pilot_most_recent,2022.2.4,Win32,2.909090909,,,,,,,,,,,,,,,,,,,,,,,,,1,0,16,16,16,1,2874299429-139695.jpg,2901942443-69923.jpg,2,,,,,,,,,,,,,,,,
,,,ACUK17I51KVXF,29,male,8,2022-10-19_10h23.23.440,memory_pilot_most_recent,2022.2.4,Win32,2.909090909,,,,,,,,,,,,,,,,,,,,,,,,,1,0,17,17,17,1,2981241414-145842.jpg,2427873848-47312.jpg,3,,,,,,,,,,,,,,,,
,,,ACUK17I51KVXF,29,male,8,2022-10-19_10h23.23.440,memory_pilot_most_recent,2022.2.4,Win32,2.909090909,,,,,,,,,,,,,,,,,,,,,,,,,1,0,18,18,18,1,2883268471-290842.jpg,2901947448-70314.jpg,3,,,,,,,,,,,,,,,,
,,,ACUK17I51KVXF,29,male,8,2022-10-19_10h23.23.440,memory_pilot_most_recent,2022.2.4,Win32,2.909090909,,,,,,,,,,,,,,,,,,,,,,,,,1,0,19,19,19,1,2964213381-294060.jpg,2981244394-145974.jpg,1,,,,,,,,,,,,,,,,
,,,ACUK17I51KVXF,29,male,8,2022-10-19_10h23.23.440,memory_pilot_most_recent,2022.2.4,Win32,2.909090909,,,,,,,,,,,,,,,,,,,,,,,,,1,0,20,20,20,1,2452380832-348593.jpg,2449442181-272436.jpg,3,,,,,,,,,,,,,,,,
,,,ACUK17I51KVXF,29,male,8,2022-10-19_10h23.23.440,memory_pilot_most_recent,2022.2.4,Win32,2.909090909,,,,,,,,,,,,,,,,,,,,,,,,,1,0,21,21,21,1,2964216465-219242.jpg,2864900319-137787.jpg,2,,,,,,,,,,,,,,,,
,,,ACUK17I51KVXF,29,male,8,2022-10-19_10h23.23.440,memory_pilot_most_recent,2022.2.4,Win32,2.909090909,,,,,,,,,,,,,,,,,,,,,,,,,1,0,22,22,22,1,2901941401-292798.jpg,2981243412-370222.jpg,2,,,,,,,,,,,,,,,,
,,,ACUK17I51KVXF,29,male,8,2022-10-19_10h23.23.440,memory_pilot_most_recent,2022.2.4,Win32,2.909090909,,,,,,,,,,,,,,,,,,,,,,,,left,1,0,23,23,23,1,left.jpg,,,left,1.526,,,,,,,,,,,,,,
,,,ACUK17I51KVXF,29,male,8,2022-10-19_10h23.23.440,memory_pilot_most_recent,2022.2.4,Win32,2.909090909,,,,,,,,,,,,,,,,,,,,,,,,,1,0,24,24,24,1,2874301407-363895.jpg,2883264368-67631.jpg,1,,,,,,,,,,,,,,,,
,,,ACUK17I51KVXF,29,male,8,2022-10-19_10h23.23.440,memory_pilot_most_recent,2022.2.4,Win32,2.909090909,,,,,,,,,,,,,,,,,,,,,,,,,1,0,25,25,25,1,2238560245-182099.jpg,2549106624-127823.jpg,1,,,,,,,,,,,,,,,,
,,,ACUK17I51KVXF,29,male,8,2022-10-19_10h23.23.440,memory_pilot_most_recent,2022.2.4,Win32,2.909090909,,,,,,,,,,,,,,,,,,,,,,,,,1,0,26,26,26,1,2986451363-73599.jpg,2901939327-367669.jpg,1,,,,,,,,,,,,,,,,
,,,ACUK17I51KVXF,29,male,8,2022-10-19_10h23.23.440,memory_pilot_most_recent,2022.2.4,Win32,2.909090909,,,,,,,,,,,,,,,,,,,,,,,,,1,0,27,27,27,1,2446759347-347016.jpg,2964224310-219528.jpg,1,,,,,,,,,,,,,,,,
,,,ACUK17I51KVXF,29,male,8,2022-10-19_10h23.23.440,memory_pilot_most_recent,2022.2.4,Win32,2.909090909,,,,,,,,,,,,,,,,,,,,,,,,,1,0,28,28,28,1,2238428357-313623.jpg,2238499057-320266.jpg,1,,,,,,,,,,,,,,,,
,,,ACUK17I51KVXF,29,male,8,2022-10-19_10h23.23.440,memory_pilot_most_recent,2022.2.4,Win32,2.909090909,,,,,,,,,,,,,,,,,,,,,,,,,1,0,29,29,29,1,2901947423-70311.jpg,2238577590-185467.jpg,3,,,,,,,,,,,,,,,,
,,,ACUK17I51KVXF,29,male,8,2022-10-19_10h23.23.440,memory_pilot_most_recent,2022.2.4,Win32,2.909090909,,,,,,,,,,,,,,,,,,,,,,,,,1,0,30,30,30,1,2238481198-19822.jpg,2862691449-137104.jpg,1,,,,,,,,,,,,,,,,
,,,ACUK17I51KVXF,29,male,8,2022-10-19_10h23.23.440,memory_pilot_most_recent,2022.2.4,Win32,2.909090909,,,,,,,,,,,,,,,,,,,,,,,,,1,0,31,31,31,1,2901939379-143480.jpg,2901938432-367629.jpg,3,,,,,,,,,,,,,,,,
,,,ACUK17I51KVXF,29,male,8,2022-10-19_10h23.23.440,memory_pilot_most_recent,2022.2.4,Win32,2.909090909,,,,,,,,,,,,,,,,,,,,,,,,left,1,0,32,32,32,1,left.jpg,,,left,1.838,,,,,,,,,,,,,,
,,,ACUK17I51KVXF,29,male,8,2022-10-19_10h23.23.440,memory_pilot_most_recent,2022.2.4,Win32,2.909090909,,,,,,,,,,,,,,,,,,,,,,,,,1,0,33,33,33,1,2874302418-65978.jpg,2898633321-291943.jpg,3,,,,,,,,,,,,,,,,
,,,ACUK17I51KVXF,29,male,8,2022-10-19_10h23.23.440,memory_pilot_most_recent,2022.2.4,Win32,2.909090909,,,,,,,,,,,,,,,,,,,,,,,,,1,0,34,34,34,1,2901948350-218459.jpg,2417208001-267065.jpg,2,,,,,,,,,,,,,,,,
,,,ACUK17I51KVXF,29,male,8,2022-10-19_10h23.23.440,memory_pilot_most_recent,2022.2.4,Win32,2.909090909,,,,,,,,,,,,,,,,,,,,,,,,,1,0,35,35,35,1,2883256307-365057.jpg,2864904453-63933.jpg,3,,,,,,,,,,,,,,,,
,,,ACUK17I51KVXF,29,male,8,2022-10-19_10h23.23.440,memory_pilot_most_recent,2022.2.4,Win32,2.909090909,,,,,,,,,,,,,,,,,,,,,,,,,1,0,36,36,36,1,2901952513-70703.jpg,2238481198-19821.jpg,3,,,,,,,,,,,,,,,,
,,,ACUK17I51KVXF,29,male,8,2022-10-19_10h23.23.440,memory_pilot_most_recent,2022.2.4,Win32,2.909090909,,,,,,,,,,,,,,,,,,,,,,,,,1,0,37,37,37,1,2864910426-287204.jpg,2874299429-139694.jpg,2,,,,,,,,,,,,,,,,
,,,ACUK17I51KVXF,29,male,8,2022-10-19_10h23.23.440,memory_pilot_most_recent,2022.2.4,Win32,2.909090909,,,,,,,,,,,,,,,,,,,,,,,,,1,0,38,38,38,1,2446758985-197609.jpg,2864909447-362144.jpg,2,,,,,,,,,,,,,,,,
,,,ACUK17I51KVXF,29,male,8,2022-10-19_10h23.23.440,memory_pilot_most_recent,2022.2.4,Win32,2.909090909,,,,,,,,,,,,,,,,,,,,,,,,right,1,0,39,39,39,1,right.jpg,,,right,1.894,,,,,,,,,,,,,,
,,,ACUK17I51KVXF,29,male,8,2022-10-19_10h23.23.440,memory_pilot_most_recent,2022.2.4,Win32,2.909090909,,,,,,,,,,,,,,,,,,,,,,,,,1,0,40,40,40,1,2446759803-49249.jpg,2446760601-272099.jpg,1,,,,,,,,,,,,,,,,
,,,ACUK17I51KVXF,29,male,8,2022-10-19_10h23.23.440,memory_pilot_most_recent,2022.2.4,Win32,2.909090909,,,,,,,,,,,,,,,,,,,,,,,,,1,0,41,41,41,1,2238425482-313537.jpg,2238436322-314047.jpg,2,,,,,,,,,,,,,,,,
,,,ACUK17I51KVXF,29,male,8,2022-10-19_10h23.23.440,memory_pilot_most_recent,2022.2.4,Win32,2.909090909,,,,,,,,,,,,,,,,,,,,,,,,,1,0,42,42,42,1,2901939379-143479.jpg,2460547467-349423.jpg,1,,,,,,,,,,,,,,,,
,,,ACUK17I51KVXF,29,male,8,2022-10-19_10h23.23.440,memory_pilot_most_recent,2022.2.4,Win32,2.909090909,,,,,,,,,,,,,,,,,,,,,,,,,1,0,43,43,43,1,2898624426-291546.jpg,2981236443-71859.jpg,2,,,,,,,,,,,,,,,,
,,,ACUK17I51KVXF,29,male,8,2022-10-19_10h23.23.440,memory_pilot_most_recent,2022.2.4,Win32,2.909090909,,,,,,,,,,,,,,,,,,,,,,,,,1,0,44,44,44,1,2238572663-35822.jpg,2986419333-73361.jpg,1,,,,,,,,,,,,,,,,
,,,ACUK17I51KVXF,29,male,8,2022-10-19_10h23.23.440,memory_pilot_most_recent,2022.2.4,Win32,2.909090909,,,,,,,,,,,,,,,,,,,,,,,,,1,0,45,45,45,1,2874302418-65979.jpg,2238480648-19714.jpg,2,,,,,,,,,,,,,,,,
,,,ACUK17I51KVXF,29,male,8,2022-10-19_10h23.23.440,memory_pilot_most_recent,2022.2.4,Win32,2.909090909,,,,,,,,,,,,,,,,,,,,,,,,,1,0,46,46,46,1,2449442529-124445.jpg,2452380171-273112.jpg,1,,,,,,,,,,,,,,,,
,,,ACUK17I51KVXF,29,male,8,2022-10-19_10h23.23.440,memory_pilot_most_recent,2022.2.4,Win32,2.909090909,,,,,,,,,,,,,,,,,,,,,,,,,1,0,47,47,47,1,2449441881-272368.jpg,2984615358-72439.jpg,2,,,,,,,,,,,,,,,,
,,,ACUK17I51KVXF,29,male,8,2022-10-19_10h23.23.440,memory_pilot_most_recent,2022.2.4,Win32,2.909090909,,,,,,,,,,,,,,,,,,,,,,,,right,1,0,48,48,48,1,right.jpg,,,right,1.92,,,,,,,,,,,,,,
,,,ACUK17I51KVXF,29,male,8,2022-10-19_10h23.23.440,memory_pilot_most_recent,2022.2.4,Win32,2.909090909,,,,,,,,,,,,,,,,,,,,,,,,,1,0,49,49,49,1,2512875899-126682.jpg,2986447332-371497.jpg,3,,,,,,,,,,,,,,,,
,,,ACUK17I51KVXF,29,male,8,2022-10-19_10h23.23.440,memory_pilot_most_recent,2022.2.4,Win32,2.909090909,,,,,,,,,,,,,,,,,,,,,,,,,1,0,50,50,50,1,2449442529-124446.jpg,2446759803-49251.jpg,1,,,,,,,,,,,,,,,,
,,,ACUK17I51KVXF,29,male,8,2022-10-19_10h23.23.440,memory_pilot_most_recent,2022.2.4,Win32,2.909090909,,,,,,,,,,,,,,,,,,,,,,,,,1,0,51,51,51,1,2874303365-214262.jpg,2238563377-332054.jpg,2,,,,,,,,,,,,,,,,
,,,ACUK17I51KVXF,29,male,8,2022-10-19_10h23.23.440,memory_pilot_most_recent,2022.2.4,Win32,2.909090909,,,,,,,,,,,,,,,,,,,,,,,,,1,0,52,52,52,1,2460547508-51571.jpg,2981232437-369759.jpg,2,,,,,,,,,,,,,,,,
,,,ACUK17I51KVXF,29,male,8,2022-10-19_10h23.23.440,memory_pilot_most_recent,2022.2.4,Win32,2.909090909,,,,,,,,,,,,,,,,,,,,,,,,,1,0,53,53,53,1,2898618444-142233.jpg,2238555262-330312.jpg,2,,,,,,,,,,,,,,,,
,,,ACUK17I51KVXF,29,male,8,2022-10-19_10h23.23.440,memory_pilot_most_recent,2022.2.4,Win32,2.909090909,,,,,,,,,,,,,,,,,,,,,,,,,1,0,54,54,54,1,2868474407-362883.jpg,2901948383-70363.jpg,3,,,,,,,,,,,,,,,,
,,,ACUK17I51KVXF,29,male,8,2022-10-19_10h23.23.440,memory_pilot_most_recent,2022.2.4,Win32,2.909090909,,,,,,,,,,,,,,,,,,,,,,,,,1,0,55,55,55,1,2898617468-68274.jpg,2864906345-212360.jpg,1,,,,,,,,,,,,,,,,
,,,ACUK17I51KVXF,29,male,8,2022-10-19_10h23.23.440,memory_pilot_most_recent,2022.2.4,Win32,2.909090909,,,,,,,,,,,,,,,,,,,,,,,,,1,0,56,56,56,1,2238580740-186218.jpg,2238521193-26285.jpg,2,,,,,,,,,,,,,,,,
,,,ACUK17I51KVXF,29,male,8,2022-10-19_10h23.23.440,memory_pilot_most_recent,2022.2.4,Win32,2.909090909,,,,,,,,,,,,,,,,,,,,,,,,,1,0,57,57,57,1,2592380177-354626.jpg,2986408339-146952.jpg,1,,,,,,,,,,,,,,,,
,,,ACUK17I51KVXF,29,male,8,2022-10-19_10h23.23.440,memory_pilot_most_recent,2022.2.4,Win32,2.909090909,,,,,,,,,,,,,,,,,,,,,,,,,1,0,58,58,58,1,2981231403-71642.jpg,2274829821-263682.jpg,1,,,,,,,,,,,,,,,,
,,,ACUK17I51KVXF,29,male,8,2022-10-19_10h23.23.440,memory_pilot_most_recent,2022.2.4,Win32,2.909090909,,,,,,,,,,,,,,,,,,,,,,,,,1,0,59,59,59,1,2898633421-291973.jpg,2575118671-277663.jpg,2,,,,,,,,,,,,,,,,
,,,ACUK17I51KVXF,29,male,8,2022-10-19_10h23.23.440,memory_pilot_most_recent,2022.2.4,Win32,2.909090909,,,,,,,,,,,,,,,,,,,,,,,,,1,0,60,60,60,1,2964223381-294447.jpg,2898628438-68785.jpg,3,,,,,,,,,,,,,,,,
,,,ACUK17I51KVXF,29,male,8,2022-10-19_10h23.23.440,memory_pilot_most_recent,2022.2.4,Win32,2.909090909,,,,,,,,,,,,,,,,,,,,,,,,,1,0,61,61,61,1,2458347385-199723.jpg,2238480434-93829.jpg,1,,,,,,,,,,,,,,,,
,,,ACUK17I51KVXF,29,male,8,2022-10-19_10h23.23.440,memory_pilot_most_recent,2022.2.4,Win32,2.909090909,,,,,,,,,,,,,,,,,,,,,,,,,1,0,62,62,62,1,2238480677-317399.jpg,2238481630-168218.jpg,1,,,,,,,,,,,,,,,,
,,,ACUK17I51KVXF,29,male,8,2022-10-19_10h23.23.440,memory_pilot_most_recent,2022.2.4,Win32,2.909090909,,,,,,,,,,,,,,,,,,,,,,,,,1,0,63,63,63,1,2898635428-69104.jpg,2898625336-291572.jpg,3,,,,,,,,,,,,,,,,
,,,ACUK17I51KVXF,29,male,8,2022-10-19_10h23.23.440,memory_pilot_most_recent,2022.2.4,Win32,2.909090909,,,,,,,,,,,,,,,,,,,,,,,,,1,0,64,64,64,1,2874307433-66280.jpg,2986447306-296584.jpg,1,,,,,,,,,,,,,,,,
,,,ACUK17I51KVXF,29,male,8,2022-10-19_10h23.23.440,memory_pilot_most_recent,2022.2.4,Win32,2.909090909,,,,,,,,,,,,,,,,,,,,,,,,,,,,,,,,,,,,space,8.651,,,,,,,,,,,,
,,,ACUK17I51KVXF,29,male,8,2022-10-19_10h23.23.440,memory_pilot_most_recent,2022.2.4,Win32,2.909090909,,,,,,,,,,,,,,,,,,,,,,,,,,,,,,,,,,,,,,,,,,,,,,,,,
,,,ACUK17I51KVXF,29,male,8,2022-10-19_10h23.23.440,memory_pilot_most_recent,2022.2.4,Win32,2.909090909,,,,,,,,,,,,,,,,,,,,,,,,,,,,,,,,,3,left,,,,right,0,2.715,0,0,0,0,1,2512875899-126682.jpg,2986447332-371497.jpg,,
,,,ACUK17I51KVXF,29,male,8,2022-10-19_10h23.23.440,memory_pilot_most_recent,2022.2.4,Win32,2.909090909,,,,,,,,,,,,,,,,,,,,,,,,,,,,,,,,,2,right,,,,left,0,1.531,0,1,1,1,1,2981243412-370222.jpg,2901941401-292798.jpg,,
,,,ACUK17I51KVXF,29,male,8,2022-10-19_10h23.23.440,memory_pilot_most_recent,2022.2.4,Win32,2.909090909,,,,,,,,,,,,,,,,,,,,,,,,,,,,,,,,,3,left,,,,left,1,2.738,0,2,2,2,1,2868474407-362883.jpg,2901948383-70363.jpg,,
,,,ACUK17I51KVXF,29,male,8,2022-10-19_10h23.23.440,memory_pilot_most_recent,2022.2.4,Win32,2.909090909,,,,,,,,,,,,,,,,,,,,,,,,,,,,,,,,,2,left,,,,left,1,4.144,0,3,3,3,1,2898633421-291973.jpg,2575118671-277663.jpg,,
,,,ACUK17I51KVXF,29,male,8,2022-10-19_10h23.23.440,memory_pilot_most_recent,2022.2.4,Win32,2.909090909,,,,,,,,,,,,,,,,,,,,,,,,,,,,,,,,,1,right,,,,right,1,1.432,0,4,4,4,1,2274829821-263682.jpg,2981231403-71642.jpg,,
,,,ACUK17I51KVXF,29,male,8,2022-10-19_10h23.23.440,memory_pilot_most_recent,2022.2.4,Win32,2.909090909,,,,,,,,,,,,,,,,,,,,,,,,,,,,,,,,,1,right,,,,left,0,1.408,0,5,5,5,1,2901946439-144040.jpg,2898635427-367120.jpg,,
,,,ACUK17I51KVXF,29,male,8,2022-10-19_10h23.23.440,memory_pilot_most_recent,2022.2.4,Win32,2.909090909,,,,,,,,,,,,,,,,,,,,,,,,,,,,,,,,,2,right,,,,left,0,1.433,0,6,6,6,1,2984615358-72439.jpg,2449441881-272368.jpg,,
,,,ACUK17I51KVXF,29,male,8,2022-10-19_10h23.23.440,memory_pilot_most_recent,2022.2.4,Win32,2.909090909,,,,,,,,,,,,,,,,,,,,,,,,,,,,,,,,,3,left,,,,left,1,2.577,0,7,7,7,1,2883268471-290842.jpg,2901947448-70314.jpg,,
,,,ACUK17I51KVXF,29,male,8,2022-10-19_10h23.23.440,memory_pilot_most_recent,2022.2.4,Win32,2.909090909,,,,,,,,,,,,,,,,,,,,,,,,,,,,,,,,,3,left,,,,left,1,1.725,0,8,8,8,1,2592379964-131054.jpg,2592380272-354673.jpg,,
,,,ACUK17I51KVXF,29,male,8,2022-10-19_10h23.23.440,memory_pilot_most_recent,2022.2.4,Win32,2.909090909,,,,,,,,,,,,,,,,,,,,,,,,,,,,,,,,,3,left,,,,right,0,2.284,0,9,9,9,1,2874302418-65978.jpg,2898633321-291943.jpg,,
,,,ACUK17I51KVXF,29,male,8,2022-10-19_10h23.23.440,memory_pilot_most_recent,2022.2.4,Win32,2.909090909,,,,,,,,,,,,,,,,,,,,,,,,,,,,,,,,,1,left,,,,left,1,1.356,0,10,10,10,1,2446759803-49249.jpg,2446760601-272099.jpg,,
,,,ACUK17I51KVXF,29,male,8,2022-10-19_10h23.23.440,memory_pilot_most_recent,2022.2.4,Win32,2.909090909,,,,,,,,,,,,,,,,,,,,,,,,,,,,,,,,,1,right,,,,right,1,1.405,0,11,11,11,1,2238481630-168218.jpg,2238480677-317399.jpg,,
,,,ACUK17I51KVXF,29,male,8,2022-10-19_10h23.23.440,memory_pilot_most_recent,2022.2.4,Win32,2.909090909,,,,,,,,,,,,,,,,,,,,,,,,,,,,,,,,,3,right,,,,right,1,1.604,0,12,12,12,1,2981241419-145844.jpg,2238481928-19949.jpg,,
,,,ACUK17I51KVXF,29,male,8,2022-10-19_10h23.23.440,memory_pilot_most_recent,2022.2.4,Win32,2.909090909,,,,,,,,,,,,,,,,,,,,,,,,,,,,,,,,,2,left,,,,left,1,1.112,0,13,13,13,1,2575120738-55529.jpg,2575120738-55528.jpg,,
,,,ACUK17I51KVXF,29,male,8,2022-10-19_10h23.23.440,memory_pilot_most_recent,2022.2.4,Win32,2.909090909,,,,,,,,,,,,,,,,,,,,,,,,,,,,,,,,,1,left,,,,left,1,4.286,0,14,14,14,1,2446759347-347016.jpg,2964224310-219528.jpg,,
,,,ACUK17I51KVXF,29,male,8,2022-10-19_10h23.23.440,memory_pilot_most_recent,2022.2.4,Win32,2.909090909,,,,,,,,,,,,,,,,,,,,,,,,,,,,,,,,,1,left,,,,right,0,0.99,0,15,15,15,1,2458347385-199723.jpg,2238480434-93829.jpg,,
,,,ACUK17I51KVXF,29,male,8,2022-10-19_10h23.23.440,memory_pilot_most_recent,2022.2.4,Win32,2.909090909,,,,,,,,,,,,,,,,,,,,,,,,,,,,,,,,,1,right,,,,left,0,1.537,0,16,16,16,1,2981244394-145974.jpg,2964213381-294060.jpg,,
,,,ACUK17I51KVXF,29,male,8,2022-10-19_10h23.23.440,memory_pilot_most_recent,2022.2.4,Win32,2.909090909,,,,,,,,,,,,,,,,,,,,,,,,,,,,,,,,,1,right,,,,right,1,3.073,0,17,17,17,1,2452380171-273112.jpg,2449442529-124445.jpg,,
,,,ACUK17I51KVXF,29,male,8,2022-10-19_10h23.23.440,memory_pilot_most_recent,2022.2.4,Win32,2.909090909,,,,,,,,,,,,,,,,,,,,,,,,,,,,,,,,,2,right,,,,left,0,1.404,0,18,18,18,1,2901947423-70310.jpg,2864907432-362042.jpg,,
,,,ACUK17I51KVXF,29,male,8,2022-10-19_10h23.23.440,memory_pilot_most_recent,2022.2.4,Win32,2.909090909,,,,,,,,,,,,,,,,,,,,,,,,,,,,,,,,,3,right,,,,right,1,1.863,0,19,19,19,1,2238577590-185467.jpg,2901947423-70311.jpg,,
,,,ACUK17I51KVXF,29,male,8,2022-10-19_10h23.23.440,memory_pilot_most_recent,2022.2.4,Win32,2.909090909,,,,,,,,,,,,,,,,,,,,,,,,,,,,,,,,,3,left,,,,left,1,3.047,0,20,20,20,1,2460547467-349422.jpg,2864909447-362146.jpg,,
,,,ACUK17I51KVXF,29,male,8,2022-10-19_10h23.23.440,memory_pilot_most_recent,2022.2.4,Win32,2.909090909,,,,,,,,,,,,,,,,,,,,,,,,,,,,,,,,,1,right,,,,left,0,5.84,0,21,21,21,1,2986408339-146952.jpg,2592380177-354626.jpg,,
,,,ACUK17I51KVXF,29,male,8,2022-10-19_10h23.23.440,memory_pilot_most_recent,2022.2.4,Win32,2.909090909,,,,,,,,,,,,,,,,,,,,,,,,,,,,,,,,,1,right,,,,right,1,4.442,0,22,22,22,1,2864906345-212360.jpg,2898617468-68274.jpg,,
,,,ACUK17I51KVXF,29,male,8,2022-10-19_10h23.23.440,memory_pilot_most_recent,2022.2.4,Win32,2.909090909,,,,,,,,,,,,,,,,,,,,,,,,,,,,,,,,,2,left,,,,left,1,1.896,0,23,23,23,1,2874299429-139695.jpg,2901942443-69923.jpg,,
,,,ACUK17I51KVXF,29,male,8,2022-10-19_10h23.23.440,memory_pilot_most_recent,2022.2.4,Win32,2.909090909,,,,,,,,,,,,,,,,,,,,,,,,,,,,,,,,,3,right,,,,right,1,1.766,0,24,24,24,1,2864904453-63933.jpg,2883256307-365057.jpg,,
,,,ACUK17I51KVXF,29,male,8,2022-10-19_10h23.23.440,memory_pilot_most_recent,2022.2.4,Win32,2.909090909,,,,,,,,,,,,,,,,,,,,,,,,,,,,,,,,,2,left,,,,right,0,1.457,0,25,25,25,1,2238580740-186218.jpg,2238521193-26285.jpg,,
,,,ACUK17I51KVXF,29,male,8,2022-10-19_10h23.23.440,memory_pilot_most_recent,2022.2.4,Win32,2.909090909,,,,,,,,,,,,,,,,,,,,,,,,,,,,,,,,,2,right,,,,left,0,3.39,0,26,26,26,1,2238480648-19714.jpg,2874302418-65979.jpg,,
,,,ACUK17I51KVXF,29,male,8,2022-10-19_10h23.23.440,memory_pilot_most_recent,2022.2.4,Win32,2.909090909,,,,,,,,,,,,,,,,,,,,,,,,,,,,,,,,,1,left,,,,left,1,1.793,0,27,27,27,1,2901939379-143479.jpg,2460547467-349423.jpg,,
,,,ACUK17I51KVXF,29,male,8,2022-10-19_10h23.23.440,memory_pilot_most_recent,2022.2.4,Win32,2.909090909,,,,,,,,,,,,,,,,,,,,,,,,,,,,,,,,,1,right,,,,right,1,1.844,0,28,28,28,1,2883264368-67631.jpg,2874301407-363895.jpg,,
,,,ACUK17I51KVXF,29,male,8,2022-10-19_10h23.23.440,memory_pilot_most_recent,2022.2.4,Win32,2.909090909,,,,,,,,,,,,,,,,,,,,,,,,,,,,,,,,,3,right,,,,left,0,2.639,0,29,29,29,1,2964217461-294238.jpg,2898634397-367080.jpg,,
,,,ACUK17I51KVXF,29,male,8,2022-10-19_10h23.23.440,memory_pilot_most_recent,2022.2.4,Win32,2.909090909,,,,,,,,,,,,,,,,,,,,,,,,,,,,,,,,,3,right,,,,right,1,2.467,0,30,30,30,1,2449442181-272436.jpg,2452380832-348593.jpg,,
,,,ACUK17I51KVXF,29,male,8,2022-10-19_10h23.23.440,memory_pilot_most_recent,2022.2.4,Win32,2.909090909,,,,,,,,,,,,,,,,,,,,,,,,,,,,,,,,,2,left,,,,right,0,2.197,0,31,31,31,1,2964216465-219242.jpg,2864900319-137787.jpg,,
,,,ACUK17I51KVXF,29,male,8,2022-10-19_10h23.23.440,memory_pilot_most_recent,2022.2.4,Win32,2.909090909,,,,,,,,,,,,,,,,,,,,,,,,,,,,,,,,,3,right,,,,left,0,2.361,0,32,32,32,1,2901938432-367629.jpg,2901939379-143480.jpg,,
,,,ACUK17I51KVXF,29,male,8,2022-10-19_10h23.23.440,memory_pilot_most_recent,2022.2.4,Win32,2.909090909,,,,,,,,,,,,,,,,,,,,,,,,,,,,,,,,,2,right,,,,left,0,2.032,0,33,33,33,1,2874299429-139694.jpg,2864910426-287204.jpg,,
,,,ACUK17I51KVXF,29,male,8,2022-10-19_10h23.23.440,memory_pilot_most_recent,2022.2.4,Win32,2.909090909,,,,,,,,,,,,,,,,,,,,,,,,,,,,,,,,,3,left,,,,right,0,2.367,0,34,34,34,1,2898635428-69104.jpg,2898625336-291572.jpg,,
,,,ACUK17I51KVXF,29,male,8,2022-10-19_10h23.23.440,memory_pilot_most_recent,2022.2.4,Win32,2.909090909,,,,,,,,,,,,,,,,,,,,,,,,,,,,,,,,,3,left,,,,right,0,2.424,0,35,35,35,1,2964223381-294447.jpg,2898628438-68785.jpg,,
,,,ACUK17I51KVXF,29,male,8,2022-10-19_10h23.23.440,memory_pilot_most_recent,2022.2.4,Win32,2.909090909,,,,,,,,,,,,,,,,,,,,,,,,,,,,,,,,,3,left,,,,right,0,1.768,0,36,36,36,1,2868475410-213219.jpg,2868474407-362885.jpg,,
,,,ACUK17I51KVXF,29,male,8,2022-10-19_10h23.23.440,memory_pilot_most_recent,2022.2.4,Win32,2.909090909,,,,,,,,,,,,,,,,,,,,,,,,,,,,,,,,,1,right,,,,right,1,1.499,0,37,37,37,1,2549106624-127823.jpg,2238560245-182099.jpg,,
,,,ACUK17I51KVXF,29,male,8,2022-10-19_10h23.23.440,memory_pilot_most_recent,2022.2.4,Win32,2.909090909,,,,,,,,,,,,,,,,,,,,,,,,,,,,,,,,,1,left,,,,left,1,1.413,0,38,38,38,1,2452381505-199546.jpg,2901938432-367627.jpg,,
,,,ACUK17I51KVXF,29,male,8,2022-10-19_10h23.23.440,memory_pilot_most_recent,2022.2.4,Win32,2.909090909,,,,,,,,,,,,,,,,,,,,,,,,,,,,,,,,,1,left,,,,left,1,1.478,0,39,39,39,1,2238428357-313623.jpg,2238499057-320266.jpg,,
,,,ACUK17I51KVXF,29,male,8,2022-10-19_10h23.23.440,memory_pilot_most_recent,2022.2.4,Win32,2.909090909,,,,,,,,,,,,,,,,,,,,,,,,,,,,,,,,,3,right,,,,right,1,1.768,0,40,40,40,1,2238436252-314037.jpg,2883268412-365898.jpg,,
,,,ACUK17I51KVXF,29,male,8,2022-10-19_10h23.23.440,memory_pilot_most_recent,2022.2.4,Win32,2.909090909,,,,,,,,,,,,,,,,,,,,,,,,,,,,,,,,,3,left,,,,left,1,1.563,0,41,41,41,1,2901952513-70703.jpg,2238481198-19821.jpg,,
,,,ACUK17I51KVXF,29,male,8,2022-10-19_10h23.23.440,memory_pilot_most_recent,2022.2.4,Win32,2.909090909,,,,,,,,,,,,,,,,,,,,,,,,,,,,,,,,,2,right,,,,right,1,2.586,0,42,42,42,1,2238436322-314047.jpg,2238425482-313537.jpg,,
,,,ACUK17I51KVXF,29,male,8,2022-10-19_10h23.23.440,memory_pilot_most_recent,2022.2.4,Win32,2.909090909,,,,,,,,,,,,,,,,,,,,,,,,,,,,,,,,,2,left,,,,right,0,1.692,0,43,43,43,1,2874303365-214262.jpg,2238563377-332054.jpg,,
,,,ACUK17I51KVXF,29,male,8,2022-10-19_10h23.23.440,memory_pilot_most_recent,2022.2.4,Win32,2.909090909,,,,,,,,,,,,,,,,,,,,,,,,,,,,,,,,,2,left,,,,left,1,2.414,0,44,44,44,1,2446758985-197609.jpg,2864909447-362144.jpg,,
,,,ACUK17I51KVXF,29,male,8,2022-10-19_10h23.23.440,memory_pilot_most_recent,2022.2.4,Win32,2.909090909,,,,,,,,,,,,,,,,,,,,,,,,,,,,,,,,,1,right,,,,right,1,1.749,0,45,45,45,1,2986419333-73361.jpg,2238572663-35822.jpg,,
,,,ACUK17I51KVXF,29,male,8,2022-10-19_10h23.23.440,memory_pilot_most_recent,2022.2.4,Win32,2.909090909,,,,,,,,,,,,,,,,,,,,,,,,,,,,,,,,,2,left,,,,right,0,3.385,0,46,46,46,1,2460547467-349421.jpg,2452380166-273110.jpg,,
,,,ACUK17I51KVXF,29,male,8,2022-10-19_10h23.23.440,memory_pilot_most_recent,2022.2.4,Win32,2.909090909,,,,,,,,,,,,,,,,,,,,,,,,,,,,,,,,,1,right,,,,right,1,1.711,0,47,47,47,1,2901939327-367669.jpg,2986451363-73599.jpg,,
,,,ACUK17I51KVXF,29,male,8,2022-10-19_10h23.23.440,memory_pilot_most_recent,2022.2.4,Win32,2.909090909,,,,,,,,,,,,,,,,,,,,,,,,,,,,,,,,,1,left,,,,left,1,1.304,0,48,48,48,1,2874307433-66280.jpg,2986447306-296584.jpg,,
,,,ACUK17I51KVXF,29,male,8,2022-10-19_10h23.23.440,memory_pilot_most_recent,2022.2.4,Win32,2.909090909,,,,,,,,,,,,,,,,,,,,,,,,,,,,,,,,,1,right,,,,left,0,1.676,0,49,49,49,1,2446759803-49251.jpg,2449442529-124446.jpg,,
,,,ACUK17I51KVXF,29,male,8,2022-10-19_10h23.23.440,memory_pilot_most_recent,2022.2.4,Win32,2.909090909,,,,,,,,,,,,,,,,,,,,,,,,,,,,,,,,,3,left,,,,left,1,1.413,0,50,50,50,1,2964218374-144967.jpg,2981231446-294732.jpg,,
,,,ACUK17I51KVXF,29,male,8,2022-10-19_10h23.23.440,memory_pilot_most_recent,2022.2.4,Win32,2.909090909,,,,,,,,,,,,,,,,,,,,,,,,,,,,,,,,,2,left,,,,left,1,1.565,0,51,51,51,1,2901948350-218459.jpg,2417208001-267065.jpg,,
,,,ACUK17I51KVXF,29,male,8,2022-10-19_10h23.23.440,memory_pilot_most_recent,2022.2.4,Win32,2.909090909,,,,,,,,,,,,,,,,,,,,,,,,,,,,,,,,,1,right,,,,right,1,1.466,0,52,52,52,1,2862691449-137104.jpg,2238481198-19822.jpg,,
,,,ACUK17I51KVXF,29,male,8,2022-10-19_10h23.23.440,memory_pilot_most_recent,2022.2.4,Win32,2.909090909,,,,,,,,,,,,,,,,,,,,,,,,,,,,,,,,,3,right,,,,right,1,1.717,0,53,53,53,1,2427873848-47312.jpg,2981241414-145842.jpg,,
,,,ACUK17I51KVXF,29,male,8,2022-10-19_10h23.23.440,memory_pilot_most_recent,2022.2.4,Win32,2.909090909,,,,,,,,,,,,,,,,,,,,,,,,,,,,,,,,,2,right,,,,right,1,2.11,0,54,54,54,1,2898632385-217136.jpg,2883254439-140941.jpg,,
,,,ACUK17I51KVXF,29,male,8,2022-10-19_10h23.23.440,memory_pilot_most_recent,2022.2.4,Win32,2.909090909,,,,,,,,,,,,,,,,,,,,,,,,,,,,,,,,,3,right,,,,right,1,1.449,0,55,55,55,1,2512875587-350044.jpg,2592380177-354629.jpg,,
,,,ACUK17I51KVXF,29,male,8,2022-10-19_10h23.23.440,memory_pilot_most_recent,2022.2.4,Win32,2.909090909,,,,,,,,,,,,,,,,,,,,,,,,,,,,,,,,,2,left,,,,right,0,1.811,0,56,56,56,1,2898618390-216538.jpg,2901939327-367670.jpg,,
,,,ACUK17I51KVXF,29,male,8,2022-10-19_10h23.23.440,memory_pilot_most_recent,2022.2.4,Win32,2.909090909,,,,,,,,,,,,,,,,,,,,,,,,,,,,,,,,,2,left,,,,left,1,0.973,0,57,57,57,1,2898618444-142233.jpg,2238555262-330312.jpg,,
,,,ACUK17I51KVXF,29,male,8,2022-10-19_10h23.23.440,memory_pilot_most_recent,2022.2.4,Win32,2.909090909,,,,,,,,,,,,,,,,,,,,,,,,,,,,,,,,,2,left,,,,right,0,1.577,0,58,58,58,1,2460547508-51571.jpg,2981232437-369759.jpg,,
,,,ACUK17I51KVXF,29,male,8,2022-10-19_10h23.23.440,memory_pilot_most_recent,2022.2.4,Win32,2.909090909,,,,,,,,,,,,,,,,,,,,,,,,,,,,,,,,,2,right,,,,right,1,2.14,0,59,59,59,1,2981236443-71859.jpg,2898624426-291546.jpg,,
,,,ACUK17I51KVXF,29,male,8,2022-10-19_10h23.23.440,memory_pilot_most_recent,2022.2.4,Win32,2.909090909,,,,,,,,,,,,,,,,,,,,,,,,,,,,,,,,,,,,,,,,,,,,,,,,space,40.737
