button.numClicks,button.timesOn,button.timesOff,workID,Age,Gender,Hours slept (last night),date,expName,psychopyVersion,OS,frameRate,space_key_responce.keys,space_key_responce.rt,demo_encoding_response.keys,demo_encoding_response.corr,demo_encoding_loop.thisRepN,demo_encoding_loop.thisTrialN,demo_encoding_loop.thisN,demo_encoding_loop.thisIndex,demo_encoding_loop.ran,DemoImage,DemoCorrect,demo_encoding_response.rt,demo_test_response.keys,demo_test_response.corr,demo_test_response.rt,demo_bar_2.response,demo_bar_2.rt,demo_test_loop.thisRepN,demo_test_loop.thisTrialN,demo_test_loop.thisN,demo_test_loop.thisIndex,demo_test_loop.ran,DemoImage1,DemoImage2,DemoCorrectTest,test_encoding_response.keys,test_encoding_response.corr,trials.thisRepN,trials.thisTrialN,trials.thisN,trials.thisIndex,trials.ran,target,category,correct,test_encoding_response.rt,key_resp_end.keys,key_resp_end.rt,test_test_response.keys,test_test_response.corr,test_test_response.rt,bar_2.response,bar_2.rt,trials_2.thisRepN,trials_2.thisTrialN,trials_2.thisN,trials_2.thisIndex,trials_2.ran,image1,image2,layer,key_resp_end_2.keys,key_resp_end_2.rt
1,[8.276700000286098],[8.276800000190732],AGOBQY50VQ7VX,28,FEMALE,8 HOURS,03-28-2023_17h48.35.942,memory_pilot_most_recent,2022.2.4,Win32,8.571771442,,,,,,,,,,,,,,,,,,,,,,,,,,,,,,,,,,,,,,,,,,,,,,,,,,,,,
,,,AGOBQY50VQ7VX,28,FEMALE,8 HOURS,03-28-2023_17h48.35.942,memory_pilot_most_recent,2022.2.4,Win32,8.571771442,,,,,,,,,,,,,,,,,,,,,,,,,,,,,,,,,,,,,,,,,,,,,,,,,,,,,
,,,AGOBQY50VQ7VX,28,FEMALE,8 HOURS,03-28-2023_17h48.35.942,memory_pilot_most_recent,2022.2.4,Win32,8.571771442,space,3.3818,,,,,,,,,,,,,,,,,,,,,,,,,,,,,,,,,,,,,,,,,,,,,,,,,,,
,,,AGOBQY50VQ7VX,28,FEMALE,8 HOURS,03-28-2023_17h48.35.942,memory_pilot_most_recent,2022.2.4,Win32,8.571771442,,,,,,,,,,,,,,,,,,,,,,,,,,,,,,,,,,,,,,,,,,,,,,,,,,,,,
,,,AGOBQY50VQ7VX,28,FEMALE,8 HOURS,03-28-2023_17h48.35.942,memory_pilot_most_recent,2022.2.4,Win32,8.571771442,,,,1,0,0,0,0,1,flower1.jpg,,,,,,,,,,,,,,,,,,,,,,,,,,,,,,,,,,,,,,,,,,,
,,,AGOBQY50VQ7VX,28,FEMALE,8 HOURS,03-28-2023_17h48.35.942,memory_pilot_most_recent,2022.2.4,Win32,8.571771442,,,,1,0,1,1,1,1,flower2.jpg,,,,,,,,,,,,,,,,,,,,,,,,,,,,,,,,,,,,,,,,,,,
,,,AGOBQY50VQ7VX,28,FEMALE,8 HOURS,03-28-2023_17h48.35.942,memory_pilot_most_recent,2022.2.4,Win32,8.571771442,,,left,1,0,2,2,2,1,left.jpg,left,1.1111,,,,,,,,,,,,,,,,,,,,,,,,,,,,,,,,,,,,,,,,,
,,,AGOBQY50VQ7VX,28,FEMALE,8 HOURS,03-28-2023_17h48.35.942,memory_pilot_most_recent,2022.2.4,Win32,8.571771442,,,,1,0,3,3,3,1,flower3.jpg,,,,,,,,,,,,,,,,,,,,,,,,,,,,,,,,,,,,,,,,,,,
,,,AGOBQY50VQ7VX,28,FEMALE,8 HOURS,03-28-2023_17h48.35.942,memory_pilot_most_recent,2022.2.4,Win32,8.571771442,,,,1,0,4,4,4,1,flower4.jpg,,,,,,,,,,,,,,,,,,,,,,,,,,,,,,,,,,,,,,,,,,,
,,,AGOBQY50VQ7VX,28,FEMALE,8 HOURS,03-28-2023_17h48.35.942,memory_pilot_most_recent,2022.2.4,Win32,8.571771442,,,,1,0,5,5,5,1,flower5.jpg,,,,,,,,,,,,,,,,,,,,,,,,,,,,,,,,,,,,,,,,,,,
,,,AGOBQY50VQ7VX,28,FEMALE,8 HOURS,03-28-2023_17h48.35.942,memory_pilot_most_recent,2022.2.4,Win32,8.571771442,,,,1,0,6,6,6,1,flower6.jpg,,,,,,,,,,,,,,,,,,,,,,,,,,,,,,,,,,,,,,,,,,,
,,,AGOBQY50VQ7VX,28,FEMALE,8 HOURS,03-28-2023_17h48.35.942,memory_pilot_most_recent,2022.2.4,Win32,8.571771442,,,,,,,,,,,,,,,,,,,,,,,,,,,,,,,,,,,,,,,,,,,,,,,,,,,,,
,,,AGOBQY50VQ7VX,28,FEMALE,8 HOURS,03-28-2023_17h48.35.942,memory_pilot_most_recent,2022.2.4,Win32,8.571771442,,,,,,,,,,,,,right,0,1.8414,8,2.2032,0,0,0,0,1,flower1.jpg,flower1_pair.jpg,left,,,,,,,,,,,,,,,,,,,,,,,,,,,,
,,,AGOBQY50VQ7VX,28,FEMALE,8 HOURS,03-28-2023_17h48.35.942,memory_pilot_most_recent,2022.2.4,Win32,8.571771442,,,,,,,,,,,,,left,0,1.3807,7,1.3813,0,1,1,1,1,flower2_pair.jpg,flower2.jpg,right,,,,,,,,,,,,,,,,,,,,,,,,,,,,
,,,AGOBQY50VQ7VX,28,FEMALE,8 HOURS,03-28-2023_17h48.35.942,memory_pilot_most_recent,2022.2.4,Win32,8.571771442,,,,,,,,,,,,,left,1,11.8398,7,1.76,0,2,2,2,1,flower3.jpg,flower3_pair.jpg,left,,,,,,,,,,,,,,,,,,,,,,,,,,,,
,,,AGOBQY50VQ7VX,28,FEMALE,8 HOURS,03-28-2023_17h48.35.942,memory_pilot_most_recent,2022.2.4,Win32,8.571771442,,,,,,,,,,,,,right,0,1.5738,7,1.2838,0,3,3,3,1,flower4.jpg,flower4_pair.jpg,left,,,,,,,,,,,,,,,,,,,,,,,,,,,,
,,,AGOBQY50VQ7VX,28,FEMALE,8 HOURS,03-28-2023_17h48.35.942,memory_pilot_most_recent,2022.2.4,Win32,8.571771442,,,,,,,,,,,,,right,1,1.4708,8,1.7825,0,4,4,4,1,flower5_pair.jpg,flower5.jpg,right,,,,,,,,,,,,,,,,,,,,,,,,,,,,
,,,AGOBQY50VQ7VX,28,FEMALE,8 HOURS,03-28-2023_17h48.35.942,memory_pilot_most_recent,2022.2.4,Win32,8.571771442,,,,,,,,,,,,,left,1,1.9419,7,2.0156,0,5,5,5,1,flower6.jpg,flower6_pair.jpg,left,,,,,,,,,,,,,,,,,,,,,,,,,,,,
,,,AGOBQY50VQ7VX,28,FEMALE,8 HOURS,03-28-2023_17h48.35.942,memory_pilot_most_recent,2022.2.4,Win32,8.571771442,,,,,,,,,,,,,,,,,,,,,,,,,,,,,,,,,,,,,,,,,,,,,,,,,,,,,
,,,AGOBQY50VQ7VX,28,FEMALE,8 HOURS,03-28-2023_17h48.35.942,memory_pilot_most_recent,2022.2.4,Win32,8.571771442,space,1.6231,,,,,,,,,,,,,,,,,,,,,,,,,,,,,,,,,,,,,,,,,,,,,,,,,,,
,,,AGOBQY50VQ7VX,28,FEMALE,8 HOURS,03-28-2023_17h48.35.942,memory_pilot_most_recent,2022.2.4,Win32,8.571771442,,,,,,,,,,,,,,,,,,,,,,,,,,,1,0,0,0,0,1,playground_76.jpg,playground,,,,,,,,,,,,,,,,,,,
,,,AGOBQY50VQ7VX,28,FEMALE,8 HOURS,03-28-2023_17h48.35.942,memory_pilot_most_recent,2022.2.4,Win32,8.571771442,,,,,,,,,,,,,,,,,,,,,,,,,,,1,0,1,1,1,1,bridge_256.jpg,bridge,,,,,,,,,,,,,,,,,,,
,,,AGOBQY50VQ7VX,28,FEMALE,8 HOURS,03-28-2023_17h48.35.942,memory_pilot_most_recent,2022.2.4,Win32,8.571771442,,,,,,,,,,,,,,,,,,,,,,,,,,,1,0,2,2,2,1,golf_course_309.jpg,golf,,,,,,,,,,,,,,,,,,,
,,,AGOBQY50VQ7VX,28,FEMALE,8 HOURS,03-28-2023_17h48.35.942,memory_pilot_most_recent,2022.2.4,Win32,8.571771442,,,,,,,,,,,,,,,,,,,,,,,,,,,1,0,3,3,3,1,bridge_146.jpg,bridge,,,,,,,,,,,,,,,,,,,
,,,AGOBQY50VQ7VX,28,FEMALE,8 HOURS,03-28-2023_17h48.35.942,memory_pilot_most_recent,2022.2.4,Win32,8.571771442,,,,,,,,,,,,,,,,,,,,,,,,,,,1,0,4,4,4,1,golf_course_15.jpg,golf,,,,,,,,,,,,,,,,,,,
,,,AGOBQY50VQ7VX,28,FEMALE,8 HOURS,03-28-2023_17h48.35.942,memory_pilot_most_recent,2022.2.4,Win32,8.571771442,,,,,,,,,,,,,,,,,,,,,,,,,,,1,0,5,5,5,1,bridge_108.jpg,bridge,,,,,,,,,,,,,,,,,,,
,,,AGOBQY50VQ7VX,28,FEMALE,8 HOURS,03-28-2023_17h48.35.942,memory_pilot_most_recent,2022.2.4,Win32,8.571771442,,,,,,,,,,,,,,,,,,,,,,,,,,,1,0,6,6,6,1,bridge_191.jpg,bridge,,,,,,,,,,,,,,,,,,,
,,,AGOBQY50VQ7VX,28,FEMALE,8 HOURS,03-28-2023_17h48.35.942,memory_pilot_most_recent,2022.2.4,Win32,8.571771442,,,,,,,,,,,,,,,,,,,,,,,,,,,1,0,7,7,7,1,playground_240.jpg,playground,,,,,,,,,,,,,,,,,,,
,,,AGOBQY50VQ7VX,28,FEMALE,8 HOURS,03-28-2023_17h48.35.942,memory_pilot_most_recent,2022.2.4,Win32,8.571771442,,,,,,,,,,,,,,,,,,,,,,,,,,,1,0,8,8,8,1,highway_209.jpg,highway,,,,,,,,,,,,,,,,,,,
,,,AGOBQY50VQ7VX,28,FEMALE,8 HOURS,03-28-2023_17h48.35.942,memory_pilot_most_recent,2022.2.4,Win32,8.571771442,,,,,,,,,,,,,,,,,,,,,,,,,,,1,0,9,9,9,1,highway_294.jpg,highway,,,,,,,,,,,,,,,,,,,
,,,AGOBQY50VQ7VX,28,FEMALE,8 HOURS,03-28-2023_17h48.35.942,memory_pilot_most_recent,2022.2.4,Win32,8.571771442,,,,,,,,,,,,,,,,,,,,,,,,,,,1,0,10,10,10,1,playground_60.jpg,playground,,,,,,,,,,,,,,,,,,,
,,,AGOBQY50VQ7VX,28,FEMALE,8 HOURS,03-28-2023_17h48.35.942,memory_pilot_most_recent,2022.2.4,Win32,8.571771442,,,,,,,,,,,,,,,,,,,,,,,,,,,1,0,11,11,11,1,badlands_70.jpg,badlands,,,,,,,,,,,,,,,,,,,
,,,AGOBQY50VQ7VX,28,FEMALE,8 HOURS,03-28-2023_17h48.35.942,memory_pilot_most_recent,2022.2.4,Win32,8.571771442,,,,,,,,,,,,,,,,,,,,,,,,,,,1,0,12,12,12,1,golf_course_188.jpg,golf,,,,,,,,,,,,,,,,,,,
,,,AGOBQY50VQ7VX,28,FEMALE,8 HOURS,03-28-2023_17h48.35.942,memory_pilot_most_recent,2022.2.4,Win32,8.571771442,,,,,,,,,,,,,,,,,,,,,,,,,,right,1,0,13,13,13,1,right.jpg,,right,1.0712,,,,,,,,,,,,,,,,,
,,,AGOBQY50VQ7VX,28,FEMALE,8 HOURS,03-28-2023_17h48.35.942,memory_pilot_most_recent,2022.2.4,Win32,8.571771442,,,,,,,,,,,,,,,,,,,,,,,,,,,1,0,14,14,14,1,playground_219.jpg,playground,,,,,,,,,,,,,,,,,,,
,,,AGOBQY50VQ7VX,28,FEMALE,8 HOURS,03-28-2023_17h48.35.942,memory_pilot_most_recent,2022.2.4,Win32,8.571771442,,,,,,,,,,,,,,,,,,,,,,,,,,,1,0,15,15,15,1,mountain_232.jpg,mountain,,,,,,,,,,,,,,,,,,,
,,,AGOBQY50VQ7VX,28,FEMALE,8 HOURS,03-28-2023_17h48.35.942,memory_pilot_most_recent,2022.2.4,Win32,8.571771442,,,,,,,,,,,,,,,,,,,,,,,,,,,1,0,16,16,16,1,bridge_128.jpg,bridge,,,,,,,,,,,,,,,,,,,
,,,AGOBQY50VQ7VX,28,FEMALE,8 HOURS,03-28-2023_17h48.35.942,memory_pilot_most_recent,2022.2.4,Win32,8.571771442,,,,,,,,,,,,,,,,,,,,,,,,,,,1,0,17,17,17,1,golf_course_78.jpg,golf,,,,,,,,,,,,,,,,,,,
,,,AGOBQY50VQ7VX,28,FEMALE,8 HOURS,03-28-2023_17h48.35.942,memory_pilot_most_recent,2022.2.4,Win32,8.571771442,,,,,,,,,,,,,,,,,,,,,,,,,,right,1,0,18,18,18,1,right.jpg,,right,1.045,,,,,,,,,,,,,,,,,
,,,AGOBQY50VQ7VX,28,FEMALE,8 HOURS,03-28-2023_17h48.35.942,memory_pilot_most_recent,2022.2.4,Win32,8.571771442,,,,,,,,,,,,,,,,,,,,,,,,,,,1,0,19,19,19,1,highway_177.jpg,highway,,,,,,,,,,,,,,,,,,,
,,,AGOBQY50VQ7VX,28,FEMALE,8 HOURS,03-28-2023_17h48.35.942,memory_pilot_most_recent,2022.2.4,Win32,8.571771442,,,,,,,,,,,,,,,,,,,,,,,,,,,1,0,20,20,20,1,golf_course_87.jpg,golf,,,,,,,,,,,,,,,,,,,
,,,AGOBQY50VQ7VX,28,FEMALE,8 HOURS,03-28-2023_17h48.35.942,memory_pilot_most_recent,2022.2.4,Win32,8.571771442,,,,,,,,,,,,,,,,,,,,,,,,,,,1,0,21,21,21,1,golf_course_217.jpg,golf,,,,,,,,,,,,,,,,,,,
,,,AGOBQY50VQ7VX,28,FEMALE,8 HOURS,03-28-2023_17h48.35.942,memory_pilot_most_recent,2022.2.4,Win32,8.571771442,,,,,,,,,,,,,,,,,,,,,,,,,,,1,0,22,22,22,1,mountain_230.jpg,mountain,,,,,,,,,,,,,,,,,,,
,,,AGOBQY50VQ7VX,28,FEMALE,8 HOURS,03-28-2023_17h48.35.942,memory_pilot_most_recent,2022.2.4,Win32,8.571771442,,,,,,,,,,,,,,,,,,,,,,,,,,,1,0,23,23,23,1,badlands_21.jpg,badlands,,,,,,,,,,,,,,,,,,,
,,,AGOBQY50VQ7VX,28,FEMALE,8 HOURS,03-28-2023_17h48.35.942,memory_pilot_most_recent,2022.2.4,Win32,8.571771442,,,,,,,,,,,,,,,,,,,,,,,,,,,1,0,24,24,24,1,bridge_202.jpg,bridge,,,,,,,,,,,,,,,,,,,
,,,AGOBQY50VQ7VX,28,FEMALE,8 HOURS,03-28-2023_17h48.35.942,memory_pilot_most_recent,2022.2.4,Win32,8.571771442,,,,,,,,,,,,,,,,,,,,,,,,,,,1,0,25,25,25,1,mountain_222.jpg,mountain,,,,,,,,,,,,,,,,,,,
,,,AGOBQY50VQ7VX,28,FEMALE,8 HOURS,03-28-2023_17h48.35.942,memory_pilot_most_recent,2022.2.4,Win32,8.571771442,,,,,,,,,,,,,,,,,,,,,,,,,,left,1,0,26,26,26,1,left.jpg,,left,1.092,,,,,,,,,,,,,,,,,
,,,AGOBQY50VQ7VX,28,FEMALE,8 HOURS,03-28-2023_17h48.35.942,memory_pilot_most_recent,2022.2.4,Win32,8.571771442,,,,,,,,,,,,,,,,,,,,,,,,,,,1,0,27,27,27,1,golf_course_195.jpg,golf,,,,,,,,,,,,,,,,,,,
,,,AGOBQY50VQ7VX,28,FEMALE,8 HOURS,03-28-2023_17h48.35.942,memory_pilot_most_recent,2022.2.4,Win32,8.571771442,,,,,,,,,,,,,,,,,,,,,,,,,,,1,0,28,28,28,1,badlands_23.jpg,badlands,,,,,,,,,,,,,,,,,,,
,,,AGOBQY50VQ7VX,28,FEMALE,8 HOURS,03-28-2023_17h48.35.942,memory_pilot_most_recent,2022.2.4,Win32,8.571771442,,,,,,,,,,,,,,,,,,,,,,,,,,,1,0,29,29,29,1,mountain_101.jpg,mountain,,,,,,,,,,,,,,,,,,,
,,,AGOBQY50VQ7VX,28,FEMALE,8 HOURS,03-28-2023_17h48.35.942,memory_pilot_most_recent,2022.2.4,Win32,8.571771442,,,,,,,,,,,,,,,,,,,,,,,,,,,1,0,30,30,30,1,golf_course_214.jpg,golf,,,,,,,,,,,,,,,,,,,
,,,AGOBQY50VQ7VX,28,FEMALE,8 HOURS,03-28-2023_17h48.35.942,memory_pilot_most_recent,2022.2.4,Win32,8.571771442,,,,,,,,,,,,,,,,,,,,,,,,,,,1,0,31,31,31,1,highway_93.jpg,highway,,,,,,,,,,,,,,,,,,,
,,,AGOBQY50VQ7VX,28,FEMALE,8 HOURS,03-28-2023_17h48.35.942,memory_pilot_most_recent,2022.2.4,Win32,8.571771442,,,,,,,,,,,,,,,,,,,,,,,,,,,1,0,32,32,32,1,mountain_293.jpg,mountain,,,,,,,,,,,,,,,,,,,
,,,AGOBQY50VQ7VX,28,FEMALE,8 HOURS,03-28-2023_17h48.35.942,memory_pilot_most_recent,2022.2.4,Win32,8.571771442,,,,,,,,,,,,,,,,,,,,,,,,,,,1,0,33,33,33,1,badlands_222.jpg,badlands,,,,,,,,,,,,,,,,,,,
,,,AGOBQY50VQ7VX,28,FEMALE,8 HOURS,03-28-2023_17h48.35.942,memory_pilot_most_recent,2022.2.4,Win32,8.571771442,,,,,,,,,,,,,,,,,,,,,,,,,,,1,0,34,34,34,1,bridge_172.jpg,bridge,,,,,,,,,,,,,,,,,,,
,,,AGOBQY50VQ7VX,28,FEMALE,8 HOURS,03-28-2023_17h48.35.942,memory_pilot_most_recent,2022.2.4,Win32,8.571771442,,,,,,,,,,,,,,,,,,,,,,,,,,,1,0,35,35,35,1,playground_144.jpg,playground,,,,,,,,,,,,,,,,,,,
,,,AGOBQY50VQ7VX,28,FEMALE,8 HOURS,03-28-2023_17h48.35.942,memory_pilot_most_recent,2022.2.4,Win32,8.571771442,,,,,,,,,,,,,,,,,,,,,,,,,,left,1,0,36,36,36,1,left.jpg,,left,1.1162,,,,,,,,,,,,,,,,,
,,,AGOBQY50VQ7VX,28,FEMALE,8 HOURS,03-28-2023_17h48.35.942,memory_pilot_most_recent,2022.2.4,Win32,8.571771442,,,,,,,,,,,,,,,,,,,,,,,,,,,1,0,37,37,37,1,badlands_113.jpg,badlands,,,,,,,,,,,,,,,,,,,
,,,AGOBQY50VQ7VX,28,FEMALE,8 HOURS,03-28-2023_17h48.35.942,memory_pilot_most_recent,2022.2.4,Win32,8.571771442,,,,,,,,,,,,,,,,,,,,,,,,,,,1,0,38,38,38,1,mountain_154.jpg,mountain,,,,,,,,,,,,,,,,,,,
,,,AGOBQY50VQ7VX,28,FEMALE,8 HOURS,03-28-2023_17h48.35.942,memory_pilot_most_recent,2022.2.4,Win32,8.571771442,,,,,,,,,,,,,,,,,,,,,,,,,,,1,0,39,39,39,1,bridge_65.jpg,bridge,,,,,,,,,,,,,,,,,,,
,,,AGOBQY50VQ7VX,28,FEMALE,8 HOURS,03-28-2023_17h48.35.942,memory_pilot_most_recent,2022.2.4,Win32,8.571771442,,,,,,,,,,,,,,,,,,,,,,,,,,,1,0,40,40,40,1,bridge_91.jpg,bridge,,,,,,,,,,,,,,,,,,,
,,,AGOBQY50VQ7VX,28,FEMALE,8 HOURS,03-28-2023_17h48.35.942,memory_pilot_most_recent,2022.2.4,Win32,8.571771442,,,,,,,,,,,,,,,,,,,,,,,,,,,1,0,41,41,41,1,playground_117.jpg,playground,,,,,,,,,,,,,,,,,,,
,,,AGOBQY50VQ7VX,28,FEMALE,8 HOURS,03-28-2023_17h48.35.942,memory_pilot_most_recent,2022.2.4,Win32,8.571771442,,,,,,,,,,,,,,,,,,,,,,,,,,,1,0,42,42,42,1,bridge_250.jpg,bridge,,,,,,,,,,,,,,,,,,,
,,,AGOBQY50VQ7VX,28,FEMALE,8 HOURS,03-28-2023_17h48.35.942,memory_pilot_most_recent,2022.2.4,Win32,8.571771442,,,,,,,,,,,,,,,,,,,,,,,,,,,1,0,43,43,43,1,mountain_123.jpg,mountain,,,,,,,,,,,,,,,,,,,
,,,AGOBQY50VQ7VX,28,FEMALE,8 HOURS,03-28-2023_17h48.35.942,memory_pilot_most_recent,2022.2.4,Win32,8.571771442,,,,,,,,,,,,,,,,,,,,,,,,,,,1,0,44,44,44,1,golf_course_193.jpg,golf,,,,,,,,,,,,,,,,,,,
,,,AGOBQY50VQ7VX,28,FEMALE,8 HOURS,03-28-2023_17h48.35.942,memory_pilot_most_recent,2022.2.4,Win32,8.571771442,,,,,,,,,,,,,,,,,,,,,,,,,,,1,0,45,45,45,1,highway_245.jpg,highway,,,,,,,,,,,,,,,,,,,
,,,AGOBQY50VQ7VX,28,FEMALE,8 HOURS,03-28-2023_17h48.35.942,memory_pilot_most_recent,2022.2.4,Win32,8.571771442,,,,,,,,,,,,,,,,,,,,,,,,,,,1,0,46,46,46,1,highway_415.jpg,highway,,,,,,,,,,,,,,,,,,,
,,,AGOBQY50VQ7VX,28,FEMALE,8 HOURS,03-28-2023_17h48.35.942,memory_pilot_most_recent,2022.2.4,Win32,8.571771442,,,,,,,,,,,,,,,,,,,,,,,,,,right,1,0,47,47,47,1,right.jpg,,right,0.8851,,,,,,,,,,,,,,,,,
,,,AGOBQY50VQ7VX,28,FEMALE,8 HOURS,03-28-2023_17h48.35.942,memory_pilot_most_recent,2022.2.4,Win32,8.571771442,,,,,,,,,,,,,,,,,,,,,,,,,,,1,0,48,48,48,1,highway_359.jpg,highway,,,,,,,,,,,,,,,,,,,
,,,AGOBQY50VQ7VX,28,FEMALE,8 HOURS,03-28-2023_17h48.35.942,memory_pilot_most_recent,2022.2.4,Win32,8.571771442,,,,,,,,,,,,,,,,,,,,,,,,,,,1,0,49,49,49,1,highway_273.jpg,highway,,,,,,,,,,,,,,,,,,,
,,,AGOBQY50VQ7VX,28,FEMALE,8 HOURS,03-28-2023_17h48.35.942,memory_pilot_most_recent,2022.2.4,Win32,8.571771442,,,,,,,,,,,,,,,,,,,,,,,,,,,1,0,50,50,50,1,playground_10.jpg,playground,,,,,,,,,,,,,,,,,,,
,,,AGOBQY50VQ7VX,28,FEMALE,8 HOURS,03-28-2023_17h48.35.942,memory_pilot_most_recent,2022.2.4,Win32,8.571771442,,,,,,,,,,,,,,,,,,,,,,,,,,,1,0,51,51,51,1,playground_145.jpg,playground,,,,,,,,,,,,,,,,,,,
,,,AGOBQY50VQ7VX,28,FEMALE,8 HOURS,03-28-2023_17h48.35.942,memory_pilot_most_recent,2022.2.4,Win32,8.571771442,,,,,,,,,,,,,,,,,,,,,,,,,,,1,0,52,52,52,1,mountain_57.jpg,mountain,,,,,,,,,,,,,,,,,,,
,,,AGOBQY50VQ7VX,28,FEMALE,8 HOURS,03-28-2023_17h48.35.942,memory_pilot_most_recent,2022.2.4,Win32,8.571771442,,,,,,,,,,,,,,,,,,,,,,,,,,,1,0,53,53,53,1,badlands_24.jpg,badlands,,,,,,,,,,,,,,,,,,,
,,,AGOBQY50VQ7VX,28,FEMALE,8 HOURS,03-28-2023_17h48.35.942,memory_pilot_most_recent,2022.2.4,Win32,8.571771442,,,,,,,,,,,,,,,,,,,,,,,,,,,1,0,54,54,54,1,playground_257.jpg,playground,,,,,,,,,,,,,,,,,,,
,,,AGOBQY50VQ7VX,28,FEMALE,8 HOURS,03-28-2023_17h48.35.942,memory_pilot_most_recent,2022.2.4,Win32,8.571771442,,,,,,,,,,,,,,,,,,,,,,,,,,,1,0,55,55,55,1,badlands_221.jpg,badlands,,,,,,,,,,,,,,,,,,,
,,,AGOBQY50VQ7VX,28,FEMALE,8 HOURS,03-28-2023_17h48.35.942,memory_pilot_most_recent,2022.2.4,Win32,8.571771442,,,,,,,,,,,,,,,,,,,,,,,,,,,1,0,56,56,56,1,mountain_110.jpg,mountain,,,,,,,,,,,,,,,,,,,
,,,AGOBQY50VQ7VX,28,FEMALE,8 HOURS,03-28-2023_17h48.35.942,memory_pilot_most_recent,2022.2.4,Win32,8.571771442,,,,,,,,,,,,,,,,,,,,,,,,,,,1,0,57,57,57,1,badlands_52.jpg,badlands,,,,,,,,,,,,,,,,,,,
,,,AGOBQY50VQ7VX,28,FEMALE,8 HOURS,03-28-2023_17h48.35.942,memory_pilot_most_recent,2022.2.4,Win32,8.571771442,,,,,,,,,,,,,,,,,,,,,,,,,,,1,0,58,58,58,1,badlands_137.jpg,badlands,,,,,,,,,,,,,,,,,,,
,,,AGOBQY50VQ7VX,28,FEMALE,8 HOURS,03-28-2023_17h48.35.942,memory_pilot_most_recent,2022.2.4,Win32,8.571771442,,,,,,,,,,,,,,,,,,,,,,,,,,,1,0,59,59,59,1,highway_394.jpg,highway,,,,,,,,,,,,,,,,,,,
,,,AGOBQY50VQ7VX,28,FEMALE,8 HOURS,03-28-2023_17h48.35.942,memory_pilot_most_recent,2022.2.4,Win32,8.571771442,,,,,,,,,,,,,,,,,,,,,,,,,,,1,0,60,60,60,1,mountain_156.jpg,mountain,,,,,,,,,,,,,,,,,,,
,,,AGOBQY50VQ7VX,28,FEMALE,8 HOURS,03-28-2023_17h48.35.942,memory_pilot_most_recent,2022.2.4,Win32,8.571771442,,,,,,,,,,,,,,,,,,,,,,,,,,,1,0,61,61,61,1,playground_131.jpg,playground,,,,,,,,,,,,,,,,,,,
,,,AGOBQY50VQ7VX,28,FEMALE,8 HOURS,03-28-2023_17h48.35.942,memory_pilot_most_recent,2022.2.4,Win32,8.571771442,,,,,,,,,,,,,,,,,,,,,,,,,,,1,0,62,62,62,1,golf_course_331.jpg,golf,,,,,,,,,,,,,,,,,,,
,,,AGOBQY50VQ7VX,28,FEMALE,8 HOURS,03-28-2023_17h48.35.942,memory_pilot_most_recent,2022.2.4,Win32,8.571771442,,,,,,,,,,,,,,,,,,,,,,,,,,,1,0,63,63,63,1,badlands_184.jpg,badlands,,,,,,,,,,,,,,,,,,,
,,,AGOBQY50VQ7VX,28,FEMALE,8 HOURS,03-28-2023_17h48.35.942,memory_pilot_most_recent,2022.2.4,Win32,8.571771442,,,,,,,,,,,,,,,,,,,,,,,,,,,1,0,64,64,64,1,highway_156.jpg,highway,,,,,,,,,,,,,,,,,,,
,,,AGOBQY50VQ7VX,28,FEMALE,8 HOURS,03-28-2023_17h48.35.942,memory_pilot_most_recent,2022.2.4,Win32,8.571771442,,,,,,,,,,,,,,,,,,,,,,,,,,,,,,,,,,,,,space,3.0389,,,,,,,,,,,,,,,
,,,AGOBQY50VQ7VX,28,FEMALE,8 HOURS,03-28-2023_17h48.35.942,memory_pilot_most_recent,2022.2.4,Win32,8.571771442,,,,,,,,,,,,,,,,,,,,,,,,,,,,,,,,,,,,,,,,,,,,,,,,,,,,,
,,,AGOBQY50VQ7VX,28,FEMALE,8 HOURS,03-28-2023_17h48.35.942,memory_pilot_most_recent,2022.2.4,Win32,8.571771442,,,,,,,,,,,,,,,,,,,,,,,,,,,,,,,,,,bridge,left,,,,left,1,2.5107,9,2.1054,0,0,0,0,1,bridge_108.jpg,bridge_116.jpg,0,,
,,,AGOBQY50VQ7VX,28,FEMALE,8 HOURS,03-28-2023_17h48.35.942,memory_pilot_most_recent,2022.2.4,Win32,8.571771442,,,,,,,,,,,,,,,,,,,,,,,,,,,,,,,,,,highway,right,,,,right,1,1.3223,7,1.4652,0,1,1,1,1,highway_204.jpg,highway_394.jpg,0,,
,,,AGOBQY50VQ7VX,28,FEMALE,8 HOURS,03-28-2023_17h48.35.942,memory_pilot_most_recent,2022.2.4,Win32,8.571771442,,,,,,,,,,,,,,,,,,,,,,,,,,,,,,,,,,badlands,right,,,,left,0,1.418,4,1.755,0,2,2,2,1,badlands_115.jpg,badlands_221.jpg,0,,
,,,AGOBQY50VQ7VX,28,FEMALE,8 HOURS,03-28-2023_17h48.35.942,memory_pilot_most_recent,2022.2.4,Win32,8.571771442,,,,,,,,,,,,,,,,,,,,,,,,,,,,,,,,,,mountain,right,,,,right,1,2.4995,8,1.2496,0,3,3,3,1,mountain_295.jpg,mountain_156.jpg,1,,
,,,AGOBQY50VQ7VX,28,FEMALE,8 HOURS,03-28-2023_17h48.35.942,memory_pilot_most_recent,2022.2.4,Win32,8.571771442,,,,,,,,,,,,,,,,,,,,,,,,,,,,,,,,,,golf,left,,,,left,1,1.7273,6,2.1261,0,4,4,4,1,golf_course_214.jpg,golf_course_312.jpg,0,,
,,,AGOBQY50VQ7VX,28,FEMALE,8 HOURS,03-28-2023_17h48.35.942,memory_pilot_most_recent,2022.2.4,Win32,8.571771442,,,,,,,,,,,,,,,,,,,,,,,,,,,,,,,,,,bridge,left,,,,left,1,1.3855,8,1.6804,0,5,5,5,1,bridge_128.jpg,bridge_244.jpg,1,,
,,,AGOBQY50VQ7VX,28,FEMALE,8 HOURS,03-28-2023_17h48.35.942,memory_pilot_most_recent,2022.2.4,Win32,8.571771442,,,,,,,,,,,,,,,,,,,,,,,,,,,,,,,,,,bridge,left,,,,left,1,1.8709,8,1.432,0,6,6,6,1,bridge_202.jpg,bridge_38.jpg,1,,
,,,AGOBQY50VQ7VX,28,FEMALE,8 HOURS,03-28-2023_17h48.35.942,memory_pilot_most_recent,2022.2.4,Win32,8.571771442,,,,,,,,,,,,,,,,,,,,,,,,,,,,,,,,,,golf,right,,,,right,1,1.4831,8,1.279,0,7,7,7,1,golf_course_209.jpg,golf_course_309.jpg,1,,
,,,AGOBQY50VQ7VX,28,FEMALE,8 HOURS,03-28-2023_17h48.35.942,memory_pilot_most_recent,2022.2.4,Win32,8.571771442,,,,,,,,,,,,,,,,,,,,,,,,,,,,,,,,,,mountain,left,,,,right,0,1.9862,3,1.4571,0,8,8,8,1,mountain_222.jpg,mountain_244.jpg,0,,
,,,AGOBQY50VQ7VX,28,FEMALE,8 HOURS,03-28-2023_17h48.35.942,memory_pilot_most_recent,2022.2.4,Win32,8.571771442,,,,,,,,,,,,,,,,,,,,,,,,,,,,,,,,,,mountain,right,,,,right,1,1.7027,5,2.2866,0,9,9,9,1,mountain_138.jpg,mountain_57.jpg,1,,
,,,AGOBQY50VQ7VX,28,FEMALE,8 HOURS,03-28-2023_17h48.35.942,memory_pilot_most_recent,2022.2.4,Win32,8.571771442,,,,,,,,,,,,,,,,,,,,,,,,,,,,,,,,,,playground,left,,,,left,1,1.3273,8,2.3453,0,10,10,10,1,playground_144.jpg,playground_65.jpg,1,,
,,,AGOBQY50VQ7VX,28,FEMALE,8 HOURS,03-28-2023_17h48.35.942,memory_pilot_most_recent,2022.2.4,Win32,8.571771442,,,,,,,,,,,,,,,,,,,,,,,,,,,,,,,,,,bridge,right,,,,right,1,1.6697,9,1.4944,0,11,11,11,1,bridge_211.jpg,bridge_256.jpg,1,,
,,,AGOBQY50VQ7VX,28,FEMALE,8 HOURS,03-28-2023_17h48.35.942,memory_pilot_most_recent,2022.2.4,Win32,8.571771442,,,,,,,,,,,,,,,,,,,,,,,,,,,,,,,,,,highway,left,,,,left,1,2.1457,8,1.459,0,12,12,12,1,highway_93.jpg,highway_85.jpg,0,,
,,,AGOBQY50VQ7VX,28,FEMALE,8 HOURS,03-28-2023_17h48.35.942,memory_pilot_most_recent,2022.2.4,Win32,8.571771442,,,,,,,,,,,,,,,,,,,,,,,,,,,,,,,,,,golf,left,,,,right,0,1.6987,3,2.0326,0,13,13,13,1,golf_course_195.jpg,golf_course_25.jpg,0,,
,,,AGOBQY50VQ7VX,28,FEMALE,8 HOURS,03-28-2023_17h48.35.942,memory_pilot_most_recent,2022.2.4,Win32,8.571771442,,,,,,,,,,,,,,,,,,,,,,,,,,,,,,,,,,highway,right,,,,left,0,1.3832,5,1.7746,0,14,14,14,1,highway_160.jpg,highway_156.jpg,0,,
,,,AGOBQY50VQ7VX,28,FEMALE,8 HOURS,03-28-2023_17h48.35.942,memory_pilot_most_recent,2022.2.4,Win32,8.571771442,,,,,,,,,,,,,,,,,,,,,,,,,,,,,,,,,,playground,left,,,,left,1,2.1295,7,1.496,0,15,15,15,1,playground_219.jpg,playground_21.jpg,0,,
,,,AGOBQY50VQ7VX,28,FEMALE,8 HOURS,03-28-2023_17h48.35.942,memory_pilot_most_recent,2022.2.4,Win32,8.571771442,,,,,,,,,,,,,,,,,,,,,,,,,,,,,,,,,,highway,right,,,,right,1,2.4538,7,1.1945,0,16,16,16,1,highway_87.jpg,highway_177.jpg,0,,
,,,AGOBQY50VQ7VX,28,FEMALE,8 HOURS,03-28-2023_17h48.35.942,memory_pilot_most_recent,2022.2.4,Win32,8.571771442,,,,,,,,,,,,,,,,,,,,,,,,,,,,,,,,,,bridge,right,,,,right,1,2.8404,3,1.4039,0,17,17,17,1,bridge_27.jpg,bridge_146.jpg,0,,
,,,AGOBQY50VQ7VX,28,FEMALE,8 HOURS,03-28-2023_17h48.35.942,memory_pilot_most_recent,2022.2.4,Win32,8.571771442,,,,,,,,,,,,,,,,,,,,,,,,,,,,,,,,,,playground,right,,,,right,1,1.9123,9,1.5743,0,18,18,18,1,playground_122.jpg,playground_10.jpg,0,,
,,,AGOBQY50VQ7VX,28,FEMALE,8 HOURS,03-28-2023_17h48.35.942,memory_pilot_most_recent,2022.2.4,Win32,8.571771442,,,,,,,,,,,,,,,,,,,,,,,,,,,,,,,,,,playground,right,,,,right,1,2.1834,5,1.7466,0,19,19,19,1,playground_2.jpg,playground_240.jpg,0,,
,,,AGOBQY50VQ7VX,28,FEMALE,8 HOURS,03-28-2023_17h48.35.942,memory_pilot_most_recent,2022.2.4,Win32,8.571771442,,,,,,,,,,,,,,,,,,,,,,,,,,,,,,,,,,golf,right,,,,right,1,2.2409,8,1.7757,0,20,20,20,1,golf_course_97.jpg,golf_course_15.jpg,1,,
,,,AGOBQY50VQ7VX,28,FEMALE,8 HOURS,03-28-2023_17h48.35.942,memory_pilot_most_recent,2022.2.4,Win32,8.571771442,,,,,,,,,,,,,,,,,,,,,,,,,,,,,,,,,,bridge,right,,,,right,1,1.6491,6,2.6115,0,21,21,21,1,bridge_17.jpg,bridge_172.jpg,0,,
,,,AGOBQY50VQ7VX,28,FEMALE,8 HOURS,03-28-2023_17h48.35.942,memory_pilot_most_recent,2022.2.4,Win32,8.571771442,,,,,,,,,,,,,,,,,,,,,,,,,,,,,,,,,,golf,left,,,,left,1,1.5156,7,1.9833,0,22,22,22,1,golf_course_217.jpg,golf_course_262.jpg,1,,
,,,AGOBQY50VQ7VX,28,FEMALE,8 HOURS,03-28-2023_17h48.35.942,memory_pilot_most_recent,2022.2.4,Win32,8.571771442,,,,,,,,,,,,,,,,,,,,,,,,,,,,,,,,,,badlands,right,,,,right,1,1.6454,7,2.4106,0,23,23,23,1,badlands_101.jpg,badlands_23.jpg,1,,
,,,AGOBQY50VQ7VX,28,FEMALE,8 HOURS,03-28-2023_17h48.35.942,memory_pilot_most_recent,2022.2.4,Win32,8.571771442,,,,,,,,,,,,,,,,,,,,,,,,,,,,,,,,,,mountain,right,,,,right,1,1.74,6,1.385,0,24,24,24,1,mountain_221.jpg,mountain_101.jpg,1,,
,,,AGOBQY50VQ7VX,28,FEMALE,8 HOURS,03-28-2023_17h48.35.942,memory_pilot_most_recent,2022.2.4,Win32,8.571771442,,,,,,,,,,,,,,,,,,,,,,,,,,,,,,,,,,playground,right,,,,right,1,1.491,8,1.577,0,25,25,25,1,playground_43.jpg,playground_131.jpg,0,,
,,,AGOBQY50VQ7VX,28,FEMALE,8 HOURS,03-28-2023_17h48.35.942,memory_pilot_most_recent,2022.2.4,Win32,8.571771442,,,,,,,,,,,,,,,,,,,,,,,,,,,,,,,,,,mountain,right,,,,right,1,1.3443,7,2.2449,0,26,26,26,1,mountain_3.jpg,mountain_232.jpg,0,,
,,,AGOBQY50VQ7VX,28,FEMALE,8 HOURS,03-28-2023_17h48.35.942,memory_pilot_most_recent,2022.2.4,Win32,8.571771442,,,,,,,,,,,,,,,,,,,,,,,,,,,,,,,,,,badlands,right,,,,left,0,1.8921,8,2.7865,0,27,27,27,1,badlands_139.jpg,badlands_137.jpg,1,,
,,,AGOBQY50VQ7VX,28,FEMALE,8 HOURS,03-28-2023_17h48.35.942,memory_pilot_most_recent,2022.2.4,Win32,8.571771442,,,,,,,,,,,,,,,,,,,,,,,,,,,,,,,,,,highway,left,,,,right,0,3.9398,7,1.8395,0,28,28,28,1,highway_209.jpg,highway_122.jpg,1,,
,,,AGOBQY50VQ7VX,28,FEMALE,8 HOURS,03-28-2023_17h48.35.942,memory_pilot_most_recent,2022.2.4,Win32,8.571771442,,,,,,,,,,,,,,,,,,,,,,,,,,,,,,,,,,mountain,right,,,,right,1,1.6561,8,2.6109,0,29,29,29,1,mountain_184.jpg,mountain_230.jpg,0,,
,,,AGOBQY50VQ7VX,28,FEMALE,8 HOURS,03-28-2023_17h48.35.942,memory_pilot_most_recent,2022.2.4,Win32,8.571771442,,,,,,,,,,,,,,,,,,,,,,,,,,,,,,,,,,mountain,left,,,,right,0,5.8234,7,1.6058,0,30,30,30,1,mountain_123.jpg,mountain_94.jpg,0,,
,,,AGOBQY50VQ7VX,28,FEMALE,8 HOURS,03-28-2023_17h48.35.942,memory_pilot_most_recent,2022.2.4,Win32,8.571771442,,,,,,,,,,,,,,,,,,,,,,,,,,,,,,,,,,badlands,right,,,,right,1,1.5432,8,1.4244,0,31,31,31,1,badlands_3.jpg,badlands_24.jpg,0,,
,,,AGOBQY50VQ7VX,28,FEMALE,8 HOURS,03-28-2023_17h48.35.942,memory_pilot_most_recent,2022.2.4,Win32,8.571771442,,,,,,,,,,,,,,,,,,,,,,,,,,,,,,,,,,bridge,right,,,,right,1,1.5565,6,1.2527,0,32,32,32,1,bridge_205.jpg,bridge_250.jpg,1,,
,,,AGOBQY50VQ7VX,28,FEMALE,8 HOURS,03-28-2023_17h48.35.942,memory_pilot_most_recent,2022.2.4,Win32,8.571771442,,,,,,,,,,,,,,,,,,,,,,,,,,,,,,,,,,highway,right,,,,right,1,2.7083,9,2.5024,0,33,33,33,1,highway_379.jpg,highway_359.jpg,1,,
,,,AGOBQY50VQ7VX,28,FEMALE,8 HOURS,03-28-2023_17h48.35.942,memory_pilot_most_recent,2022.2.4,Win32,8.571771442,,,,,,,,,,,,,,,,,,,,,,,,,,,,,,,,,,golf,right,,,,right,1,1.8781,6,1.4732,0,34,34,34,1,golf_course_157.jpg,golf_course_188.jpg,0,,
,,,AGOBQY50VQ7VX,28,FEMALE,8 HOURS,03-28-2023_17h48.35.942,memory_pilot_most_recent,2022.2.4,Win32,8.571771442,,,,,,,,,,,,,,,,,,,,,,,,,,,,,,,,,,highway,right,,,,left,0,3.5212,5,1.7669,0,35,35,35,1,highway_174.jpg,highway_415.jpg,1,,
,,,AGOBQY50VQ7VX,28,FEMALE,8 HOURS,03-28-2023_17h48.35.942,memory_pilot_most_recent,2022.2.4,Win32,8.571771442,,,,,,,,,,,,,,,,,,,,,,,,,,,,,,,,,,playground,left,,,,left,1,1.7353,8,2.0775,0,36,36,36,1,playground_76.jpg,playground_22.jpg,0,,
,,,AGOBQY50VQ7VX,28,FEMALE,8 HOURS,03-28-2023_17h48.35.942,memory_pilot_most_recent,2022.2.4,Win32,8.571771442,,,,,,,,,,,,,,,,,,,,,,,,,,,,,,,,,,highway,left,,,,left,1,2.1523,8,1.6163,0,37,37,37,1,highway_294.jpg,highway_368.jpg,1,,
,,,AGOBQY50VQ7VX,28,FEMALE,8 HOURS,03-28-2023_17h48.35.942,memory_pilot_most_recent,2022.2.4,Win32,8.571771442,,,,,,,,,,,,,,,,,,,,,,,,,,,,,,,,,,golf,right,,,,right,1,2.3595,9,2.1332,0,38,38,38,1,golf_course_114.jpg,golf_course_331.jpg,0,,
,,,AGOBQY50VQ7VX,28,FEMALE,8 HOURS,03-28-2023_17h48.35.942,memory_pilot_most_recent,2022.2.4,Win32,8.571771442,,,,,,,,,,,,,,,,,,,,,,,,,,,,,,,,,,playground,left,,,,left,1,2.4877,5,2.0713,0,39,39,39,1,playground_257.jpg,playground_215.jpg,1,,
,,,AGOBQY50VQ7VX,28,FEMALE,8 HOURS,03-28-2023_17h48.35.942,memory_pilot_most_recent,2022.2.4,Win32,8.571771442,,,,,,,,,,,,,,,,,,,,,,,,,,,,,,,,,,golf,left,,,,left,1,1.9502,8,1.388,0,40,40,40,1,golf_course_87.jpg,golf_course_130.jpg,0,,
,,,AGOBQY50VQ7VX,28,FEMALE,8 HOURS,03-28-2023_17h48.35.942,memory_pilot_most_recent,2022.2.4,Win32,8.571771442,,,,,,,,,,,,,,,,,,,,,,,,,,,,,,,,,,badlands,left,,,,left,1,1.7267,7,1.7326,0,41,41,41,1,badlands_21.jpg,badlands_98.jpg,1,,
,,,AGOBQY50VQ7VX,28,FEMALE,8 HOURS,03-28-2023_17h48.35.942,memory_pilot_most_recent,2022.2.4,Win32,8.571771442,,,,,,,,,,,,,,,,,,,,,,,,,,,,,,,,,,mountain,right,,,,right,1,7.102,8,2.1246,0,42,42,42,1,mountain_47.jpg,mountain_293.jpg,1,,
,,,AGOBQY50VQ7VX,28,FEMALE,8 HOURS,03-28-2023_17h48.35.942,memory_pilot_most_recent,2022.2.4,Win32,8.571771442,,,,,,,,,,,,,,,,,,,,,,,,,,,,,,,,,,mountain,right,,,,right,1,5.5351,7,1.5812,0,43,43,43,1,mountain_157.jpg,mountain_110.jpg,0,,
,,,AGOBQY50VQ7VX,28,FEMALE,8 HOURS,03-28-2023_17h48.35.942,memory_pilot_most_recent,2022.2.4,Win32,8.571771442,,,,,,,,,,,,,,,,,,,,,,,,,,,,,,,,,,badlands,right,,,,right,1,1.3972,7,1.6763,0,44,44,44,1,badlands_63.jpg,badlands_52.jpg,1,,
,,,AGOBQY50VQ7VX,28,FEMALE,8 HOURS,03-28-2023_17h48.35.942,memory_pilot_most_recent,2022.2.4,Win32,8.571771442,,,,,,,,,,,,,,,,,,,,,,,,,,,,,,,,,,golf,left,,,,left,1,2.7842,7,1.7714,0,45,45,45,1,golf_course_193.jpg,golf_course_123.jpg,1,,
,,,AGOBQY50VQ7VX,28,FEMALE,8 HOURS,03-28-2023_17h48.35.942,memory_pilot_most_recent,2022.2.4,Win32,8.571771442,,,,,,,,,,,,,,,,,,,,,,,,,,,,,,,,,,badlands,right,,,,right,1,2.2577,8,1.813,0,46,46,46,1,badlands_34.jpg,badlands_222.jpg,0,,
,,,AGOBQY50VQ7VX,28,FEMALE,8 HOURS,03-28-2023_17h48.35.942,memory_pilot_most_recent,2022.2.4,Win32,8.571771442,,,,,,,,,,,,,,,,,,,,,,,,,,,,,,,,,,highway,left,,,,left,1,1.898,5,1.1276,0,47,47,47,1,highway_273.jpg,highway_171.jpg,1,,
,,,AGOBQY50VQ7VX,28,FEMALE,8 HOURS,03-28-2023_17h48.35.942,memory_pilot_most_recent,2022.2.4,Win32,8.571771442,,,,,,,,,,,,,,,,,,,,,,,,,,,,,,,,,,playground,left,,,,right,0,1.5787,5,1.975,0,48,48,48,1,playground_60.jpg,playground_244.jpg,1,,
,,,AGOBQY50VQ7VX,28,FEMALE,8 HOURS,03-28-2023_17h48.35.942,memory_pilot_most_recent,2022.2.4,Win32,8.571771442,,,,,,,,,,,,,,,,,,,,,,,,,,,,,,,,,,playground,left,,,,right,0,2.4209,4,1.7697,0,49,49,49,1,playground_145.jpg,playground_242.jpg,1,,
,,,AGOBQY50VQ7VX,28,FEMALE,8 HOURS,03-28-2023_17h48.35.942,memory_pilot_most_recent,2022.2.4,Win32,8.571771442,,,,,,,,,,,,,,,,,,,,,,,,,,,,,,,,,,highway,left,,,,left,1,1.8962,9,1.5307,0,50,50,50,1,highway_245.jpg,highway_134.jpg,0,,
,,,AGOBQY50VQ7VX,28,FEMALE,8 HOURS,03-28-2023_17h48.35.942,memory_pilot_most_recent,2022.2.4,Win32,8.571771442,,,,,,,,,,,,,,,,,,,,,,,,,,,,,,,,,,badlands,right,,,,right,1,1.3284,7,1.5364,0,51,51,51,1,badlands_102.jpg,badlands_70.jpg,0,,
,,,AGOBQY50VQ7VX,28,FEMALE,8 HOURS,03-28-2023_17h48.35.942,memory_pilot_most_recent,2022.2.4,Win32,8.571771442,,,,,,,,,,,,,,,,,,,,,,,,,,,,,,,,,,bridge,left,,,,left,1,2.0088,8,1.3964,0,52,52,52,1,bridge_191.jpg,bridge_75.jpg,1,,
,,,AGOBQY50VQ7VX,28,FEMALE,8 HOURS,03-28-2023_17h48.35.942,memory_pilot_most_recent,2022.2.4,Win32,8.571771442,,,,,,,,,,,,,,,,,,,,,,,,,,,,,,,,,,playground,left,,,,left,1,1.9446,6,1.603,0,53,53,53,1,playground_117.jpg,playground_127.jpg,1,,
,,,AGOBQY50VQ7VX,28,FEMALE,8 HOURS,03-28-2023_17h48.35.942,memory_pilot_most_recent,2022.2.4,Win32,8.571771442,,,,,,,,,,,,,,,,,,,,,,,,,,,,,,,,,,badlands,left,,,,left,1,1.602,6,1.2642,0,54,54,54,1,badlands_113.jpg,badlands_225.jpg,0,,
,,,AGOBQY50VQ7VX,28,FEMALE,8 HOURS,03-28-2023_17h48.35.942,memory_pilot_most_recent,2022.2.4,Win32,8.571771442,,,,,,,,,,,,,,,,,,,,,,,,,,,,,,,,,,mountain,right,,,,right,1,5.5681,3,1.2977,0,55,55,55,1,mountain_95.jpg,mountain_154.jpg,1,,
,,,AGOBQY50VQ7VX,28,FEMALE,8 HOURS,03-28-2023_17h48.35.942,memory_pilot_most_recent,2022.2.4,Win32,8.571771442,,,,,,,,,,,,,,,,,,,,,,,,,,,,,,,,,,bridge,right,,,,right,1,1.4832,5,1.3076,0,56,56,56,1,bridge_181.jpg,bridge_65.jpg,0,,
,,,AGOBQY50VQ7VX,28,FEMALE,8 HOURS,03-28-2023_17h48.35.942,memory_pilot_most_recent,2022.2.4,Win32,8.571771442,,,,,,,,,,,,,,,,,,,,,,,,,,,,,,,,,,golf,right,,,,left,0,3.1937,7,1.9837,0,57,57,57,1,golf_course_101.jpg,golf_course_78.jpg,1,,
,,,AGOBQY50VQ7VX,28,FEMALE,8 HOURS,03-28-2023_17h48.35.942,memory_pilot_most_recent,2022.2.4,Win32,8.571771442,,,,,,,,,,,,,,,,,,,,,,,,,,,,,,,,,,bridge,left,,,,left,1,1.2854,9,1.5781,0,58,58,58,1,bridge_91.jpg,bridge_253.jpg,0,,
,,,AGOBQY50VQ7VX,28,FEMALE,8 HOURS,03-28-2023_17h48.35.942,memory_pilot_most_recent,2022.2.4,Win32,8.571771442,,,,,,,,,,,,,,,,,,,,,,,,,,,,,,,,,,badlands,right,,,,right,1,2.228,5,2.1215,0,59,59,59,1,badlands_103.jpg,badlands_184.jpg,1,,
,,,AGOBQY50VQ7VX,28,FEMALE,8 HOURS,03-28-2023_17h48.35.942,memory_pilot_most_recent,2022.2.4,Win32,8.571771442,,,,,,,,,,,,,,,,,,,,,,,,,,,,,,,,,,,,,,,,,,,,,,,,,,,,space,42.9418
