button.numClicks,button.timesOn,button.timesOff,workID,Age,Gender,Hours slept (last night),date,expName,psychopyVersion,OS,frameRate,space_key_responce.keys,space_key_responce.rt,demo_encoding_response.keys,demo_encoding_response.corr,demo_encoding_loop.thisRepN,demo_encoding_loop.thisTrialN,demo_encoding_loop.thisN,demo_encoding_loop.thisIndex,demo_encoding_loop.ran,DemoImage,DemoCorrect,demo_encoding_response.rt,demo_test_response.keys,demo_test_response.corr,demo_test_response.rt,demo_bar_2.response,demo_bar_2.rt,demo_test_loop.thisRepN,demo_test_loop.thisTrialN,demo_test_loop.thisN,demo_test_loop.thisIndex,demo_test_loop.ran,DemoImage1,DemoImage2,DemoCorrectTest,test_encoding_response.keys,test_encoding_response.corr,trials.thisRepN,trials.thisTrialN,trials.thisN,trials.thisIndex,trials.ran,target,category,correct,test_encoding_response.rt,key_resp_end.keys,key_resp_end.rt,test_test_response.keys,test_test_response.corr,test_test_response.rt,bar_2.response,bar_2.rt,trials_2.thisRepN,trials_2.thisTrialN,trials_2.thisN,trials_2.thisIndex,trials_2.ran,image1,image2,layer,key_resp_end_2.keys,key_resp_end_2.rt
1,[36.10400000000004],[36.10410000038149],ATPW1MWLW7RBL,35,Male,8,03-29-2023_07h39.06.323,memory_pilot_most_recent,2022.2.4,Win32,9.160445198,,,,,,,,,,,,,,,,,,,,,,,,,,,,,,,,,,,,,,,,,,,,,,,,,,,,,
,,,ATPW1MWLW7RBL,35,Male,8,03-29-2023_07h39.06.323,memory_pilot_most_recent,2022.2.4,Win32,9.160445198,,,,,,,,,,,,,,,,,,,,,,,,,,,,,,,,,,,,,,,,,,,,,,,,,,,,,
,,,ATPW1MWLW7RBL,35,Male,8,03-29-2023_07h39.06.323,memory_pilot_most_recent,2022.2.4,Win32,9.160445198,space,1.7959,,,,,,,,,,,,,,,,,,,,,,,,,,,,,,,,,,,,,,,,,,,,,,,,,,,
,,,ATPW1MWLW7RBL,35,Male,8,03-29-2023_07h39.06.323,memory_pilot_most_recent,2022.2.4,Win32,9.160445198,,,,,,,,,,,,,,,,,,,,,,,,,,,,,,,,,,,,,,,,,,,,,,,,,,,,,
,,,ATPW1MWLW7RBL,35,Male,8,03-29-2023_07h39.06.323,memory_pilot_most_recent,2022.2.4,Win32,9.160445198,,,,1,0,0,0,0,1,flower1.jpg,,,,,,,,,,,,,,,,,,,,,,,,,,,,,,,,,,,,,,,,,,,
,,,ATPW1MWLW7RBL,35,Male,8,03-29-2023_07h39.06.323,memory_pilot_most_recent,2022.2.4,Win32,9.160445198,,,,1,0,1,1,1,1,flower2.jpg,,,,,,,,,,,,,,,,,,,,,,,,,,,,,,,,,,,,,,,,,,,
,,,ATPW1MWLW7RBL,35,Male,8,03-29-2023_07h39.06.323,memory_pilot_most_recent,2022.2.4,Win32,9.160445198,,,left,1,0,2,2,2,1,left.jpg,left,1.0961,,,,,,,,,,,,,,,,,,,,,,,,,,,,,,,,,,,,,,,,,
,,,ATPW1MWLW7RBL,35,Male,8,03-29-2023_07h39.06.323,memory_pilot_most_recent,2022.2.4,Win32,9.160445198,,,,1,0,3,3,3,1,flower3.jpg,,,,,,,,,,,,,,,,,,,,,,,,,,,,,,,,,,,,,,,,,,,
,,,ATPW1MWLW7RBL,35,Male,8,03-29-2023_07h39.06.323,memory_pilot_most_recent,2022.2.4,Win32,9.160445198,,,,1,0,4,4,4,1,flower4.jpg,,,,,,,,,,,,,,,,,,,,,,,,,,,,,,,,,,,,,,,,,,,
,,,ATPW1MWLW7RBL,35,Male,8,03-29-2023_07h39.06.323,memory_pilot_most_recent,2022.2.4,Win32,9.160445198,,,,1,0,5,5,5,1,flower5.jpg,,,,,,,,,,,,,,,,,,,,,,,,,,,,,,,,,,,,,,,,,,,
,,,ATPW1MWLW7RBL,35,Male,8,03-29-2023_07h39.06.323,memory_pilot_most_recent,2022.2.4,Win32,9.160445198,,,,1,0,6,6,6,1,flower6.jpg,,,,,,,,,,,,,,,,,,,,,,,,,,,,,,,,,,,,,,,,,,,
,,,ATPW1MWLW7RBL,35,Male,8,03-29-2023_07h39.06.323,memory_pilot_most_recent,2022.2.4,Win32,9.160445198,,,,,,,,,,,,,,,,,,,,,,,,,,,,,,,,,,,,,,,,,,,,,,,,,,,,,
,,,ATPW1MWLW7RBL,35,Male,8,03-29-2023_07h39.06.323,memory_pilot_most_recent,2022.2.4,Win32,9.160445198,,,,,,,,,,,,,left,1,1.9072,8,4.056,0,0,0,0,1,flower1.jpg,flower1_pair.jpg,left,,,,,,,,,,,,,,,,,,,,,,,,,,,,
,,,ATPW1MWLW7RBL,35,Male,8,03-29-2023_07h39.06.323,memory_pilot_most_recent,2022.2.4,Win32,9.160445198,,,,,,,,,,,,,right,1,2.1521,9,3.3249,0,1,1,1,1,flower2_pair.jpg,flower2.jpg,right,,,,,,,,,,,,,,,,,,,,,,,,,,,,
,,,ATPW1MWLW7RBL,35,Male,8,03-29-2023_07h39.06.323,memory_pilot_most_recent,2022.2.4,Win32,9.160445198,,,,,,,,,,,,,left,1,3.3599,5,1.52,0,2,2,2,1,flower3.jpg,flower3_pair.jpg,left,,,,,,,,,,,,,,,,,,,,,,,,,,,,
,,,ATPW1MWLW7RBL,35,Male,8,03-29-2023_07h39.06.323,memory_pilot_most_recent,2022.2.4,Win32,9.160445198,,,,,,,,,,,,,left,1,1.9547,6,1.7398,0,3,3,3,1,flower4.jpg,flower4_pair.jpg,left,,,,,,,,,,,,,,,,,,,,,,,,,,,,
,,,ATPW1MWLW7RBL,35,Male,8,03-29-2023_07h39.06.323,memory_pilot_most_recent,2022.2.4,Win32,9.160445198,,,,,,,,,,,,,right,1,2.022,7,1.7752,0,4,4,4,1,flower5_pair.jpg,flower5.jpg,right,,,,,,,,,,,,,,,,,,,,,,,,,,,,
,,,ATPW1MWLW7RBL,35,Male,8,03-29-2023_07h39.06.323,memory_pilot_most_recent,2022.2.4,Win32,9.160445198,,,,,,,,,,,,,left,1,1.8489,6,2.3691,0,5,5,5,1,flower6.jpg,flower6_pair.jpg,left,,,,,,,,,,,,,,,,,,,,,,,,,,,,
,,,ATPW1MWLW7RBL,35,Male,8,03-29-2023_07h39.06.323,memory_pilot_most_recent,2022.2.4,Win32,9.160445198,,,,,,,,,,,,,,,,,,,,,,,,,,,,,,,,,,,,,,,,,,,,,,,,,,,,,
,,,ATPW1MWLW7RBL,35,Male,8,03-29-2023_07h39.06.323,memory_pilot_most_recent,2022.2.4,Win32,9.160445198,space,2.0705,,,,,,,,,,,,,,,,,,,,,,,,,,,,,,,,,,,,,,,,,,,,,,,,,,,
,,,ATPW1MWLW7RBL,35,Male,8,03-29-2023_07h39.06.323,memory_pilot_most_recent,2022.2.4,Win32,9.160445198,,,,,,,,,,,,,,,,,,,,,,,,,,,1,0,0,0,0,1,badlands_137.jpg,badlands,,,,,,,,,,,,,,,,,,,
,,,ATPW1MWLW7RBL,35,Male,8,03-29-2023_07h39.06.323,memory_pilot_most_recent,2022.2.4,Win32,9.160445198,,,,,,,,,,,,,,,,,,,,,,,,,,,1,0,1,1,1,1,playground_10.jpg,playground,,,,,,,,,,,,,,,,,,,
,,,ATPW1MWLW7RBL,35,Male,8,03-29-2023_07h39.06.323,memory_pilot_most_recent,2022.2.4,Win32,9.160445198,,,,,,,,,,,,,,,,,,,,,,,,,,,1,0,2,2,2,1,playground_117.jpg,playground,,,,,,,,,,,,,,,,,,,
,,,ATPW1MWLW7RBL,35,Male,8,03-29-2023_07h39.06.323,memory_pilot_most_recent,2022.2.4,Win32,9.160445198,,,,,,,,,,,,,,,,,,,,,,,,,,,1,0,3,3,3,1,playground_144.jpg,playground,,,,,,,,,,,,,,,,,,,
,,,ATPW1MWLW7RBL,35,Male,8,03-29-2023_07h39.06.323,memory_pilot_most_recent,2022.2.4,Win32,9.160445198,,,,,,,,,,,,,,,,,,,,,,,,,,,1,0,4,4,4,1,highway_359.jpg,highway,,,,,,,,,,,,,,,,,,,
,,,ATPW1MWLW7RBL,35,Male,8,03-29-2023_07h39.06.323,memory_pilot_most_recent,2022.2.4,Win32,9.160445198,,,,,,,,,,,,,,,,,,,,,,,,,,,1,0,5,5,5,1,playground_60.jpg,playground,,,,,,,,,,,,,,,,,,,
,,,ATPW1MWLW7RBL,35,Male,8,03-29-2023_07h39.06.323,memory_pilot_most_recent,2022.2.4,Win32,9.160445198,,,,,,,,,,,,,,,,,,,,,,,,,,,1,0,6,6,6,1,bridge_108.jpg,bridge,,,,,,,,,,,,,,,,,,,
,,,ATPW1MWLW7RBL,35,Male,8,03-29-2023_07h39.06.323,memory_pilot_most_recent,2022.2.4,Win32,9.160445198,,,,,,,,,,,,,,,,,,,,,,,,,,,1,0,7,7,7,1,badlands_52.jpg,badlands,,,,,,,,,,,,,,,,,,,
,,,ATPW1MWLW7RBL,35,Male,8,03-29-2023_07h39.06.323,memory_pilot_most_recent,2022.2.4,Win32,9.160445198,,,,,,,,,,,,,,,,,,,,,,,,,,,1,0,8,8,8,1,highway_415.jpg,highway,,,,,,,,,,,,,,,,,,,
,,,ATPW1MWLW7RBL,35,Male,8,03-29-2023_07h39.06.323,memory_pilot_most_recent,2022.2.4,Win32,9.160445198,,,,,,,,,,,,,,,,,,,,,,,,,,,1,0,9,9,9,1,highway_209.jpg,highway,,,,,,,,,,,,,,,,,,,
,,,ATPW1MWLW7RBL,35,Male,8,03-29-2023_07h39.06.323,memory_pilot_most_recent,2022.2.4,Win32,9.160445198,,,,,,,,,,,,,,,,,,,,,,,,,,left,1,0,10,10,10,1,left.jpg,,left,1.6424,,,,,,,,,,,,,,,,,
,,,ATPW1MWLW7RBL,35,Male,8,03-29-2023_07h39.06.323,memory_pilot_most_recent,2022.2.4,Win32,9.160445198,,,,,,,,,,,,,,,,,,,,,,,,,,,1,0,11,11,11,1,playground_219.jpg,playground,,,,,,,,,,,,,,,,,,,
,,,ATPW1MWLW7RBL,35,Male,8,03-29-2023_07h39.06.323,memory_pilot_most_recent,2022.2.4,Win32,9.160445198,,,,,,,,,,,,,,,,,,,,,,,,,,,1,0,12,12,12,1,mountain_232.jpg,mountain,,,,,,,,,,,,,,,,,,,
,,,ATPW1MWLW7RBL,35,Male,8,03-29-2023_07h39.06.323,memory_pilot_most_recent,2022.2.4,Win32,9.160445198,,,,,,,,,,,,,,,,,,,,,,,,,,,1,0,13,13,13,1,mountain_110.jpg,mountain,,,,,,,,,,,,,,,,,,,
,,,ATPW1MWLW7RBL,35,Male,8,03-29-2023_07h39.06.323,memory_pilot_most_recent,2022.2.4,Win32,9.160445198,,,,,,,,,,,,,,,,,,,,,,,,,,,1,0,14,14,14,1,golf_course_87.jpg,golf,,,,,,,,,,,,,,,,,,,
,,,ATPW1MWLW7RBL,35,Male,8,03-29-2023_07h39.06.323,memory_pilot_most_recent,2022.2.4,Win32,9.160445198,,,,,,,,,,,,,,,,,,,,,,,,,,,1,0,15,15,15,1,playground_131.jpg,playground,,,,,,,,,,,,,,,,,,,
,,,ATPW1MWLW7RBL,35,Male,8,03-29-2023_07h39.06.323,memory_pilot_most_recent,2022.2.4,Win32,9.160445198,,,,,,,,,,,,,,,,,,,,,,,,,,,1,0,16,16,16,1,mountain_230.jpg,mountain,,,,,,,,,,,,,,,,,,,
,,,ATPW1MWLW7RBL,35,Male,8,03-29-2023_07h39.06.323,memory_pilot_most_recent,2022.2.4,Win32,9.160445198,,,,,,,,,,,,,,,,,,,,,,,,,,,1,0,17,17,17,1,badlands_70.jpg,badlands,,,,,,,,,,,,,,,,,,,
,,,ATPW1MWLW7RBL,35,Male,8,03-29-2023_07h39.06.323,memory_pilot_most_recent,2022.2.4,Win32,9.160445198,,,,,,,,,,,,,,,,,,,,,,,,,,right,1,0,18,18,18,1,right.jpg,,right,1.4308,,,,,,,,,,,,,,,,,
,,,ATPW1MWLW7RBL,35,Male,8,03-29-2023_07h39.06.323,memory_pilot_most_recent,2022.2.4,Win32,9.160445198,,,,,,,,,,,,,,,,,,,,,,,,,,,1,0,19,19,19,1,bridge_250.jpg,bridge,,,,,,,,,,,,,,,,,,,
,,,ATPW1MWLW7RBL,35,Male,8,03-29-2023_07h39.06.323,memory_pilot_most_recent,2022.2.4,Win32,9.160445198,,,,,,,,,,,,,,,,,,,,,,,,,,,1,0,20,20,20,1,mountain_222.jpg,mountain,,,,,,,,,,,,,,,,,,,
,,,ATPW1MWLW7RBL,35,Male,8,03-29-2023_07h39.06.323,memory_pilot_most_recent,2022.2.4,Win32,9.160445198,,,,,,,,,,,,,,,,,,,,,,,,,,,1,0,21,21,21,1,golf_course_78.jpg,golf,,,,,,,,,,,,,,,,,,,
,,,ATPW1MWLW7RBL,35,Male,8,03-29-2023_07h39.06.323,memory_pilot_most_recent,2022.2.4,Win32,9.160445198,,,,,,,,,,,,,,,,,,,,,,,,,,,1,0,22,22,22,1,badlands_21.jpg,badlands,,,,,,,,,,,,,,,,,,,
,,,ATPW1MWLW7RBL,35,Male,8,03-29-2023_07h39.06.323,memory_pilot_most_recent,2022.2.4,Win32,9.160445198,,,,,,,,,,,,,,,,,,,,,,,,,,,1,0,23,23,23,1,bridge_128.jpg,bridge,,,,,,,,,,,,,,,,,,,
,,,ATPW1MWLW7RBL,35,Male,8,03-29-2023_07h39.06.323,memory_pilot_most_recent,2022.2.4,Win32,9.160445198,,,,,,,,,,,,,,,,,,,,,,,,,,,1,0,24,24,24,1,bridge_146.jpg,bridge,,,,,,,,,,,,,,,,,,,
,,,ATPW1MWLW7RBL,35,Male,8,03-29-2023_07h39.06.323,memory_pilot_most_recent,2022.2.4,Win32,9.160445198,,,,,,,,,,,,,,,,,,,,,,,,,,,1,0,25,25,25,1,badlands_221.jpg,badlands,,,,,,,,,,,,,,,,,,,
,,,ATPW1MWLW7RBL,35,Male,8,03-29-2023_07h39.06.323,memory_pilot_most_recent,2022.2.4,Win32,9.160445198,,,,,,,,,,,,,,,,,,,,,,,,,,,1,0,26,26,26,1,bridge_91.jpg,bridge,,,,,,,,,,,,,,,,,,,
,,,ATPW1MWLW7RBL,35,Male,8,03-29-2023_07h39.06.323,memory_pilot_most_recent,2022.2.4,Win32,9.160445198,,,,,,,,,,,,,,,,,,,,,,,,,,,1,0,27,27,27,1,highway_273.jpg,highway,,,,,,,,,,,,,,,,,,,
,,,ATPW1MWLW7RBL,35,Male,8,03-29-2023_07h39.06.323,memory_pilot_most_recent,2022.2.4,Win32,9.160445198,,,,,,,,,,,,,,,,,,,,,,,,,,,1,0,28,28,28,1,playground_240.jpg,playground,,,,,,,,,,,,,,,,,,,
,,,ATPW1MWLW7RBL,35,Male,8,03-29-2023_07h39.06.323,memory_pilot_most_recent,2022.2.4,Win32,9.160445198,,,,,,,,,,,,,,,,,,,,,,,,,,left,1,0,29,29,29,1,left.jpg,,left,0.9865,,,,,,,,,,,,,,,,,
,,,ATPW1MWLW7RBL,35,Male,8,03-29-2023_07h39.06.323,memory_pilot_most_recent,2022.2.4,Win32,9.160445198,,,,,,,,,,,,,,,,,,,,,,,,,,,1,0,30,30,30,1,playground_257.jpg,playground,,,,,,,,,,,,,,,,,,,
,,,ATPW1MWLW7RBL,35,Male,8,03-29-2023_07h39.06.323,memory_pilot_most_recent,2022.2.4,Win32,9.160445198,,,,,,,,,,,,,,,,,,,,,,,,,,,1,0,31,31,31,1,golf_course_214.jpg,golf,,,,,,,,,,,,,,,,,,,
,,,ATPW1MWLW7RBL,35,Male,8,03-29-2023_07h39.06.323,memory_pilot_most_recent,2022.2.4,Win32,9.160445198,,,,,,,,,,,,,,,,,,,,,,,,,,,1,0,32,32,32,1,golf_course_195.jpg,golf,,,,,,,,,,,,,,,,,,,
,,,ATPW1MWLW7RBL,35,Male,8,03-29-2023_07h39.06.323,memory_pilot_most_recent,2022.2.4,Win32,9.160445198,,,,,,,,,,,,,,,,,,,,,,,,,,,1,0,33,33,33,1,golf_course_217.jpg,golf,,,,,,,,,,,,,,,,,,,
,,,ATPW1MWLW7RBL,35,Male,8,03-29-2023_07h39.06.323,memory_pilot_most_recent,2022.2.4,Win32,9.160445198,,,,,,,,,,,,,,,,,,,,,,,,,,,1,0,34,34,34,1,highway_294.jpg,highway,,,,,,,,,,,,,,,,,,,
,,,ATPW1MWLW7RBL,35,Male,8,03-29-2023_07h39.06.323,memory_pilot_most_recent,2022.2.4,Win32,9.160445198,,,,,,,,,,,,,,,,,,,,,,,,,,,1,0,35,35,35,1,highway_394.jpg,highway,,,,,,,,,,,,,,,,,,,
,,,ATPW1MWLW7RBL,35,Male,8,03-29-2023_07h39.06.323,memory_pilot_most_recent,2022.2.4,Win32,9.160445198,,,,,,,,,,,,,,,,,,,,,,,,,,,1,0,36,36,36,1,badlands_23.jpg,badlands,,,,,,,,,,,,,,,,,,,
,,,ATPW1MWLW7RBL,35,Male,8,03-29-2023_07h39.06.323,memory_pilot_most_recent,2022.2.4,Win32,9.160445198,,,,,,,,,,,,,,,,,,,,,,,,,,,1,0,37,37,37,1,mountain_101.jpg,mountain,,,,,,,,,,,,,,,,,,,
,,,ATPW1MWLW7RBL,35,Male,8,03-29-2023_07h39.06.323,memory_pilot_most_recent,2022.2.4,Win32,9.160445198,,,,,,,,,,,,,,,,,,,,,,,,,,,1,0,38,38,38,1,highway_245.jpg,highway,,,,,,,,,,,,,,,,,,,
,,,ATPW1MWLW7RBL,35,Male,8,03-29-2023_07h39.06.323,memory_pilot_most_recent,2022.2.4,Win32,9.160445198,,,,,,,,,,,,,,,,,,,,,,,,,,,1,0,39,39,39,1,highway_93.jpg,highway,,,,,,,,,,,,,,,,,,,
,,,ATPW1MWLW7RBL,35,Male,8,03-29-2023_07h39.06.323,memory_pilot_most_recent,2022.2.4,Win32,9.160445198,,,,,,,,,,,,,,,,,,,,,,,,,,right,1,0,40,40,40,1,right.jpg,,right,1.024,,,,,,,,,,,,,,,,,
,,,ATPW1MWLW7RBL,35,Male,8,03-29-2023_07h39.06.323,memory_pilot_most_recent,2022.2.4,Win32,9.160445198,,,,,,,,,,,,,,,,,,,,,,,,,,,1,0,41,41,41,1,mountain_293.jpg,mountain,,,,,,,,,,,,,,,,,,,
,,,ATPW1MWLW7RBL,35,Male,8,03-29-2023_07h39.06.323,memory_pilot_most_recent,2022.2.4,Win32,9.160445198,,,,,,,,,,,,,,,,,,,,,,,,,,,1,0,42,42,42,1,bridge_191.jpg,bridge,,,,,,,,,,,,,,,,,,,
,,,ATPW1MWLW7RBL,35,Male,8,03-29-2023_07h39.06.323,memory_pilot_most_recent,2022.2.4,Win32,9.160445198,,,,,,,,,,,,,,,,,,,,,,,,,,,1,0,43,43,43,1,golf_course_15.jpg,golf,,,,,,,,,,,,,,,,,,,
,,,ATPW1MWLW7RBL,35,Male,8,03-29-2023_07h39.06.323,memory_pilot_most_recent,2022.2.4,Win32,9.160445198,,,,,,,,,,,,,,,,,,,,,,,,,,,1,0,44,44,44,1,bridge_172.jpg,bridge,,,,,,,,,,,,,,,,,,,
,,,ATPW1MWLW7RBL,35,Male,8,03-29-2023_07h39.06.323,memory_pilot_most_recent,2022.2.4,Win32,9.160445198,,,,,,,,,,,,,,,,,,,,,,,,,,,1,0,45,45,45,1,badlands_113.jpg,badlands,,,,,,,,,,,,,,,,,,,
,,,ATPW1MWLW7RBL,35,Male,8,03-29-2023_07h39.06.323,memory_pilot_most_recent,2022.2.4,Win32,9.160445198,,,,,,,,,,,,,,,,,,,,,,,,,,,1,0,46,46,46,1,golf_course_309.jpg,golf,,,,,,,,,,,,,,,,,,,
,,,ATPW1MWLW7RBL,35,Male,8,03-29-2023_07h39.06.323,memory_pilot_most_recent,2022.2.4,Win32,9.160445198,,,,,,,,,,,,,,,,,,,,,,,,,,,1,0,47,47,47,1,badlands_24.jpg,badlands,,,,,,,,,,,,,,,,,,,
,,,ATPW1MWLW7RBL,35,Male,8,03-29-2023_07h39.06.323,memory_pilot_most_recent,2022.2.4,Win32,9.160445198,,,,,,,,,,,,,,,,,,,,,,,,,,,1,0,48,48,48,1,mountain_154.jpg,mountain,,,,,,,,,,,,,,,,,,,
,,,ATPW1MWLW7RBL,35,Male,8,03-29-2023_07h39.06.323,memory_pilot_most_recent,2022.2.4,Win32,9.160445198,,,,,,,,,,,,,,,,,,,,,,,,,,,1,0,49,49,49,1,mountain_156.jpg,mountain,,,,,,,,,,,,,,,,,,,
,,,ATPW1MWLW7RBL,35,Male,8,03-29-2023_07h39.06.323,memory_pilot_most_recent,2022.2.4,Win32,9.160445198,,,,,,,,,,,,,,,,,,,,,,,,,,,1,0,50,50,50,1,highway_177.jpg,highway,,,,,,,,,,,,,,,,,,,
,,,ATPW1MWLW7RBL,35,Male,8,03-29-2023_07h39.06.323,memory_pilot_most_recent,2022.2.4,Win32,9.160445198,,,,,,,,,,,,,,,,,,,,,,,,,,,1,0,51,51,51,1,highway_156.jpg,highway,,,,,,,,,,,,,,,,,,,
,,,ATPW1MWLW7RBL,35,Male,8,03-29-2023_07h39.06.323,memory_pilot_most_recent,2022.2.4,Win32,9.160445198,,,,,,,,,,,,,,,,,,,,,,,,,,right,1,0,52,52,52,1,right.jpg,,right,0.9268,,,,,,,,,,,,,,,,,
,,,ATPW1MWLW7RBL,35,Male,8,03-29-2023_07h39.06.323,memory_pilot_most_recent,2022.2.4,Win32,9.160445198,,,,,,,,,,,,,,,,,,,,,,,,,,,1,0,53,53,53,1,mountain_57.jpg,mountain,,,,,,,,,,,,,,,,,,,
,,,ATPW1MWLW7RBL,35,Male,8,03-29-2023_07h39.06.323,memory_pilot_most_recent,2022.2.4,Win32,9.160445198,,,,,,,,,,,,,,,,,,,,,,,,,,,1,0,54,54,54,1,bridge_256.jpg,bridge,,,,,,,,,,,,,,,,,,,
,,,ATPW1MWLW7RBL,35,Male,8,03-29-2023_07h39.06.323,memory_pilot_most_recent,2022.2.4,Win32,9.160445198,,,,,,,,,,,,,,,,,,,,,,,,,,,1,0,55,55,55,1,bridge_65.jpg,bridge,,,,,,,,,,,,,,,,,,,
,,,ATPW1MWLW7RBL,35,Male,8,03-29-2023_07h39.06.323,memory_pilot_most_recent,2022.2.4,Win32,9.160445198,,,,,,,,,,,,,,,,,,,,,,,,,,,1,0,56,56,56,1,badlands_184.jpg,badlands,,,,,,,,,,,,,,,,,,,
,,,ATPW1MWLW7RBL,35,Male,8,03-29-2023_07h39.06.323,memory_pilot_most_recent,2022.2.4,Win32,9.160445198,,,,,,,,,,,,,,,,,,,,,,,,,,,1,0,57,57,57,1,golf_course_193.jpg,golf,,,,,,,,,,,,,,,,,,,
,,,ATPW1MWLW7RBL,35,Male,8,03-29-2023_07h39.06.323,memory_pilot_most_recent,2022.2.4,Win32,9.160445198,,,,,,,,,,,,,,,,,,,,,,,,,,,1,0,58,58,58,1,mountain_123.jpg,mountain,,,,,,,,,,,,,,,,,,,
,,,ATPW1MWLW7RBL,35,Male,8,03-29-2023_07h39.06.323,memory_pilot_most_recent,2022.2.4,Win32,9.160445198,,,,,,,,,,,,,,,,,,,,,,,,,,,1,0,59,59,59,1,bridge_202.jpg,bridge,,,,,,,,,,,,,,,,,,,
,,,ATPW1MWLW7RBL,35,Male,8,03-29-2023_07h39.06.323,memory_pilot_most_recent,2022.2.4,Win32,9.160445198,,,,,,,,,,,,,,,,,,,,,,,,,,,1,0,60,60,60,1,golf_course_331.jpg,golf,,,,,,,,,,,,,,,,,,,
,,,ATPW1MWLW7RBL,35,Male,8,03-29-2023_07h39.06.323,memory_pilot_most_recent,2022.2.4,Win32,9.160445198,,,,,,,,,,,,,,,,,,,,,,,,,,,1,0,61,61,61,1,playground_145.jpg,playground,,,,,,,,,,,,,,,,,,,
,,,ATPW1MWLW7RBL,35,Male,8,03-29-2023_07h39.06.323,memory_pilot_most_recent,2022.2.4,Win32,9.160445198,,,,,,,,,,,,,,,,,,,,,,,,,,,1,0,62,62,62,1,badlands_222.jpg,badlands,,,,,,,,,,,,,,,,,,,
,,,ATPW1MWLW7RBL,35,Male,8,03-29-2023_07h39.06.323,memory_pilot_most_recent,2022.2.4,Win32,9.160445198,,,,,,,,,,,,,,,,,,,,,,,,,,,1,0,63,63,63,1,golf_course_188.jpg,golf,,,,,,,,,,,,,,,,,,,
,,,ATPW1MWLW7RBL,35,Male,8,03-29-2023_07h39.06.323,memory_pilot_most_recent,2022.2.4,Win32,9.160445198,,,,,,,,,,,,,,,,,,,,,,,,,,,1,0,64,64,64,1,playground_76.jpg,playground,,,,,,,,,,,,,,,,,,,
,,,ATPW1MWLW7RBL,35,Male,8,03-29-2023_07h39.06.323,memory_pilot_most_recent,2022.2.4,Win32,9.160445198,,,,,,,,,,,,,,,,,,,,,,,,,,,,,,,,,,,,,space,2.0294,,,,,,,,,,,,,,,
,,,ATPW1MWLW7RBL,35,Male,8,03-29-2023_07h39.06.323,memory_pilot_most_recent,2022.2.4,Win32,9.160445198,,,,,,,,,,,,,,,,,,,,,,,,,,,,,,,,,,,,,,,,,,,,,,,,,,,,,
,,,ATPW1MWLW7RBL,35,Male,8,03-29-2023_07h39.06.323,memory_pilot_most_recent,2022.2.4,Win32,9.160445198,,,,,,,,,,,,,,,,,,,,,,,,,,,,,,,,,,bridge,right,,,,right,1,2.603,5,3.0626,0,0,0,0,1,bridge_116.jpg,bridge_108.jpg,0,,
,,,ATPW1MWLW7RBL,35,Male,8,03-29-2023_07h39.06.323,memory_pilot_most_recent,2022.2.4,Win32,9.160445198,,,,,,,,,,,,,,,,,,,,,,,,,,,,,,,,,,golf,left,,,,left,1,2.0689,6,1.6035,0,1,1,1,1,golf_course_217.jpg,golf_course_262.jpg,1,,
,,,ATPW1MWLW7RBL,35,Male,8,03-29-2023_07h39.06.323,memory_pilot_most_recent,2022.2.4,Win32,9.160445198,,,,,,,,,,,,,,,,,,,,,,,,,,,,,,,,,,playground,right,,,,right,1,1.3083,7,2.8889,0,2,2,2,1,playground_40.jpg,playground_240.jpg,1,,
,,,ATPW1MWLW7RBL,35,Male,8,03-29-2023_07h39.06.323,memory_pilot_most_recent,2022.2.4,Win32,9.160445198,,,,,,,,,,,,,,,,,,,,,,,,,,,,,,,,,,golf,right,,,,right,1,3.385,7,1.6349,0,3,3,3,1,golf_course_2.jpg,golf_course_195.jpg,1,,
,,,ATPW1MWLW7RBL,35,Male,8,03-29-2023_07h39.06.323,memory_pilot_most_recent,2022.2.4,Win32,9.160445198,,,,,,,,,,,,,,,,,,,,,,,,,,,,,,,,,,playground,right,,,,right,1,1.4975,8,1.6167,0,4,4,4,1,playground_167.jpg,playground_117.jpg,0,,
,,,ATPW1MWLW7RBL,35,Male,8,03-29-2023_07h39.06.323,memory_pilot_most_recent,2022.2.4,Win32,9.160445198,,,,,,,,,,,,,,,,,,,,,,,,,,,,,,,,,,highway,right,,,,right,1,1.2442,9,2.0252,0,5,5,5,1,highway_204.jpg,highway_394.jpg,0,,
,,,ATPW1MWLW7RBL,35,Male,8,03-29-2023_07h39.06.323,memory_pilot_most_recent,2022.2.4,Win32,9.160445198,,,,,,,,,,,,,,,,,,,,,,,,,,,,,,,,,,golf,right,,,,right,1,1.6026,4,1.6407,0,6,6,6,1,golf_course_160.jpg,golf_course_188.jpg,1,,
,,,ATPW1MWLW7RBL,35,Male,8,03-29-2023_07h39.06.323,memory_pilot_most_recent,2022.2.4,Win32,9.160445198,,,,,,,,,,,,,,,,,,,,,,,,,,,,,,,,,,golf,right,,,,right,1,1.1533,5,1.3491,0,7,7,7,1,golf_course_161.jpg,golf_course_87.jpg,1,,
,,,ATPW1MWLW7RBL,35,Male,8,03-29-2023_07h39.06.323,memory_pilot_most_recent,2022.2.4,Win32,9.160445198,,,,,,,,,,,,,,,,,,,,,,,,,,,,,,,,,,badlands,left,,,,left,1,1.4116,6,1.3854,0,8,8,8,1,badlands_21.jpg,badlands_1.jpg,0,,
,,,ATPW1MWLW7RBL,35,Male,8,03-29-2023_07h39.06.323,memory_pilot_most_recent,2022.2.4,Win32,9.160445198,,,,,,,,,,,,,,,,,,,,,,,,,,,,,,,,,,highway,left,,,,left,1,1.8527,2,1.7436,0,9,9,9,1,highway_415.jpg,highway_174.jpg,1,,
,,,ATPW1MWLW7RBL,35,Male,8,03-29-2023_07h39.06.323,memory_pilot_most_recent,2022.2.4,Win32,9.160445198,,,,,,,,,,,,,,,,,,,,,,,,,,,,,,,,,,mountain,left,,,,left,1,1.8435,5,1.4757,0,10,10,10,1,mountain_156.jpg,mountain_295.jpg,1,,
,,,ATPW1MWLW7RBL,35,Male,8,03-29-2023_07h39.06.323,memory_pilot_most_recent,2022.2.4,Win32,9.160445198,,,,,,,,,,,,,,,,,,,,,,,,,,,,,,,,,,badlands,right,,,,right,1,1.3645,5,1.2507,0,11,11,11,1,badlands_94.jpg,badlands_52.jpg,0,,
,,,ATPW1MWLW7RBL,35,Male,8,03-29-2023_07h39.06.323,memory_pilot_most_recent,2022.2.4,Win32,9.160445198,,,,,,,,,,,,,,,,,,,,,,,,,,,,,,,,,,mountain,right,,,,right,1,1.7212,7,1.3979,0,12,12,12,1,mountain_171.jpg,mountain_101.jpg,0,,
,,,ATPW1MWLW7RBL,35,Male,8,03-29-2023_07h39.06.323,memory_pilot_most_recent,2022.2.4,Win32,9.160445198,,,,,,,,,,,,,,,,,,,,,,,,,,,,,,,,,,bridge,right,,,,right,1,2.5887,7,1.4927,0,13,13,13,1,bridge_134.jpg,bridge_250.jpg,0,,
,,,ATPW1MWLW7RBL,35,Male,8,03-29-2023_07h39.06.323,memory_pilot_most_recent,2022.2.4,Win32,9.160445198,,,,,,,,,,,,,,,,,,,,,,,,,,,,,,,,,,badlands,left,,,,left,1,1.8352,3,2.2067,0,14,14,14,1,badlands_23.jpg,badlands_101.jpg,1,,
,,,ATPW1MWLW7RBL,35,Male,8,03-29-2023_07h39.06.323,memory_pilot_most_recent,2022.2.4,Win32,9.160445198,,,,,,,,,,,,,,,,,,,,,,,,,,,,,,,,,,mountain,right,,,,right,1,1.3673,7,1.7885,0,15,15,15,1,mountain_244.jpg,mountain_222.jpg,0,,
,,,ATPW1MWLW7RBL,35,Male,8,03-29-2023_07h39.06.323,memory_pilot_most_recent,2022.2.4,Win32,9.160445198,,,,,,,,,,,,,,,,,,,,,,,,,,,,,,,,,,mountain,right,,,,right,1,1.5666,3,1.6342,0,16,16,16,1,mountain_47.jpg,mountain_293.jpg,1,,
,,,ATPW1MWLW7RBL,35,Male,8,03-29-2023_07h39.06.323,memory_pilot_most_recent,2022.2.4,Win32,9.160445198,,,,,,,,,,,,,,,,,,,,,,,,,,,,,,,,,,playground,left,,,,left,1,2.3428,5,2.3561,0,17,17,17,1,playground_219.jpg,playground_21.jpg,0,,
,,,ATPW1MWLW7RBL,35,Male,8,03-29-2023_07h39.06.323,memory_pilot_most_recent,2022.2.4,Win32,9.160445198,,,,,,,,,,,,,,,,,,,,,,,,,,,,,,,,,,highway,left,,,,left,1,5.288,4,2.058,0,18,18,18,1,highway_93.jpg,highway_369.jpg,1,,
,,,ATPW1MWLW7RBL,35,Male,8,03-29-2023_07h39.06.323,memory_pilot_most_recent,2022.2.4,Win32,9.160445198,,,,,,,,,,,,,,,,,,,,,,,,,,,,,,,,,,badlands,right,,,,right,1,1.2388,6,1.566,0,19,19,19,1,badlands_3.jpg,badlands_24.jpg,0,,
,,,ATPW1MWLW7RBL,35,Male,8,03-29-2023_07h39.06.323,memory_pilot_most_recent,2022.2.4,Win32,9.160445198,,,,,,,,,,,,,,,,,,,,,,,,,,,,,,,,,,badlands,left,,,,right,0,1.8802,3,1.6957,0,20,20,20,1,badlands_221.jpg,badlands_207.jpg,1,,
,,,ATPW1MWLW7RBL,35,Male,8,03-29-2023_07h39.06.323,memory_pilot_most_recent,2022.2.4,Win32,9.160445198,,,,,,,,,,,,,,,,,,,,,,,,,,,,,,,,,,highway,left,,,,left,1,1.5014,6,1.4013,0,21,21,21,1,highway_209.jpg,highway_314.jpg,0,,
,,,ATPW1MWLW7RBL,35,Male,8,03-29-2023_07h39.06.323,memory_pilot_most_recent,2022.2.4,Win32,9.160445198,,,,,,,,,,,,,,,,,,,,,,,,,,,,,,,,,,playground,right,,,,right,1,1.6509,7,1.3485,0,22,22,22,1,playground_72.jpg,playground_76.jpg,1,,
,,,ATPW1MWLW7RBL,35,Male,8,03-29-2023_07h39.06.323,memory_pilot_most_recent,2022.2.4,Win32,9.160445198,,,,,,,,,,,,,,,,,,,,,,,,,,,,,,,,,,bridge,right,,,,left,0,1.7041,2,1.67,0,23,23,23,1,bridge_121.jpg,bridge_146.jpg,1,,
,,,ATPW1MWLW7RBL,35,Male,8,03-29-2023_07h39.06.323,memory_pilot_most_recent,2022.2.4,Win32,9.160445198,,,,,,,,,,,,,,,,,,,,,,,,,,,,,,,,,,highway,left,,,,right,0,2.1324,5,1.6801,0,24,24,24,1,highway_156.jpg,highway_160.jpg,0,,
,,,ATPW1MWLW7RBL,35,Male,8,03-29-2023_07h39.06.323,memory_pilot_most_recent,2022.2.4,Win32,9.160445198,,,,,,,,,,,,,,,,,,,,,,,,,,,,,,,,,,mountain,right,,,,right,1,2.3457,4,1.7248,0,25,25,25,1,mountain_94.jpg,mountain_123.jpg,0,,
,,,ATPW1MWLW7RBL,35,Male,8,03-29-2023_07h39.06.323,memory_pilot_most_recent,2022.2.4,Win32,9.160445198,,,,,,,,,,,,,,,,,,,,,,,,,,,,,,,,,,golf,right,,,,left,0,1.5289,6,1.6866,0,26,26,26,1,golf_course_134.jpg,golf_course_78.jpg,0,,
,,,ATPW1MWLW7RBL,35,Male,8,03-29-2023_07h39.06.323,memory_pilot_most_recent,2022.2.4,Win32,9.160445198,,,,,,,,,,,,,,,,,,,,,,,,,,,,,,,,,,bridge,right,,,,right,1,1.2595,8,1.4216,0,27,27,27,1,bridge_17.jpg,bridge_172.jpg,0,,
,,,ATPW1MWLW7RBL,35,Male,8,03-29-2023_07h39.06.323,memory_pilot_most_recent,2022.2.4,Win32,9.160445198,,,,,,,,,,,,,,,,,,,,,,,,,,,,,,,,,,badlands,right,,,,right,1,1.6666,3,1.7236,0,28,28,28,1,badlands_194.jpg,badlands_137.jpg,0,,
,,,ATPW1MWLW7RBL,35,Male,8,03-29-2023_07h39.06.323,memory_pilot_most_recent,2022.2.4,Win32,9.160445198,,,,,,,,,,,,,,,,,,,,,,,,,,,,,,,,,,playground,right,,,,right,1,1.7898,5,1.3377,0,29,29,29,1,playground_214.jpg,playground_257.jpg,0,,
,,,ATPW1MWLW7RBL,35,Male,8,03-29-2023_07h39.06.323,memory_pilot_most_recent,2022.2.4,Win32,9.160445198,,,,,,,,,,,,,,,,,,,,,,,,,,,,,,,,,,mountain,right,,,,right,1,1.5108,7,1.5133,0,30,30,30,1,mountain_54.jpg,mountain_232.jpg,1,,
,,,ATPW1MWLW7RBL,35,Male,8,03-29-2023_07h39.06.323,memory_pilot_most_recent,2022.2.4,Win32,9.160445198,,,,,,,,,,,,,,,,,,,,,,,,,,,,,,,,,,badlands,left,,,,right,0,1.1524,7,1.5747,0,31,31,31,1,badlands_113.jpg,badlands_203.jpg,1,,
,,,ATPW1MWLW7RBL,35,Male,8,03-29-2023_07h39.06.323,memory_pilot_most_recent,2022.2.4,Win32,9.160445198,,,,,,,,,,,,,,,,,,,,,,,,,,,,,,,,,,bridge,right,,,,right,1,1.9494,8,1.3828,0,32,32,32,1,bridge_38.jpg,bridge_202.jpg,1,,
,,,ATPW1MWLW7RBL,35,Male,8,03-29-2023_07h39.06.323,memory_pilot_most_recent,2022.2.4,Win32,9.160445198,,,,,,,,,,,,,,,,,,,,,,,,,,,,,,,,,,playground,left,,,,right,0,2.6369,6,1.5316,0,33,33,33,1,playground_60.jpg,playground_244.jpg,1,,
,,,ATPW1MWLW7RBL,35,Male,8,03-29-2023_07h39.06.323,memory_pilot_most_recent,2022.2.4,Win32,9.160445198,,,,,,,,,,,,,,,,,,,,,,,,,,,,,,,,,,bridge,right,,,,right,1,2.0487,5,1.2293,0,34,34,34,1,bridge_181.jpg,bridge_65.jpg,0,,
,,,ATPW1MWLW7RBL,35,Male,8,03-29-2023_07h39.06.323,memory_pilot_most_recent,2022.2.4,Win32,9.160445198,,,,,,,,,,,,,,,,,,,,,,,,,,,,,,,,,,highway,right,,,,right,1,1.2646,6,0.9732,0,35,35,35,1,highway_87.jpg,highway_177.jpg,0,,
,,,ATPW1MWLW7RBL,35,Male,8,03-29-2023_07h39.06.323,memory_pilot_most_recent,2022.2.4,Win32,9.160445198,,,,,,,,,,,,,,,,,,,,,,,,,,,,,,,,,,bridge,right,,,,right,1,1.7969,7,1.0786,0,36,36,36,1,bridge_184.jpg,bridge_191.jpg,0,,
,,,ATPW1MWLW7RBL,35,Male,8,03-29-2023_07h39.06.323,memory_pilot_most_recent,2022.2.4,Win32,9.160445198,,,,,,,,,,,,,,,,,,,,,,,,,,,,,,,,,,mountain,left,,,,left,1,1.3246,3,1.4221,0,37,37,37,1,mountain_154.jpg,mountain_131.jpg,0,,
,,,ATPW1MWLW7RBL,35,Male,8,03-29-2023_07h39.06.323,memory_pilot_most_recent,2022.2.4,Win32,9.160445198,,,,,,,,,,,,,,,,,,,,,,,,,,,,,,,,,,highway,right,,,,right,1,1.375,9,1.9907,0,38,38,38,1,highway_171.jpg,highway_273.jpg,1,,
,,,ATPW1MWLW7RBL,35,Male,8,03-29-2023_07h39.06.323,memory_pilot_most_recent,2022.2.4,Win32,9.160445198,,,,,,,,,,,,,,,,,,,,,,,,,,,,,,,,,,badlands,left,,,,left,1,2.0679,3,22.1416,0,39,39,39,1,badlands_184.jpg,badlands_228.jpg,0,,
,,,ATPW1MWLW7RBL,35,Male,8,03-29-2023_07h39.06.323,memory_pilot_most_recent,2022.2.4,Win32,9.160445198,,,,,,,,,,,,,,,,,,,,,,,,,,,,,,,,,,badlands,right,,,,right,1,1.6788,9,1.6581,0,40,40,40,1,badlands_119.jpg,badlands_70.jpg,1,,
,,,ATPW1MWLW7RBL,35,Male,8,03-29-2023_07h39.06.323,memory_pilot_most_recent,2022.2.4,Win32,9.160445198,,,,,,,,,,,,,,,,,,,,,,,,,,,,,,,,,,golf,right,,,,right,1,1.2521,9,1.548,0,41,41,41,1,golf_course_317.jpg,golf_course_214.jpg,1,,
,,,ATPW1MWLW7RBL,35,Male,8,03-29-2023_07h39.06.323,memory_pilot_most_recent,2022.2.4,Win32,9.160445198,,,,,,,,,,,,,,,,,,,,,,,,,,,,,,,,,,golf,right,,,,left,0,1.4431,9,0.9341,0,42,42,42,1,golf_course_114.jpg,golf_course_331.jpg,0,,
,,,ATPW1MWLW7RBL,35,Male,8,03-29-2023_07h39.06.323,memory_pilot_most_recent,2022.2.4,Win32,9.160445198,,,,,,,,,,,,,,,,,,,,,,,,,,,,,,,,,,highway,left,,,,right,0,1.6486,5,1.4096,0,43,43,43,1,highway_245.jpg,highway_134.jpg,0,,
,,,ATPW1MWLW7RBL,35,Male,8,03-29-2023_07h39.06.323,memory_pilot_most_recent,2022.2.4,Win32,9.160445198,,,,,,,,,,,,,,,,,,,,,,,,,,,,,,,,,,mountain,right,,,,right,1,1.386,7,1.2093,0,44,44,44,1,mountain_97.jpg,mountain_230.jpg,1,,
,,,ATPW1MWLW7RBL,35,Male,8,03-29-2023_07h39.06.323,memory_pilot_most_recent,2022.2.4,Win32,9.160445198,,,,,,,,,,,,,,,,,,,,,,,,,,,,,,,,,,golf,right,,,,right,1,1.3536,7,0.9547,0,45,45,45,1,golf_course_16.jpg,golf_course_309.jpg,0,,
,,,ATPW1MWLW7RBL,35,Male,8,03-29-2023_07h39.06.323,memory_pilot_most_recent,2022.2.4,Win32,9.160445198,,,,,,,,,,,,,,,,,,,,,,,,,,,,,,,,,,badlands,right,,,,left,0,1.4232,5,2.0607,0,46,46,46,1,badlands_62.jpg,badlands_222.jpg,1,,
,,,ATPW1MWLW7RBL,35,Male,8,03-29-2023_07h39.06.323,memory_pilot_most_recent,2022.2.4,Win32,9.160445198,,,,,,,,,,,,,,,,,,,,,,,,,,,,,,,,,,bridge,right,,,,right,1,1.9229,7,1.2111,0,47,47,47,1,bridge_82.jpg,bridge_91.jpg,1,,
,,,ATPW1MWLW7RBL,35,Male,8,03-29-2023_07h39.06.323,memory_pilot_most_recent,2022.2.4,Win32,9.160445198,,,,,,,,,,,,,,,,,,,,,,,,,,,,,,,,,,bridge,left,,,,left,1,1.6636,9,1.2078,0,48,48,48,1,bridge_128.jpg,bridge_244.jpg,1,,
,,,ATPW1MWLW7RBL,35,Male,8,03-29-2023_07h39.06.323,memory_pilot_most_recent,2022.2.4,Win32,9.160445198,,,,,,,,,,,,,,,,,,,,,,,,,,,,,,,,,,playground,left,,,,left,1,1.4786,9,2.1129,0,49,49,49,1,playground_10.jpg,playground_12.jpg,1,,
,,,ATPW1MWLW7RBL,35,Male,8,03-29-2023_07h39.06.323,memory_pilot_most_recent,2022.2.4,Win32,9.160445198,,,,,,,,,,,,,,,,,,,,,,,,,,,,,,,,,,bridge,right,,,,right,1,2.0848,7,2.6937,0,50,50,50,1,bridge_211.jpg,bridge_256.jpg,1,,
,,,ATPW1MWLW7RBL,35,Male,8,03-29-2023_07h39.06.323,memory_pilot_most_recent,2022.2.4,Win32,9.160445198,,,,,,,,,,,,,,,,,,,,,,,,,,,,,,,,,,playground,left,,,,left,1,3.5795,6,2.2678,0,51,51,51,1,playground_145.jpg,playground_229.jpg,0,,
,,,ATPW1MWLW7RBL,35,Male,8,03-29-2023_07h39.06.323,memory_pilot_most_recent,2022.2.4,Win32,9.160445198,,,,,,,,,,,,,,,,,,,,,,,,,,,,,,,,,,highway,right,,,,left,0,3.1402,6,1.9766,0,52,52,52,1,highway_368.jpg,highway_294.jpg,1,,
,,,ATPW1MWLW7RBL,35,Male,8,03-29-2023_07h39.06.323,memory_pilot_most_recent,2022.2.4,Win32,9.160445198,,,,,,,,,,,,,,,,,,,,,,,,,,,,,,,,,,golf,right,,,,left,0,2.0548,4,1.1779,0,53,53,53,1,golf_course_113.jpg,golf_course_15.jpg,0,,
,,,ATPW1MWLW7RBL,35,Male,8,03-29-2023_07h39.06.323,memory_pilot_most_recent,2022.2.4,Win32,9.160445198,,,,,,,,,,,,,,,,,,,,,,,,,,,,,,,,,,playground,left,,,,right,0,2.6902,6,2.0361,0,54,54,54,1,playground_144.jpg,playground_65.jpg,1,,
,,,ATPW1MWLW7RBL,35,Male,8,03-29-2023_07h39.06.323,memory_pilot_most_recent,2022.2.4,Win32,9.160445198,,,,,,,,,,,,,,,,,,,,,,,,,,,,,,,,,,golf,left,,,,left,1,1.6578,7,1.0819,0,55,55,55,1,golf_course_193.jpg,golf_course_235.jpg,0,,
,,,ATPW1MWLW7RBL,35,Male,8,03-29-2023_07h39.06.323,memory_pilot_most_recent,2022.2.4,Win32,9.160445198,,,,,,,,,,,,,,,,,,,,,,,,,,,,,,,,,,mountain,right,,,,right,1,1.3509,8,0.9251,0,56,56,56,1,mountain_193.jpg,mountain_57.jpg,0,,
,,,ATPW1MWLW7RBL,35,Male,8,03-29-2023_07h39.06.323,memory_pilot_most_recent,2022.2.4,Win32,9.160445198,,,,,,,,,,,,,,,,,,,,,,,,,,,,,,,,,,playground,left,,,,left,1,1.5991,7,1.6603,0,57,57,57,1,playground_131.jpg,playground_43.jpg,0,,
,,,ATPW1MWLW7RBL,35,Male,8,03-29-2023_07h39.06.323,memory_pilot_most_recent,2022.2.4,Win32,9.160445198,,,,,,,,,,,,,,,,,,,,,,,,,,,,,,,,,,highway,left,,,,left,1,1.2805,4,1.5855,0,58,58,58,1,highway_359.jpg,highway_379.jpg,1,,
,,,ATPW1MWLW7RBL,35,Male,8,03-29-2023_07h39.06.323,memory_pilot_most_recent,2022.2.4,Win32,9.160445198,,,,,,,,,,,,,,,,,,,,,,,,,,,,,,,,,,mountain,right,,,,right,1,1.4352,8,2.1732,0,59,59,59,1,mountain_223.jpg,mountain_110.jpg,1,,
,,,ATPW1MWLW7RBL,35,Male,8,03-29-2023_07h39.06.323,memory_pilot_most_recent,2022.2.4,Win32,9.160445198,,,,,,,,,,,,,,,,,,,,,,,,,,,,,,,,,,,,,,,,,,,,,,,,,,,,space,29.1232
