,index,test_encoding_response.keys,test_encoding_response.corr,trials.thisTrialN,target_image,pair,layer,correct,test_encoding_response.rt,key_resp_end.keys,subject
0,20,,1.0,0.0,2964218374-144968.jpg,2238521157-323782.jpg,2.0,,,,A10A7EZUXBD0II
1,21,,1.0,1.0,2986400320-221190.jpg,2238470979-92615.jpg,2.0,,,,A10A7EZUXBD0II
2,22,,1.0,2.0,2981231446-294731.jpg,2986450330-221526.jpg,1.0,,,,A10A7EZUXBD0II
3,23,,1.0,3.0,2238429999-90218.jpg,2901951459-144433.jpg,2.0,,,,A10A7EZUXBD0II
4,24,,1.0,4.0,2901934573-69337.jpg,2986401333-73218.jpg,1.0,,,,A10A7EZUXBD0II
5,25,,1.0,5.0,2898632385-217138.jpg,2460547992-349586.jpg,3.0,,,,A10A7EZUXBD0II
6,26,,1.0,6.0,2512876023-52283.jpg,2238576267-334532.jpg,3.0,,,,A10A7EZUXBD0II
7,27,,1.0,7.0,2864906345-212360.jpg,2994403305-222559.jpg,3.0,,,,A10A7EZUXBD0II
8,28,,1.0,8.0,2898633480-217190.jpg,2446760147-347245.jpg,1.0,,,,A10A7EZUXBD0II
9,29,,1.0,9.0,2862691449-137104.jpg,2238540598-30035.jpg,1.0,,,,A10A7EZUXBD0II
10,30,,1.0,10.0,2452380166-273109.jpg,2592379781-279345.jpg,2.0,,,,A10A7EZUXBD0II
11,31,,1.0,11.0,2238550049-105691.jpg,2238482972-317759.jpg,1.0,,,,A10A7EZUXBD0II
12,32,,1.0,12.0,2575964140-205050.jpg,2238482920-168428.jpg,1.0,,,,A10A7EZUXBD0II
13,33,left,1.0,13.0,left.jpg,,,left,1.8576,,A10A7EZUXBD0II
14,34,,1.0,14.0,2238584018-38513.jpg,2452381442-348755.jpg,3.0,,,,A10A7EZUXBD0II
15,35,,1.0,15.0,2964213381-294061.jpg,2981234334-145491.jpg,2.0,,,,A10A7EZUXBD0II
16,36,,1.0,16.0,2868485396-288511.jpg,2868472420-213024.jpg,2.0,,,,A10A7EZUXBD0II
17,37,,1.0,17.0,2964209380-218956.jpg,2898617396-291219.jpg,3.0,,,,A10A7EZUXBD0II
18,38,,1.0,18.0,2238471391-240918.jpg,2868470400-212889.jpg,1.0,,,,A10A7EZUXBD0II
19,39,,1.0,19.0,2898624426-291546.jpg,2864902304-137862.jpg,3.0,,,,A10A7EZUXBD0II
20,40,,1.0,20.0,2883272438-68133.jpg,2592380136-279476.jpg,3.0,,,,A10A7EZUXBD0II
21,41,,1.0,21.0,2898632385-217137.jpg,2238480803-19739.jpg,2.0,,,,A10A7EZUXBD0II
22,42,,1.0,22.0,2274829821-263682.jpg,2238570526-257884.jpg,1.0,,,,A10A7EZUXBD0II
23,43,,1.0,23.0,2331570830-189984.jpg,2449442529-124445.jpg,2.0,,,,A10A7EZUXBD0II
24,44,right,1.0,24.0,right.jpg,,,right,1.4208,,A10A7EZUXBD0II
25,45,,1.0,25.0,2964216465-219242.jpg,2592380049-131079.jpg,1.0,,,,A10A7EZUXBD0II
26,46,,1.0,26.0,2446760940-198145.jpg,2592380188-56743.jpg,2.0,,,,A10A7EZUXBD0II
27,47,,1.0,27.0,2238375302-311538.jpg,2592380255-205552.jpg,1.0,,,,A10A7EZUXBD0II
28,48,,1.0,28.0,2898617468-68274.jpg,2512875899-126682.jpg,1.0,,,,A10A7EZUXBD0II
29,49,right,1.0,29.0,right.jpg,,,right,1.3646,,A10A7EZUXBD0II
30,50,,1.0,30.0,2964213381-294060.jpg,2989724308-73930.jpg,3.0,,,,A10A7EZUXBD0II
31,51,,1.0,31.0,2238584869-113153.jpg,2986455373-73646.jpg,3.0,,,,A10A7EZUXBD0II
32,52,,1.0,32.0,2460547467-349421.jpg,2238470079-92499.jpg,2.0,,,,A10A7EZUXBD0II
33,53,,1.0,33.0,2868475410-213219.jpg,2238436851-238821.jpg,3.0,,,,A10A7EZUXBD0II
34,54,,1.0,34.0,2449442529-124446.jpg,2864911339-138231.jpg,3.0,,,,A10A7EZUXBD0II
35,55,,1.0,35.0,2883255450-215311.jpg,2238481575-168208.jpg,1.0,,,,A10A7EZUXBD0II
36,56,,1.0,36.0,2986408352-371293.jpg,2868488422-363713.jpg,1.0,,,,A10A7EZUXBD0II
37,57,,1.0,37.0,2898635427-367120.jpg,2901936309-143207.jpg,3.0,,,,A10A7EZUXBD0II
38,58,left,1.0,38.0,left.jpg,,,left,1.3544,,A10A7EZUXBD0II
39,59,,1.0,39.0,2592380138-56727.jpg,2238537701-251772.jpg,3.0,,,,A10A7EZUXBD0II
40,60,,1.0,40.0,2238516618-25604.jpg,2862686459-136888.jpg,2.0,,,,A10A7EZUXBD0II
41,61,,1.0,41.0,2964224310-219527.jpg,2238490590-169598.jpg,3.0,,,,A10A7EZUXBD0II
42,62,,1.0,42.0,2238129579-80916.jpg,2898618444-142233.jpg,2.0,,,,A10A7EZUXBD0II
43,63,,1.0,43.0,2238480434-93829.jpg,2592380255-205551.jpg,2.0,,,,A10A7EZUXBD0II
44,64,,1.0,44.0,2883254439-140941.jpg,2417207511-266975.jpg,3.0,,,,A10A7EZUXBD0II
45,65,,1.0,45.0,2883255450-215309.jpg,2868476439-138927.jpg,2.0,,,,A10A7EZUXBD0II
46,66,,1.0,46.0,2238496457-319749.jpg,2238570142-333223.jpg,1.0,,,,A10A7EZUXBD0II
47,67,,1.0,47.0,2901939379-143479.jpg,2986450334-147215.jpg,1.0,,,,A10A7EZUXBD0II
48,68,left,1.0,48.0,left.jpg,,,left,1.2367,,A10A7EZUXBD0II
49,69,,1.0,49.0,2883254439-140940.jpg,2452380166-273110.jpg,1.0,,,,A10A7EZUXBD0II
50,70,,1.0,50.0,2994405328-74628.jpg,2825702353-60662.jpg,2.0,,,,A10A7EZUXBD0II
51,71,,1.0,51.0,2238561223-33794.jpg,2883271323-68049.jpg,3.0,,,,A10A7EZUXBD0II
52,72,,1.0,52.0,2901941426-292805.jpg,2238510189-98616.jpg,2.0,,,,A10A7EZUXBD0II
53,73,,1.0,53.0,2901938432-367627.jpg,2856919327-359675.jpg,2.0,,,,A10A7EZUXBD0II
54,74,,1.0,54.0,2864909447-362146.jpg,2238555799-106905.jpg,2.0,,,,A10A7EZUXBD0II
55,75,,1.0,55.0,2446758985-197609.jpg,2635396318-58409.jpg,2.0,,,,A10A7EZUXBD0II
56,76,,1.0,56.0,2238521193-26286.jpg,2446760306-272024.jpg,3.0,,,,A10A7EZUXBD0II
57,77,,1.0,57.0,2625337302-355866.jpg,2598726160-205998.jpg,3.0,,,,A10A7EZUXBD0II
58,78,,1.0,58.0,2238126735-154721.jpg,2856919327-359676.jpg,1.0,,,,A10A7EZUXBD0II
59,79,,1.0,59.0,2238575092-334269.jpg,2964218374-144967.jpg,3.0,,,,A10A7EZUXBD0II
60,80,,1.0,60.0,2446760524-123999.jpg,2446760621-272102.jpg,1.0,,,,A10A7EZUXBD0II
61,81,,1.0,61.0,2446759803-49249.jpg,2592380177-354629.jpg,1.0,,,,A10A7EZUXBD0II
62,82,,1.0,62.0,2238499155-170911.jpg,2238373603-13733.jpg,3.0,,,,A10A7EZUXBD0II
63,83,,1.0,63.0,2898626385-216899.jpg,2449442365-198476.jpg,2.0,,,,A10A7EZUXBD0II
64,84,,1.0,64.0,2579432576-279079.jpg,2901934574-143126.jpg,1.0,,,,A10A7EZUXBD0II
65,20,,1.0,0.0,2864906345-212360.jpg,2994403305-222559.jpg,3.0,,,,A11MOA9HW11EP1
66,21,,1.0,1.0,2238129579-80916.jpg,2898618444-142233.jpg,2.0,,,,A11MOA9HW11EP1
67,22,,1.0,2.0,2994405328-74628.jpg,2883273443-68192.jpg,3.0,,,,A11MOA9HW11EP1
68,23,,1.0,3.0,2449442529-124446.jpg,2864911339-138231.jpg,3.0,,,,A11MOA9HW11EP1
69,24,,1.0,4.0,2238126735-154721.jpg,2901951430-218724.jpg,3.0,,,,A11MOA9HW11EP1
70,25,,1.0,5.0,2238575092-334269.jpg,2860304305-210777.jpg,2.0,,,,A11MOA9HW11EP1
71,26,left,1.0,6.0,left.jpg,,,left,0.9736,,A11MOA9HW11EP1
72,27,,1.0,7.0,2864909447-362146.jpg,2238555799-106905.jpg,2.0,,,,A11MOA9HW11EP1
73,28,,1.0,8.0,2964224310-219527.jpg,2238490590-169598.jpg,3.0,,,,A11MOA9HW11EP1
74,29,,1.0,9.0,2901934573-69337.jpg,2901936407-367476.jpg,3.0,,,,A11MOA9HW11EP1
75,30,,1.0,10.0,2898624426-291546.jpg,2986402377-371266.jpg,1.0,,,,A11MOA9HW11EP1
76,31,,1.0,11.0,2446759803-49249.jpg,2592380177-354629.jpg,1.0,,,,A11MOA9HW11EP1
77,32,,1.0,12.0,2274829821-263682.jpg,2238570526-257884.jpg,1.0,,,,A11MOA9HW11EP1
78,33,,1.0,13.0,2898635427-367120.jpg,2901936309-143207.jpg,3.0,,,,A11MOA9HW11EP1
79,34,,1.0,14.0,2964213381-294061.jpg,2981234334-145491.jpg,2.0,,,,A11MOA9HW11EP1
80,35,,1.0,15.0,2575964140-205050.jpg,2446760226-272005.jpg,3.0,,,,A11MOA9HW11EP1
81,36,,1.0,16.0,2898626385-216899.jpg,2989715328-73658.jpg,1.0,,,,A11MOA9HW11EP1
82,37,,1.0,17.0,2238550049-105691.jpg,2238482972-317759.jpg,1.0,,,,A11MOA9HW11EP1
83,38,,1.0,18.0,2862691449-137104.jpg,2986455341-296758.jpg,2.0,,,,A11MOA9HW11EP1
84,39,,1.0,19.0,2898632385-217138.jpg,2575120738-55529.jpg,1.0,,,,A11MOA9HW11EP1
85,40,,1.0,20.0,2901939379-143479.jpg,2864909422-362141.jpg,3.0,,,,A11MOA9HW11EP1
86,41,,1.0,21.0,2512876023-52283.jpg,2238576267-334532.jpg,3.0,,,,A11MOA9HW11EP1
87,42,,1.0,22.0,2883254439-140940.jpg,2575121890-204630.jpg,2.0,,,,A11MOA9HW11EP1
88,43,,1.0,23.0,2238496457-319749.jpg,2238570142-333223.jpg,1.0,,,,A11MOA9HW11EP1
89,44,left,1.0,24.0,left.jpg,,,left,1.4834,,A11MOA9HW11EP1
90,45,,1.0,25.0,2331570830-189984.jpg,2449442529-124445.jpg,2.0,,,,A11MOA9HW11EP1
91,46,,1.0,26.0,2579432576-279079.jpg,2901934574-143126.jpg,1.0,,,,A11MOA9HW11EP1
92,47,,1.0,27.0,2238516618-25604.jpg,2238573549-110485.jpg,1.0,,,,A11MOA9HW11EP1
93,48,,1.0,28.0,2238471391-240918.jpg,2901943388-69995.jpg,2.0,,,,A11MOA9HW11EP1
94,49,,1.0,29.0,2238521193-26286.jpg,2446760306-272024.jpg,3.0,,,,A11MOA9HW11EP1
95,50,left,1.0,30.0,left.jpg,,,left,1.3575,,A11MOA9HW11EP1
96,51,,1.0,31.0,2238561223-33794.jpg,2592380177-354626.jpg,2.0,,,,A11MOA9HW11EP1
97,52,,1.0,32.0,2986400320-221190.jpg,2989727350-222011.jpg,1.0,,,,A11MOA9HW11EP1
98,53,,1.0,33.0,2238499155-170911.jpg,2452380832-348593.jpg,2.0,,,,A11MOA9HW11EP1
99,54,,1.0,34.0,2898633480-217190.jpg,2446760147-347245.jpg,1.0,,,,A11MOA9HW11EP1
100,55,,1.0,35.0,2898632385-217137.jpg,2864904453-63932.jpg,3.0,,,,A11MOA9HW11EP1
101,56,,1.0,36.0,2901941426-292805.jpg,2238510189-98616.jpg,2.0,,,,A11MOA9HW11EP1
102,57,left,1.0,37.0,left.jpg,,,left,1.2607,,A11MOA9HW11EP1
103,58,,1.0,38.0,2986408352-371293.jpg,2446759580-197801.jpg,2.0,,,,A11MOA9HW11EP1
104,59,,1.0,39.0,2883255450-215311.jpg,2868485399-139476.jpg,2.0,,,,A11MOA9HW11EP1
105,60,,1.0,40.0,2981231446-294731.jpg,2238568685-183597.jpg,2.0,,,,A11MOA9HW11EP1
106,61,,1.0,41.0,2964209380-218956.jpg,2898631429-142736.jpg,2.0,,,,A11MOA9HW11EP1
107,62,,1.0,42.0,2883272438-68133.jpg,2592380136-279476.jpg,3.0,,,,A11MOA9HW11EP1
108,63,,1.0,43.0,2446758985-197609.jpg,2984618344-146295.jpg,3.0,,,,A11MOA9HW11EP1
109,64,,1.0,44.0,2446760940-198145.jpg,2446760692-347392.jpg,3.0,,,,A11MOA9HW11EP1
110,65,,1.0,45.0,2238429999-90218.jpg,2986448334-147157.jpg,1.0,,,,A11MOA9HW11EP1
111,66,,1.0,46.0,2625337302-355866.jpg,2238478760-167789.jpg,2.0,,,,A11MOA9HW11EP1
112,67,,1.0,47.0,2964213381-294060.jpg,2898631359-142720.jpg,1.0,,,,A11MOA9HW11EP1
113,68,,1.0,48.0,2883255450-215309.jpg,2868476439-138927.jpg,2.0,,,,A11MOA9HW11EP1
114,69,,1.0,49.0,2868485396-288511.jpg,2868470456-287597.jpg,1.0,,,,A11MOA9HW11EP1
115,70,,1.0,50.0,2964218374-144968.jpg,2238525773-27014.jpg,3.0,,,,A11MOA9HW11EP1
116,71,,1.0,51.0,2452380166-273109.jpg,2452380171-273112.jpg,1.0,,,,A11MOA9HW11EP1
117,72,right,1.0,52.0,right.jpg,,,right,1.3028,,A11MOA9HW11EP1
118,73,,1.0,53.0,2901938432-367627.jpg,2579432708-56394.jpg,1.0,,,,A11MOA9HW11EP1
119,74,,1.0,54.0,2238584018-38513.jpg,2452381442-348755.jpg,3.0,,,,A11MOA9HW11EP1
120,75,,1.0,55.0,2883254439-140941.jpg,2237965109-79314.jpg,2.0,,,,A11MOA9HW11EP1
121,76,,1.0,56.0,2898617468-68274.jpg,2512875899-126682.jpg,1.0,,,,A11MOA9HW11EP1
122,77,,1.0,57.0,2446760524-123999.jpg,2446760621-272102.jpg,1.0,,,,A11MOA9HW11EP1
123,78,,1.0,58.0,2238584869-113153.jpg,2864901420-212147.jpg,1.0,,,,A11MOA9HW11EP1
124,79,,1.0,59.0,2238375302-311538.jpg,2592380049-131077.jpg,2.0,,,,A11MOA9HW11EP1
125,80,,1.0,60.0,2238480434-93829.jpg,2804906319-133082.jpg,1.0,,,,A11MOA9HW11EP1
126,81,,1.0,61.0,2868475410-213219.jpg,2238436851-238821.jpg,3.0,,,,A11MOA9HW11EP1
127,82,,1.0,62.0,2460547467-349421.jpg,2238470079-92499.jpg,2.0,,,,A11MOA9HW11EP1
128,83,,1.0,63.0,2592380138-56727.jpg,2238537701-251772.jpg,3.0,,,,A11MOA9HW11EP1
129,84,,1.0,64.0,2964216465-219242.jpg,2446760917-347439.jpg,3.0,,,,A11MOA9HW11EP1
130,20,,1.0,0.0,2238575092-334269.jpg,2860304305-210777.jpg,2.0,,,,A16QH3MFZ9CC4M
131,21,,1.0,1.0,2964224310-219527.jpg,2964213441-294073.jpg,2.0,,,,A16QH3MFZ9CC4M
132,22,,1.0,2.0,2964213381-294061.jpg,2238433340-164524.jpg,1.0,,,,A16QH3MFZ9CC4M
133,23,,1.0,3.0,2898635427-367120.jpg,2237941457-301342.jpg,2.0,,,,A16QH3MFZ9CC4M
134,24,,1.0,4.0,2901934573-69337.jpg,2238345946-235007.jpg,2.0,,,,A16QH3MFZ9CC4M
135,25,,1.0,5.0,2625337302-355866.jpg,2598726160-205998.jpg,3.0,,,,A16QH3MFZ9CC4M
136,26,,1.0,6.0,2964216465-219242.jpg,2512875796-274856.jpg,2.0,,,,A16QH3MFZ9CC4M
137,27,,1.0,7.0,2862691449-137104.jpg,2238540598-30035.jpg,1.0,,,,A16QH3MFZ9CC4M
138,28,,1.0,8.0,2446758985-197609.jpg,2984618344-146295.jpg,3.0,,,,A16QH3MFZ9CC4M
139,29,,1.0,9.0,2446759803-49249.jpg,2592380177-354629.jpg,1.0,,,,A16QH3MFZ9CC4M
140,30,,1.0,10.0,2238126735-154721.jpg,2575122854-130480.jpg,2.0,,,,A16QH3MFZ9CC4M
141,31,,1.0,11.0,2898632385-217137.jpg,2864904453-63932.jpg,3.0,,,,A16QH3MFZ9CC4M
142,32,right,1.0,12.0,right.jpg,,,right,1.258,,A16QH3MFZ9CC4M
143,33,,1.0,13.0,2883255450-215311.jpg,2575964014-130589.jpg,3.0,,,,A16QH3MFZ9CC4M
144,34,,1.0,14.0,2238561223-33794.jpg,2592380177-354626.jpg,2.0,,,,A16QH3MFZ9CC4M
145,35,,1.0,15.0,2964209380-218956.jpg,2898617396-291219.jpg,3.0,,,,A16QH3MFZ9CC4M
146,36,,1.0,16.0,2883272438-68133.jpg,2901936369-143233.jpg,2.0,,,,A16QH3MFZ9CC4M
147,37,,1.0,17.0,2901939379-143479.jpg,2986450334-147215.jpg,1.0,,,,A16QH3MFZ9CC4M
148,38,,1.0,18.0,2331570830-189984.jpg,2449442529-124445.jpg,2.0,,,,A16QH3MFZ9CC4M
149,39,,1.0,19.0,2238429999-90218.jpg,2964222378-71332.jpg,3.0,,,,A16QH3MFZ9CC4M
150,40,,1.0,20.0,2898626385-216899.jpg,2449442365-198476.jpg,2.0,,,,A16QH3MFZ9CC4M
151,41,,1.0,21.0,2986408352-371293.jpg,2868488422-363713.jpg,1.0,,,,A16QH3MFZ9CC4M
152,42,right,1.0,22.0,right.jpg,,,right,1.0774,,A16QH3MFZ9CC4M
153,43,,1.0,23.0,2238499155-170911.jpg,2446760621-272103.jpg,1.0,,,,A16QH3MFZ9CC4M
154,44,,1.0,24.0,2592380138-56727.jpg,2986419351-296471.jpg,1.0,,,,A16QH3MFZ9CC4M
155,45,,1.0,25.0,2864909447-362146.jpg,2874316384-140749.jpg,1.0,,,,A16QH3MFZ9CC4M
156,46,,1.0,26.0,2238550049-105691.jpg,2238482972-317759.jpg,1.0,,,,A16QH3MFZ9CC4M
157,47,,1.0,27.0,2883254439-140941.jpg,2237965109-79314.jpg,2.0,,,,A16QH3MFZ9CC4M
158,48,,1.0,28.0,2868485396-288511.jpg,2868472420-213024.jpg,2.0,,,,A16QH3MFZ9CC4M
159,49,,1.0,29.0,2460547467-349421.jpg,2238554179-106663.jpg,3.0,,,,A16QH3MFZ9CC4M
160,50,,1.0,30.0,2238584869-113153.jpg,2981241419-145844.jpg,2.0,,,,A16QH3MFZ9CC4M
161,51,,1.0,31.0,2238129579-80916.jpg,2238161924-82646.jpg,3.0,,,,A16QH3MFZ9CC4M
162,52,,1.0,32.0,2238521193-26286.jpg,2446760306-272024.jpg,3.0,,,,A16QH3MFZ9CC4M
163,53,right,1.0,33.0,right.jpg,,,right,1.049199999,,A16QH3MFZ9CC4M
164,54,,1.0,34.0,2901941426-292805.jpg,2868488422-363715.jpg,1.0,,,,A16QH3MFZ9CC4M
165,55,,1.0,35.0,2883255450-215309.jpg,2868476439-138927.jpg,2.0,,,,A16QH3MFZ9CC4M
166,56,,1.0,36.0,2446760524-123999.jpg,2238552469-106359.jpg,2.0,,,,A16QH3MFZ9CC4M
167,57,,1.0,37.0,2964213381-294060.jpg,2898631359-142720.jpg,1.0,,,,A16QH3MFZ9CC4M
168,58,,1.0,38.0,2986400320-221190.jpg,2238538133-29662.jpg,3.0,,,,A16QH3MFZ9CC4M
169,59,,1.0,39.0,2449442529-124446.jpg,2238481610-168214.jpg,1.0,,,,A16QH3MFZ9CC4M
170,60,right,1.0,40.0,right.jpg,,,right,0.870599998,,A16QH3MFZ9CC4M
171,61,,1.0,41.0,2898617468-68274.jpg,2238585512-336576.jpg,2.0,,,,A16QH3MFZ9CC4M
172,62,,1.0,42.0,2579432576-279079.jpg,2901934574-143126.jpg,1.0,,,,A16QH3MFZ9CC4M
173,63,,1.0,43.0,2238480434-93829.jpg,2804906319-133082.jpg,1.0,,,,A16QH3MFZ9CC4M
174,64,,1.0,44.0,2274829821-263682.jpg,2862687442-360837.jpg,3.0,,,,A16QH3MFZ9CC4M
175,65,,1.0,45.0,2238516618-25604.jpg,2862686459-136888.jpg,2.0,,,,A16QH3MFZ9CC4M
176,66,,1.0,46.0,2452380166-273109.jpg,2452380171-273112.jpg,1.0,,,,A16QH3MFZ9CC4M
177,67,,1.0,47.0,2238584018-38513.jpg,2449443163-50093.jpg,1.0,,,,A16QH3MFZ9CC4M
178,68,,1.0,48.0,2238496457-319749.jpg,2460547467-349422.jpg,3.0,,,,A16QH3MFZ9CC4M
179,69,,1.0,49.0,2981231446-294731.jpg,2417207297-342139.jpg,3.0,,,,A16QH3MFZ9CC4M
180,70,,1.0,50.0,2575964140-205050.jpg,2238547522-328488.jpg,2.0,,,,A16QH3MFZ9CC4M
181,71,,1.0,51.0,2994405328-74628.jpg,2417206274-118542.jpg,1.0,,,,A16QH3MFZ9CC4M
182,72,left,1.0,52.0,left.jpg,,,left,1.0131,,A16QH3MFZ9CC4M
183,73,,1.0,53.0,2883254439-140940.jpg,2812983311-281946.jpg,3.0,,,,A16QH3MFZ9CC4M
184,74,,1.0,54.0,2901938432-367627.jpg,2579432708-56394.jpg,1.0,,,,A16QH3MFZ9CC4M
185,75,,1.0,55.0,2446760940-198145.jpg,2592380188-56743.jpg,2.0,,,,A16QH3MFZ9CC4M
186,76,,1.0,56.0,2898624426-291546.jpg,2864902304-137862.jpg,3.0,,,,A16QH3MFZ9CC4M
187,77,,1.0,57.0,2238375302-311538.jpg,2460547508-51571.jpg,3.0,,,,A16QH3MFZ9CC4M
188,78,,1.0,58.0,2512876023-52283.jpg,2898636443-69154.jpg,2.0,,,,A16QH3MFZ9CC4M
189,79,,1.0,59.0,2868475410-213219.jpg,2238216693-10721.jpg,1.0,,,,A16QH3MFZ9CC4M
190,80,,1.0,60.0,2898632385-217138.jpg,2460547992-349586.jpg,3.0,,,,A16QH3MFZ9CC4M
191,81,,1.0,61.0,2864906345-212360.jpg,2986397365-221133.jpg,1.0,,,,A16QH3MFZ9CC4M
192,82,,1.0,62.0,2964218374-144968.jpg,2238525773-27014.jpg,3.0,,,,A16QH3MFZ9CC4M
193,83,,1.0,63.0,2898633480-217190.jpg,2237858043-1434.jpg,3.0,,,,A16QH3MFZ9CC4M
194,84,,1.0,64.0,2238471391-240918.jpg,2986399339-146857.jpg,3.0,,,,A16QH3MFZ9CC4M
195,20,,1.0,0.0,2446760940-198145.jpg,2592380188-56743.jpg,2.0,,,,A16TOOYC3QOJVE
196,21,,1.0,1.0,2898632385-217138.jpg,2460547992-349586.jpg,3.0,,,,A16TOOYC3QOJVE
197,22,,1.0,2.0,2274829821-263682.jpg,2446758985-197610.jpg,2.0,,,,A16TOOYC3QOJVE
198,23,,1.0,3.0,2901941426-292805.jpg,2238510189-98616.jpg,2.0,,,,A16TOOYC3QOJVE
199,24,,1.0,4.0,2446758985-197609.jpg,2898633421-291973.jpg,1.0,,,,A16TOOYC3QOJVE
200,25,,1.0,5.0,2883255450-215309.jpg,2868476439-138927.jpg,2.0,,,,A16TOOYC3QOJVE
201,26,left,1.0,6.0,left.jpg,,,left,0.9221,,A16TOOYC3QOJVE
202,27,,1.0,7.0,2579432576-279079.jpg,2901934574-143126.jpg,1.0,,,,A16TOOYC3QOJVE
203,28,,1.0,8.0,2238480434-93829.jpg,2804906319-133082.jpg,1.0,,,,A16TOOYC3QOJVE
204,29,,1.0,9.0,2964224310-219527.jpg,2238380178-14011.jpg,1.0,,,,A16TOOYC3QOJVE
205,30,,1.0,10.0,2238375302-311538.jpg,2460547508-51571.jpg,3.0,,,,A16TOOYC3QOJVE
206,31,,1.0,11.0,2994405328-74628.jpg,2417206274-118542.jpg,1.0,,,,A16TOOYC3QOJVE
207,32,,1.0,12.0,2868475410-213219.jpg,2238216693-10721.jpg,1.0,,,,A16TOOYC3QOJVE
208,33,,1.0,13.0,2864909447-362146.jpg,2874316384-140749.jpg,1.0,,,,A16TOOYC3QOJVE
209,34,,1.0,14.0,2883254439-140941.jpg,2989724308-73928.jpg,1.0,,,,A16TOOYC3QOJVE
210,35,,1.0,15.0,2986408352-371293.jpg,2446759580-197801.jpg,2.0,,,,A16TOOYC3QOJVE
211,36,,1.0,16.0,2898626385-216899.jpg,2898618440-216545.jpg,3.0,,,,A16TOOYC3QOJVE
212,37,,1.0,17.0,2238516618-25604.jpg,2862686459-136888.jpg,2.0,,,,A16TOOYC3QOJVE
213,38,,1.0,18.0,2446760524-123999.jpg,2238552469-106359.jpg,2.0,,,,A16TOOYC3QOJVE
214,39,,1.0,19.0,2964218374-144968.jpg,2238525773-27014.jpg,3.0,,,,A16TOOYC3QOJVE
215,40,,1.0,20.0,2964213381-294060.jpg,2898631359-142720.jpg,1.0,,,,A16TOOYC3QOJVE
216,41,,1.0,21.0,2238521193-26286.jpg,2446760306-272024.jpg,3.0,,,,A16TOOYC3QOJVE
217,42,left,1.0,22.0,left.jpg,,,left,0.7874,,A16TOOYC3QOJVE
218,43,,1.0,23.0,2460547467-349421.jpg,2238470079-92499.jpg,2.0,,,,A16TOOYC3QOJVE
219,44,,1.0,24.0,2901938432-367627.jpg,2424122568-45517.jpg,3.0,,,,A16TOOYC3QOJVE
220,45,,1.0,25.0,2238499155-170911.jpg,2446760621-272103.jpg,1.0,,,,A16TOOYC3QOJVE
221,46,right,1.0,26.0,right.jpg,,,right,1.1896,,A16TOOYC3QOJVE
222,47,,1.0,27.0,2964213381-294061.jpg,2989721347-371917.jpg,3.0,,,,A16TOOYC3QOJVE
223,48,,1.0,28.0,2981231446-294731.jpg,2238568685-183597.jpg,2.0,,,,A16TOOYC3QOJVE
224,49,,1.0,29.0,2898633480-217190.jpg,2446760147-347245.jpg,1.0,,,,A16TOOYC3QOJVE
225,50,,1.0,30.0,2898617468-68274.jpg,2512875899-126682.jpg,1.0,,,,A16TOOYC3QOJVE
226,51,,1.0,31.0,2238561223-33794.jpg,2883271323-68049.jpg,3.0,,,,A16TOOYC3QOJVE
227,52,,1.0,32.0,2575964140-205050.jpg,2446760226-272005.jpg,3.0,,,,A16TOOYC3QOJVE
228,53,,1.0,33.0,2883272438-68133.jpg,2592380136-279476.jpg,3.0,,,,A16TOOYC3QOJVE
229,54,,1.0,34.0,2883254439-140940.jpg,2452380166-273110.jpg,1.0,,,,A16TOOYC3QOJVE
230,55,,1.0,35.0,2238129579-80916.jpg,2898618444-142233.jpg,2.0,,,,A16TOOYC3QOJVE
231,56,right,1.0,36.0,right.jpg,,,right,0.8583,,A16TOOYC3QOJVE
232,57,,1.0,37.0,2446759803-49249.jpg,2238468265-166556.jpg,2.0,,,,A16TOOYC3QOJVE
233,58,,1.0,38.0,2901934573-69337.jpg,2901936407-367476.jpg,3.0,,,,A16TOOYC3QOJVE
234,59,,1.0,39.0,2986400320-221190.jpg,2989727350-222011.jpg,1.0,,,,A16TOOYC3QOJVE
235,60,,1.0,40.0,2625337302-355866.jpg,2425492472-343825.jpg,1.0,,,,A16TOOYC3QOJVE
236,61,,1.0,41.0,2331570830-189984.jpg,2458348012-349114.jpg,3.0,,,,A16TOOYC3QOJVE
237,62,,1.0,42.0,2964216465-219242.jpg,2446760917-347439.jpg,3.0,,,,A16TOOYC3QOJVE
238,63,,1.0,43.0,2512876023-52283.jpg,2898636443-69154.jpg,2.0,,,,A16TOOYC3QOJVE
239,64,,1.0,44.0,2862691449-137104.jpg,2238328478-11678.jpg,3.0,,,,A16TOOYC3QOJVE
240,65,,1.0,45.0,2864906345-212360.jpg,2994403305-222559.jpg,3.0,,,,A16TOOYC3QOJVE
241,66,,1.0,46.0,2238575092-334269.jpg,2860304305-210777.jpg,2.0,,,,A16TOOYC3QOJVE
242,67,,1.0,47.0,2901939379-143479.jpg,2864909422-362141.jpg,3.0,,,,A16TOOYC3QOJVE
243,68,,1.0,48.0,2883255450-215311.jpg,2868485399-139476.jpg,2.0,,,,A16TOOYC3QOJVE
244,69,,1.0,49.0,2238429999-90218.jpg,2901951459-144433.jpg,2.0,,,,A16TOOYC3QOJVE
245,70,,1.0,50.0,2898624426-291546.jpg,2986402377-371266.jpg,1.0,,,,A16TOOYC3QOJVE
246,71,left,1.0,51.0,left.jpg,,,left,0.8666,,A16TOOYC3QOJVE
247,72,,1.0,52.0,2452380166-273109.jpg,2592379781-279345.jpg,2.0,,,,A16TOOYC3QOJVE
248,73,,1.0,53.0,2964209380-218956.jpg,2898631429-142736.jpg,2.0,,,,A16TOOYC3QOJVE
249,74,,1.0,54.0,2898632385-217137.jpg,2238480803-19739.jpg,2.0,,,,A16TOOYC3QOJVE
250,75,,1.0,55.0,2238496457-319749.jpg,2460547467-349422.jpg,3.0,,,,A16TOOYC3QOJVE
251,76,,1.0,56.0,2238584869-113153.jpg,2986455373-73646.jpg,3.0,,,,A16TOOYC3QOJVE
252,77,,1.0,57.0,2592380138-56727.jpg,2430664847-345753.jpg,2.0,,,,A16TOOYC3QOJVE
253,78,,1.0,58.0,2868485396-288511.jpg,2238380314-88261.jpg,3.0,,,,A16TOOYC3QOJVE
254,79,,1.0,59.0,2238550049-105691.jpg,2238482972-317759.jpg,1.0,,,,A16TOOYC3QOJVE
255,80,,1.0,60.0,2449442529-124446.jpg,2868469458-64561.jpg,2.0,,,,A16TOOYC3QOJVE
256,81,,1.0,61.0,2238126735-154721.jpg,2856919327-359676.jpg,1.0,,,,A16TOOYC3QOJVE
257,82,,1.0,62.0,2898635427-367120.jpg,2901936309-143207.jpg,3.0,,,,A16TOOYC3QOJVE
258,83,,1.0,63.0,2238584018-38513.jpg,2449443163-50093.jpg,1.0,,,,A16TOOYC3QOJVE
259,84,,1.0,64.0,2238471391-240918.jpg,2868470400-212889.jpg,1.0,,,,A16TOOYC3QOJVE
260,20,,1.0,0.0,2898632385-217137.jpg,2238360884-87525.jpg,1.0,,,,A1969Q0R4Y0E3J
261,21,,1.0,1.0,2625337302-355866.jpg,2425492472-343825.jpg,1.0,,,,A1969Q0R4Y0E3J
262,22,,1.0,2.0,2986400320-221190.jpg,2238538133-29662.jpg,3.0,,,,A1969Q0R4Y0E3J
263,23,,1.0,3.0,2883255450-215309.jpg,2868476439-138927.jpg,2.0,,,,A1969Q0R4Y0E3J
264,24,,1.0,4.0,2579432576-279079.jpg,2446760226-272006.jpg,2.0,,,,A1969Q0R4Y0E3J
265,25,,1.0,5.0,2964213381-294061.jpg,2981234334-145491.jpg,2.0,,,,A1969Q0R4Y0E3J
266,26,,1.0,6.0,2238126735-154721.jpg,2901951430-218724.jpg,3.0,,,,A1969Q0R4Y0E3J
267,27,right,1.0,7.0,right.jpg,,,right,0.6411,,A1969Q0R4Y0E3J
268,28,,1.0,8.0,2868475410-213219.jpg,2238436851-238821.jpg,3.0,,,,A1969Q0R4Y0E3J
269,29,,1.0,9.0,2238516618-25604.jpg,2238470979-92618.jpg,3.0,,,,A1969Q0R4Y0E3J
270,30,,1.0,10.0,2898635427-367120.jpg,2237941457-301342.jpg,2.0,,,,A1969Q0R4Y0E3J
271,31,,1.0,11.0,2446760524-123999.jpg,2238539138-29878.jpg,3.0,,,,A1969Q0R4Y0E3J
272,32,,1.0,12.0,2964213381-294060.jpg,2898631359-142720.jpg,1.0,,,,A1969Q0R4Y0E3J
273,33,,1.0,13.0,2868485396-288511.jpg,2238380314-88261.jpg,3.0,,,,A1969Q0R4Y0E3J
274,34,,1.0,14.0,2446759803-49249.jpg,2238498786-244797.jpg,3.0,,,,A1969Q0R4Y0E3J
275,35,,1.0,15.0,2898617468-68274.jpg,2512875899-126682.jpg,1.0,,,,A1969Q0R4Y0E3J
276,36,,1.0,16.0,2238375302-311538.jpg,2460547508-51571.jpg,3.0,,,,A1969Q0R4Y0E3J
277,37,,1.0,17.0,2575964140-205050.jpg,2446760226-272005.jpg,3.0,,,,A1969Q0R4Y0E3J
278,38,,1.0,18.0,2238480434-93829.jpg,2238479903-19596.jpg,3.0,,,,A1969Q0R4Y0E3J
279,39,,1.0,19.0,2883255450-215311.jpg,2575964014-130589.jpg,3.0,,,,A1969Q0R4Y0E3J
280,40,,1.0,20.0,2901941426-292805.jpg,2238510189-98616.jpg,2.0,,,,A1969Q0R4Y0E3J
281,41,,1.0,21.0,2446758985-197609.jpg,2635396318-58409.jpg,2.0,,,,A1969Q0R4Y0E3J
282,42,right,1.0,22.0,right.jpg,,,right,0.7205,,A1969Q0R4Y0E3J
283,43,,1.0,23.0,2460547467-349421.jpg,2901934573-69336.jpg,1.0,,,,A1969Q0R4Y0E3J
284,44,,1.0,24.0,2452380166-273109.jpg,2452380171-273112.jpg,1.0,,,,A1969Q0R4Y0E3J
285,45,,1.0,25.0,2901938432-367627.jpg,2856919327-359675.jpg,2.0,,,,A1969Q0R4Y0E3J
286,46,left,1.0,26.0,left.jpg,,,left,0.7612,,A1969Q0R4Y0E3J
287,47,,1.0,27.0,2898633480-217190.jpg,2446760147-347245.jpg,1.0,,,,A1969Q0R4Y0E3J
288,48,,1.0,28.0,2981231446-294731.jpg,2238568685-183597.jpg,2.0,,,,A1969Q0R4Y0E3J
289,49,,1.0,29.0,2238584869-113153.jpg,2981241419-145844.jpg,2.0,,,,A1969Q0R4Y0E3J
290,50,,1.0,30.0,2238584018-38513.jpg,2449443163-50093.jpg,1.0,,,,A1969Q0R4Y0E3J
291,51,,1.0,31.0,2238561223-33794.jpg,2238506233-23904.jpg,1.0,,,,A1969Q0R4Y0E3J
292,52,,1.0,32.0,2883254439-140941.jpg,2237965109-79314.jpg,2.0,,,,A1969Q0R4Y0E3J
293,53,,1.0,33.0,2238129579-80916.jpg,2238161924-82646.jpg,3.0,,,,A1969Q0R4Y0E3J
294,54,,1.0,34.0,2238471391-240918.jpg,2901943388-69995.jpg,2.0,,,,A1969Q0R4Y0E3J
295,55,,1.0,35.0,2331570830-189984.jpg,2458348012-349114.jpg,3.0,,,,A1969Q0R4Y0E3J
296,56,,1.0,36.0,2592380138-56727.jpg,2430664847-345753.jpg,2.0,,,,A1969Q0R4Y0E3J
297,57,,1.0,37.0,2964216465-219242.jpg,2446760917-347439.jpg,3.0,,,,A1969Q0R4Y0E3J
298,58,,1.0,38.0,2964218374-144968.jpg,2238525773-27014.jpg,3.0,,,,A1969Q0R4Y0E3J
299,59,,1.0,39.0,2898632385-217138.jpg,2273188118-40829.jpg,2.0,,,,A1969Q0R4Y0E3J
300,60,right,1.0,40.0,right.jpg,,,right,0.5811,,A1969Q0R4Y0E3J
301,61,,1.0,41.0,2274829821-263682.jpg,2446758985-197610.jpg,2.0,,,,A1969Q0R4Y0E3J
302,62,,1.0,42.0,2449442529-124446.jpg,2864911339-138231.jpg,3.0,,,,A1969Q0R4Y0E3J
303,63,,1.0,43.0,2862691449-137104.jpg,2986455341-296758.jpg,2.0,,,,A1969Q0R4Y0E3J
304,64,,1.0,44.0,2446760940-198145.jpg,2449443300-198739.jpg,1.0,,,,A1969Q0R4Y0E3J
305,65,,1.0,45.0,2238521193-26286.jpg,2825712309-134957.jpg,1.0,,,,A1969Q0R4Y0E3J
306,66,,1.0,46.0,2898626385-216899.jpg,2989715328-73658.jpg,1.0,,,,A1969Q0R4Y0E3J
307,67,,1.0,47.0,2883254439-140940.jpg,2452380166-273110.jpg,1.0,,,,A1969Q0R4Y0E3J
308,68,,1.0,48.0,2864909447-362146.jpg,2238555799-106905.jpg,2.0,,,,A1969Q0R4Y0E3J
309,69,,1.0,49.0,2238499155-170911.jpg,2452380832-348593.jpg,2.0,,,,A1969Q0R4Y0E3J
310,70,,1.0,50.0,2864906345-212360.jpg,2986397365-221133.jpg,1.0,,,,A1969Q0R4Y0E3J
311,71,right,1.0,51.0,right.jpg,,,right,0.5772,,A1969Q0R4Y0E3J
312,72,,1.0,52.0,2994405328-74628.jpg,2417206274-118542.jpg,1.0,,,,A1969Q0R4Y0E3J
313,73,,1.0,53.0,2964224310-219527.jpg,2238380178-14011.jpg,1.0,,,,A1969Q0R4Y0E3J
314,74,,1.0,54.0,2964209380-218956.jpg,2898617396-291219.jpg,3.0,,,,A1969Q0R4Y0E3J
315,75,,1.0,55.0,2901939379-143479.jpg,2986450334-147215.jpg,1.0,,,,A1969Q0R4Y0E3J
316,76,,1.0,56.0,2238429999-90218.jpg,2986448334-147157.jpg,1.0,,,,A1969Q0R4Y0E3J
317,77,,1.0,57.0,2898624426-291546.jpg,2864902304-137862.jpg,3.0,,,,A1969Q0R4Y0E3J
318,78,,1.0,58.0,2901934573-69337.jpg,2901936407-367476.jpg,3.0,,,,A1969Q0R4Y0E3J
319,79,,1.0,59.0,2238496457-319749.jpg,2460547467-349422.jpg,3.0,,,,A1969Q0R4Y0E3J
320,80,,1.0,60.0,2986408352-371293.jpg,2868488422-363713.jpg,1.0,,,,A1969Q0R4Y0E3J
321,81,,1.0,61.0,2883272438-68133.jpg,2901936369-143233.jpg,2.0,,,,A1969Q0R4Y0E3J
322,82,,1.0,62.0,2512876023-52283.jpg,2898636443-69154.jpg,2.0,,,,A1969Q0R4Y0E3J
323,83,,1.0,63.0,2238550049-105691.jpg,2449443271-272729.jpg,2.0,,,,A1969Q0R4Y0E3J
324,84,,1.0,64.0,2238575092-334269.jpg,2592380285-205564.jpg,1.0,,,,A1969Q0R4Y0E3J
325,20,,1.0,0.0,2868485396-288511.jpg,2868470456-287597.jpg,1.0,,,,A1DXDFRHO1A157
326,21,,1.0,1.0,2868475410-213219.jpg,2238216693-10721.jpg,1.0,,,,A1DXDFRHO1A157
327,22,,1.0,2.0,2238499155-170911.jpg,2446760621-272103.jpg,1.0,,,,A1DXDFRHO1A157
328,23,,1.0,3.0,2446758985-197609.jpg,2898633421-291973.jpg,1.0,,,,A1DXDFRHO1A157
329,24,,1.0,4.0,2986408352-371293.jpg,2446759580-197801.jpg,2.0,,,,A1DXDFRHO1A157
330,25,,1.0,5.0,2238521193-26286.jpg,2825712309-134957.jpg,1.0,,,,A1DXDFRHO1A157
331,26,,1.0,6.0,2238126735-154721.jpg,2856919327-359676.jpg,1.0,,,,A1DXDFRHO1A157
332,27,,1.0,7.0,2994405328-74628.jpg,2883273443-68192.jpg,3.0,,,,A1DXDFRHO1A157
333,28,,1.0,8.0,2512876023-52283.jpg,2238576267-334532.jpg,3.0,,,,A1DXDFRHO1A157
334,29,,1.0,9.0,2883254439-140940.jpg,2575121890-204630.jpg,2.0,,,,A1DXDFRHO1A157
335,30,,1.0,10.0,2238575092-334269.jpg,2592380285-205564.jpg,1.0,,,,A1DXDFRHO1A157
336,31,,1.0,11.0,2898617468-68274.jpg,2238585512-336576.jpg,2.0,,,,A1DXDFRHO1A157
337,32,right,1.0,12.0,right.jpg,,,right,0.957700001,,A1DXDFRHO1A157
338,33,,1.0,13.0,2592380138-56727.jpg,2430664847-345753.jpg,2.0,,,,A1DXDFRHO1A157
339,34,,1.0,14.0,2446760940-198145.jpg,2446760692-347392.jpg,3.0,,,,A1DXDFRHO1A157
340,35,,1.0,15.0,2238129579-80916.jpg,2898618444-142233.jpg,2.0,,,,A1DXDFRHO1A157
341,36,right,1.0,16.0,right.jpg,,,right,0.9404,,A1DXDFRHO1A157
342,37,,1.0,17.0,2964213381-294061.jpg,2989721347-371917.jpg,3.0,,,,A1DXDFRHO1A157
343,38,,1.0,18.0,2238561223-33794.jpg,2238506233-23904.jpg,1.0,,,,A1DXDFRHO1A157
344,39,,1.0,19.0,2238471391-240918.jpg,2986399339-146857.jpg,3.0,,,,A1DXDFRHO1A157
345,40,,1.0,20.0,2981231446-294731.jpg,2417207297-342139.jpg,3.0,,,,A1DXDFRHO1A157
346,41,,1.0,21.0,2238480434-93829.jpg,2238479903-19596.jpg,3.0,,,,A1DXDFRHO1A157
347,42,,1.0,22.0,2579432576-279079.jpg,2446760226-272006.jpg,2.0,,,,A1DXDFRHO1A157
348,43,,1.0,23.0,2331570830-189984.jpg,2446760483-49429.jpg,1.0,,,,A1DXDFRHO1A157
349,44,,1.0,24.0,2898632385-217137.jpg,2238360884-87525.jpg,1.0,,,,A1DXDFRHO1A157
350,45,,1.0,25.0,2238429999-90218.jpg,2901951459-144433.jpg,2.0,,,,A1DXDFRHO1A157
351,46,,1.0,26.0,2864906345-212360.jpg,2986397365-221133.jpg,1.0,,,,A1DXDFRHO1A157
352,47,,1.0,27.0,2986400320-221190.jpg,2238470979-92615.jpg,2.0,,,,A1DXDFRHO1A157
353,48,,1.0,28.0,2238496457-319749.jpg,2460547467-349422.jpg,3.0,,,,A1DXDFRHO1A157
354,49,,1.0,29.0,2964218374-144968.jpg,2238521157-323782.jpg,2.0,,,,A1DXDFRHO1A157
355,50,,1.0,30.0,2625337302-355866.jpg,2425492472-343825.jpg,1.0,,,,A1DXDFRHO1A157
356,51,,1.0,31.0,2274829821-263682.jpg,2238570526-257884.jpg,1.0,,,,A1DXDFRHO1A157
357,52,,1.0,32.0,2864909447-362146.jpg,2874316384-140749.jpg,1.0,,,,A1DXDFRHO1A157
358,53,,1.0,33.0,2862691449-137104.jpg,2238328478-11678.jpg,3.0,,,,A1DXDFRHO1A157
359,54,right,1.0,34.0,right.jpg,,,right,0.8496,,A1DXDFRHO1A157
360,55,,1.0,35.0,2964216465-219242.jpg,2592380049-131079.jpg,1.0,,,,A1DXDFRHO1A157
361,56,left,1.0,36.0,left.jpg,,,left,0.865799999,,A1DXDFRHO1A157
362,57,,1.0,37.0,2883272438-68133.jpg,2592380136-279476.jpg,3.0,,,,A1DXDFRHO1A157
363,58,,1.0,38.0,2883254439-140941.jpg,2237965109-79314.jpg,2.0,,,,A1DXDFRHO1A157
364,59,,1.0,39.0,2964209380-218956.jpg,2898617396-291219.jpg,3.0,,,,A1DXDFRHO1A157
365,60,,1.0,40.0,2238584018-38513.jpg,2452381442-348755.jpg,3.0,,,,A1DXDFRHO1A157
366,61,,1.0,41.0,2449442529-124446.jpg,2238481610-168214.jpg,1.0,,,,A1DXDFRHO1A157
367,62,,1.0,42.0,2460547467-349421.jpg,2238470079-92499.jpg,2.0,,,,A1DXDFRHO1A157
368,63,,1.0,43.0,2238550049-105691.jpg,2449443271-272729.jpg,2.0,,,,A1DXDFRHO1A157
369,64,,1.0,44.0,2901934573-69337.jpg,2901936407-367476.jpg,3.0,,,,A1DXDFRHO1A157
370,65,,1.0,45.0,2238584869-113153.jpg,2981241419-145844.jpg,2.0,,,,A1DXDFRHO1A157
371,66,,1.0,46.0,2901938432-367627.jpg,2856919327-359675.jpg,2.0,,,,A1DXDFRHO1A157
372,67,,1.0,47.0,2901939379-143479.jpg,2864909422-362141.jpg,3.0,,,,A1DXDFRHO1A157
373,68,,1.0,48.0,2898633480-217190.jpg,2446760147-347245.jpg,1.0,,,,A1DXDFRHO1A157
374,69,,1.0,49.0,2901941426-292805.jpg,2901945303-70125.jpg,3.0,,,,A1DXDFRHO1A157
375,70,,1.0,50.0,2898632385-217138.jpg,2460547992-349586.jpg,3.0,,,,A1DXDFRHO1A157
376,71,,1.0,51.0,2883255450-215311.jpg,2575964014-130589.jpg,3.0,,,,A1DXDFRHO1A157
377,72,,1.0,52.0,2898624426-291546.jpg,2549106844-127878.jpg,2.0,,,,A1DXDFRHO1A157
378,73,right,1.0,53.0,right.jpg,,,right,0.831199999,,A1DXDFRHO1A157
379,74,,1.0,54.0,2575964140-205050.jpg,2238482920-168428.jpg,1.0,,,,A1DXDFRHO1A157
380,75,,1.0,55.0,2898635427-367120.jpg,2237941457-301342.jpg,2.0,,,,A1DXDFRHO1A157
381,76,,1.0,56.0,2883255450-215309.jpg,2238562336-256366.jpg,3.0,,,,A1DXDFRHO1A157
382,77,,1.0,57.0,2898626385-216899.jpg,2449442365-198476.jpg,2.0,,,,A1DXDFRHO1A157
383,78,,1.0,58.0,2238516618-25604.jpg,2862686459-136888.jpg,2.0,,,,A1DXDFRHO1A157
384,79,,1.0,59.0,2446759803-49249.jpg,2238468265-166556.jpg,2.0,,,,A1DXDFRHO1A157
385,80,,1.0,60.0,2238375302-311538.jpg,2460547508-51571.jpg,3.0,,,,A1DXDFRHO1A157
386,81,,1.0,61.0,2964213381-294060.jpg,2989724308-73930.jpg,3.0,,,,A1DXDFRHO1A157
387,82,,1.0,62.0,2964224310-219527.jpg,2238380178-14011.jpg,1.0,,,,A1DXDFRHO1A157
388,83,,1.0,63.0,2452380166-273109.jpg,2592379781-279345.jpg,2.0,,,,A1DXDFRHO1A157
389,84,,1.0,64.0,2446760524-123999.jpg,2446760621-272102.jpg,1.0,,,,A1DXDFRHO1A157
390,20,,1.0,0.0,2238521193-26286.jpg,2874301437-363905.jpg,2.0,,,,A1FCTM2O25QKL2
391,21,,1.0,1.0,2964224310-219527.jpg,2238490590-169598.jpg,3.0,,,,A1FCTM2O25QKL2
392,22,,1.0,2.0,2868485396-288511.jpg,2868472420-213024.jpg,2.0,,,,A1FCTM2O25QKL2
393,23,,1.0,3.0,2452380166-273109.jpg,2592379781-279345.jpg,2.0,,,,A1FCTM2O25QKL2
394,24,,1.0,4.0,2901938432-367627.jpg,2579432708-56394.jpg,1.0,,,,A1FCTM2O25QKL2
395,25,,1.0,5.0,2868475410-213219.jpg,2575964140-205051.jpg,2.0,,,,A1FCTM2O25QKL2
396,26,,1.0,6.0,2238584018-38513.jpg,2449443163-50093.jpg,1.0,,,,A1FCTM2O25QKL2
397,27,,1.0,7.0,2238126735-154721.jpg,2901951430-218724.jpg,3.0,,,,A1FCTM2O25QKL2
398,28,,1.0,8.0,2964216465-219242.jpg,2512875796-274856.jpg,2.0,,,,A1FCTM2O25QKL2
399,29,,0.0,9.0,right.jpg,,,right,,,A1FCTM2O25QKL2
400,30,,1.0,10.0,2981231446-294731.jpg,2417207297-342139.jpg,3.0,,,,A1FCTM2O25QKL2
401,31,,1.0,11.0,2238516618-25604.jpg,2862686459-136888.jpg,2.0,,,,A1FCTM2O25QKL2
402,32,,1.0,12.0,2575964140-205050.jpg,2238547522-328488.jpg,2.0,,,,A1FCTM2O25QKL2
403,33,,1.0,13.0,2883272438-68133.jpg,2592380136-279476.jpg,3.0,,,,A1FCTM2O25QKL2
404,34,,1.0,14.0,2901939379-143479.jpg,2449443292-348022.jpg,2.0,,,,A1FCTM2O25QKL2
405,35,,1.0,15.0,2862691449-137104.jpg,2238540598-30035.jpg,1.0,,,,A1FCTM2O25QKL2
406,36,left,1.0,16.0,left.jpg,,,left,0.984,,A1FCTM2O25QKL2
407,37,,1.0,17.0,2238429999-90218.jpg,2986448334-147157.jpg,1.0,,,,A1FCTM2O25QKL2
408,38,,1.0,18.0,2446760940-198145.jpg,2592380188-56743.jpg,2.0,,,,A1FCTM2O25QKL2
409,39,,1.0,19.0,2901941426-292805.jpg,2901945303-70125.jpg,3.0,,,,A1FCTM2O25QKL2
410,40,,1.0,20.0,2864909447-362146.jpg,2874316384-140749.jpg,1.0,,,,A1FCTM2O25QKL2
411,41,,1.0,21.0,2964209380-218956.jpg,2898617396-291219.jpg,3.0,,,,A1FCTM2O25QKL2
412,42,,1.0,22.0,2986408352-371293.jpg,2868488422-363713.jpg,1.0,,,,A1FCTM2O25QKL2
413,43,,1.0,23.0,2898624426-291546.jpg,2549106844-127878.jpg,2.0,,,,A1FCTM2O25QKL2
414,44,,1.0,24.0,2238584869-113153.jpg,2864901420-212147.jpg,1.0,,,,A1FCTM2O25QKL2
415,45,,1.0,25.0,2898632385-217137.jpg,2864904453-63932.jpg,3.0,,,,A1FCTM2O25QKL2
416,46,,1.0,26.0,2238129579-80916.jpg,2898618444-142233.jpg,2.0,,,,A1FCTM2O25QKL2
417,47,,1.0,27.0,2592380138-56727.jpg,2238537701-251772.jpg,3.0,,,,A1FCTM2O25QKL2
418,48,,1.0,28.0,2446758985-197609.jpg,2984618344-146295.jpg,3.0,,,,A1FCTM2O25QKL2
419,49,,1.0,29.0,2446759803-49249.jpg,2592380177-354629.jpg,1.0,,,,A1FCTM2O25QKL2
420,50,,1.0,30.0,2898626385-216899.jpg,2989715328-73658.jpg,1.0,,,,A1FCTM2O25QKL2
421,51,,1.0,31.0,2898632385-217138.jpg,2460547992-349586.jpg,3.0,,,,A1FCTM2O25QKL2
422,52,,1.0,32.0,2238550049-105691.jpg,2238482972-317759.jpg,1.0,,,,A1FCTM2O25QKL2
423,53,left,1.0,33.0,left.jpg,,,left,1.077,,A1FCTM2O25QKL2
424,54,,1.0,34.0,2986400320-221190.jpg,2238538133-29662.jpg,3.0,,,,A1FCTM2O25QKL2
425,55,,1.0,35.0,2449442529-124446.jpg,2238481610-168214.jpg,1.0,,,,A1FCTM2O25QKL2
426,56,,1.0,36.0,2864906345-212360.jpg,2994403305-222559.jpg,3.0,,,,A1FCTM2O25QKL2
427,57,,1.0,37.0,2238375302-311538.jpg,2592380049-131077.jpg,2.0,,,,A1FCTM2O25QKL2
428,58,,1.0,38.0,2898635427-367120.jpg,2237941457-301342.jpg,2.0,,,,A1FCTM2O25QKL2
429,59,,1.0,39.0,2964213381-294060.jpg,2989724308-73930.jpg,3.0,,,,A1FCTM2O25QKL2
430,60,left,1.0,40.0,left.jpg,,,left,0.972,,A1FCTM2O25QKL2
431,61,,1.0,41.0,2579432576-279079.jpg,2446760226-272006.jpg,2.0,,,,A1FCTM2O25QKL2
432,62,,1.0,42.0,2964218374-144968.jpg,2238521157-323782.jpg,2.0,,,,A1FCTM2O25QKL2
433,63,,1.0,43.0,2238499155-170911.jpg,2446760621-272103.jpg,1.0,,,,A1FCTM2O25QKL2
434,64,,1.0,44.0,2883255450-215309.jpg,2238562336-256366.jpg,3.0,,,,A1FCTM2O25QKL2
435,65,,1.0,45.0,2331570830-189984.jpg,2458348012-349114.jpg,3.0,,,,A1FCTM2O25QKL2
436,66,,1.0,46.0,2883255450-215311.jpg,2868485399-139476.jpg,2.0,,,,A1FCTM2O25QKL2
437,67,,1.0,47.0,2512876023-52283.jpg,2864908323-64106.jpg,1.0,,,,A1FCTM2O25QKL2
438,68,right,1.0,48.0,right.jpg,,,right,2.662,,A1FCTM2O25QKL2
439,69,,1.0,49.0,2901934573-69337.jpg,2986401333-73218.jpg,1.0,,,,A1FCTM2O25QKL2
440,70,,1.0,50.0,2994405328-74628.jpg,2883273443-68192.jpg,3.0,,,,A1FCTM2O25QKL2
441,71,,1.0,51.0,2898617468-68274.jpg,2862684406-285700.jpg,3.0,,,,A1FCTM2O25QKL2
442,72,,1.0,52.0,2964213381-294061.jpg,2989721347-371917.jpg,3.0,,,,A1FCTM2O25QKL2
443,73,,1.0,53.0,2460547467-349421.jpg,2901934573-69336.jpg,1.0,,,,A1FCTM2O25QKL2
444,74,,1.0,54.0,2238471391-240918.jpg,2868470400-212889.jpg,1.0,,,,A1FCTM2O25QKL2
445,75,,1.0,55.0,2274829821-263682.jpg,2446758985-197610.jpg,2.0,,,,A1FCTM2O25QKL2
446,76,,1.0,56.0,2238496457-319749.jpg,2592380234-131135.jpg,2.0,,,,A1FCTM2O25QKL2
447,77,,1.0,57.0,2238575092-334269.jpg,2860304305-210777.jpg,2.0,,,,A1FCTM2O25QKL2
448,78,,1.0,58.0,2446760524-123999.jpg,2446760621-272102.jpg,1.0,,,,A1FCTM2O25QKL2
449,79,,1.0,59.0,2898633480-217190.jpg,2237858043-1434.jpg,3.0,,,,A1FCTM2O25QKL2
450,80,,1.0,60.0,2238561223-33794.jpg,2883271323-68049.jpg,3.0,,,,A1FCTM2O25QKL2
451,81,,1.0,61.0,2883254439-140940.jpg,2452380166-273110.jpg,1.0,,,,A1FCTM2O25QKL2
452,82,,1.0,62.0,2883254439-140941.jpg,2989724308-73928.jpg,1.0,,,,A1FCTM2O25QKL2
453,83,,1.0,63.0,2625337302-355866.jpg,2238478760-167789.jpg,2.0,,,,A1FCTM2O25QKL2
454,84,,1.0,64.0,2238480434-93829.jpg,2804906319-133082.jpg,1.0,,,,A1FCTM2O25QKL2
455,20,,1.0,0.0,2986400320-221190.jpg,2238470979-92615.jpg,2.0,,,,A1JWKT0IS06YKL
456,21,,1.0,1.0,2862691449-137104.jpg,2986455341-296758.jpg,2.0,,,,A1JWKT0IS06YKL
457,22,,1.0,2.0,2883272438-68133.jpg,2237949408-4018.jpg,1.0,,,,A1JWKT0IS06YKL
458,23,,1.0,3.0,2901941426-292805.jpg,2868488422-363715.jpg,1.0,,,,A1JWKT0IS06YKL
459,24,,1.0,4.0,2883254439-140941.jpg,2237965109-79314.jpg,2.0,,,,A1JWKT0IS06YKL
460,25,,1.0,5.0,2964216465-219242.jpg,2592380049-131079.jpg,1.0,,,,A1JWKT0IS06YKL
461,26,,1.0,6.0,2238561223-33794.jpg,2592380177-354626.jpg,2.0,,,,A1JWKT0IS06YKL
462,27,,1.0,7.0,2883255450-215309.jpg,2238429999-90216.jpg,1.0,,,,A1JWKT0IS06YKL
463,28,,1.0,8.0,2238550049-105691.jpg,2238482972-317759.jpg,1.0,,,,A1JWKT0IS06YKL
464,29,,1.0,9.0,2964218374-144968.jpg,2238411877-313125.jpg,1.0,,,,A1JWKT0IS06YKL
465,30,,1.0,10.0,2446760524-123999.jpg,2238552469-106359.jpg,2.0,,,,A1JWKT0IS06YKL
466,31,right,1.0,11.0,right.jpg,,,right,0.7402,,A1JWKT0IS06YKL
467,32,,1.0,12.0,2238126735-154721.jpg,2575122854-130480.jpg,2.0,,,,A1JWKT0IS06YKL
468,33,,1.0,13.0,2898617468-68274.jpg,2512875899-126682.jpg,1.0,,,,A1JWKT0IS06YKL
469,34,,1.0,14.0,2864909447-362146.jpg,2238555799-106905.jpg,2.0,,,,A1JWKT0IS06YKL
470,35,,1.0,15.0,2238375302-311538.jpg,2592380049-131077.jpg,2.0,,,,A1JWKT0IS06YKL
471,36,,1.0,16.0,2898632385-217137.jpg,2864904453-63932.jpg,3.0,,,,A1JWKT0IS06YKL
472,37,,1.0,17.0,2981231446-294731.jpg,2417207297-342139.jpg,3.0,,,,A1JWKT0IS06YKL
473,38,left,1.0,18.0,left.jpg,,,left,0.6186,,A1JWKT0IS06YKL
474,39,,1.0,19.0,2868475410-213219.jpg,2238216693-10721.jpg,1.0,,,,A1JWKT0IS06YKL
475,40,,1.0,20.0,2238480434-93829.jpg,2238479903-19596.jpg,3.0,,,,A1JWKT0IS06YKL
476,41,,1.0,21.0,2901934573-69337.jpg,2901936407-367476.jpg,3.0,,,,A1JWKT0IS06YKL
477,42,,1.0,22.0,2868485396-288511.jpg,2868472420-213024.jpg,2.0,,,,A1JWKT0IS06YKL
478,43,,1.0,23.0,2898632385-217138.jpg,2575120738-55529.jpg,1.0,,,,A1JWKT0IS06YKL
479,44,,1.0,24.0,2238516618-25604.jpg,2238470979-92618.jpg,3.0,,,,A1JWKT0IS06YKL
480,45,,1.0,25.0,2625337302-355866.jpg,2425492472-343825.jpg,1.0,,,,A1JWKT0IS06YKL
481,46,,1.0,26.0,2238429999-90218.jpg,2964222378-71332.jpg,3.0,,,,A1JWKT0IS06YKL
482,47,,1.0,27.0,2898626385-216899.jpg,2898618440-216545.jpg,3.0,,,,A1JWKT0IS06YKL
483,48,,1.0,28.0,2449442529-124446.jpg,2868469458-64561.jpg,2.0,,,,A1JWKT0IS06YKL
484,49,,1.0,29.0,2986408352-371293.jpg,2868488422-363713.jpg,1.0,,,,A1JWKT0IS06YKL
485,50,,1.0,30.0,2864906345-212360.jpg,2238087237-303447.jpg,2.0,,,,A1JWKT0IS06YKL
486,51,,1.0,31.0,2238584018-38513.jpg,2449443163-50093.jpg,1.0,,,,A1JWKT0IS06YKL
487,52,,1.0,32.0,2964224310-219527.jpg,2238490590-169598.jpg,3.0,,,,A1JWKT0IS06YKL
488,53,right,1.0,33.0,right.jpg,,,right,0.5934,,A1JWKT0IS06YKL
489,54,,1.0,34.0,2238129579-80916.jpg,2238161924-82646.jpg,3.0,,,,A1JWKT0IS06YKL
490,55,,1.0,35.0,2446759803-49249.jpg,2238468265-166556.jpg,2.0,,,,A1JWKT0IS06YKL
491,56,,1.0,36.0,2446760940-198145.jpg,2446760692-347392.jpg,3.0,,,,A1JWKT0IS06YKL
492,57,,1.0,37.0,2238471391-240918.jpg,2986399339-146857.jpg,3.0,,,,A1JWKT0IS06YKL
493,58,,1.0,38.0,2579432576-279079.jpg,2901934574-143126.jpg,1.0,,,,A1JWKT0IS06YKL
494,59,right,1.0,39.0,right.jpg,,,right,0.7916,,A1JWKT0IS06YKL
495,60,,1.0,40.0,2883255450-215311.jpg,2238481575-168208.jpg,1.0,,,,A1JWKT0IS06YKL
496,61,,1.0,41.0,2446758985-197609.jpg,2635396318-58409.jpg,2.0,,,,A1JWKT0IS06YKL
497,62,,1.0,42.0,2964209380-218956.jpg,2868488456-288710.jpg,1.0,,,,A1JWKT0IS06YKL
498,63,,1.0,43.0,2898633480-217190.jpg,2446760147-347245.jpg,1.0,,,,A1JWKT0IS06YKL
499,64,,1.0,44.0,2898624426-291546.jpg,2549106844-127878.jpg,2.0,,,,A1JWKT0IS06YKL
500,65,,1.0,45.0,2452380166-273109.jpg,2592379781-279345.jpg,2.0,,,,A1JWKT0IS06YKL
501,66,,1.0,46.0,2460547467-349421.jpg,2901934573-69336.jpg,1.0,,,,A1JWKT0IS06YKL
502,67,,1.0,47.0,2994405328-74628.jpg,2883273443-68192.jpg,3.0,,,,A1JWKT0IS06YKL
503,68,,1.0,48.0,2901938432-367627.jpg,2856919327-359675.jpg,2.0,,,,A1JWKT0IS06YKL
504,69,right,1.0,49.0,right.jpg,,,right,0.5475,,A1JWKT0IS06YKL
505,70,,1.0,50.0,2238521193-26286.jpg,2446760306-272024.jpg,3.0,,,,A1JWKT0IS06YKL
506,71,,1.0,51.0,2575964140-205050.jpg,2446760226-272005.jpg,3.0,,,,A1JWKT0IS06YKL
507,72,,1.0,52.0,2964213381-294061.jpg,2989721347-371917.jpg,3.0,,,,A1JWKT0IS06YKL
508,73,,1.0,53.0,2238496457-319749.jpg,2460547467-349422.jpg,3.0,,,,A1JWKT0IS06YKL
509,74,,1.0,54.0,2964213381-294060.jpg,2898631359-142720.jpg,1.0,,,,A1JWKT0IS06YKL
510,75,,1.0,55.0,2238584869-113153.jpg,2981241419-145844.jpg,2.0,,,,A1JWKT0IS06YKL
511,76,,1.0,56.0,2883254439-140940.jpg,2812983311-281946.jpg,3.0,,,,A1JWKT0IS06YKL
512,77,,1.0,57.0,2274829821-263682.jpg,2446758985-197610.jpg,2.0,,,,A1JWKT0IS06YKL
513,78,,1.0,58.0,2901939379-143479.jpg,2864909422-362141.jpg,3.0,,,,A1JWKT0IS06YKL
514,79,,1.0,59.0,2592380138-56727.jpg,2238537701-251772.jpg,3.0,,,,A1JWKT0IS06YKL
515,80,,1.0,60.0,2238499155-170911.jpg,2446760621-272103.jpg,1.0,,,,A1JWKT0IS06YKL
516,81,,1.0,61.0,2512876023-52283.jpg,2898636443-69154.jpg,2.0,,,,A1JWKT0IS06YKL
517,82,,1.0,62.0,2238575092-334269.jpg,2592380285-205564.jpg,1.0,,,,A1JWKT0IS06YKL
518,83,,1.0,63.0,2331570830-189984.jpg,2449442529-124445.jpg,2.0,,,,A1JWKT0IS06YKL
519,84,,1.0,64.0,2898635427-367120.jpg,2901936309-143207.jpg,3.0,,,,A1JWKT0IS06YKL
520,20,,1.0,0.0,2238584869-113153.jpg,2864901420-212147.jpg,1.0,,,,A1RSQOCZVV1FF2
521,21,,1.0,1.0,2238471391-240918.jpg,2868470400-212889.jpg,1.0,,,,A1RSQOCZVV1FF2
522,22,,1.0,2.0,2238480434-93829.jpg,2592380255-205551.jpg,2.0,,,,A1RSQOCZVV1FF2
523,23,,1.0,3.0,2238584018-38513.jpg,2452381442-348755.jpg,3.0,,,,A1RSQOCZVV1FF2
524,24,,1.0,4.0,2579432576-279079.jpg,2901934574-143126.jpg,1.0,,,,A1RSQOCZVV1FF2
525,25,,1.0,5.0,2446758985-197609.jpg,2984618344-146295.jpg,3.0,,,,A1RSQOCZVV1FF2
526,26,,1.0,6.0,2964218374-144968.jpg,2238411877-313125.jpg,1.0,,,,A1RSQOCZVV1FF2
527,27,,0.0,7.0,right.jpg,,,right,,,A1RSQOCZVV1FF2
528,28,,1.0,8.0,2446759803-49249.jpg,2238468265-166556.jpg,2.0,,,,A1RSQOCZVV1FF2
529,29,,1.0,9.0,2575964140-205050.jpg,2446760226-272005.jpg,3.0,,,,A1RSQOCZVV1FF2
530,30,,1.0,10.0,2898626385-216899.jpg,2989715328-73658.jpg,1.0,,,,A1RSQOCZVV1FF2
531,31,,1.0,11.0,2898632385-217137.jpg,2864904453-63932.jpg,3.0,,,,A1RSQOCZVV1FF2
532,32,,1.0,12.0,2986408352-371293.jpg,2868488422-363713.jpg,1.0,,,,A1RSQOCZVV1FF2
533,33,,1.0,13.0,2964213381-294060.jpg,2989724308-73930.jpg,3.0,,,,A1RSQOCZVV1FF2
534,34,,1.0,14.0,2238550049-105691.jpg,2449443271-272729.jpg,2.0,,,,A1RSQOCZVV1FF2
535,35,,1.0,15.0,2898635427-367120.jpg,2901936309-143207.jpg,3.0,,,,A1RSQOCZVV1FF2
536,36,,1.0,16.0,2964224310-219527.jpg,2238490590-169598.jpg,3.0,,,,A1RSQOCZVV1FF2
537,37,,1.0,17.0,2964216465-219242.jpg,2446760917-347439.jpg,3.0,,,,A1RSQOCZVV1FF2
538,38,,1.0,18.0,2238499155-170911.jpg,2446760621-272103.jpg,1.0,,,,A1RSQOCZVV1FF2
539,39,,1.0,19.0,2452380166-273109.jpg,2452380171-273112.jpg,1.0,,,,A1RSQOCZVV1FF2
540,40,left,1.0,20.0,left.jpg,,,left,1.012599999,,A1RSQOCZVV1FF2
541,41,,1.0,21.0,2901938432-367627.jpg,2424122568-45517.jpg,3.0,,,,A1RSQOCZVV1FF2
542,42,,1.0,22.0,2864909447-362146.jpg,2874303453-66056.jpg,3.0,,,,A1RSQOCZVV1FF2
543,43,,1.0,23.0,2238561223-33794.jpg,2592380177-354626.jpg,2.0,,,,A1RSQOCZVV1FF2
544,44,,1.0,24.0,2883254439-140941.jpg,2417207511-266975.jpg,3.0,,,,A1RSQOCZVV1FF2
545,45,,1.0,25.0,2625337302-355866.jpg,2238478760-167789.jpg,2.0,,,,A1RSQOCZVV1FF2
546,46,,1.0,26.0,2964213381-294061.jpg,2981234334-145491.jpg,2.0,,,,A1RSQOCZVV1FF2
547,47,,1.0,27.0,2238375302-311538.jpg,2592380049-131077.jpg,2.0,,,,A1RSQOCZVV1FF2
548,48,left,1.0,28.0,left.jpg,,,left,1.2344,,A1RSQOCZVV1FF2
549,49,,1.0,29.0,2901941426-292805.jpg,2238510189-98616.jpg,2.0,,,,A1RSQOCZVV1FF2
550,50,,1.0,30.0,2449442529-124446.jpg,2864911339-138231.jpg,3.0,,,,A1RSQOCZVV1FF2
551,51,,1.0,31.0,2864906345-212360.jpg,2238087237-303447.jpg,2.0,,,,A1RSQOCZVV1FF2
552,52,,1.0,32.0,2460547467-349421.jpg,2238470079-92499.jpg,2.0,,,,A1RSQOCZVV1FF2
553,53,,1.0,33.0,2238126735-154721.jpg,2856919327-359676.jpg,1.0,,,,A1RSQOCZVV1FF2
554,54,,1.0,34.0,2986400320-221190.jpg,2238470979-92615.jpg,2.0,,,,A1RSQOCZVV1FF2
555,55,,1.0,35.0,2238516618-25604.jpg,2238573549-110485.jpg,1.0,,,,A1RSQOCZVV1FF2
556,56,,1.0,36.0,2898624426-291546.jpg,2549106844-127878.jpg,2.0,,,,A1RSQOCZVV1FF2
557,57,,1.0,37.0,2331570830-189984.jpg,2449442529-124445.jpg,2.0,,,,A1RSQOCZVV1FF2
558,58,right,1.0,38.0,right.jpg,,,right,1.0373,,A1RSQOCZVV1FF2
559,59,,1.0,39.0,2883254439-140940.jpg,2575121890-204630.jpg,2.0,,,,A1RSQOCZVV1FF2
560,60,,1.0,40.0,2883255450-215311.jpg,2868485399-139476.jpg,2.0,,,,A1RSQOCZVV1FF2
561,61,,1.0,41.0,2274829821-263682.jpg,2238570526-257884.jpg,1.0,,,,A1RSQOCZVV1FF2
562,62,,1.0,42.0,2868475410-213219.jpg,2238216693-10721.jpg,1.0,,,,A1RSQOCZVV1FF2
563,63,,1.0,43.0,2512876023-52283.jpg,2238576267-334532.jpg,3.0,,,,A1RSQOCZVV1FF2
564,64,,1.0,44.0,2446760524-123999.jpg,2238552469-106359.jpg,2.0,,,,A1RSQOCZVV1FF2
565,65,,1.0,45.0,2592380138-56727.jpg,2430664847-345753.jpg,2.0,,,,A1RSQOCZVV1FF2
566,66,,1.0,46.0,2238429999-90218.jpg,2986448334-147157.jpg,1.0,,,,A1RSQOCZVV1FF2
567,67,,1.0,47.0,2883255450-215309.jpg,2238429999-90216.jpg,1.0,,,,A1RSQOCZVV1FF2
568,68,,1.0,48.0,2238575092-334269.jpg,2964218374-144967.jpg,3.0,,,,A1RSQOCZVV1FF2
569,69,,1.0,49.0,2862691449-137104.jpg,2986455341-296758.jpg,2.0,,,,A1RSQOCZVV1FF2
570,70,,1.0,50.0,2883272438-68133.jpg,2592380136-279476.jpg,3.0,,,,A1RSQOCZVV1FF2
571,71,,1.0,51.0,2901934573-69337.jpg,2901936407-367476.jpg,3.0,,,,A1RSQOCZVV1FF2
572,72,,1.0,52.0,2238496457-319749.jpg,2460547467-349422.jpg,3.0,,,,A1RSQOCZVV1FF2
573,73,right,1.0,53.0,right.jpg,,,right,1.0865,,A1RSQOCZVV1FF2
574,74,,1.0,54.0,2868485396-288511.jpg,2868470456-287597.jpg,1.0,,,,A1RSQOCZVV1FF2
575,75,,1.0,55.0,2898633480-217190.jpg,2446760147-347245.jpg,1.0,,,,A1RSQOCZVV1FF2
576,76,,1.0,56.0,2981231446-294731.jpg,2986450330-221526.jpg,1.0,,,,A1RSQOCZVV1FF2
577,77,,1.0,57.0,2238521193-26286.jpg,2446760306-272024.jpg,3.0,,,,A1RSQOCZVV1FF2
578,78,,1.0,58.0,2964209380-218956.jpg,2898617396-291219.jpg,3.0,,,,A1RSQOCZVV1FF2
579,79,,1.0,59.0,2446760940-198145.jpg,2449443300-198739.jpg,1.0,,,,A1RSQOCZVV1FF2
580,80,,1.0,60.0,2994405328-74628.jpg,2417206274-118542.jpg,1.0,,,,A1RSQOCZVV1FF2
581,81,,1.0,61.0,2898617468-68274.jpg,2512875899-126682.jpg,1.0,,,,A1RSQOCZVV1FF2
582,82,,1.0,62.0,2238129579-80916.jpg,2238161924-82646.jpg,3.0,,,,A1RSQOCZVV1FF2
583,83,,1.0,63.0,2901939379-143479.jpg,2449443292-348022.jpg,2.0,,,,A1RSQOCZVV1FF2
584,84,,1.0,64.0,2898632385-217138.jpg,2273188118-40829.jpg,2.0,,,,A1RSQOCZVV1FF2
585,20,,1.0,0.0,2898633480-217190.jpg,2446760147-347245.jpg,1.0,,,,A1Y07DW8W2UXSD
586,21,,1.0,1.0,2864909447-362146.jpg,2874316384-140749.jpg,1.0,,,,A1Y07DW8W2UXSD
587,22,,1.0,2.0,2883255450-215311.jpg,2575964014-130589.jpg,3.0,,,,A1Y07DW8W2UXSD
588,23,,1.0,3.0,2901938432-367627.jpg,2579432708-56394.jpg,1.0,,,,A1Y07DW8W2UXSD
589,24,,1.0,4.0,2446758985-197609.jpg,2984618344-146295.jpg,3.0,,,,A1Y07DW8W2UXSD
590,25,,1.0,5.0,2625337302-355866.jpg,2425492472-343825.jpg,1.0,,,,A1Y07DW8W2UXSD
591,26,,1.0,6.0,2883254439-140940.jpg,2452380166-273110.jpg,1.0,,,,A1Y07DW8W2UXSD
592,27,,1.0,7.0,2238575092-334269.jpg,2964218374-144967.jpg,3.0,,,,A1Y07DW8W2UXSD
593,28,,1.0,8.0,2964209380-218956.jpg,2868488456-288710.jpg,1.0,,,,A1Y07DW8W2UXSD
594,29,,1.0,9.0,2883272438-68133.jpg,2901936369-143233.jpg,2.0,,,,A1Y07DW8W2UXSD
595,30,left,1.0,10.0,left.jpg,,,left,1.165,,A1Y07DW8W2UXSD
596,31,,1.0,11.0,2446760940-198145.jpg,2446760692-347392.jpg,3.0,,,,A1Y07DW8W2UXSD
597,32,,1.0,12.0,2512876023-52283.jpg,2898636443-69154.jpg,2.0,,,,A1Y07DW8W2UXSD
598,33,,1.0,13.0,2901939379-143479.jpg,2449443292-348022.jpg,2.0,,,,A1Y07DW8W2UXSD
599,34,,1.0,14.0,2868485396-288511.jpg,2238380314-88261.jpg,3.0,,,,A1Y07DW8W2UXSD
600,35,,1.0,15.0,2994405328-74628.jpg,2825702353-60662.jpg,2.0,,,,A1Y07DW8W2UXSD
601,36,,1.0,16.0,2898632385-217137.jpg,2864904453-63932.jpg,3.0,,,,A1Y07DW8W2UXSD
602,37,,1.0,17.0,2238550049-105691.jpg,2238482972-317759.jpg,1.0,,,,A1Y07DW8W2UXSD
603,38,,1.0,18.0,2238375302-311538.jpg,2592380049-131077.jpg,2.0,,,,A1Y07DW8W2UXSD
604,39,left,1.0,19.0,left.jpg,,,left,0.979,,A1Y07DW8W2UXSD
605,40,,1.0,20.0,2868475410-213219.jpg,2238436851-238821.jpg,3.0,,,,A1Y07DW8W2UXSD
606,41,,1.0,21.0,2981231446-294731.jpg,2238568685-183597.jpg,2.0,,,,A1Y07DW8W2UXSD
607,42,,1.0,22.0,2898624426-291546.jpg,2864902304-137862.jpg,3.0,,,,A1Y07DW8W2UXSD
608,43,,1.0,23.0,2898635427-367120.jpg,2901936309-143207.jpg,3.0,,,,A1Y07DW8W2UXSD
609,44,,1.0,24.0,2579432576-279079.jpg,2446760226-272006.jpg,2.0,,,,A1Y07DW8W2UXSD
610,45,,1.0,25.0,2986400320-221190.jpg,2238538133-29662.jpg,3.0,,,,A1Y07DW8W2UXSD
611,46,,1.0,26.0,2238496457-319749.jpg,2592380234-131135.jpg,2.0,,,,A1Y07DW8W2UXSD
612,47,,1.0,27.0,2883254439-140941.jpg,2237965109-79314.jpg,2.0,,,,A1Y07DW8W2UXSD
613,48,,1.0,28.0,2446759803-49249.jpg,2238498786-244797.jpg,3.0,,,,A1Y07DW8W2UXSD
614,49,,1.0,29.0,2901941426-292805.jpg,2238510189-98616.jpg,2.0,,,,A1Y07DW8W2UXSD
615,50,right,1.0,30.0,right.jpg,,,right,1.094,,A1Y07DW8W2UXSD
616,51,,1.0,31.0,2883255450-215309.jpg,2238429999-90216.jpg,1.0,,,,A1Y07DW8W2UXSD
617,52,,1.0,32.0,2898632385-217138.jpg,2575120738-55529.jpg,1.0,,,,A1Y07DW8W2UXSD
618,53,,1.0,33.0,2238561223-33794.jpg,2238506233-23904.jpg,1.0,,,,A1Y07DW8W2UXSD
619,54,,1.0,34.0,2238480434-93829.jpg,2592380255-205551.jpg,2.0,,,,A1Y07DW8W2UXSD
620,55,,1.0,35.0,2238521193-26286.jpg,2874301437-363905.jpg,2.0,,,,A1Y07DW8W2UXSD
621,56,,1.0,36.0,2986408352-371293.jpg,2856916345-210056.jpg,3.0,,,,A1Y07DW8W2UXSD
622,57,,1.0,37.0,2238129579-80916.jpg,2898618444-142233.jpg,2.0,,,,A1Y07DW8W2UXSD
623,58,,1.0,38.0,2862691449-137104.jpg,2238540598-30035.jpg,1.0,,,,A1Y07DW8W2UXSD
624,59,,1.0,39.0,2964213381-294060.jpg,2238520921-248323.jpg,2.0,,,,A1Y07DW8W2UXSD
625,60,,1.0,40.0,2592380138-56727.jpg,2986419351-296471.jpg,1.0,,,,A1Y07DW8W2UXSD
626,61,,1.0,41.0,2898626385-216899.jpg,2989715328-73658.jpg,1.0,,,,A1Y07DW8W2UXSD
627,62,,1.0,42.0,2238499155-170911.jpg,2446760621-272103.jpg,1.0,,,,A1Y07DW8W2UXSD
628,63,,1.0,43.0,2238429999-90218.jpg,2901951459-144433.jpg,2.0,,,,A1Y07DW8W2UXSD
629,64,right,1.0,44.0,right.jpg,,,right,1.065,,A1Y07DW8W2UXSD
630,65,,1.0,45.0,2238471391-240918.jpg,2868470400-212889.jpg,1.0,,,,A1Y07DW8W2UXSD
631,66,,1.0,46.0,2238516618-25604.jpg,2238470979-92618.jpg,3.0,,,,A1Y07DW8W2UXSD
632,67,,1.0,47.0,2460547467-349421.jpg,2238554179-106663.jpg,3.0,,,,A1Y07DW8W2UXSD
633,68,,1.0,48.0,2449442529-124446.jpg,2868469458-64561.jpg,2.0,,,,A1Y07DW8W2UXSD
634,69,,1.0,49.0,2864906345-212360.jpg,2994403305-222559.jpg,3.0,,,,A1Y07DW8W2UXSD
635,70,,1.0,50.0,2238584018-38513.jpg,2452381442-348755.jpg,3.0,,,,A1Y07DW8W2UXSD
636,71,,1.0,51.0,2964224310-219527.jpg,2238380178-14011.jpg,1.0,,,,A1Y07DW8W2UXSD
637,72,,1.0,52.0,2964213381-294061.jpg,2981234334-145491.jpg,2.0,,,,A1Y07DW8W2UXSD
638,73,,1.0,53.0,2446760524-123999.jpg,2238539138-29878.jpg,3.0,,,,A1Y07DW8W2UXSD
639,74,,0.0,54.0,right.jpg,,,right,,,A1Y07DW8W2UXSD
640,75,,1.0,55.0,2238126735-154721.jpg,2575122854-130480.jpg,2.0,,,,A1Y07DW8W2UXSD
641,76,,1.0,56.0,2575964140-205050.jpg,2238482920-168428.jpg,1.0,,,,A1Y07DW8W2UXSD
642,77,,1.0,57.0,2331570830-189984.jpg,2458348012-349114.jpg,3.0,,,,A1Y07DW8W2UXSD
643,78,,1.0,58.0,2964216465-219242.jpg,2592380049-131079.jpg,1.0,,,,A1Y07DW8W2UXSD
644,79,,1.0,59.0,2898617468-68274.jpg,2238585512-336576.jpg,2.0,,,,A1Y07DW8W2UXSD
645,80,,1.0,60.0,2238584869-113153.jpg,2864901420-212147.jpg,1.0,,,,A1Y07DW8W2UXSD
646,81,,1.0,61.0,2901934573-69337.jpg,2901936407-367476.jpg,3.0,,,,A1Y07DW8W2UXSD
647,82,,1.0,62.0,2274829821-263682.jpg,2446758985-197610.jpg,2.0,,,,A1Y07DW8W2UXSD
648,83,,1.0,63.0,2964218374-144968.jpg,2238411877-313125.jpg,1.0,,,,A1Y07DW8W2UXSD
649,84,,1.0,64.0,2452380166-273109.jpg,2238380901-236499.jpg,3.0,,,,A1Y07DW8W2UXSD
650,20,,1.0,0.0,2901934573-69337.jpg,2238345946-235007.jpg,2.0,,,,A25N2OW7USWS2H
651,21,,1.0,1.0,2238471391-240918.jpg,2868470400-212889.jpg,1.0,,,,A25N2OW7USWS2H
652,22,,1.0,2.0,2901941426-292805.jpg,2901945303-70125.jpg,3.0,,,,A25N2OW7USWS2H
653,23,,1.0,3.0,2964216465-219242.jpg,2512875796-274856.jpg,2.0,,,,A25N2OW7USWS2H
654,24,,1.0,4.0,2964213381-294061.jpg,2989721347-371917.jpg,3.0,,,,A25N2OW7USWS2H
655,25,,1.0,5.0,2964213381-294060.jpg,2238520921-248323.jpg,2.0,,,,A25N2OW7USWS2H
656,26,,1.0,6.0,2901939379-143479.jpg,2986450334-147215.jpg,1.0,,,,A25N2OW7USWS2H
657,27,,1.0,7.0,2898632385-217138.jpg,2273188118-40829.jpg,2.0,,,,A25N2OW7USWS2H
658,28,right,1.0,8.0,right.jpg,,,right,1.3965,,A25N2OW7USWS2H
659,29,,1.0,9.0,2981231446-294731.jpg,2986450330-221526.jpg,1.0,,,,A25N2OW7USWS2H
660,30,,1.0,10.0,2898632385-217137.jpg,2238360884-87525.jpg,1.0,,,,A25N2OW7USWS2H
661,31,,1.0,11.0,2575964140-205050.jpg,2238482920-168428.jpg,1.0,,,,A25N2OW7USWS2H
662,32,,1.0,12.0,2331570830-189984.jpg,2449442529-124445.jpg,2.0,,,,A25N2OW7USWS2H
663,33,,1.0,13.0,2964218374-144968.jpg,2238525773-27014.jpg,3.0,,,,A25N2OW7USWS2H
664,34,,1.0,14.0,2238584869-113153.jpg,2981241419-145844.jpg,2.0,,,,A25N2OW7USWS2H
665,35,,1.0,15.0,2898633480-217190.jpg,2986450334-147216.jpg,2.0,,,,A25N2OW7USWS2H
666,36,,1.0,16.0,2274829821-263682.jpg,2862687442-360837.jpg,3.0,,,,A25N2OW7USWS2H
667,37,,1.0,17.0,2446758985-197609.jpg,2984618344-146295.jpg,3.0,,,,A25N2OW7USWS2H
668,38,left,1.0,18.0,left.jpg,,,left,1.0462,,A25N2OW7USWS2H
669,39,,1.0,19.0,2864906345-212360.jpg,2986397365-221133.jpg,1.0,,,,A25N2OW7USWS2H
670,40,,1.0,20.0,2883255450-215311.jpg,2575964014-130589.jpg,3.0,,,,A25N2OW7USWS2H
671,41,,1.0,21.0,2238516618-25604.jpg,2862686459-136888.jpg,2.0,,,,A25N2OW7USWS2H
672,42,,1.0,22.0,2238126735-154721.jpg,2901951430-218724.jpg,3.0,,,,A25N2OW7USWS2H
673,43,,1.0,23.0,2512876023-52283.jpg,2238576267-334532.jpg,3.0,,,,A25N2OW7USWS2H
674,44,,1.0,24.0,2964224310-219527.jpg,2238490590-169598.jpg,3.0,,,,A25N2OW7USWS2H
675,45,,1.0,25.0,2446760940-198145.jpg,2449443300-198739.jpg,1.0,,,,A25N2OW7USWS2H
676,46,left,1.0,26.0,left.jpg,,,left,1.2853,,A25N2OW7USWS2H
677,47,,1.0,27.0,2238496457-319749.jpg,2592380234-131135.jpg,2.0,,,,A25N2OW7USWS2H
678,48,,1.0,28.0,2238521193-26286.jpg,2874301437-363905.jpg,2.0,,,,A25N2OW7USWS2H
679,49,,1.0,29.0,2238561223-33794.jpg,2883271323-68049.jpg,3.0,,,,A25N2OW7USWS2H
680,50,,1.0,30.0,2986400320-221190.jpg,2989727350-222011.jpg,1.0,,,,A25N2OW7USWS2H
681,51,,1.0,31.0,2862691449-137104.jpg,2238540598-30035.jpg,1.0,,,,A25N2OW7USWS2H
682,52,,1.0,32.0,2901938432-367627.jpg,2424122568-45517.jpg,3.0,,,,A25N2OW7USWS2H
683,53,,1.0,33.0,2238575092-334269.jpg,2592380285-205564.jpg,1.0,,,,A25N2OW7USWS2H
684,54,,1.0,34.0,2883254439-140941.jpg,2989724308-73928.jpg,1.0,,,,A25N2OW7USWS2H
685,55,,1.0,35.0,2460547467-349421.jpg,2238554179-106663.jpg,3.0,,,,A25N2OW7USWS2H
686,56,,1.0,36.0,2238550049-105691.jpg,2449443271-272729.jpg,2.0,,,,A25N2OW7USWS2H
687,57,,1.0,37.0,2883254439-140940.jpg,2452380166-273110.jpg,1.0,,,,A25N2OW7USWS2H
688,58,,1.0,38.0,2238499155-170911.jpg,2452380832-348593.jpg,2.0,,,,A25N2OW7USWS2H
689,59,,1.0,39.0,2446760524-123999.jpg,2446760621-272102.jpg,1.0,,,,A25N2OW7USWS2H
690,60,,1.0,40.0,2898617468-68274.jpg,2238585512-336576.jpg,2.0,,,,A25N2OW7USWS2H
691,61,,1.0,41.0,2898624426-291546.jpg,2986402377-371266.jpg,1.0,,,,A25N2OW7USWS2H
692,62,,1.0,42.0,2238375302-311538.jpg,2460547508-51571.jpg,3.0,,,,A25N2OW7USWS2H
693,63,,1.0,43.0,2898635427-367120.jpg,2901936309-143207.jpg,3.0,,,,A25N2OW7USWS2H
694,64,right,1.0,44.0,right.jpg,,,right,0.947,,A25N2OW7USWS2H
695,65,,1.0,45.0,2449442529-124446.jpg,2868469458-64561.jpg,2.0,,,,A25N2OW7USWS2H
696,66,,1.0,46.0,2579432576-279079.jpg,2901934574-143126.jpg,1.0,,,,A25N2OW7USWS2H
697,67,,1.0,47.0,2994405328-74628.jpg,2825702353-60662.jpg,2.0,,,,A25N2OW7USWS2H
698,68,,1.0,48.0,2986408352-371293.jpg,2868488422-363713.jpg,1.0,,,,A25N2OW7USWS2H
699,69,,1.0,49.0,2452380166-273109.jpg,2238380901-236499.jpg,3.0,,,,A25N2OW7USWS2H
700,70,right,1.0,50.0,right.jpg,,,right,1.0176,,A25N2OW7USWS2H
701,71,,1.0,51.0,2238129579-80916.jpg,2898618444-142233.jpg,2.0,,,,A25N2OW7USWS2H
702,72,,1.0,52.0,2446759803-49249.jpg,2238498786-244797.jpg,3.0,,,,A25N2OW7USWS2H
703,73,,1.0,53.0,2868485396-288511.jpg,2238380314-88261.jpg,3.0,,,,A25N2OW7USWS2H
704,74,,1.0,54.0,2964209380-218956.jpg,2868488456-288710.jpg,1.0,,,,A25N2OW7USWS2H
705,75,,1.0,55.0,2864909447-362146.jpg,2238555799-106905.jpg,2.0,,,,A25N2OW7USWS2H
706,76,,1.0,56.0,2883272438-68133.jpg,2237949408-4018.jpg,1.0,,,,A25N2OW7USWS2H
707,77,,1.0,57.0,2592380138-56727.jpg,2238537701-251772.jpg,3.0,,,,A25N2OW7USWS2H
708,78,,1.0,58.0,2238584018-38513.jpg,2452381442-348755.jpg,3.0,,,,A25N2OW7USWS2H
709,79,,1.0,59.0,2883255450-215309.jpg,2238562336-256366.jpg,3.0,,,,A25N2OW7USWS2H
710,80,,1.0,60.0,2625337302-355866.jpg,2425492472-343825.jpg,1.0,,,,A25N2OW7USWS2H
711,81,,1.0,61.0,2868475410-213219.jpg,2575964140-205051.jpg,2.0,,,,A25N2OW7USWS2H
712,82,,1.0,62.0,2238429999-90218.jpg,2901951459-144433.jpg,2.0,,,,A25N2OW7USWS2H
713,83,,1.0,63.0,2898626385-216899.jpg,2449442365-198476.jpg,2.0,,,,A25N2OW7USWS2H
714,84,,1.0,64.0,2238480434-93829.jpg,2804906319-133082.jpg,1.0,,,,A25N2OW7USWS2H
715,20,,1.0,0.0,2864909447-362146.jpg,2874303453-66056.jpg,3.0,,,,A290Z6QAL17PQE
716,21,,1.0,1.0,2446759803-49249.jpg,2238498786-244797.jpg,3.0,,,,A290Z6QAL17PQE
717,22,,1.0,2.0,2901939379-143479.jpg,2449443292-348022.jpg,2.0,,,,A290Z6QAL17PQE
718,23,,1.0,3.0,2898626385-216899.jpg,2449442365-198476.jpg,2.0,,,,A290Z6QAL17PQE
719,24,,1.0,4.0,2964216465-219242.jpg,2592380049-131079.jpg,1.0,,,,A290Z6QAL17PQE
720,25,,1.0,5.0,2575964140-205050.jpg,2238547522-328488.jpg,2.0,,,,A290Z6QAL17PQE
721,26,,1.0,6.0,2898632385-217138.jpg,2273188118-40829.jpg,2.0,,,,A290Z6QAL17PQE
722,27,,1.0,7.0,2274829821-263682.jpg,2238570526-257884.jpg,1.0,,,,A290Z6QAL17PQE
723,28,left,1.0,8.0,left.jpg,,,left,1.247,,A290Z6QAL17PQE
724,29,,1.0,9.0,2868485396-288511.jpg,2238380314-88261.jpg,3.0,,,,A290Z6QAL17PQE
725,30,,1.0,10.0,2864906345-212360.jpg,2994403305-222559.jpg,3.0,,,,A290Z6QAL17PQE
726,31,,1.0,11.0,2964213381-294061.jpg,2981234334-145491.jpg,2.0,,,,A290Z6QAL17PQE
727,32,,1.0,12.0,2901934573-69337.jpg,2238345946-235007.jpg,2.0,,,,A290Z6QAL17PQE
728,33,,1.0,13.0,2238375302-311538.jpg,2592380049-131077.jpg,2.0,,,,A290Z6QAL17PQE
729,34,,1.0,14.0,2883272438-68133.jpg,2901936369-143233.jpg,2.0,,,,A290Z6QAL17PQE
730,35,,1.0,15.0,2898633480-217190.jpg,2237858043-1434.jpg,3.0,,,,A290Z6QAL17PQE
731,36,,1.0,16.0,2898635427-367120.jpg,2237941457-301342.jpg,2.0,,,,A290Z6QAL17PQE
732,37,,1.0,17.0,2986400320-221190.jpg,2989727350-222011.jpg,1.0,,,,A290Z6QAL17PQE
733,38,,1.0,18.0,2238480434-93829.jpg,2238479903-19596.jpg,3.0,,,,A290Z6QAL17PQE
734,39,,1.0,19.0,2883254439-140940.jpg,2812983311-281946.jpg,3.0,,,,A290Z6QAL17PQE
735,40,,0.0,20.0,right.jpg,,,right,,,A290Z6QAL17PQE
736,41,,1.0,21.0,2862691449-137104.jpg,2238540598-30035.jpg,1.0,,,,A290Z6QAL17PQE
737,42,,1.0,22.0,2512876023-52283.jpg,2238576267-334532.jpg,3.0,,,,A290Z6QAL17PQE
738,43,,1.0,23.0,2964218374-144968.jpg,2238411877-313125.jpg,1.0,,,,A290Z6QAL17PQE
739,44,,1.0,24.0,2625337302-355866.jpg,2598726160-205998.jpg,3.0,,,,A290Z6QAL17PQE
740,45,,1.0,25.0,2883255450-215309.jpg,2238429999-90216.jpg,1.0,,,,A290Z6QAL17PQE
741,46,,1.0,26.0,2994405328-74628.jpg,2825702353-60662.jpg,2.0,,,,A290Z6QAL17PQE
742,47,,1.0,27.0,2238129579-80916.jpg,2460547477-349426.jpg,1.0,,,,A290Z6QAL17PQE
743,48,,1.0,28.0,2981231446-294731.jpg,2417207297-342139.jpg,3.0,,,,A290Z6QAL17PQE
744,49,,1.0,29.0,2579432576-279079.jpg,2901934574-143126.jpg,1.0,,,,A290Z6QAL17PQE
745,50,,1.0,30.0,2238575092-334269.jpg,2964218374-144967.jpg,3.0,,,,A290Z6QAL17PQE
746,51,,1.0,31.0,2446760940-198145.jpg,2592380188-56743.jpg,2.0,,,,A290Z6QAL17PQE
747,52,right,1.0,32.0,right.jpg,,,right,2.146,,A290Z6QAL17PQE
748,53,,1.0,33.0,2964209380-218956.jpg,2868488456-288710.jpg,1.0,,,,A290Z6QAL17PQE
749,54,,1.0,34.0,2446760524-123999.jpg,2446760621-272102.jpg,1.0,,,,A290Z6QAL17PQE
750,55,,1.0,35.0,2898617468-68274.jpg,2862684406-285700.jpg,3.0,,,,A290Z6QAL17PQE
751,56,,1.0,36.0,2460547467-349421.jpg,2238470079-92499.jpg,2.0,,,,A290Z6QAL17PQE
752,57,left,1.0,37.0,left.jpg,,,left,1.106,,A290Z6QAL17PQE
753,58,,1.0,38.0,2964224310-219527.jpg,2238380178-14011.jpg,1.0,,,,A290Z6QAL17PQE
754,59,,1.0,39.0,2592380138-56727.jpg,2430664847-345753.jpg,2.0,,,,A290Z6QAL17PQE
755,60,,1.0,40.0,2238561223-33794.jpg,2883271323-68049.jpg,3.0,,,,A290Z6QAL17PQE
756,61,,1.0,41.0,2238499155-170911.jpg,2238373603-13733.jpg,3.0,,,,A290Z6QAL17PQE
757,62,,1.0,42.0,2238584869-113153.jpg,2864901420-212147.jpg,1.0,,,,A290Z6QAL17PQE
758,63,,1.0,43.0,2868475410-213219.jpg,2575964140-205051.jpg,2.0,,,,A290Z6QAL17PQE
759,64,,1.0,44.0,2452380166-273109.jpg,2592379781-279345.jpg,2.0,,,,A290Z6QAL17PQE
760,65,,1.0,45.0,2449442529-124446.jpg,2238481610-168214.jpg,1.0,,,,A290Z6QAL17PQE
761,66,,1.0,46.0,2883255450-215311.jpg,2575964014-130589.jpg,3.0,,,,A290Z6QAL17PQE
762,67,,1.0,47.0,2901941426-292805.jpg,2238510189-98616.jpg,2.0,,,,A290Z6QAL17PQE
763,68,,1.0,48.0,2898632385-217137.jpg,2864904453-63932.jpg,3.0,,,,A290Z6QAL17PQE
764,69,,1.0,49.0,2964213381-294060.jpg,2238520921-248323.jpg,2.0,,,,A290Z6QAL17PQE
765,70,,1.0,50.0,2446758985-197609.jpg,2984618344-146295.jpg,3.0,,,,A290Z6QAL17PQE
766,71,,1.0,51.0,2986408352-371293.jpg,2868488422-363713.jpg,1.0,,,,A290Z6QAL17PQE
767,72,,0.0,52.0,left.jpg,,,left,,,A290Z6QAL17PQE
768,73,,1.0,53.0,2238550049-105691.jpg,2449443271-272729.jpg,2.0,,,,A290Z6QAL17PQE
769,74,,1.0,54.0,2898624426-291546.jpg,2864902304-137862.jpg,3.0,,,,A290Z6QAL17PQE
770,75,,1.0,55.0,2238584018-38513.jpg,2449443163-50093.jpg,1.0,,,,A290Z6QAL17PQE
771,76,,1.0,56.0,2238126735-154721.jpg,2856919327-359676.jpg,1.0,,,,A290Z6QAL17PQE
772,77,,1.0,57.0,2238496457-319749.jpg,2238570142-333223.jpg,1.0,,,,A290Z6QAL17PQE
773,78,,1.0,58.0,2238471391-240918.jpg,2986399339-146857.jpg,3.0,,,,A290Z6QAL17PQE
774,79,,1.0,59.0,2238429999-90218.jpg,2986448334-147157.jpg,1.0,,,,A290Z6QAL17PQE
775,80,,1.0,60.0,2238521193-26286.jpg,2874301437-363905.jpg,2.0,,,,A290Z6QAL17PQE
776,81,,1.0,61.0,2331570830-189984.jpg,2449442529-124445.jpg,2.0,,,,A290Z6QAL17PQE
777,82,,1.0,62.0,2883254439-140941.jpg,2989724308-73928.jpg,1.0,,,,A290Z6QAL17PQE
778,83,,1.0,63.0,2238516618-25604.jpg,2238470979-92618.jpg,3.0,,,,A290Z6QAL17PQE
779,84,,1.0,64.0,2901938432-367627.jpg,2579432708-56394.jpg,1.0,,,,A290Z6QAL17PQE
780,20,,1.0,0.0,2460547467-349421.jpg,2238470079-92499.jpg,2.0,,,,A2GUSVGAKNEGQF
781,21,,1.0,1.0,2883272438-68133.jpg,2901936369-143233.jpg,2.0,,,,A2GUSVGAKNEGQF
782,22,,1.0,2.0,2898632385-217138.jpg,2575120738-55529.jpg,1.0,,,,A2GUSVGAKNEGQF
783,23,,1.0,3.0,2446760940-198145.jpg,2449443300-198739.jpg,1.0,,,,A2GUSVGAKNEGQF
784,24,,1.0,4.0,2901941426-292805.jpg,2868488422-363715.jpg,1.0,,,,A2GUSVGAKNEGQF
785,25,,1.0,5.0,2449442529-124446.jpg,2868469458-64561.jpg,2.0,,,,A2GUSVGAKNEGQF
786,26,,1.0,6.0,2512876023-52283.jpg,2238576267-334532.jpg,3.0,,,,A2GUSVGAKNEGQF
787,27,,1.0,7.0,2898624426-291546.jpg,2864902304-137862.jpg,3.0,,,,A2GUSVGAKNEGQF
788,28,,1.0,8.0,2238129579-80916.jpg,2238161924-82646.jpg,3.0,,,,A2GUSVGAKNEGQF
789,29,,1.0,9.0,2864909447-362146.jpg,2238555799-106905.jpg,2.0,,,,A2GUSVGAKNEGQF
790,30,right,1.0,10.0,right.jpg,,,right,0.996,,A2GUSVGAKNEGQF
791,31,,1.0,11.0,2864906345-212360.jpg,2238087237-303447.jpg,2.0,,,,A2GUSVGAKNEGQF
792,32,,1.0,12.0,2868475410-213219.jpg,2238216693-10721.jpg,1.0,,,,A2GUSVGAKNEGQF
793,33,,1.0,13.0,2238471391-240918.jpg,2901943388-69995.jpg,2.0,,,,A2GUSVGAKNEGQF
794,34,,1.0,14.0,2592380138-56727.jpg,2986419351-296471.jpg,1.0,,,,A2GUSVGAKNEGQF
795,35,,1.0,15.0,2883255450-215309.jpg,2238562336-256366.jpg,3.0,,,,A2GUSVGAKNEGQF
796,36,,1.0,16.0,2331570830-189984.jpg,2446760483-49429.jpg,1.0,,,,A2GUSVGAKNEGQF
797,37,,1.0,17.0,2862691449-137104.jpg,2238328478-11678.jpg,3.0,,,,A2GUSVGAKNEGQF
798,38,,1.0,18.0,2964216465-219242.jpg,2446760917-347439.jpg,3.0,,,,A2GUSVGAKNEGQF
799,39,,1.0,19.0,2898617468-68274.jpg,2238585512-336576.jpg,2.0,,,,A2GUSVGAKNEGQF
800,40,,1.0,20.0,2625337302-355866.jpg,2238478760-167789.jpg,2.0,,,,A2GUSVGAKNEGQF
801,41,,1.0,21.0,2579432576-279079.jpg,2458348144-125787.jpg,3.0,,,,A2GUSVGAKNEGQF
802,42,,1.0,22.0,2238521193-26286.jpg,2825712309-134957.jpg,1.0,,,,A2GUSVGAKNEGQF
803,43,left,1.0,23.0,left.jpg,,,left,0.8063,,A2GUSVGAKNEGQF
804,44,,1.0,24.0,2986408352-371293.jpg,2856916345-210056.jpg,3.0,,,,A2GUSVGAKNEGQF
805,45,,1.0,25.0,2238584018-38513.jpg,2452381442-348755.jpg,3.0,,,,A2GUSVGAKNEGQF
806,46,,1.0,26.0,2446758985-197609.jpg,2898633421-291973.jpg,1.0,,,,A2GUSVGAKNEGQF
807,47,,1.0,27.0,2883254439-140940.jpg,2812983311-281946.jpg,3.0,,,,A2GUSVGAKNEGQF
808,48,,1.0,28.0,2274829821-263682.jpg,2238570526-257884.jpg,1.0,,,,A2GUSVGAKNEGQF
809,49,,1.0,29.0,2981231446-294731.jpg,2986450330-221526.jpg,1.0,,,,A2GUSVGAKNEGQF
810,50,,0.0,30.0,left.jpg,,,left,,,A2GUSVGAKNEGQF
811,51,,1.0,31.0,2901938432-367627.jpg,2424122568-45517.jpg,3.0,,,,A2GUSVGAKNEGQF
812,52,,1.0,32.0,2898635427-367120.jpg,2237941457-301342.jpg,2.0,,,,A2GUSVGAKNEGQF
813,53,,1.0,33.0,2452380166-273109.jpg,2592379781-279345.jpg,2.0,,,,A2GUSVGAKNEGQF
814,54,,1.0,34.0,2238499155-170911.jpg,2452380832-348593.jpg,2.0,,,,A2GUSVGAKNEGQF
815,55,,1.0,35.0,2898632385-217137.jpg,2238480803-19739.jpg,2.0,,,,A2GUSVGAKNEGQF
816,56,,1.0,36.0,2238561223-33794.jpg,2592380177-354626.jpg,2.0,,,,A2GUSVGAKNEGQF
817,57,,1.0,37.0,2994405328-74628.jpg,2417206274-118542.jpg,1.0,,,,A2GUSVGAKNEGQF
818,58,left,1.0,38.0,left.jpg,,,left,1.0498,,A2GUSVGAKNEGQF
819,59,,1.0,39.0,2898626385-216899.jpg,2898618440-216545.jpg,3.0,,,,A2GUSVGAKNEGQF
820,60,,1.0,40.0,2986400320-221190.jpg,2989727350-222011.jpg,1.0,,,,A2GUSVGAKNEGQF
821,61,,1.0,41.0,2883254439-140941.jpg,2237965109-79314.jpg,2.0,,,,A2GUSVGAKNEGQF
822,62,,1.0,42.0,2238126735-154721.jpg,2575122854-130480.jpg,2.0,,,,A2GUSVGAKNEGQF
823,63,,1.0,43.0,2883255450-215311.jpg,2238481575-168208.jpg,1.0,,,,A2GUSVGAKNEGQF
824,64,,1.0,44.0,2898633480-217190.jpg,2986450334-147216.jpg,2.0,,,,A2GUSVGAKNEGQF
825,65,,1.0,45.0,2238575092-334269.jpg,2964218374-144967.jpg,3.0,,,,A2GUSVGAKNEGQF
826,66,,1.0,46.0,2901934573-69337.jpg,2986401333-73218.jpg,1.0,,,,A2GUSVGAKNEGQF
827,67,,1.0,47.0,2964213381-294060.jpg,2238520921-248323.jpg,2.0,,,,A2GUSVGAKNEGQF
828,68,,1.0,48.0,2238429999-90218.jpg,2986448334-147157.jpg,1.0,,,,A2GUSVGAKNEGQF
829,69,,1.0,49.0,2238496457-319749.jpg,2460547467-349422.jpg,3.0,,,,A2GUSVGAKNEGQF
830,70,,1.0,50.0,2238516618-25604.jpg,2238470979-92618.jpg,3.0,,,,A2GUSVGAKNEGQF
831,71,,1.0,51.0,2964209380-218956.jpg,2898631429-142736.jpg,2.0,,,,A2GUSVGAKNEGQF
832,72,,1.0,52.0,2446760524-123999.jpg,2446760621-272102.jpg,1.0,,,,A2GUSVGAKNEGQF
833,73,,1.0,53.0,2868485396-288511.jpg,2238380314-88261.jpg,3.0,,,,A2GUSVGAKNEGQF
834,74,right,1.0,54.0,right.jpg,,,right,2.5054,,A2GUSVGAKNEGQF
835,75,,1.0,55.0,2446759803-49249.jpg,2238468265-166556.jpg,2.0,,,,A2GUSVGAKNEGQF
836,76,,1.0,56.0,2238480434-93829.jpg,2238479903-19596.jpg,3.0,,,,A2GUSVGAKNEGQF
837,77,,1.0,57.0,2901939379-143479.jpg,2986450334-147215.jpg,1.0,,,,A2GUSVGAKNEGQF
838,78,,1.0,58.0,2964218374-144968.jpg,2238525773-27014.jpg,3.0,,,,A2GUSVGAKNEGQF
839,79,,1.0,59.0,2238375302-311538.jpg,2592380255-205552.jpg,1.0,,,,A2GUSVGAKNEGQF
840,80,,1.0,60.0,2964224310-219527.jpg,2238380178-14011.jpg,1.0,,,,A2GUSVGAKNEGQF
841,81,,1.0,61.0,2238584869-113153.jpg,2986455373-73646.jpg,3.0,,,,A2GUSVGAKNEGQF
842,82,,1.0,62.0,2238550049-105691.jpg,2449443271-272729.jpg,2.0,,,,A2GUSVGAKNEGQF
843,83,,1.0,63.0,2575964140-205050.jpg,2238482920-168428.jpg,1.0,,,,A2GUSVGAKNEGQF
844,84,,1.0,64.0,2964213381-294061.jpg,2989721347-371917.jpg,3.0,,,,A2GUSVGAKNEGQF
845,20,,1.0,0.0,2575964140-205050.jpg,2446760226-272005.jpg,3.0,,,,A2L18Q7871EONK
846,21,,1.0,1.0,2238584869-113153.jpg,2981241419-145844.jpg,2.0,,,,A2L18Q7871EONK
847,22,,1.0,2.0,2901939379-143479.jpg,2449443292-348022.jpg,2.0,,,,A2L18Q7871EONK
848,23,,1.0,3.0,2452380166-273109.jpg,2238380901-236499.jpg,3.0,,,,A2L18Q7871EONK
849,24,,1.0,4.0,2331570830-189984.jpg,2458348012-349114.jpg,3.0,,,,A2L18Q7871EONK
850,25,,1.0,5.0,2898635427-367120.jpg,2901936309-143207.jpg,3.0,,,,A2L18Q7871EONK
851,26,right,1.0,6.0,right.jpg,,,right,0.5837,,A2L18Q7871EONK
852,27,,1.0,7.0,2964216465-219242.jpg,2512875796-274856.jpg,2.0,,,,A2L18Q7871EONK
853,28,,1.0,8.0,2592380138-56727.jpg,2986419351-296471.jpg,1.0,,,,A2L18Q7871EONK
854,29,,1.0,9.0,2238375302-311538.jpg,2592380255-205552.jpg,1.0,,,,A2L18Q7871EONK
855,30,,1.0,10.0,2238429999-90218.jpg,2986448334-147157.jpg,1.0,,,,A2L18Q7871EONK
856,31,,1.0,11.0,2274829821-263682.jpg,2862687442-360837.jpg,3.0,,,,A2L18Q7871EONK
857,32,,1.0,12.0,2864906345-212360.jpg,2986397365-221133.jpg,1.0,,,,A2L18Q7871EONK
858,33,,1.0,13.0,2446759803-49249.jpg,2238498786-244797.jpg,3.0,,,,A2L18Q7871EONK
859,34,,1.0,14.0,2579432576-279079.jpg,2458348144-125787.jpg,3.0,,,,A2L18Q7871EONK
860,35,,1.0,15.0,2238496457-319749.jpg,2238570142-333223.jpg,1.0,,,,A2L18Q7871EONK
861,36,,1.0,16.0,2901938432-367627.jpg,2579432708-56394.jpg,1.0,,,,A2L18Q7871EONK
862,37,,1.0,17.0,2238575092-334269.jpg,2592380285-205564.jpg,1.0,,,,A2L18Q7871EONK
863,38,,1.0,18.0,2238129579-80916.jpg,2460547477-349426.jpg,1.0,,,,A2L18Q7871EONK
864,39,,1.0,19.0,2238471391-240918.jpg,2868470400-212889.jpg,1.0,,,,A2L18Q7871EONK
865,40,,1.0,20.0,2964224310-219527.jpg,2964213441-294073.jpg,2.0,,,,A2L18Q7871EONK
866,41,,1.0,21.0,2883255450-215309.jpg,2238562336-256366.jpg,3.0,,,,A2L18Q7871EONK
867,42,,1.0,22.0,2868485396-288511.jpg,2238380314-88261.jpg,3.0,,,,A2L18Q7871EONK
868,43,,1.0,23.0,2238584018-38513.jpg,2898633321-291943.jpg,2.0,,,,A2L18Q7871EONK
869,44,right,1.0,24.0,right.jpg,,,right,0.7532,,A2L18Q7871EONK
870,45,,1.0,25.0,2883272438-68133.jpg,2901936369-143233.jpg,2.0,,,,A2L18Q7871EONK
871,46,,1.0,26.0,2883254439-140940.jpg,2812983311-281946.jpg,3.0,,,,A2L18Q7871EONK
872,47,left,1.0,27.0,left.jpg,,,left,0.637,,A2L18Q7871EONK
873,48,,1.0,28.0,2446758985-197609.jpg,2984618344-146295.jpg,3.0,,,,A2L18Q7871EONK
874,49,,1.0,29.0,2446760940-198145.jpg,2592380188-56743.jpg,2.0,,,,A2L18Q7871EONK
875,50,,1.0,30.0,2986408352-371293.jpg,2446759580-197801.jpg,2.0,,,,A2L18Q7871EONK
876,51,,1.0,31.0,2238499155-170911.jpg,2452380832-348593.jpg,2.0,,,,A2L18Q7871EONK
877,52,,1.0,32.0,2449442529-124446.jpg,2238481610-168214.jpg,1.0,,,,A2L18Q7871EONK
878,53,,1.0,33.0,2964218374-144968.jpg,2238411877-313125.jpg,1.0,,,,A2L18Q7871EONK
879,54,,1.0,34.0,2898626385-216899.jpg,2449442365-198476.jpg,2.0,,,,A2L18Q7871EONK
880,55,,1.0,35.0,2883254439-140941.jpg,2237965109-79314.jpg,2.0,,,,A2L18Q7871EONK
881,56,,1.0,36.0,2862691449-137104.jpg,2986455341-296758.jpg,2.0,,,,A2L18Q7871EONK
882,57,right,1.0,37.0,right.jpg,,,right,0.6198,,A2L18Q7871EONK
883,58,,1.0,38.0,2238126735-154721.jpg,2575122854-130480.jpg,2.0,,,,A2L18Q7871EONK
884,59,,1.0,39.0,2964213381-294060.jpg,2238520921-248323.jpg,2.0,,,,A2L18Q7871EONK
885,60,,1.0,40.0,2898617468-68274.jpg,2238585512-336576.jpg,2.0,,,,A2L18Q7871EONK
886,61,,1.0,41.0,2898624426-291546.jpg,2986402377-371266.jpg,1.0,,,,A2L18Q7871EONK
887,62,,1.0,42.0,2981231446-294731.jpg,2238568685-183597.jpg,2.0,,,,A2L18Q7871EONK
888,63,,1.0,43.0,2446760524-123999.jpg,2446760621-272102.jpg,1.0,,,,A2L18Q7871EONK
889,64,,1.0,44.0,2898632385-217138.jpg,2575120738-55529.jpg,1.0,,,,A2L18Q7871EONK
890,65,,1.0,45.0,2238521193-26286.jpg,2825712309-134957.jpg,1.0,,,,A2L18Q7871EONK
891,66,,1.0,46.0,2238550049-105691.jpg,2964219468-71238.jpg,3.0,,,,A2L18Q7871EONK
892,67,,1.0,47.0,2901934573-69337.jpg,2901936407-367476.jpg,3.0,,,,A2L18Q7871EONK
893,68,,1.0,48.0,2883255450-215311.jpg,2238481575-168208.jpg,1.0,,,,A2L18Q7871EONK
894,69,,1.0,49.0,2460547467-349421.jpg,2238470079-92499.jpg,2.0,,,,A2L18Q7871EONK
895,70,right,1.0,50.0,right.jpg,,,right,0.5545,,A2L18Q7871EONK
896,71,,1.0,51.0,2868475410-213219.jpg,2238436851-238821.jpg,3.0,,,,A2L18Q7871EONK
897,72,,1.0,52.0,2898632385-217137.jpg,2864904453-63932.jpg,3.0,,,,A2L18Q7871EONK
898,73,,1.0,53.0,2964213381-294061.jpg,2989721347-371917.jpg,3.0,,,,A2L18Q7871EONK
899,74,,1.0,54.0,2986400320-221190.jpg,2989727350-222011.jpg,1.0,,,,A2L18Q7871EONK
900,75,,1.0,55.0,2238480434-93829.jpg,2804906319-133082.jpg,1.0,,,,A2L18Q7871EONK
901,76,,1.0,56.0,2898633480-217190.jpg,2237858043-1434.jpg,3.0,,,,A2L18Q7871EONK
902,77,,1.0,57.0,2238561223-33794.jpg,2592380177-354626.jpg,2.0,,,,A2L18Q7871EONK
903,78,,1.0,58.0,2864909447-362146.jpg,2874316384-140749.jpg,1.0,,,,A2L18Q7871EONK
904,79,,1.0,59.0,2964209380-218956.jpg,2898631429-142736.jpg,2.0,,,,A2L18Q7871EONK
905,80,,1.0,60.0,2512876023-52283.jpg,2864908323-64106.jpg,1.0,,,,A2L18Q7871EONK
906,81,,1.0,61.0,2994405328-74628.jpg,2883273443-68192.jpg,3.0,,,,A2L18Q7871EONK
907,82,,1.0,62.0,2238516618-25604.jpg,2238470979-92618.jpg,3.0,,,,A2L18Q7871EONK
908,83,,1.0,63.0,2901941426-292805.jpg,2238510189-98616.jpg,2.0,,,,A2L18Q7871EONK
909,84,,1.0,64.0,2625337302-355866.jpg,2598726160-205998.jpg,3.0,,,,A2L18Q7871EONK
910,20,,1.0,0.0,2864906345-212360.jpg,2986397365-221133.jpg,1.0,,,,A2MJQG58XN41OW
911,21,,1.0,1.0,2446758985-197609.jpg,2898633421-291973.jpg,1.0,,,,A2MJQG58XN41OW
912,22,,1.0,2.0,2579432576-279079.jpg,2446760226-272006.jpg,2.0,,,,A2MJQG58XN41OW
913,23,,1.0,3.0,2238496457-319749.jpg,2592380234-131135.jpg,2.0,,,,A2MJQG58XN41OW
914,24,,1.0,4.0,2901941426-292805.jpg,2901945303-70125.jpg,3.0,,,,A2MJQG58XN41OW
915,25,,1.0,5.0,2901934573-69337.jpg,2901936407-367476.jpg,3.0,,,,A2MJQG58XN41OW
916,26,,1.0,6.0,2898624426-291546.jpg,2549106844-127878.jpg,2.0,,,,A2MJQG58XN41OW
917,27,,1.0,7.0,2964216465-219242.jpg,2446760917-347439.jpg,3.0,,,,A2MJQG58XN41OW
918,28,left,1.0,8.0,left.jpg,,,left,0.8613,,A2MJQG58XN41OW
919,29,,1.0,9.0,2512876023-52283.jpg,2898636443-69154.jpg,2.0,,,,A2MJQG58XN41OW
920,30,,1.0,10.0,2452380166-273109.jpg,2238380901-236499.jpg,3.0,,,,A2MJQG58XN41OW
921,31,,1.0,11.0,2460547467-349421.jpg,2238554179-106663.jpg,3.0,,,,A2MJQG58XN41OW
922,32,,1.0,12.0,2238575092-334269.jpg,2964218374-144967.jpg,3.0,,,,A2MJQG58XN41OW
923,33,,1.0,13.0,2446759803-49249.jpg,2238498786-244797.jpg,3.0,,,,A2MJQG58XN41OW
924,34,,1.0,14.0,2883254439-140940.jpg,2452380166-273110.jpg,1.0,,,,A2MJQG58XN41OW
925,35,,1.0,15.0,2981231446-294731.jpg,2986450330-221526.jpg,1.0,,,,A2MJQG58XN41OW
926,36,,1.0,16.0,2238129579-80916.jpg,2460547477-349426.jpg,1.0,,,,A2MJQG58XN41OW
927,37,,1.0,17.0,2901939379-143479.jpg,2449443292-348022.jpg,2.0,,,,A2MJQG58XN41OW
928,38,,1.0,18.0,2238471391-240918.jpg,2986399339-146857.jpg,3.0,,,,A2MJQG58XN41OW
929,39,,1.0,19.0,2964213381-294061.jpg,2238433340-164524.jpg,1.0,,,,A2MJQG58XN41OW
930,40,,1.0,20.0,2592380138-56727.jpg,2238537701-251772.jpg,3.0,,,,A2MJQG58XN41OW
931,41,,1.0,21.0,2898617468-68274.jpg,2862684406-285700.jpg,3.0,,,,A2MJQG58XN41OW
932,42,,1.0,22.0,2901938432-367627.jpg,2856919327-359675.jpg,2.0,,,,A2MJQG58XN41OW
933,43,right,1.0,23.0,right.jpg,,,right,1.712,,A2MJQG58XN41OW
934,44,,1.0,24.0,2238499155-170911.jpg,2452380832-348593.jpg,2.0,,,,A2MJQG58XN41OW
935,45,,1.0,25.0,2238521193-26286.jpg,2446760306-272024.jpg,3.0,,,,A2MJQG58XN41OW
936,46,,1.0,26.0,2868475410-213219.jpg,2575964140-205051.jpg,2.0,,,,A2MJQG58XN41OW
937,47,,1.0,27.0,2898635427-367120.jpg,2238436632-314069.jpg,1.0,,,,A2MJQG58XN41OW
938,48,,1.0,28.0,2238480434-93829.jpg,2592380255-205551.jpg,2.0,,,,A2MJQG58XN41OW
939,49,,1.0,29.0,2986408352-371293.jpg,2446759580-197801.jpg,2.0,,,,A2MJQG58XN41OW
940,50,right,1.0,30.0,right.jpg,,,right,0.8338,,A2MJQG58XN41OW
941,51,,1.0,31.0,2898633480-217190.jpg,2986450334-147216.jpg,2.0,,,,A2MJQG58XN41OW
942,52,,1.0,32.0,2986400320-221190.jpg,2238470979-92615.jpg,2.0,,,,A2MJQG58XN41OW
943,53,,1.0,33.0,2449442529-124446.jpg,2868469458-64561.jpg,2.0,,,,A2MJQG58XN41OW
944,54,,1.0,34.0,2238584869-113153.jpg,2864901420-212147.jpg,1.0,,,,A2MJQG58XN41OW
945,55,,1.0,35.0,2446760940-198145.jpg,2592380188-56743.jpg,2.0,,,,A2MJQG58XN41OW
946,56,left,1.0,36.0,left.jpg,,,left,1.0753,,A2MJQG58XN41OW
947,57,,1.0,37.0,2238584018-38513.jpg,2898633321-291943.jpg,2.0,,,,A2MJQG58XN41OW
948,58,,1.0,38.0,2994405328-74628.jpg,2883273443-68192.jpg,3.0,,,,A2MJQG58XN41OW
949,59,,1.0,39.0,2625337302-355866.jpg,2425492472-343825.jpg,1.0,,,,A2MJQG58XN41OW
950,60,,1.0,40.0,2883254439-140941.jpg,2989724308-73928.jpg,1.0,,,,A2MJQG58XN41OW
951,61,,1.0,41.0,2964213381-294060.jpg,2238520921-248323.jpg,2.0,,,,A2MJQG58XN41OW
952,62,,1.0,42.0,2331570830-189984.jpg,2446760483-49429.jpg,1.0,,,,A2MJQG58XN41OW
953,63,,1.0,43.0,2446760524-123999.jpg,2446760621-272102.jpg,1.0,,,,A2MJQG58XN41OW
954,64,,1.0,44.0,2898632385-217137.jpg,2864904453-63932.jpg,3.0,,,,A2MJQG58XN41OW
955,65,,1.0,45.0,2862691449-137104.jpg,2238328478-11678.jpg,3.0,,,,A2MJQG58XN41OW
956,66,,1.0,46.0,2238516618-25604.jpg,2238573549-110485.jpg,1.0,,,,A2MJQG58XN41OW
957,67,right,1.0,47.0,right.jpg,,,right,0.8894,,A2MJQG58XN41OW
958,68,,1.0,48.0,2238375302-311538.jpg,2592380255-205552.jpg,1.0,,,,A2MJQG58XN41OW
959,69,,1.0,49.0,2898626385-216899.jpg,2898618440-216545.jpg,3.0,,,,A2MJQG58XN41OW
960,70,,1.0,50.0,2964209380-218956.jpg,2898617396-291219.jpg,3.0,,,,A2MJQG58XN41OW
961,71,,1.0,51.0,2964218374-144968.jpg,2238525773-27014.jpg,3.0,,,,A2MJQG58XN41OW
962,72,,1.0,52.0,2238550049-105691.jpg,2238482972-317759.jpg,1.0,,,,A2MJQG58XN41OW
963,73,,1.0,53.0,2883272438-68133.jpg,2592380136-279476.jpg,3.0,,,,A2MJQG58XN41OW
964,74,,1.0,54.0,2864909447-362146.jpg,2238555799-106905.jpg,2.0,,,,A2MJQG58XN41OW
965,75,,1.0,55.0,2898632385-217138.jpg,2273188118-40829.jpg,2.0,,,,A2MJQG58XN41OW
966,76,,1.0,56.0,2238429999-90218.jpg,2986448334-147157.jpg,1.0,,,,A2MJQG58XN41OW
967,77,,1.0,57.0,2883255450-215311.jpg,2238481575-168208.jpg,1.0,,,,A2MJQG58XN41OW
968,78,,1.0,58.0,2883255450-215309.jpg,2238429999-90216.jpg,1.0,,,,A2MJQG58XN41OW
969,79,,1.0,59.0,2238126735-154721.jpg,2856919327-359676.jpg,1.0,,,,A2MJQG58XN41OW
970,80,,1.0,60.0,2238561223-33794.jpg,2883271323-68049.jpg,3.0,,,,A2MJQG58XN41OW
971,81,,1.0,61.0,2575964140-205050.jpg,2446760226-272005.jpg,3.0,,,,A2MJQG58XN41OW
972,82,,1.0,62.0,2274829821-263682.jpg,2238570526-257884.jpg,1.0,,,,A2MJQG58XN41OW
973,83,,1.0,63.0,2868485396-288511.jpg,2868472420-213024.jpg,2.0,,,,A2MJQG58XN41OW
974,84,,1.0,64.0,2964224310-219527.jpg,2964213441-294073.jpg,2.0,,,,A2MJQG58XN41OW
975,20,,1.0,0.0,2964213381-294060.jpg,2989724308-73930.jpg,3.0,,,,A2ZHWGGGH028UZ
976,21,,1.0,1.0,2901938432-367627.jpg,2856919327-359675.jpg,2.0,,,,A2ZHWGGGH028UZ
977,22,,1.0,2.0,2964216465-219242.jpg,2592380049-131079.jpg,1.0,,,,A2ZHWGGGH028UZ
978,23,,1.0,3.0,2331570830-189984.jpg,2449442529-124445.jpg,2.0,,,,A2ZHWGGGH028UZ
979,24,,1.0,4.0,2274829821-263682.jpg,2862687442-360837.jpg,3.0,,,,A2ZHWGGGH028UZ
980,25,,1.0,5.0,2901941426-292805.jpg,2238510189-98616.jpg,2.0,,,,A2ZHWGGGH028UZ
981,26,,0.0,6.0,right.jpg,,,right,,,A2ZHWGGGH028UZ
982,27,,1.0,7.0,2592380138-56727.jpg,2238537701-251772.jpg,3.0,,,,A2ZHWGGGH028UZ
983,28,,1.0,8.0,2986400320-221190.jpg,2989727350-222011.jpg,1.0,,,,A2ZHWGGGH028UZ
984,29,,1.0,9.0,2238126735-154721.jpg,2901951430-218724.jpg,3.0,,,,A2ZHWGGGH028UZ
985,30,,1.0,10.0,2898624426-291546.jpg,2864902304-137862.jpg,3.0,,,,A2ZHWGGGH028UZ
986,31,,1.0,11.0,2238584018-38513.jpg,2449443163-50093.jpg,1.0,,,,A2ZHWGGGH028UZ
987,32,,1.0,12.0,2883272438-68133.jpg,2592380136-279476.jpg,3.0,,,,A2ZHWGGGH028UZ
988,33,,1.0,13.0,2460547467-349421.jpg,2238554179-106663.jpg,3.0,,,,A2ZHWGGGH028UZ
989,34,,1.0,14.0,2238521193-26286.jpg,2446760306-272024.jpg,3.0,,,,A2ZHWGGGH028UZ
990,35,,1.0,15.0,2238550049-105691.jpg,2964219468-71238.jpg,3.0,,,,A2ZHWGGGH028UZ
991,36,,1.0,16.0,2994405328-74628.jpg,2883273443-68192.jpg,3.0,,,,A2ZHWGGGH028UZ
992,37,,1.0,17.0,2964218374-144968.jpg,2238521157-323782.jpg,2.0,,,,A2ZHWGGGH028UZ
993,38,,1.0,18.0,2579432576-279079.jpg,2458348144-125787.jpg,3.0,,,,A2ZHWGGGH028UZ
994,39,,1.0,19.0,2883254439-140941.jpg,2417207511-266975.jpg,3.0,,,,A2ZHWGGGH028UZ
995,40,,1.0,20.0,2883254439-140940.jpg,2812983311-281946.jpg,3.0,,,,A2ZHWGGGH028UZ
996,41,left,1.0,21.0,left.jpg,,,left,1.0101,,A2ZHWGGGH028UZ
997,42,,1.0,22.0,2238429999-90218.jpg,2964222378-71332.jpg,3.0,,,,A2ZHWGGGH028UZ
998,43,,1.0,23.0,2864906345-212360.jpg,2238087237-303447.jpg,2.0,,,,A2ZHWGGGH028UZ
999,44,,1.0,24.0,2862691449-137104.jpg,2986455341-296758.jpg,2.0,,,,A2ZHWGGGH028UZ
1000,45,,1.0,25.0,2625337302-355866.jpg,2425492472-343825.jpg,1.0,,,,A2ZHWGGGH028UZ
1001,46,,1.0,26.0,2512876023-52283.jpg,2898636443-69154.jpg,2.0,,,,A2ZHWGGGH028UZ
1002,47,,1.0,27.0,2864909447-362146.jpg,2874316384-140749.jpg,1.0,,,,A2ZHWGGGH028UZ
1003,48,right,1.0,28.0,right.jpg,,,right,1.1319,,A2ZHWGGGH028UZ
1004,49,,1.0,29.0,2964209380-218956.jpg,2898617396-291219.jpg,3.0,,,,A2ZHWGGGH028UZ
1005,50,,1.0,30.0,2898635427-367120.jpg,2238436632-314069.jpg,1.0,,,,A2ZHWGGGH028UZ
1006,51,,1.0,31.0,2981231446-294731.jpg,2238568685-183597.jpg,2.0,,,,A2ZHWGGGH028UZ
1007,52,,1.0,32.0,2238480434-93829.jpg,2592380255-205551.jpg,2.0,,,,A2ZHWGGGH028UZ
1008,53,,1.0,33.0,2575964140-205050.jpg,2446760226-272005.jpg,3.0,,,,A2ZHWGGGH028UZ
1009,54,,1.0,34.0,2898632385-217137.jpg,2238360884-87525.jpg,1.0,,,,A2ZHWGGGH028UZ
1010,55,,1.0,35.0,2238129579-80916.jpg,2898618444-142233.jpg,2.0,,,,A2ZHWGGGH028UZ
1011,56,,1.0,36.0,2986408352-371293.jpg,2856916345-210056.jpg,3.0,,,,A2ZHWGGGH028UZ
1012,57,,1.0,37.0,2238499155-170911.jpg,2446760621-272103.jpg,1.0,,,,A2ZHWGGGH028UZ
1013,58,,1.0,38.0,2238471391-240918.jpg,2901943388-69995.jpg,2.0,,,,A2ZHWGGGH028UZ
1014,59,,1.0,39.0,2238375302-311538.jpg,2592380255-205552.jpg,1.0,,,,A2ZHWGGGH028UZ
1015,60,,1.0,40.0,2452380166-273109.jpg,2592379781-279345.jpg,2.0,,,,A2ZHWGGGH028UZ
1016,61,,1.0,41.0,2446760940-198145.jpg,2449443300-198739.jpg,1.0,,,,A2ZHWGGGH028UZ
1017,62,right,1.0,42.0,right.jpg,,,right,1.4305,,A2ZHWGGGH028UZ
1018,63,,1.0,43.0,2238584869-113153.jpg,2864901420-212147.jpg,1.0,,,,A2ZHWGGGH028UZ
1019,64,,1.0,44.0,2964213381-294061.jpg,2238433340-164524.jpg,1.0,,,,A2ZHWGGGH028UZ
1020,65,,1.0,45.0,2898632385-217138.jpg,2273188118-40829.jpg,2.0,,,,A2ZHWGGGH028UZ
1021,66,,1.0,46.0,2883255450-215311.jpg,2868485399-139476.jpg,2.0,,,,A2ZHWGGGH028UZ
1022,67,,1.0,47.0,2868485396-288511.jpg,2238380314-88261.jpg,3.0,,,,A2ZHWGGGH028UZ
1023,68,,1.0,48.0,2238516618-25604.jpg,2238470979-92618.jpg,3.0,,,,A2ZHWGGGH028UZ
1024,69,,1.0,49.0,2898626385-216899.jpg,2989715328-73658.jpg,1.0,,,,A2ZHWGGGH028UZ
1025,70,,1.0,50.0,2898633480-217190.jpg,2986450334-147216.jpg,2.0,,,,A2ZHWGGGH028UZ
1026,71,right,1.0,51.0,right.jpg,,,right,1.132,,A2ZHWGGGH028UZ
1027,72,,1.0,52.0,2446760524-123999.jpg,2446760621-272102.jpg,1.0,,,,A2ZHWGGGH028UZ
1028,73,,1.0,53.0,2238561223-33794.jpg,2592380177-354626.jpg,2.0,,,,A2ZHWGGGH028UZ
1029,74,,1.0,54.0,2901934573-69337.jpg,2238345946-235007.jpg,2.0,,,,A2ZHWGGGH028UZ
1030,75,,1.0,55.0,2446759803-49249.jpg,2238468265-166556.jpg,2.0,,,,A2ZHWGGGH028UZ
1031,76,,1.0,56.0,2238575092-334269.jpg,2592380285-205564.jpg,1.0,,,,A2ZHWGGGH028UZ
1032,77,,1.0,57.0,2449442529-124446.jpg,2864911339-138231.jpg,3.0,,,,A2ZHWGGGH028UZ
1033,78,,1.0,58.0,2964224310-219527.jpg,2238380178-14011.jpg,1.0,,,,A2ZHWGGGH028UZ
1034,79,,1.0,59.0,2446758985-197609.jpg,2898633421-291973.jpg,1.0,,,,A2ZHWGGGH028UZ
1035,80,,1.0,60.0,2883255450-215309.jpg,2868476439-138927.jpg,2.0,,,,A2ZHWGGGH028UZ
1036,81,,1.0,61.0,2868475410-213219.jpg,2238216693-10721.jpg,1.0,,,,A2ZHWGGGH028UZ
1037,82,,1.0,62.0,2238496457-319749.jpg,2238570142-333223.jpg,1.0,,,,A2ZHWGGGH028UZ
1038,83,,1.0,63.0,2901939379-143479.jpg,2986450334-147215.jpg,1.0,,,,A2ZHWGGGH028UZ
1039,84,,1.0,64.0,2898617468-68274.jpg,2238585512-336576.jpg,2.0,,,,A2ZHWGGGH028UZ
1040,20,,1.0,0.0,2981231446-294731.jpg,2417207297-342139.jpg,3.0,,,,A304UJAE051J89
1041,21,,1.0,1.0,2964213381-294060.jpg,2898631359-142720.jpg,1.0,,,,A304UJAE051J89
1042,22,,1.0,2.0,2331570830-189984.jpg,2449442529-124445.jpg,2.0,,,,A304UJAE051J89
1043,23,,1.0,3.0,2898635427-367120.jpg,2237941457-301342.jpg,2.0,,,,A304UJAE051J89
1044,24,,1.0,4.0,2238550049-105691.jpg,2449443271-272729.jpg,2.0,,,,A304UJAE051J89
1045,25,,1.0,5.0,2883254439-140940.jpg,2812983311-281946.jpg,3.0,,,,A304UJAE051J89
1046,26,,1.0,6.0,2868485396-288511.jpg,2238380314-88261.jpg,3.0,,,,A304UJAE051J89
1047,27,right,1.0,7.0,right.jpg,,,right,0.8262,,A304UJAE051J89
1048,28,,1.0,8.0,2986408352-371293.jpg,2856916345-210056.jpg,3.0,,,,A304UJAE051J89
1049,29,,1.0,9.0,2238575092-334269.jpg,2592380285-205564.jpg,1.0,,,,A304UJAE051J89
1050,30,,1.0,10.0,2883254439-140941.jpg,2989724308-73928.jpg,1.0,,,,A304UJAE051J89
1051,31,,1.0,11.0,2964218374-144968.jpg,2238411877-313125.jpg,1.0,,,,A304UJAE051J89
1052,32,,1.0,12.0,2901938432-367627.jpg,2579432708-56394.jpg,1.0,,,,A304UJAE051J89
1053,33,,1.0,13.0,2964213381-294061.jpg,2989721347-371917.jpg,3.0,,,,A304UJAE051J89
1054,34,,1.0,14.0,2238129579-80916.jpg,2460547477-349426.jpg,1.0,,,,A304UJAE051J89
1055,35,,1.0,15.0,2446760940-198145.jpg,2592380188-56743.jpg,2.0,,,,A304UJAE051J89
1056,36,,1.0,16.0,2449442529-124446.jpg,2868469458-64561.jpg,2.0,,,,A304UJAE051J89
1057,37,,1.0,17.0,2592380138-56727.jpg,2238537701-251772.jpg,3.0,,,,A304UJAE051J89
1058,38,,1.0,18.0,2579432576-279079.jpg,2458348144-125787.jpg,3.0,,,,A304UJAE051J89
1059,39,,1.0,19.0,2864906345-212360.jpg,2238087237-303447.jpg,2.0,,,,A304UJAE051J89
1060,40,,1.0,20.0,2901934573-69337.jpg,2986401333-73218.jpg,1.0,,,,A304UJAE051J89
1061,41,,1.0,21.0,2446760524-123999.jpg,2238552469-106359.jpg,2.0,,,,A304UJAE051J89
1062,42,,1.0,22.0,2625337302-355866.jpg,2425492472-343825.jpg,1.0,,,,A304UJAE051J89
1063,43,right,1.0,23.0,right.jpg,,,right,0.844,,A304UJAE051J89
1064,44,,1.0,24.0,2883272438-68133.jpg,2237949408-4018.jpg,1.0,,,,A304UJAE051J89
1065,45,,1.0,25.0,2446758985-197609.jpg,2984618344-146295.jpg,3.0,,,,A304UJAE051J89
1066,46,,1.0,26.0,2238471391-240918.jpg,2986399339-146857.jpg,3.0,,,,A304UJAE051J89
1067,47,,1.0,27.0,2238480434-93829.jpg,2592380255-205551.jpg,2.0,,,,A304UJAE051J89
1068,48,,1.0,28.0,2238561223-33794.jpg,2592380177-354626.jpg,2.0,,,,A304UJAE051J89
1069,49,,1.0,29.0,2238516618-25604.jpg,2862686459-136888.jpg,2.0,,,,A304UJAE051J89
1070,50,,1.0,30.0,2575964140-205050.jpg,2446760226-272005.jpg,3.0,,,,A304UJAE051J89
1071,51,,1.0,31.0,2901941426-292805.jpg,2868488422-363715.jpg,1.0,,,,A304UJAE051J89
1072,52,left,1.0,32.0,left.jpg,,,left,0.579,,A304UJAE051J89
1073,53,,1.0,33.0,2883255450-215311.jpg,2238481575-168208.jpg,1.0,,,,A304UJAE051J89
1074,54,,1.0,34.0,2898632385-217138.jpg,2575120738-55529.jpg,1.0,,,,A304UJAE051J89
1075,55,,1.0,35.0,2864909447-362146.jpg,2238555799-106905.jpg,2.0,,,,A304UJAE051J89
1076,56,,1.0,36.0,2964224310-219527.jpg,2238380178-14011.jpg,1.0,,,,A304UJAE051J89
1077,57,,1.0,37.0,2898633480-217190.jpg,2986450334-147216.jpg,2.0,,,,A304UJAE051J89
1078,58,,1.0,38.0,2512876023-52283.jpg,2238576267-334532.jpg,3.0,,,,A304UJAE051J89
1079,59,,1.0,39.0,2986400320-221190.jpg,2989727350-222011.jpg,1.0,,,,A304UJAE051J89
1080,60,,1.0,40.0,2238584869-113153.jpg,2981241419-145844.jpg,2.0,,,,A304UJAE051J89
1081,61,,1.0,41.0,2883255450-215309.jpg,2238429999-90216.jpg,1.0,,,,A304UJAE051J89
1082,62,,1.0,42.0,2994405328-74628.jpg,2825702353-60662.jpg,2.0,,,,A304UJAE051J89
1083,63,,1.0,43.0,2868475410-213219.jpg,2575964140-205051.jpg,2.0,,,,A304UJAE051J89
1084,64,right,1.0,44.0,right.jpg,,,right,0.5354,,A304UJAE051J89
1085,65,,1.0,45.0,2898626385-216899.jpg,2898618440-216545.jpg,3.0,,,,A304UJAE051J89
1086,66,,1.0,46.0,2238429999-90218.jpg,2986448334-147157.jpg,1.0,,,,A304UJAE051J89
1087,67,,1.0,47.0,2238584018-38513.jpg,2898633321-291943.jpg,2.0,,,,A304UJAE051J89
1088,68,,1.0,48.0,2898624426-291546.jpg,2986402377-371266.jpg,1.0,,,,A304UJAE051J89
1089,69,,1.0,49.0,2274829821-263682.jpg,2238570526-257884.jpg,1.0,,,,A304UJAE051J89
1090,70,,1.0,50.0,2901939379-143479.jpg,2864909422-362141.jpg,3.0,,,,A304UJAE051J89
1091,71,,1.0,51.0,2460547467-349421.jpg,2238470079-92499.jpg,2.0,,,,A304UJAE051J89
1092,72,,1.0,52.0,2964209380-218956.jpg,2868488456-288710.jpg,1.0,,,,A304UJAE051J89
1093,73,,1.0,53.0,2452380166-273109.jpg,2592379781-279345.jpg,2.0,,,,A304UJAE051J89
1094,74,left,1.0,54.0,left.jpg,,,left,0.5145,,A304UJAE051J89
1095,75,,1.0,55.0,2238499155-170911.jpg,2452380832-348593.jpg,2.0,,,,A304UJAE051J89
1096,76,,1.0,56.0,2238496457-319749.jpg,2460547467-349422.jpg,3.0,,,,A304UJAE051J89
1097,77,,1.0,57.0,2898617468-68274.jpg,2862684406-285700.jpg,3.0,,,,A304UJAE051J89
1098,78,,1.0,58.0,2862691449-137104.jpg,2238328478-11678.jpg,3.0,,,,A304UJAE051J89
1099,79,,1.0,59.0,2964216465-219242.jpg,2446760917-347439.jpg,3.0,,,,A304UJAE051J89
1100,80,,1.0,60.0,2238521193-26286.jpg,2446760306-272024.jpg,3.0,,,,A304UJAE051J89
1101,81,,1.0,61.0,2898632385-217137.jpg,2238360884-87525.jpg,1.0,,,,A304UJAE051J89
1102,82,,1.0,62.0,2238126735-154721.jpg,2575122854-130480.jpg,2.0,,,,A304UJAE051J89
1103,83,,1.0,63.0,2238375302-311538.jpg,2460547508-51571.jpg,3.0,,,,A304UJAE051J89
1104,84,,1.0,64.0,2446759803-49249.jpg,2238498786-244797.jpg,3.0,,,,A304UJAE051J89
1105,20,,1.0,0.0,2901938432-367627.jpg,2856919327-359675.jpg,2.0,,,,A30I2Y2HAAR3WM
1106,21,,1.0,1.0,2452380166-273109.jpg,2592379781-279345.jpg,2.0,,,,A30I2Y2HAAR3WM
1107,22,,1.0,2.0,2964209380-218956.jpg,2898617396-291219.jpg,3.0,,,,A30I2Y2HAAR3WM
1108,23,,1.0,3.0,2868485396-288511.jpg,2868470456-287597.jpg,1.0,,,,A30I2Y2HAAR3WM
1109,24,,1.0,4.0,2986408352-371293.jpg,2856916345-210056.jpg,3.0,,,,A30I2Y2HAAR3WM
1110,25,,1.0,5.0,2238584869-113153.jpg,2986455373-73646.jpg,3.0,,,,A30I2Y2HAAR3WM
1111,26,,1.0,6.0,2446760524-123999.jpg,2446760621-272102.jpg,1.0,,,,A30I2Y2HAAR3WM
1112,27,right,1.0,7.0,right.jpg,,,right,1.1492,,A30I2Y2HAAR3WM
1113,28,,1.0,8.0,2981231446-294731.jpg,2986450330-221526.jpg,1.0,,,,A30I2Y2HAAR3WM
1114,29,,1.0,9.0,2898632385-217137.jpg,2864904453-63932.jpg,3.0,,,,A30I2Y2HAAR3WM
1115,30,,1.0,10.0,2238550049-105691.jpg,2449443271-272729.jpg,2.0,,,,A30I2Y2HAAR3WM
1116,31,,1.0,11.0,2238584018-38513.jpg,2449443163-50093.jpg,1.0,,,,A30I2Y2HAAR3WM
1117,32,,1.0,12.0,2446760940-198145.jpg,2446760692-347392.jpg,3.0,,,,A30I2Y2HAAR3WM
1118,33,,1.0,13.0,2964213381-294061.jpg,2238433340-164524.jpg,1.0,,,,A30I2Y2HAAR3WM
1119,34,,1.0,14.0,2238480434-93829.jpg,2592380255-205551.jpg,2.0,,,,A30I2Y2HAAR3WM
1120,35,,1.0,15.0,2446759803-49249.jpg,2238468265-166556.jpg,2.0,,,,A30I2Y2HAAR3WM
1121,36,left,1.0,16.0,left.jpg,,,left,1.1924,,A30I2Y2HAAR3WM
1122,37,,1.0,17.0,2579432576-279079.jpg,2901934574-143126.jpg,1.0,,,,A30I2Y2HAAR3WM
1123,38,,1.0,18.0,2898635427-367120.jpg,2237941457-301342.jpg,2.0,,,,A30I2Y2HAAR3WM
1124,39,,1.0,19.0,2868475410-213219.jpg,2238216693-10721.jpg,1.0,,,,A30I2Y2HAAR3WM
1125,40,,1.0,20.0,2898632385-217138.jpg,2273188118-40829.jpg,2.0,,,,A30I2Y2HAAR3WM
1126,41,,1.0,21.0,2883254439-140940.jpg,2812983311-281946.jpg,3.0,,,,A30I2Y2HAAR3WM
1127,42,,1.0,22.0,2898617468-68274.jpg,2512875899-126682.jpg,1.0,,,,A30I2Y2HAAR3WM
1128,43,,1.0,23.0,2898633480-217190.jpg,2446760147-347245.jpg,1.0,,,,A30I2Y2HAAR3WM
1129,44,,1.0,24.0,2901939379-143479.jpg,2449443292-348022.jpg,2.0,,,,A30I2Y2HAAR3WM
1130,45,,1.0,25.0,2238575092-334269.jpg,2964218374-144967.jpg,3.0,,,,A30I2Y2HAAR3WM
1131,46,,1.0,26.0,2238375302-311538.jpg,2460547508-51571.jpg,3.0,,,,A30I2Y2HAAR3WM
1132,47,left,1.0,27.0,left.jpg,,,left,1.1416,,A30I2Y2HAAR3WM
1133,48,,1.0,28.0,2986400320-221190.jpg,2989727350-222011.jpg,1.0,,,,A30I2Y2HAAR3WM
1134,49,,1.0,29.0,2964213381-294060.jpg,2238520921-248323.jpg,2.0,,,,A30I2Y2HAAR3WM
1135,50,,1.0,30.0,2883254439-140941.jpg,2237965109-79314.jpg,2.0,,,,A30I2Y2HAAR3WM
1136,51,,1.0,31.0,2964218374-144968.jpg,2238525773-27014.jpg,3.0,,,,A30I2Y2HAAR3WM
1137,52,,1.0,32.0,2238561223-33794.jpg,2883271323-68049.jpg,3.0,,,,A30I2Y2HAAR3WM
1138,53,,1.0,33.0,2238129579-80916.jpg,2460547477-349426.jpg,1.0,,,,A30I2Y2HAAR3WM
1139,54,,1.0,34.0,2901941426-292805.jpg,2238510189-98616.jpg,2.0,,,,A30I2Y2HAAR3WM
1140,55,,1.0,35.0,2864906345-212360.jpg,2238087237-303447.jpg,2.0,,,,A30I2Y2HAAR3WM
1141,56,,1.0,36.0,2446758985-197609.jpg,2898633421-291973.jpg,1.0,,,,A30I2Y2HAAR3WM
1142,57,,1.0,37.0,2238499155-170911.jpg,2446760621-272103.jpg,1.0,,,,A30I2Y2HAAR3WM
1143,58,,1.0,38.0,2883272438-68133.jpg,2592380136-279476.jpg,3.0,,,,A30I2Y2HAAR3WM
1144,59,,1.0,39.0,2460547467-349421.jpg,2238554179-106663.jpg,3.0,,,,A30I2Y2HAAR3WM
1145,60,,1.0,40.0,2274829821-263682.jpg,2238570526-257884.jpg,1.0,,,,A30I2Y2HAAR3WM
1146,61,left,1.0,41.0,left.jpg,,,left,1.7269,,A30I2Y2HAAR3WM
1147,62,,1.0,42.0,2964216465-219242.jpg,2592380049-131079.jpg,1.0,,,,A30I2Y2HAAR3WM
1148,63,,1.0,43.0,2625337302-355866.jpg,2598726160-205998.jpg,3.0,,,,A30I2Y2HAAR3WM
1149,64,,1.0,44.0,2592380138-56727.jpg,2238537701-251772.jpg,3.0,,,,A30I2Y2HAAR3WM
1150,65,,1.0,45.0,2238516618-25604.jpg,2238470979-92618.jpg,3.0,,,,A30I2Y2HAAR3WM
1151,66,,1.0,46.0,2898626385-216899.jpg,2449442365-198476.jpg,2.0,,,,A30I2Y2HAAR3WM
1152,67,,1.0,47.0,2883255450-215309.jpg,2238429999-90216.jpg,1.0,,,,A30I2Y2HAAR3WM
1153,68,,1.0,48.0,2512876023-52283.jpg,2238576267-334532.jpg,3.0,,,,A30I2Y2HAAR3WM
1154,69,left,1.0,49.0,left.jpg,,,left,1.0229,,A30I2Y2HAAR3WM
1155,70,,1.0,50.0,2862691449-137104.jpg,2986455341-296758.jpg,2.0,,,,A30I2Y2HAAR3WM
1156,71,,1.0,51.0,2898624426-291546.jpg,2864902304-137862.jpg,3.0,,,,A30I2Y2HAAR3WM
1157,72,,1.0,52.0,2994405328-74628.jpg,2825702353-60662.jpg,2.0,,,,A30I2Y2HAAR3WM
1158,73,,1.0,53.0,2449442529-124446.jpg,2238481610-168214.jpg,1.0,,,,A30I2Y2HAAR3WM
1159,74,,1.0,54.0,2575964140-205050.jpg,2446760226-272005.jpg,3.0,,,,A30I2Y2HAAR3WM
1160,75,,1.0,55.0,2864909447-362146.jpg,2874316384-140749.jpg,1.0,,,,A30I2Y2HAAR3WM
1161,76,,1.0,56.0,2238521193-26286.jpg,2825712309-134957.jpg,1.0,,,,A30I2Y2HAAR3WM
1162,77,,1.0,57.0,2238496457-319749.jpg,2592380234-131135.jpg,2.0,,,,A30I2Y2HAAR3WM
1163,78,,1.0,58.0,2901934573-69337.jpg,2901936407-367476.jpg,3.0,,,,A30I2Y2HAAR3WM
1164,79,,1.0,59.0,2964224310-219527.jpg,2964213441-294073.jpg,2.0,,,,A30I2Y2HAAR3WM
1165,80,,1.0,60.0,2238126735-154721.jpg,2856919327-359676.jpg,1.0,,,,A30I2Y2HAAR3WM
1166,81,,1.0,61.0,2238471391-240918.jpg,2901943388-69995.jpg,2.0,,,,A30I2Y2HAAR3WM
1167,82,,1.0,62.0,2883255450-215311.jpg,2868485399-139476.jpg,2.0,,,,A30I2Y2HAAR3WM
1168,83,,1.0,63.0,2238429999-90218.jpg,2901951459-144433.jpg,2.0,,,,A30I2Y2HAAR3WM
1169,84,,1.0,64.0,2331570830-189984.jpg,2458348012-349114.jpg,3.0,,,,A30I2Y2HAAR3WM
1170,20,,1.0,0.0,2864909447-362146.jpg,2238555799-106905.jpg,2.0,,,,A30O3RGJZZSMOE
1171,21,,1.0,1.0,2512876023-52283.jpg,2864908323-64106.jpg,1.0,,,,A30O3RGJZZSMOE
1172,22,,1.0,2.0,2898624426-291546.jpg,2986402377-371266.jpg,1.0,,,,A30O3RGJZZSMOE
1173,23,,1.0,3.0,2446759803-49249.jpg,2238468265-166556.jpg,2.0,,,,A30O3RGJZZSMOE
1174,24,,1.0,4.0,2238471391-240918.jpg,2868470400-212889.jpg,1.0,,,,A30O3RGJZZSMOE
1175,25,,1.0,5.0,2238550049-105691.jpg,2964219468-71238.jpg,3.0,,,,A30O3RGJZZSMOE
1176,26,,1.0,6.0,2460547467-349421.jpg,2238554179-106663.jpg,3.0,,,,A30O3RGJZZSMOE
1177,27,,1.0,7.0,2446758985-197609.jpg,2635396318-58409.jpg,2.0,,,,A30O3RGJZZSMOE
1178,28,,1.0,8.0,2883255450-215311.jpg,2575964014-130589.jpg,3.0,,,,A30O3RGJZZSMOE
1179,29,,1.0,9.0,2238584018-38513.jpg,2449443163-50093.jpg,1.0,,,,A30O3RGJZZSMOE
1180,30,right,1.0,10.0,right.jpg,,,right,1.1931,,A30O3RGJZZSMOE
1181,31,,1.0,11.0,2883272438-68133.jpg,2237949408-4018.jpg,1.0,,,,A30O3RGJZZSMOE
1182,32,,1.0,12.0,2964213381-294060.jpg,2989724308-73930.jpg,3.0,,,,A30O3RGJZZSMOE
1183,33,,1.0,13.0,2238496457-319749.jpg,2592380234-131135.jpg,2.0,,,,A30O3RGJZZSMOE
1184,34,,1.0,14.0,2981231446-294731.jpg,2238568685-183597.jpg,2.0,,,,A30O3RGJZZSMOE
1185,35,,1.0,15.0,2964213381-294061.jpg,2989721347-371917.jpg,3.0,,,,A30O3RGJZZSMOE
1186,36,,1.0,16.0,2238584869-113153.jpg,2864901420-212147.jpg,1.0,,,,A30O3RGJZZSMOE
1187,37,,1.0,17.0,2238429999-90218.jpg,2986448334-147157.jpg,1.0,,,,A30O3RGJZZSMOE
1188,38,,1.0,18.0,2964218374-144968.jpg,2238521157-323782.jpg,2.0,,,,A30O3RGJZZSMOE
1189,39,,1.0,19.0,2238126735-154721.jpg,2901951430-218724.jpg,3.0,,,,A30O3RGJZZSMOE
1190,40,right,1.0,20.0,right.jpg,,,right,1.6107,,A30O3RGJZZSMOE
1191,41,,1.0,21.0,2964224310-219527.jpg,2964213441-294073.jpg,2.0,,,,A30O3RGJZZSMOE
1192,42,,1.0,22.0,2964216465-219242.jpg,2592380049-131079.jpg,1.0,,,,A30O3RGJZZSMOE
1193,43,,1.0,23.0,2864906345-212360.jpg,2994403305-222559.jpg,3.0,,,,A30O3RGJZZSMOE
1194,44,,1.0,24.0,2575964140-205050.jpg,2238547522-328488.jpg,2.0,,,,A30O3RGJZZSMOE
1195,45,,1.0,25.0,2238575092-334269.jpg,2592380285-205564.jpg,1.0,,,,A30O3RGJZZSMOE
1196,46,,1.0,26.0,2238499155-170911.jpg,2452380832-348593.jpg,2.0,,,,A30O3RGJZZSMOE
1197,47,right,1.0,27.0,right.jpg,,,right,1.4275,,A30O3RGJZZSMOE
1198,48,,1.0,28.0,2901941426-292805.jpg,2901945303-70125.jpg,3.0,,,,A30O3RGJZZSMOE
1199,49,,1.0,29.0,2901934573-69337.jpg,2986401333-73218.jpg,1.0,,,,A30O3RGJZZSMOE
1200,50,,1.0,30.0,2449442529-124446.jpg,2868469458-64561.jpg,2.0,,,,A30O3RGJZZSMOE
1201,51,,1.0,31.0,2898632385-217138.jpg,2273188118-40829.jpg,2.0,,,,A30O3RGJZZSMOE
1202,52,,1.0,32.0,2274829821-263682.jpg,2238570526-257884.jpg,1.0,,,,A30O3RGJZZSMOE
1203,53,,1.0,33.0,2452380166-273109.jpg,2238380901-236499.jpg,3.0,,,,A30O3RGJZZSMOE
1204,54,,1.0,34.0,2883254439-140941.jpg,2237965109-79314.jpg,2.0,,,,A30O3RGJZZSMOE
1205,55,,1.0,35.0,2592380138-56727.jpg,2238537701-251772.jpg,3.0,,,,A30O3RGJZZSMOE
1206,56,,1.0,36.0,2238129579-80916.jpg,2238161924-82646.jpg,3.0,,,,A30O3RGJZZSMOE
1207,57,,1.0,37.0,2898632385-217137.jpg,2238360884-87525.jpg,1.0,,,,A30O3RGJZZSMOE
1208,58,,1.0,38.0,2579432576-279079.jpg,2458348144-125787.jpg,3.0,,,,A30O3RGJZZSMOE
1209,59,left,1.0,39.0,left.jpg,,,left,1.5647,,A30O3RGJZZSMOE
1210,60,,1.0,40.0,2868475410-213219.jpg,2238216693-10721.jpg,1.0,,,,A30O3RGJZZSMOE
1211,61,,1.0,41.0,2898635427-367120.jpg,2238436632-314069.jpg,1.0,,,,A30O3RGJZZSMOE
1212,62,,1.0,42.0,2446760940-198145.jpg,2592380188-56743.jpg,2.0,,,,A30O3RGJZZSMOE
1213,63,,1.0,43.0,2986408352-371293.jpg,2446759580-197801.jpg,2.0,,,,A30O3RGJZZSMOE
1214,64,,1.0,44.0,2898617468-68274.jpg,2512875899-126682.jpg,1.0,,,,A30O3RGJZZSMOE
1215,65,,1.0,45.0,2868485396-288511.jpg,2868470456-287597.jpg,1.0,,,,A30O3RGJZZSMOE
1216,66,,1.0,46.0,2994405328-74628.jpg,2883273443-68192.jpg,3.0,,,,A30O3RGJZZSMOE
1217,67,,1.0,47.0,2446760524-123999.jpg,2238552469-106359.jpg,2.0,,,,A30O3RGJZZSMOE
1218,68,,1.0,48.0,2964209380-218956.jpg,2868488456-288710.jpg,1.0,,,,A30O3RGJZZSMOE
1219,69,,1.0,49.0,2238561223-33794.jpg,2883271323-68049.jpg,3.0,,,,A30O3RGJZZSMOE
1220,70,,1.0,50.0,2238516618-25604.jpg,2238470979-92618.jpg,3.0,,,,A30O3RGJZZSMOE
1221,71,,1.0,51.0,2238521193-26286.jpg,2446760306-272024.jpg,3.0,,,,A30O3RGJZZSMOE
1222,72,left,1.0,52.0,left.jpg,,,left,1.0689,,A30O3RGJZZSMOE
1223,73,,1.0,53.0,2625337302-355866.jpg,2425492472-343825.jpg,1.0,,,,A30O3RGJZZSMOE
1224,74,,1.0,54.0,2238375302-311538.jpg,2592380049-131077.jpg,2.0,,,,A30O3RGJZZSMOE
1225,75,,1.0,55.0,2986400320-221190.jpg,2238470979-92615.jpg,2.0,,,,A30O3RGJZZSMOE
1226,76,,1.0,56.0,2883255450-215309.jpg,2868476439-138927.jpg,2.0,,,,A30O3RGJZZSMOE
1227,77,,1.0,57.0,2901938432-367627.jpg,2424122568-45517.jpg,3.0,,,,A30O3RGJZZSMOE
1228,78,,1.0,58.0,2862691449-137104.jpg,2986455341-296758.jpg,2.0,,,,A30O3RGJZZSMOE
1229,79,,1.0,59.0,2331570830-189984.jpg,2458348012-349114.jpg,3.0,,,,A30O3RGJZZSMOE
1230,80,,1.0,60.0,2898626385-216899.jpg,2898618440-216545.jpg,3.0,,,,A30O3RGJZZSMOE
1231,81,,1.0,61.0,2898633480-217190.jpg,2237858043-1434.jpg,3.0,,,,A30O3RGJZZSMOE
1232,82,,1.0,62.0,2238480434-93829.jpg,2804906319-133082.jpg,1.0,,,,A30O3RGJZZSMOE
1233,83,,1.0,63.0,2901939379-143479.jpg,2986450334-147215.jpg,1.0,,,,A30O3RGJZZSMOE
1234,84,,1.0,64.0,2883254439-140940.jpg,2575121890-204630.jpg,2.0,,,,A30O3RGJZZSMOE
