,index,demo_encoding_loop.thisTrialN,DemoImage,DemoCorrect,demo_encoding_response.rt,demo_encoding_response.keys,index,demo_test_response.keys,demo_test_response.corr,demo_test_response.rt,demo_test_loop.thisTrialN,DemoImage1,DemoImage2,DemoCorrectTest,subject
0,4,0.0,flower1.jpg,,,,12.0,right,0.0,15.5442,0.0,flower1.jpg,flower1_pair.jpg,left,A10A7EZUXBD0II
1,5,1.0,flower2.jpg,,,,13.0,left,0.0,1.262,1.0,flower2_pair.jpg,flower2.jpg,right,A10A7EZUXBD0II
2,6,2.0,left.jpg,left,1.344,left,14.0,left,1.0,2.7889,2.0,flower3.jpg,flower3_pair.jpg,left,A10A7EZUXBD0II
3,7,3.0,flower3.jpg,,,,15.0,left,1.0,1.2584,3.0,flower4.jpg,flower4_pair.jpg,left,A10A7EZUXBD0II
4,8,4.0,flower4.jpg,,,,16.0,left,0.0,0.7188,4.0,flower5_pair.jpg,flower5.jpg,right,A10A7EZUXBD0II
5,9,5.0,flower5.jpg,,,,17.0,right,0.0,1.1304,5.0,flower6.jpg,flower6_pair.jpg,left,A10A7EZUXBD0II
6,10,6.0,flower6.jpg,,,,,,,,,,,,A10A7EZUXBD0II
7,4,0.0,flower1.jpg,,,,12.0,right,0.0,1.5268,0.0,flower1.jpg,flower1_pair.jpg,left,A11MOA9HW11EP1
8,5,1.0,flower2.jpg,,,,13.0,right,1.0,1.4208,1.0,flower2_pair.jpg,flower2.jpg,right,A11MOA9HW11EP1
9,6,2.0,left.jpg,left,1.0323,left,14.0,left,1.0,1.3708,2.0,flower3.jpg,flower3_pair.jpg,left,A11MOA9HW11EP1
10,7,3.0,flower3.jpg,,,,15.0,left,1.0,1.6579,3.0,flower4.jpg,flower4_pair.jpg,left,A11MOA9HW11EP1
11,8,4.0,flower4.jpg,,,,16.0,right,1.0,2.8141,4.0,flower5_pair.jpg,flower5.jpg,right,A11MOA9HW11EP1
12,9,5.0,flower5.jpg,,,,17.0,left,1.0,1.4391,5.0,flower6.jpg,flower6_pair.jpg,left,A11MOA9HW11EP1
13,10,6.0,flower6.jpg,,,,,,,,,,,,A11MOA9HW11EP1
14,4,0.0,flower1.jpg,,,,12.0,right,0.0,3.69,0.0,flower1.jpg,flower1_pair.jpg,left,A16QH3MFZ9CC4M
15,5,1.0,flower2.jpg,,,,13.0,right,1.0,2.5529,1.0,flower2_pair.jpg,flower2.jpg,right,A16QH3MFZ9CC4M
16,6,2.0,left.jpg,left,0.992200001,left,14.0,right,0.0,2.148700001,2.0,flower3.jpg,flower3_pair.jpg,left,A16QH3MFZ9CC4M
17,7,3.0,flower3.jpg,,,,15.0,left,1.0,2.855700001,3.0,flower4.jpg,flower4_pair.jpg,left,A16QH3MFZ9CC4M
18,8,4.0,flower4.jpg,,,,16.0,right,1.0,1.933199999,4.0,flower5_pair.jpg,flower5.jpg,right,A16QH3MFZ9CC4M
19,9,5.0,flower5.jpg,,,,17.0,left,1.0,2.842,5.0,flower6.jpg,flower6_pair.jpg,left,A16QH3MFZ9CC4M
20,10,6.0,flower6.jpg,,,,,,,,,,,,A16QH3MFZ9CC4M
21,4,0.0,flower1.jpg,,,,12.0,left,1.0,2.1942,0.0,flower1.jpg,flower1_pair.jpg,left,A16TOOYC3QOJVE
22,5,1.0,flower2.jpg,,,,13.0,left,0.0,2.3176,1.0,flower2_pair.jpg,flower2.jpg,right,A16TOOYC3QOJVE
23,6,2.0,left.jpg,left,1.0336,left,14.0,right,0.0,0.7212,2.0,flower3.jpg,flower3_pair.jpg,left,A16TOOYC3QOJVE
24,7,3.0,flower3.jpg,,,,15.0,left,1.0,1.9306,3.0,flower4.jpg,flower4_pair.jpg,left,A16TOOYC3QOJVE
25,8,4.0,flower4.jpg,,,,16.0,right,1.0,2.0832,4.0,flower5_pair.jpg,flower5.jpg,right,A16TOOYC3QOJVE
26,9,5.0,flower5.jpg,,,,17.0,right,0.0,1.9991,5.0,flower6.jpg,flower6_pair.jpg,left,A16TOOYC3QOJVE
27,10,6.0,flower6.jpg,,,,,,,,,,,,A16TOOYC3QOJVE
28,4,0.0,flower1.jpg,,,,12.0,left,1.0,3.7351,0.0,flower1.jpg,flower1_pair.jpg,left,A1969Q0R4Y0E3J
29,5,1.0,flower2.jpg,,,,13.0,right,1.0,2.4121,1.0,flower2_pair.jpg,flower2.jpg,right,A1969Q0R4Y0E3J
30,6,2.0,left.jpg,left,0.7145,left,14.0,left,1.0,1.1145,2.0,flower3.jpg,flower3_pair.jpg,left,A1969Q0R4Y0E3J
31,7,3.0,flower3.jpg,,,,15.0,left,1.0,1.4805,3.0,flower4.jpg,flower4_pair.jpg,left,A1969Q0R4Y0E3J
32,8,4.0,flower4.jpg,,,,16.0,right,1.0,1.2281,4.0,flower5_pair.jpg,flower5.jpg,right,A1969Q0R4Y0E3J
33,9,5.0,flower5.jpg,,,,17.0,left,1.0,1.0316,5.0,flower6.jpg,flower6_pair.jpg,left,A1969Q0R4Y0E3J
34,10,6.0,flower6.jpg,,,,,,,,,,,,A1969Q0R4Y0E3J
35,4,0.0,flower1.jpg,,,,12.0,left,1.0,2.320200001,0.0,flower1.jpg,flower1_pair.jpg,left,A1DXDFRHO1A157
36,5,1.0,flower2.jpg,,,,13.0,left,0.0,1.617800001,1.0,flower2_pair.jpg,flower2.jpg,right,A1DXDFRHO1A157
37,6,2.0,left.jpg,left,0.870699999,left,14.0,left,1.0,1.119700001,2.0,flower3.jpg,flower3_pair.jpg,left,A1DXDFRHO1A157
38,7,3.0,flower3.jpg,,,,15.0,right,0.0,1.1844,3.0,flower4.jpg,flower4_pair.jpg,left,A1DXDFRHO1A157
39,8,4.0,flower4.jpg,,,,16.0,right,1.0,1.2225,4.0,flower5_pair.jpg,flower5.jpg,right,A1DXDFRHO1A157
40,9,5.0,flower5.jpg,,,,17.0,left,1.0,1.358300001,5.0,flower6.jpg,flower6_pair.jpg,left,A1DXDFRHO1A157
41,10,6.0,flower6.jpg,,,,,,,,,,,,A1DXDFRHO1A157
42,4,0.0,flower1.jpg,,,,12.0,left,1.0,1.613,0.0,flower1.jpg,flower1_pair.jpg,left,A1FCTM2O25QKL2
43,5,1.0,flower2.jpg,,,,13.0,right,1.0,2.011,1.0,flower2_pair.jpg,flower2.jpg,right,A1FCTM2O25QKL2
44,6,2.0,left.jpg,left,1.013,left,14.0,left,1.0,1.62,2.0,flower3.jpg,flower3_pair.jpg,left,A1FCTM2O25QKL2
45,7,3.0,flower3.jpg,,,,15.0,left,1.0,2.195,3.0,flower4.jpg,flower4_pair.jpg,left,A1FCTM2O25QKL2
46,8,4.0,flower4.jpg,,,,16.0,right,1.0,1.946,4.0,flower5_pair.jpg,flower5.jpg,right,A1FCTM2O25QKL2
47,9,5.0,flower5.jpg,,,,17.0,left,1.0,1.898,5.0,flower6.jpg,flower6_pair.jpg,left,A1FCTM2O25QKL2
48,10,6.0,flower6.jpg,,,,,,,,,,,,A1FCTM2O25QKL2
49,4,0.0,flower1.jpg,,,,12.0,left,1.0,1.301,0.0,flower1.jpg,flower1_pair.jpg,left,A1JWKT0IS06YKL
50,5,1.0,flower2.jpg,,,,13.0,right,1.0,2.1916,1.0,flower2_pair.jpg,flower2.jpg,right,A1JWKT0IS06YKL
51,6,2.0,left.jpg,left,0.7939,left,14.0,left,1.0,2.3238,2.0,flower3.jpg,flower3_pair.jpg,left,A1JWKT0IS06YKL
52,7,3.0,flower3.jpg,,,,15.0,left,1.0,1.8228,3.0,flower4.jpg,flower4_pair.jpg,left,A1JWKT0IS06YKL
53,8,4.0,flower4.jpg,,,,16.0,right,1.0,2.0481,4.0,flower5_pair.jpg,flower5.jpg,right,A1JWKT0IS06YKL
54,9,5.0,flower5.jpg,,,,17.0,left,1.0,4.9056,5.0,flower6.jpg,flower6_pair.jpg,left,A1JWKT0IS06YKL
55,10,6.0,flower6.jpg,,,,,,,,,,,,A1JWKT0IS06YKL
56,4,0.0,flower1.jpg,,,,12.0,right,0.0,1.5319,0.0,flower1.jpg,flower1_pair.jpg,left,A1RSQOCZVV1FF2
57,5,1.0,flower2.jpg,,,,13.0,right,1.0,1.2945,1.0,flower2_pair.jpg,flower2.jpg,right,A1RSQOCZVV1FF2
58,6,2.0,left.jpg,left,0.987,left,14.0,left,1.0,1.5182,2.0,flower3.jpg,flower3_pair.jpg,left,A1RSQOCZVV1FF2
59,7,3.0,flower3.jpg,,,,15.0,right,0.0,1.153400001,3.0,flower4.jpg,flower4_pair.jpg,left,A1RSQOCZVV1FF2
60,8,4.0,flower4.jpg,,,,16.0,left,0.0,1.4197,4.0,flower5_pair.jpg,flower5.jpg,right,A1RSQOCZVV1FF2
61,9,5.0,flower5.jpg,,,,17.0,right,0.0,1.231099999,5.0,flower6.jpg,flower6_pair.jpg,left,A1RSQOCZVV1FF2
62,10,6.0,flower6.jpg,,,,,,,,,,,,A1RSQOCZVV1FF2
63,4,0.0,flower1.jpg,,,,12.0,left,1.0,2.846,0.0,flower1.jpg,flower1_pair.jpg,left,A1Y07DW8W2UXSD
64,5,1.0,flower2.jpg,,,,13.0,right,1.0,3.566,1.0,flower2_pair.jpg,flower2.jpg,right,A1Y07DW8W2UXSD
65,6,2.0,left.jpg,left,1.118,left,14.0,left,1.0,2.293,2.0,flower3.jpg,flower3_pair.jpg,left,A1Y07DW8W2UXSD
66,7,3.0,flower3.jpg,,,,15.0,left,1.0,3.228,3.0,flower4.jpg,flower4_pair.jpg,left,A1Y07DW8W2UXSD
67,8,4.0,flower4.jpg,,,,16.0,right,1.0,3.145,4.0,flower5_pair.jpg,flower5.jpg,right,A1Y07DW8W2UXSD
68,9,5.0,flower5.jpg,,,,17.0,left,1.0,2.31,5.0,flower6.jpg,flower6_pair.jpg,left,A1Y07DW8W2UXSD
69,10,6.0,flower6.jpg,,,,,,,,,,,,A1Y07DW8W2UXSD
70,4,0.0,flower1.jpg,,,,12.0,left,1.0,2.805,0.0,flower1.jpg,flower1_pair.jpg,left,A25N2OW7USWS2H
71,5,1.0,flower2.jpg,,,,13.0,left,0.0,4.0761,1.0,flower2_pair.jpg,flower2.jpg,right,A25N2OW7USWS2H
72,6,2.0,left.jpg,left,1.4876,left,14.0,left,1.0,4.9547,2.0,flower3.jpg,flower3_pair.jpg,left,A25N2OW7USWS2H
73,7,3.0,flower3.jpg,,,,15.0,left,1.0,6.0098,3.0,flower4.jpg,flower4_pair.jpg,left,A25N2OW7USWS2H
74,8,4.0,flower4.jpg,,,,16.0,right,1.0,5.7343,4.0,flower5_pair.jpg,flower5.jpg,right,A25N2OW7USWS2H
75,9,5.0,flower5.jpg,,,,17.0,left,1.0,2.5431,5.0,flower6.jpg,flower6_pair.jpg,left,A25N2OW7USWS2H
76,10,6.0,flower6.jpg,,,,,,,,,,,,A25N2OW7USWS2H
77,4,0.0,flower1.jpg,,,,12.0,left,1.0,2.971,0.0,flower1.jpg,flower1_pair.jpg,left,A290Z6QAL17PQE
78,5,1.0,flower2.jpg,,,,13.0,right,1.0,3.677,1.0,flower2_pair.jpg,flower2.jpg,right,A290Z6QAL17PQE
79,6,2.0,left.jpg,left,1.894,left,14.0,left,1.0,2.614,2.0,flower3.jpg,flower3_pair.jpg,left,A290Z6QAL17PQE
80,7,3.0,flower3.jpg,,,,15.0,left,1.0,2.969,3.0,flower4.jpg,flower4_pair.jpg,left,A290Z6QAL17PQE
81,8,4.0,flower4.jpg,,,,16.0,right,1.0,3.364,4.0,flower5_pair.jpg,flower5.jpg,right,A290Z6QAL17PQE
82,9,5.0,flower5.jpg,,,,17.0,right,0.0,3.48,5.0,flower6.jpg,flower6_pair.jpg,left,A290Z6QAL17PQE
83,10,6.0,flower6.jpg,,,,,,,,,,,,A290Z6QAL17PQE
84,4,0.0,flower1.jpg,,,,12.0,left,1.0,1.8528,0.0,flower1.jpg,flower1_pair.jpg,left,A2GUSVGAKNEGQF
85,5,1.0,flower2.jpg,,,,13.0,right,1.0,1.5724,1.0,flower2_pair.jpg,flower2.jpg,right,A2GUSVGAKNEGQF
86,6,2.0,left.jpg,left,2.7995,left,14.0,left,1.0,0.9693,2.0,flower3.jpg,flower3_pair.jpg,left,A2GUSVGAKNEGQF
87,7,3.0,flower3.jpg,,,,15.0,left,1.0,1.7185,3.0,flower4.jpg,flower4_pair.jpg,left,A2GUSVGAKNEGQF
88,8,4.0,flower4.jpg,,,,16.0,right,1.0,1.3933,4.0,flower5_pair.jpg,flower5.jpg,right,A2GUSVGAKNEGQF
89,9,5.0,flower5.jpg,,,,17.0,left,1.0,1.252,5.0,flower6.jpg,flower6_pair.jpg,left,A2GUSVGAKNEGQF
90,10,6.0,flower6.jpg,,,,,,,,,,,,A2GUSVGAKNEGQF
91,4,0.0,flower1.jpg,,,,12.0,left,1.0,11.4675,0.0,flower1.jpg,flower1_pair.jpg,left,A2L18Q7871EONK
92,5,1.0,flower2.jpg,,,,13.0,right,1.0,9.8331,1.0,flower2_pair.jpg,flower2.jpg,right,A2L18Q7871EONK
93,6,2.0,left.jpg,left,0.7736,left,14.0,left,1.0,2.0111,2.0,flower3.jpg,flower3_pair.jpg,left,A2L18Q7871EONK
94,7,3.0,flower3.jpg,,,,15.0,left,1.0,3.6467,3.0,flower4.jpg,flower4_pair.jpg,left,A2L18Q7871EONK
95,8,4.0,flower4.jpg,,,,16.0,right,1.0,4.7153,4.0,flower5_pair.jpg,flower5.jpg,right,A2L18Q7871EONK
96,9,5.0,flower5.jpg,,,,17.0,left,1.0,1.7578,5.0,flower6.jpg,flower6_pair.jpg,left,A2L18Q7871EONK
97,10,6.0,flower6.jpg,,,,,,,,,,,,A2L18Q7871EONK
98,4,0.0,flower1.jpg,,,,12.0,left,1.0,1.335,0.0,flower1.jpg,flower1_pair.jpg,left,A2MJQG58XN41OW
99,5,1.0,flower2.jpg,,,,13.0,right,1.0,1.2893,1.0,flower2_pair.jpg,flower2.jpg,right,A2MJQG58XN41OW
100,6,2.0,left.jpg,left,1.0824,left,14.0,left,1.0,1.3244,2.0,flower3.jpg,flower3_pair.jpg,left,A2MJQG58XN41OW
101,7,3.0,flower3.jpg,,,,15.0,right,0.0,0.9972,3.0,flower4.jpg,flower4_pair.jpg,left,A2MJQG58XN41OW
102,8,4.0,flower4.jpg,,,,16.0,right,1.0,1.2253,4.0,flower5_pair.jpg,flower5.jpg,right,A2MJQG58XN41OW
103,9,5.0,flower5.jpg,,,,17.0,left,1.0,1.2724,5.0,flower6.jpg,flower6_pair.jpg,left,A2MJQG58XN41OW
104,10,6.0,flower6.jpg,,,,,,,,,,,,A2MJQG58XN41OW
105,4,0.0,flower1.jpg,,,,12.0,right,0.0,2.0042,0.0,flower1.jpg,flower1_pair.jpg,left,A2ZHWGGGH028UZ
106,5,1.0,flower2.jpg,,,,13.0,right,1.0,2.4297,1.0,flower2_pair.jpg,flower2.jpg,right,A2ZHWGGGH028UZ
107,6,2.0,left.jpg,left,0.9919,left,14.0,left,1.0,1.5402,2.0,flower3.jpg,flower3_pair.jpg,left,A2ZHWGGGH028UZ
108,7,3.0,flower3.jpg,,,,15.0,right,0.0,2.2962,3.0,flower4.jpg,flower4_pair.jpg,left,A2ZHWGGGH028UZ
109,8,4.0,flower4.jpg,,,,16.0,right,1.0,2.1278,4.0,flower5_pair.jpg,flower5.jpg,right,A2ZHWGGGH028UZ
110,9,5.0,flower5.jpg,,,,17.0,left,1.0,1.5232,5.0,flower6.jpg,flower6_pair.jpg,left,A2ZHWGGGH028UZ
111,10,6.0,flower6.jpg,,,,,,,,,,,,A2ZHWGGGH028UZ
112,4,0.0,flower1.jpg,,,,12.0,right,0.0,1.399,0.0,flower1.jpg,flower1_pair.jpg,left,A304UJAE051J89
113,5,1.0,flower2.jpg,,,,13.0,right,1.0,1.226,1.0,flower2_pair.jpg,flower2.jpg,right,A304UJAE051J89
114,6,2.0,left.jpg,left,0.948,left,14.0,left,1.0,1.3877,2.0,flower3.jpg,flower3_pair.jpg,left,A304UJAE051J89
115,7,3.0,flower3.jpg,,,,15.0,right,0.0,0.9626,3.0,flower4.jpg,flower4_pair.jpg,left,A304UJAE051J89
116,8,4.0,flower4.jpg,,,,16.0,right,1.0,1.7136,4.0,flower5_pair.jpg,flower5.jpg,right,A304UJAE051J89
117,9,5.0,flower5.jpg,,,,17.0,left,1.0,0.965,5.0,flower6.jpg,flower6_pair.jpg,left,A304UJAE051J89
118,10,6.0,flower6.jpg,,,,,,,,,,,,A304UJAE051J89
119,4,0.0,flower1.jpg,,,,12.0,left,1.0,2.4496,0.0,flower1.jpg,flower1_pair.jpg,left,A30I2Y2HAAR3WM
120,5,1.0,flower2.jpg,,,,13.0,right,1.0,2.4475,1.0,flower2_pair.jpg,flower2.jpg,right,A30I2Y2HAAR3WM
121,6,2.0,left.jpg,left,1.1562,left,14.0,left,1.0,2.1662,2.0,flower3.jpg,flower3_pair.jpg,left,A30I2Y2HAAR3WM
122,7,3.0,flower3.jpg,,,,15.0,left,1.0,2.5094,3.0,flower4.jpg,flower4_pair.jpg,left,A30I2Y2HAAR3WM
123,8,4.0,flower4.jpg,,,,16.0,right,1.0,3.208,4.0,flower5_pair.jpg,flower5.jpg,right,A30I2Y2HAAR3WM
124,9,5.0,flower5.jpg,,,,17.0,left,1.0,2.7269,5.0,flower6.jpg,flower6_pair.jpg,left,A30I2Y2HAAR3WM
125,10,6.0,flower6.jpg,,,,,,,,,,,,A30I2Y2HAAR3WM
126,4,0.0,flower1.jpg,,,,12.0,left,1.0,2.7299,0.0,flower1.jpg,flower1_pair.jpg,left,A30O3RGJZZSMOE
127,5,1.0,flower2.jpg,,,,13.0,right,1.0,2.0317,1.0,flower2_pair.jpg,flower2.jpg,right,A30O3RGJZZSMOE
128,6,2.0,left.jpg,left,1.6661,left,14.0,left,1.0,1.3815,2.0,flower3.jpg,flower3_pair.jpg,left,A30O3RGJZZSMOE
129,7,3.0,flower3.jpg,,,,15.0,left,1.0,2.541,3.0,flower4.jpg,flower4_pair.jpg,left,A30O3RGJZZSMOE
130,8,4.0,flower4.jpg,,,,16.0,left,0.0,2.2514,4.0,flower5_pair.jpg,flower5.jpg,right,A30O3RGJZZSMOE
131,9,5.0,flower5.jpg,,,,17.0,left,1.0,1.5063,5.0,flower6.jpg,flower6_pair.jpg,left,A30O3RGJZZSMOE
132,10,6.0,flower6.jpg,,,,,,,,,,,,A30O3RGJZZSMOE
133,4,0.0,flower1.jpg,,,,12.0,left,1.0,2.011,0.0,flower1.jpg,flower1_pair.jpg,left,A30ZYYC8NYLJ59
134,5,1.0,flower2.jpg,,,,13.0,right,1.0,2.7367,1.0,flower2_pair.jpg,flower2.jpg,right,A30ZYYC8NYLJ59
135,6,2.0,left.jpg,left,1.2125,left,14.0,left,1.0,1.6461,2.0,flower3.jpg,flower3_pair.jpg,left,A30ZYYC8NYLJ59
136,7,3.0,flower3.jpg,,,,15.0,left,1.0,2.5865,3.0,flower4.jpg,flower4_pair.jpg,left,A30ZYYC8NYLJ59
137,8,4.0,flower4.jpg,,,,16.0,right,1.0,2.5113,4.0,flower5_pair.jpg,flower5.jpg,right,A30ZYYC8NYLJ59
138,9,5.0,flower5.jpg,,,,17.0,left,1.0,1.8668,5.0,flower6.jpg,flower6_pair.jpg,left,A30ZYYC8NYLJ59
139,10,6.0,flower6.jpg,,,,,,,,,,,,A30ZYYC8NYLJ59
140,4,0.0,flower1.jpg,,,,12.0,left,1.0,1.5987,0.0,flower1.jpg,flower1_pair.jpg,left,A324M5ZRHX7RUV
141,5,1.0,flower2.jpg,,,,13.0,left,0.0,1.1094,1.0,flower2_pair.jpg,flower2.jpg,right,A324M5ZRHX7RUV
142,6,2.0,left.jpg,left,0.5467,left,14.0,left,1.0,1.1661,2.0,flower3.jpg,flower3_pair.jpg,left,A324M5ZRHX7RUV
143,7,3.0,flower3.jpg,,,,15.0,right,0.0,0.9105,3.0,flower4.jpg,flower4_pair.jpg,left,A324M5ZRHX7RUV
144,8,4.0,flower4.jpg,,,,16.0,right,1.0,1.116,4.0,flower5_pair.jpg,flower5.jpg,right,A324M5ZRHX7RUV
145,9,5.0,flower5.jpg,,,,17.0,left,1.0,0.8166,5.0,flower6.jpg,flower6_pair.jpg,left,A324M5ZRHX7RUV
146,10,6.0,flower6.jpg,,,,,,,,,,,,A324M5ZRHX7RUV
147,4,0.0,flower1.jpg,,,,12.0,left,1.0,2.8901,0.0,flower1.jpg,flower1_pair.jpg,left,A39WZD2C8BPP01
148,5,1.0,flower2.jpg,,,,13.0,right,1.0,2.5368,1.0,flower2_pair.jpg,flower2.jpg,right,A39WZD2C8BPP01
149,6,2.0,left.jpg,left,1.1423,left,14.0,left,1.0,2.0968,2.0,flower3.jpg,flower3_pair.jpg,left,A39WZD2C8BPP01
150,7,3.0,flower3.jpg,,,,15.0,right,0.0,2.9095,3.0,flower4.jpg,flower4_pair.jpg,left,A39WZD2C8BPP01
151,8,4.0,flower4.jpg,,,,16.0,right,1.0,1.7557,4.0,flower5_pair.jpg,flower5.jpg,right,A39WZD2C8BPP01
152,9,5.0,flower5.jpg,,,,17.0,left,1.0,1.3886,5.0,flower6.jpg,flower6_pair.jpg,left,A39WZD2C8BPP01
153,10,6.0,flower6.jpg,,,,,,,,,,,,A39WZD2C8BPP01
154,4,0.0,flower1.jpg,,,,12.0,left,1.0,1.962,0.0,flower1.jpg,flower1_pair.jpg,left,A39XW0561NNM5C
155,5,1.0,flower2.jpg,,,,13.0,left,0.0,1.4723,1.0,flower2_pair.jpg,flower2.jpg,right,A39XW0561NNM5C
156,6,2.0,left.jpg,left,2.0102,left,14.0,left,1.0,1.557,2.0,flower3.jpg,flower3_pair.jpg,left,A39XW0561NNM5C
157,7,3.0,flower3.jpg,,,,15.0,right,0.0,1.2301,3.0,flower4.jpg,flower4_pair.jpg,left,A39XW0561NNM5C
158,8,4.0,flower4.jpg,,,,16.0,right,1.0,1.5261,4.0,flower5_pair.jpg,flower5.jpg,right,A39XW0561NNM5C
159,9,5.0,flower5.jpg,,,,17.0,left,1.0,1.8869,5.0,flower6.jpg,flower6_pair.jpg,left,A39XW0561NNM5C
160,10,6.0,flower6.jpg,,,,,,,,,,,,A39XW0561NNM5C
161,4,0.0,flower1.jpg,,,,12.0,left,1.0,1.1488,0.0,flower1.jpg,flower1_pair.jpg,left,A3D9PJ37U7LCHE
162,5,1.0,flower2.jpg,,,,13.0,left,0.0,0.8033,1.0,flower2_pair.jpg,flower2.jpg,right,A3D9PJ37U7LCHE
163,6,2.0,left.jpg,left,1.2916,left,14.0,left,1.0,0.7283,2.0,flower3.jpg,flower3_pair.jpg,left,A3D9PJ37U7LCHE
164,7,3.0,flower3.jpg,,,,15.0,right,0.0,0.6658,3.0,flower4.jpg,flower4_pair.jpg,left,A3D9PJ37U7LCHE
165,8,4.0,flower4.jpg,,,,16.0,left,0.0,0.581,4.0,flower5_pair.jpg,flower5.jpg,right,A3D9PJ37U7LCHE
166,9,5.0,flower5.jpg,,,,17.0,left,1.0,0.7924,5.0,flower6.jpg,flower6_pair.jpg,left,A3D9PJ37U7LCHE
167,10,6.0,flower6.jpg,,,,,,,,,,,,A3D9PJ37U7LCHE
168,4,0.0,flower1.jpg,,,,12.0,right,0.0,2.3179,0.0,flower1.jpg,flower1_pair.jpg,left,A3HIMV8G48M87T
169,5,1.0,flower2.jpg,,,,13.0,right,1.0,1.7749,1.0,flower2_pair.jpg,flower2.jpg,right,A3HIMV8G48M87T
170,6,2.0,left.jpg,left,0.6613,left,14.0,left,1.0,1.7249,2.0,flower3.jpg,flower3_pair.jpg,left,A3HIMV8G48M87T
171,7,3.0,flower3.jpg,,,,15.0,left,1.0,1.0961,3.0,flower4.jpg,flower4_pair.jpg,left,A3HIMV8G48M87T
172,8,4.0,flower4.jpg,,,,16.0,right,1.0,2.2318,4.0,flower5_pair.jpg,flower5.jpg,right,A3HIMV8G48M87T
173,9,5.0,flower5.jpg,,,,17.0,left,1.0,2.0791,5.0,flower6.jpg,flower6_pair.jpg,left,A3HIMV8G48M87T
174,10,6.0,flower6.jpg,,,,,,,,,,,,A3HIMV8G48M87T
175,4,0.0,flower1.jpg,,,,12.0,left,1.0,2.34,0.0,flower1.jpg,flower1_pair.jpg,left,A3HN77CD9V6BLM
176,5,1.0,flower2.jpg,,,,13.0,right,1.0,2.67,1.0,flower2_pair.jpg,flower2.jpg,right,A3HN77CD9V6BLM
177,6,2.0,left.jpg,left,1.293,left,14.0,left,1.0,2.163,2.0,flower3.jpg,flower3_pair.jpg,left,A3HN77CD9V6BLM
178,7,3.0,flower3.jpg,,,,15.0,left,1.0,2.477,3.0,flower4.jpg,flower4_pair.jpg,left,A3HN77CD9V6BLM
179,8,4.0,flower4.jpg,,,,16.0,right,1.0,3.0,4.0,flower5_pair.jpg,flower5.jpg,right,A3HN77CD9V6BLM
180,9,5.0,flower5.jpg,,,,17.0,left,1.0,1.757,5.0,flower6.jpg,flower6_pair.jpg,left,A3HN77CD9V6BLM
181,10,6.0,flower6.jpg,,,,,,,,,,,,A3HN77CD9V6BLM
182,4,0.0,flower1.jpg,,,,12.0,left,1.0,1.8788,0.0,flower1.jpg,flower1_pair.jpg,left,A3HP4BPBXGDM2F
183,5,1.0,flower2.jpg,,,,13.0,left,0.0,1.9058,1.0,flower2_pair.jpg,flower2.jpg,right,A3HP4BPBXGDM2F
184,6,2.0,left.jpg,left,1.2169,left,14.0,left,1.0,2.7014,2.0,flower3.jpg,flower3_pair.jpg,left,A3HP4BPBXGDM2F
185,7,3.0,flower3.jpg,,,,15.0,left,1.0,2.5862,3.0,flower4.jpg,flower4_pair.jpg,left,A3HP4BPBXGDM2F
186,8,4.0,flower4.jpg,,,,16.0,right,1.0,1.7696,4.0,flower5_pair.jpg,flower5.jpg,right,A3HP4BPBXGDM2F
187,9,5.0,flower5.jpg,,,,17.0,left,1.0,2.1292,5.0,flower6.jpg,flower6_pair.jpg,left,A3HP4BPBXGDM2F
188,10,6.0,flower6.jpg,,,,,,,,,,,,A3HP4BPBXGDM2F
189,4,0.0,flower1.jpg,,,,12.0,left,1.0,45.0606,0.0,flower1.jpg,flower1_pair.jpg,left,A3R8SCC5Q0OE7W
190,5,1.0,flower2.jpg,,,,13.0,right,1.0,15.4956,1.0,flower2_pair.jpg,flower2.jpg,right,A3R8SCC5Q0OE7W
191,6,2.0,left.jpg,left,2.2495,left,14.0,left,1.0,7.0179,2.0,flower3.jpg,flower3_pair.jpg,left,A3R8SCC5Q0OE7W
192,7,3.0,flower3.jpg,,,,15.0,left,1.0,4.5165,3.0,flower4.jpg,flower4_pair.jpg,left,A3R8SCC5Q0OE7W
193,8,4.0,flower4.jpg,,,,16.0,right,1.0,3.8096,4.0,flower5_pair.jpg,flower5.jpg,right,A3R8SCC5Q0OE7W
194,9,5.0,flower5.jpg,,,,17.0,left,1.0,2.4251,5.0,flower6.jpg,flower6_pair.jpg,left,A3R8SCC5Q0OE7W
195,10,6.0,flower6.jpg,,,,,,,,,,,,A3R8SCC5Q0OE7W
196,4,0.0,flower1.jpg,,,,12.0,right,0.0,4.3094,0.0,flower1.jpg,flower1_pair.jpg,left,A7VA2Y4H6U31O
197,5,1.0,flower2.jpg,,,,13.0,left,0.0,4.4171,1.0,flower2_pair.jpg,flower2.jpg,right,A7VA2Y4H6U31O
198,6,2.0,left.jpg,left,0.5533,left,14.0,left,1.0,1.7766,2.0,flower3.jpg,flower3_pair.jpg,left,A7VA2Y4H6U31O
199,7,3.0,flower3.jpg,,,,15.0,left,1.0,2.106,3.0,flower4.jpg,flower4_pair.jpg,left,A7VA2Y4H6U31O
200,8,4.0,flower4.jpg,,,,16.0,left,0.0,3.1779,4.0,flower5_pair.jpg,flower5.jpg,right,A7VA2Y4H6U31O
201,9,5.0,flower5.jpg,,,,17.0,left,1.0,2.6182,5.0,flower6.jpg,flower6_pair.jpg,left,A7VA2Y4H6U31O
202,10,6.0,flower6.jpg,,,,,,,,,,,,A7VA2Y4H6U31O
203,4,0.0,flower1.jpg,,,,12.0,right,0.0,4.4326,0.0,flower1.jpg,flower1_pair.jpg,left,A8C3WNWRBWUXO
204,5,1.0,flower2.jpg,,,,13.0,right,1.0,1.905,1.0,flower2_pair.jpg,flower2.jpg,right,A8C3WNWRBWUXO
205,6,2.0,left.jpg,left,0.4411,left,14.0,left,1.0,1.2587,2.0,flower3.jpg,flower3_pair.jpg,left,A8C3WNWRBWUXO
206,7,3.0,flower3.jpg,,,,15.0,left,1.0,1.5247,3.0,flower4.jpg,flower4_pair.jpg,left,A8C3WNWRBWUXO
207,8,4.0,flower4.jpg,,,,16.0,right,1.0,1.6867,4.0,flower5_pair.jpg,flower5.jpg,right,A8C3WNWRBWUXO
208,9,5.0,flower5.jpg,,,,17.0,right,0.0,2.581,5.0,flower6.jpg,flower6_pair.jpg,left,A8C3WNWRBWUXO
209,10,6.0,flower6.jpg,,,,,,,,,,,,A8C3WNWRBWUXO
210,4,0.0,flower1.jpg,,,,12.0,left,1.0,2.944,0.0,flower1.jpg,flower1_pair.jpg,left,AAPVJFYLS6D4D
211,5,1.0,flower2.jpg,,,,13.0,right,1.0,2.943,1.0,flower2_pair.jpg,flower2.jpg,right,AAPVJFYLS6D4D
212,6,2.0,left.jpg,left,0.737,left,14.0,left,1.0,1.596,2.0,flower3.jpg,flower3_pair.jpg,left,AAPVJFYLS6D4D
213,7,3.0,flower3.jpg,,,,15.0,left,1.0,3.12,3.0,flower4.jpg,flower4_pair.jpg,left,AAPVJFYLS6D4D
214,8,4.0,flower4.jpg,,,,16.0,right,1.0,1.964,4.0,flower5_pair.jpg,flower5.jpg,right,AAPVJFYLS6D4D
215,9,5.0,flower5.jpg,,,,17.0,left,1.0,1.833,5.0,flower6.jpg,flower6_pair.jpg,left,AAPVJFYLS6D4D
216,10,6.0,flower6.jpg,,,,,,,,,,,,AAPVJFYLS6D4D
217,4,0.0,flower1.jpg,,,,12.0,right,0.0,3.793,0.0,flower1.jpg,flower1_pair.jpg,left,AB1UHU4WQ9HFT
218,5,1.0,flower2.jpg,,,,13.0,right,1.0,2.403,1.0,flower2_pair.jpg,flower2.jpg,right,AB1UHU4WQ9HFT
219,6,2.0,left.jpg,left,1.114,left,14.0,left,1.0,1.571,2.0,flower3.jpg,flower3_pair.jpg,left,AB1UHU4WQ9HFT
220,7,3.0,flower3.jpg,,,,15.0,left,1.0,2.801,3.0,flower4.jpg,flower4_pair.jpg,left,AB1UHU4WQ9HFT
221,8,4.0,flower4.jpg,,,,16.0,left,0.0,2.763,4.0,flower5_pair.jpg,flower5.jpg,right,AB1UHU4WQ9HFT
222,9,5.0,flower5.jpg,,,,17.0,left,1.0,2.253,5.0,flower6.jpg,flower6_pair.jpg,left,AB1UHU4WQ9HFT
223,10,6.0,flower6.jpg,,,,,,,,,,,,AB1UHU4WQ9HFT
224,4,0.0,flower1.jpg,,,,12.0,left,1.0,4.6496,0.0,flower1.jpg,flower1_pair.jpg,left,AB6L60HXUNORT
225,5,1.0,flower2.jpg,,,,13.0,left,0.0,2.3556,1.0,flower2_pair.jpg,flower2.jpg,right,AB6L60HXUNORT
226,6,2.0,left.jpg,left,1.091,left,14.0,left,1.0,1.9634,2.0,flower3.jpg,flower3_pair.jpg,left,AB6L60HXUNORT
227,7,3.0,flower3.jpg,,,,15.0,left,1.0,3.0469,3.0,flower4.jpg,flower4_pair.jpg,left,AB6L60HXUNORT
228,8,4.0,flower4.jpg,,,,16.0,right,1.0,1.709,4.0,flower5_pair.jpg,flower5.jpg,right,AB6L60HXUNORT
229,9,5.0,flower5.jpg,,,,17.0,left,1.0,1.2223,5.0,flower6.jpg,flower6_pair.jpg,left,AB6L60HXUNORT
230,10,6.0,flower6.jpg,,,,,,,,,,,,AB6L60HXUNORT
231,4,0.0,flower1.jpg,,,,12.0,left,1.0,4.287,0.0,flower1.jpg,flower1_pair.jpg,left,AC7CDW53I98JT
232,5,1.0,flower2.jpg,,,,13.0,right,1.0,2.639,1.0,flower2_pair.jpg,flower2.jpg,right,AC7CDW53I98JT
233,6,2.0,left.jpg,left,1.241,left,14.0,left,1.0,2.222,2.0,flower3.jpg,flower3_pair.jpg,left,AC7CDW53I98JT
234,7,3.0,flower3.jpg,,,,15.0,right,0.0,1.752,3.0,flower4.jpg,flower4_pair.jpg,left,AC7CDW53I98JT
235,8,4.0,flower4.jpg,,,,16.0,right,1.0,2.415,4.0,flower5_pair.jpg,flower5.jpg,right,AC7CDW53I98JT
236,9,5.0,flower5.jpg,,,,17.0,left,1.0,3.15,5.0,flower6.jpg,flower6_pair.jpg,left,AC7CDW53I98JT
237,10,6.0,flower6.jpg,,,,,,,,,,,,AC7CDW53I98JT
238,4,0.0,flower1.jpg,,,,12.0,left,1.0,4.7103,0.0,flower1.jpg,flower1_pair.jpg,left,AFFXVHHBUWW4D
239,5,1.0,flower2.jpg,,,,13.0,right,1.0,3.3605,1.0,flower2_pair.jpg,flower2.jpg,right,AFFXVHHBUWW4D
240,6,2.0,left.jpg,left,0.9445,left,14.0,left,1.0,2.1827,2.0,flower3.jpg,flower3_pair.jpg,left,AFFXVHHBUWW4D
241,7,3.0,flower3.jpg,,,,15.0,left,1.0,3.2499,3.0,flower4.jpg,flower4_pair.jpg,left,AFFXVHHBUWW4D
242,8,4.0,flower4.jpg,,,,16.0,right,1.0,3.3325,4.0,flower5_pair.jpg,flower5.jpg,right,AFFXVHHBUWW4D
243,9,5.0,flower5.jpg,,,,17.0,left,1.0,2.039,5.0,flower6.jpg,flower6_pair.jpg,left,AFFXVHHBUWW4D
244,10,6.0,flower6.jpg,,,,,,,,,,,,AFFXVHHBUWW4D
245,4,0.0,flower1.jpg,,,,12.0,left,1.0,14.736,0.0,flower1.jpg,flower1_pair.jpg,left,AHXQCR64E5GUE
246,5,1.0,flower2.jpg,,,,13.0,right,1.0,3.028,1.0,flower2_pair.jpg,flower2.jpg,right,AHXQCR64E5GUE
247,6,2.0,left.jpg,left,1.164,left,14.0,left,1.0,2.197,2.0,flower3.jpg,flower3_pair.jpg,left,AHXQCR64E5GUE
248,7,3.0,flower3.jpg,,,,15.0,right,0.0,2.31,3.0,flower4.jpg,flower4_pair.jpg,left,AHXQCR64E5GUE
249,8,4.0,flower4.jpg,,,,16.0,left,0.0,2.727,4.0,flower5_pair.jpg,flower5.jpg,right,AHXQCR64E5GUE
250,9,5.0,flower5.jpg,,,,17.0,right,0.0,1.347,5.0,flower6.jpg,flower6_pair.jpg,left,AHXQCR64E5GUE
251,10,6.0,flower6.jpg,,,,,,,,,,,,AHXQCR64E5GUE
252,4,0.0,flower1.jpg,,,,12.0,right,0.0,2.9908,0.0,flower1.jpg,flower1_pair.jpg,left,AKIT35WR8HEQ3
253,5,1.0,flower2.jpg,,,,13.0,left,0.0,2.0798,1.0,flower2_pair.jpg,flower2.jpg,right,AKIT35WR8HEQ3
254,6,2.0,left.jpg,left,0.968,left,14.0,left,1.0,2.1356,2.0,flower3.jpg,flower3_pair.jpg,left,AKIT35WR8HEQ3
255,7,3.0,flower3.jpg,,,,15.0,left,1.0,2.4163,3.0,flower4.jpg,flower4_pair.jpg,left,AKIT35WR8HEQ3
256,8,4.0,flower4.jpg,,,,16.0,right,1.0,1.825,4.0,flower5_pair.jpg,flower5.jpg,right,AKIT35WR8HEQ3
257,9,5.0,flower5.jpg,,,,17.0,left,1.0,2.5877,5.0,flower6.jpg,flower6_pair.jpg,left,AKIT35WR8HEQ3
258,10,6.0,flower6.jpg,,,,,,,,,,,,AKIT35WR8HEQ3
259,4,0.0,flower1.jpg,,,,12.0,right,0.0,1.7805,0.0,flower1.jpg,flower1_pair.jpg,left,AOOU57BC3GK9J
260,5,1.0,flower2.jpg,,,,13.0,left,0.0,1.1846,1.0,flower2_pair.jpg,flower2.jpg,right,AOOU57BC3GK9J
261,6,2.0,left.jpg,left,1.0597,left,14.0,left,1.0,1.4426,2.0,flower3.jpg,flower3_pair.jpg,left,AOOU57BC3GK9J
262,7,3.0,flower3.jpg,,,,15.0,right,0.0,1.6419,3.0,flower4.jpg,flower4_pair.jpg,left,AOOU57BC3GK9J
263,8,4.0,flower4.jpg,,,,16.0,right,1.0,1.8201,4.0,flower5_pair.jpg,flower5.jpg,right,AOOU57BC3GK9J
264,9,5.0,flower5.jpg,,,,17.0,left,1.0,1.5717,5.0,flower6.jpg,flower6_pair.jpg,left,AOOU57BC3GK9J
265,10,6.0,flower6.jpg,,,,,,,,,,,,AOOU57BC3GK9J
266,4,0.0,flower1.jpg,,,,12.0,left,1.0,1.359,0.0,flower1.jpg,flower1_pair.jpg,left,AU34T9OMHN4Z4
267,5,1.0,flower2.jpg,,,,13.0,left,0.0,1.4031,1.0,flower2_pair.jpg,flower2.jpg,right,AU34T9OMHN4Z4
268,6,2.0,left.jpg,left,0.816,left,14.0,left,1.0,1.6936,2.0,flower3.jpg,flower3_pair.jpg,left,AU34T9OMHN4Z4
269,7,3.0,flower3.jpg,,,,15.0,left,1.0,1.1251,3.0,flower4.jpg,flower4_pair.jpg,left,AU34T9OMHN4Z4
270,8,4.0,flower4.jpg,,,,16.0,left,0.0,1.6875,4.0,flower5_pair.jpg,flower5.jpg,right,AU34T9OMHN4Z4
271,9,5.0,flower5.jpg,,,,17.0,left,1.0,1.4819,5.0,flower6.jpg,flower6_pair.jpg,left,AU34T9OMHN4Z4
272,10,6.0,flower6.jpg,,,,,,,,,,,,AU34T9OMHN4Z4
273,4,0.0,flower1.jpg,,,,12.0,left,1.0,1.7908,0.0,flower1.jpg,flower1_pair.jpg,left,AU6X92Y30ALJY
274,5,1.0,flower2.jpg,,,,13.0,right,1.0,1.5525,1.0,flower2_pair.jpg,flower2.jpg,right,AU6X92Y30ALJY
275,6,2.0,left.jpg,left,1.2835,left,14.0,left,1.0,2.5855,2.0,flower3.jpg,flower3_pair.jpg,left,AU6X92Y30ALJY
276,7,3.0,flower3.jpg,,,,15.0,left,1.0,0.9224,3.0,flower4.jpg,flower4_pair.jpg,left,AU6X92Y30ALJY
277,8,4.0,flower4.jpg,,,,16.0,left,0.0,1.5647,4.0,flower5_pair.jpg,flower5.jpg,right,AU6X92Y30ALJY
278,9,5.0,flower5.jpg,,,,17.0,left,1.0,1.324,5.0,flower6.jpg,flower6_pair.jpg,left,AU6X92Y30ALJY
279,10,6.0,flower6.jpg,,,,,,,,,,,,AU6X92Y30ALJY
280,4,0.0,flower1.jpg,,,,12.0,left,1.0,1.572,0.0,flower1.jpg,flower1_pair.jpg,left,AYET8YADELIIA
281,5,1.0,flower2.jpg,,,,13.0,right,1.0,1.82,1.0,flower2_pair.jpg,flower2.jpg,right,AYET8YADELIIA
282,6,2.0,left.jpg,left,0.747,left,14.0,left,1.0,2.279,2.0,flower3.jpg,flower3_pair.jpg,left,AYET8YADELIIA
283,7,3.0,flower3.jpg,,,,15.0,left,1.0,2.487,3.0,flower4.jpg,flower4_pair.jpg,left,AYET8YADELIIA
284,8,4.0,flower4.jpg,,,,16.0,right,1.0,1.727,4.0,flower5_pair.jpg,flower5.jpg,right,AYET8YADELIIA
285,9,5.0,flower5.jpg,,,,17.0,left,1.0,1.592,5.0,flower6.jpg,flower6_pair.jpg,left,AYET8YADELIIA
286,10,6.0,flower6.jpg,,,,,,,,,,,,AYET8YADELIIA
