,layer,correct,test_test_response.keys,test_test_response.corr,test_test_response.rt,trials_2.thisRepN,trials_2.thisTrialN,trials_2.thisN,trials_2.thisIndex,trials_2.ran,image1,image2,subject
0,2.0,left,right,0.0,12.2523,0.0,0.0,0.0,0.0,1.0,2238516618-25604.jpg,2862686459-136888.jpg,A10A7EZUXBD0II
1,3.0,left,right,0.0,2.352,0.0,1.0,1.0,1.0,1.0,2238561223-33794.jpg,2883271323-68049.jpg,A10A7EZUXBD0II
2,1.0,right,left,0.0,1.4116,0.0,2.0,2.0,2.0,1.0,2868470400-212889.jpg,2238471391-240918.jpg,A10A7EZUXBD0II
3,2.0,right,right,1.0,0.9992,0.0,3.0,3.0,3.0,1.0,2856919327-359675.jpg,2901938432-367627.jpg,A10A7EZUXBD0II
4,3.0,left,left,1.0,0.8652,0.0,4.0,4.0,4.0,1.0,2512876023-52283.jpg,2238576267-334532.jpg,A10A7EZUXBD0II
5,1.0,left,right,0.0,0.8817,0.0,5.0,5.0,5.0,1.0,2964216465-219242.jpg,2592380049-131079.jpg,A10A7EZUXBD0II
6,3.0,right,left,0.0,1.1676,0.0,6.0,6.0,6.0,1.0,2864911339-138231.jpg,2449442529-124446.jpg,A10A7EZUXBD0II
7,2.0,left,right,0.0,0.7004,0.0,7.0,7.0,7.0,1.0,2964218374-144968.jpg,2238521157-323782.jpg,A10A7EZUXBD0II
8,2.0,left,left,1.0,0.5213,0.0,8.0,8.0,8.0,1.0,2883255450-215309.jpg,2868476439-138927.jpg,A10A7EZUXBD0II
9,3.0,right,right,1.0,1.1373,0.0,9.0,9.0,9.0,1.0,2994403305-222559.jpg,2864906345-212360.jpg,A10A7EZUXBD0II
10,1.0,left,left,1.0,0.6869,0.0,10.0,10.0,10.0,1.0,2579432576-279079.jpg,2901934574-143126.jpg,A10A7EZUXBD0II
11,2.0,left,right,0.0,0.6782,0.0,11.0,11.0,11.0,1.0,2986400320-221190.jpg,2238470979-92615.jpg,A10A7EZUXBD0II
12,2.0,left,left,1.0,0.5876,0.0,12.0,12.0,12.0,1.0,2446760940-198145.jpg,2592380188-56743.jpg,A10A7EZUXBD0II
13,2.0,left,right,0.0,1.1093,0.0,13.0,13.0,13.0,1.0,2898632385-217137.jpg,2238480803-19739.jpg,A10A7EZUXBD0II
14,3.0,right,left,0.0,0.8632,0.0,14.0,14.0,14.0,1.0,2238436851-238821.jpg,2868475410-213219.jpg,A10A7EZUXBD0II
15,3.0,right,right,1.0,0.815,0.0,15.0,15.0,15.0,1.0,2989724308-73930.jpg,2964213381-294060.jpg,A10A7EZUXBD0II
16,3.0,left,left,1.0,1.2495,0.0,16.0,16.0,16.0,1.0,2883254439-140941.jpg,2417207511-266975.jpg,A10A7EZUXBD0II
17,1.0,left,right,0.0,0.7869,0.0,17.0,17.0,17.0,1.0,2901939379-143479.jpg,2986450334-147215.jpg,A10A7EZUXBD0II
18,1.0,left,left,1.0,0.7739,0.0,18.0,18.0,18.0,1.0,2446759803-49249.jpg,2592380177-354629.jpg,A10A7EZUXBD0II
19,3.0,right,right,1.0,0.9794,0.0,19.0,19.0,19.0,1.0,2864902304-137862.jpg,2898624426-291546.jpg,A10A7EZUXBD0II
20,2.0,right,left,0.0,0.9421,0.0,20.0,20.0,20.0,1.0,2592379781-279345.jpg,2452380166-273109.jpg,A10A7EZUXBD0II
21,1.0,right,right,1.0,0.9637,0.0,21.0,21.0,21.0,1.0,2238570526-257884.jpg,2274829821-263682.jpg,A10A7EZUXBD0II
22,3.0,right,left,0.0,0.9453,0.0,22.0,22.0,22.0,1.0,2598726160-205998.jpg,2625337302-355866.jpg,A10A7EZUXBD0II
23,1.0,right,right,1.0,1.4135,0.0,23.0,23.0,23.0,1.0,2238482972-317759.jpg,2238550049-105691.jpg,A10A7EZUXBD0II
24,2.0,right,left,0.0,1.118,0.0,24.0,24.0,24.0,1.0,2825702353-60662.jpg,2994405328-74628.jpg,A10A7EZUXBD0II
25,1.0,right,right,1.0,1.917,0.0,25.0,25.0,25.0,1.0,2238540598-30035.jpg,2862691449-137104.jpg,A10A7EZUXBD0II
26,2.0,right,right,1.0,1.2181,0.0,26.0,26.0,26.0,1.0,2238470079-92499.jpg,2460547467-349421.jpg,A10A7EZUXBD0II
27,2.0,left,right,0.0,2.0316,0.0,27.0,27.0,27.0,1.0,2238480434-93829.jpg,2592380255-205551.jpg,A10A7EZUXBD0II
28,3.0,right,left,0.0,1.0896,0.0,28.0,28.0,28.0,1.0,2592380136-279476.jpg,2883272438-68133.jpg,A10A7EZUXBD0II
29,2.0,left,right,0.0,1.1014,0.0,29.0,29.0,29.0,1.0,2898626385-216899.jpg,2449442365-198476.jpg,A10A7EZUXBD0II
30,3.0,right,right,1.0,2.1588,0.0,30.0,30.0,30.0,1.0,2238537701-251772.jpg,2592380138-56727.jpg,A10A7EZUXBD0II
31,2.0,right,left,0.0,1.7635,0.0,31.0,31.0,31.0,1.0,2901951459-144433.jpg,2238429999-90218.jpg,A10A7EZUXBD0II
32,1.0,right,right,1.0,2.6656,0.0,32.0,32.0,32.0,1.0,2986450330-221526.jpg,2981231446-294731.jpg,A10A7EZUXBD0II
33,2.0,right,left,0.0,1.2769,0.0,33.0,33.0,33.0,1.0,2238555799-106905.jpg,2864909447-362146.jpg,A10A7EZUXBD0II
34,1.0,left,right,0.0,1.5755,0.0,34.0,34.0,34.0,1.0,2898633480-217190.jpg,2446760147-347245.jpg,A10A7EZUXBD0II
35,1.0,left,left,1.0,1.8608,0.0,35.0,35.0,35.0,1.0,2238126735-154721.jpg,2856919327-359676.jpg,A10A7EZUXBD0II
36,1.0,left,right,0.0,1.9593,0.0,36.0,36.0,36.0,1.0,2898617468-68274.jpg,2512875899-126682.jpg,A10A7EZUXBD0II
37,3.0,left,left,1.0,0.9419,0.0,37.0,37.0,37.0,1.0,2238521193-26286.jpg,2446760306-272024.jpg,A10A7EZUXBD0II
38,3.0,right,right,1.0,1.0511,0.0,38.0,38.0,38.0,1.0,2238373603-13733.jpg,2238499155-170911.jpg,A10A7EZUXBD0II
39,3.0,right,left,0.0,1.0482,0.0,39.0,39.0,39.0,1.0,2986455373-73646.jpg,2238584869-113153.jpg,A10A7EZUXBD0II
40,1.0,right,right,1.0,0.8046,0.0,40.0,40.0,40.0,1.0,2446760621-272102.jpg,2446760524-123999.jpg,A10A7EZUXBD0II
41,1.0,right,left,0.0,0.9505,0.0,41.0,41.0,41.0,1.0,2238482920-168428.jpg,2575964140-205050.jpg,A10A7EZUXBD0II
42,2.0,right,right,1.0,0.7471,0.0,42.0,42.0,42.0,1.0,2449442529-124445.jpg,2331570830-189984.jpg,A10A7EZUXBD0II
43,3.0,right,left,0.0,0.8139,0.0,43.0,43.0,43.0,1.0,2238490590-169598.jpg,2964224310-219527.jpg,A10A7EZUXBD0II
44,3.0,right,right,1.0,2.035,0.0,44.0,44.0,44.0,1.0,2901936309-143207.jpg,2898635427-367120.jpg,A10A7EZUXBD0II
45,2.0,left,left,1.0,0.8133,0.0,45.0,45.0,45.0,1.0,2868485396-288511.jpg,2868472420-213024.jpg,A10A7EZUXBD0II
46,1.0,right,right,1.0,0.9485,0.0,46.0,46.0,46.0,1.0,2238570142-333223.jpg,2238496457-319749.jpg,A10A7EZUXBD0II
47,3.0,right,right,1.0,1.217,0.0,47.0,47.0,47.0,1.0,2898617396-291219.jpg,2964209380-218956.jpg,A10A7EZUXBD0II
48,2.0,right,right,1.0,1.0397,0.0,48.0,48.0,48.0,1.0,2238510189-98616.jpg,2901941426-292805.jpg,A10A7EZUXBD0II
49,1.0,left,right,0.0,1.8153,0.0,49.0,49.0,49.0,1.0,2238375302-311538.jpg,2592380255-205552.jpg,A10A7EZUXBD0II
50,1.0,left,right,0.0,1.4959,0.0,50.0,50.0,50.0,1.0,2901934573-69337.jpg,2986401333-73218.jpg,A10A7EZUXBD0II
51,2.0,left,right,0.0,1.2472,0.0,51.0,51.0,51.0,1.0,2238129579-80916.jpg,2898618444-142233.jpg,A10A7EZUXBD0II
52,3.0,right,right,1.0,1.128,0.0,52.0,52.0,52.0,1.0,2452381442-348755.jpg,2238584018-38513.jpg,A10A7EZUXBD0II
53,3.0,left,right,0.0,1.0213,0.0,53.0,53.0,53.0,1.0,2238575092-334269.jpg,2964218374-144967.jpg,A10A7EZUXBD0II
54,2.0,left,right,0.0,0.9932,0.0,54.0,54.0,54.0,1.0,2964213381-294061.jpg,2981234334-145491.jpg,A10A7EZUXBD0II
55,1.0,right,right,1.0,4.7362,0.0,55.0,55.0,55.0,1.0,2238481575-168208.jpg,2883255450-215311.jpg,A10A7EZUXBD0II
56,3.0,left,right,0.0,0.8665,0.0,56.0,56.0,56.0,1.0,2898632385-217138.jpg,2460547992-349586.jpg,A10A7EZUXBD0II
57,1.0,right,right,1.0,1.4234,0.0,57.0,57.0,57.0,1.0,2868488422-363713.jpg,2986408352-371293.jpg,A10A7EZUXBD0II
58,2.0,right,right,1.0,0.899,0.0,58.0,58.0,58.0,1.0,2635396318-58409.jpg,2446758985-197609.jpg,A10A7EZUXBD0II
59,1.0,left,right,0.0,0.9235,0.0,59.0,59.0,59.0,1.0,2883254439-140940.jpg,2452380166-273110.jpg,A10A7EZUXBD0II
60,2.0,left,left,1.0,1.8359,0.0,0.0,0.0,0.0,1.0,2238129579-80916.jpg,2898618444-142233.jpg,A11MOA9HW11EP1
61,3.0,left,left,1.0,1.2624,0.0,1.0,1.0,1.0,1.0,2512876023-52283.jpg,2238576267-334532.jpg,A11MOA9HW11EP1
62,3.0,left,left,1.0,1.1094,0.0,2.0,2.0,2.0,1.0,2449442529-124446.jpg,2864911339-138231.jpg,A11MOA9HW11EP1
63,2.0,right,left,0.0,1.2809,0.0,3.0,3.0,3.0,1.0,2901943388-69995.jpg,2238471391-240918.jpg,A11MOA9HW11EP1
64,1.0,left,right,0.0,1.1003,0.0,4.0,4.0,4.0,1.0,2898624426-291546.jpg,2986402377-371266.jpg,A11MOA9HW11EP1
65,1.0,left,left,1.0,1.2404,0.0,5.0,5.0,5.0,1.0,2964213381-294060.jpg,2898631359-142720.jpg,A11MOA9HW11EP1
66,2.0,right,right,1.0,1.3944,0.0,6.0,6.0,6.0,1.0,2981234334-145491.jpg,2964213381-294061.jpg,A11MOA9HW11EP1
67,3.0,right,left,0.0,1.3615,0.0,7.0,7.0,7.0,1.0,2901936309-143207.jpg,2898635427-367120.jpg,A11MOA9HW11EP1
68,1.0,right,right,1.0,1.3383,0.0,8.0,8.0,8.0,1.0,2446760147-347245.jpg,2898633480-217190.jpg,A11MOA9HW11EP1
69,1.0,right,right,1.0,1.4837,0.0,9.0,9.0,9.0,1.0,2804906319-133082.jpg,2238480434-93829.jpg,A11MOA9HW11EP1
70,1.0,left,left,1.0,2.08,0.0,10.0,10.0,10.0,1.0,2238496457-319749.jpg,2238570142-333223.jpg,A11MOA9HW11EP1
71,2.0,right,left,0.0,1.6729,0.0,11.0,11.0,11.0,1.0,2868485399-139476.jpg,2883255450-215311.jpg,A11MOA9HW11EP1
72,1.0,left,left,1.0,1.3739,0.0,12.0,12.0,12.0,1.0,2901938432-367627.jpg,2579432708-56394.jpg,A11MOA9HW11EP1
73,1.0,left,left,1.0,2.0538,0.0,13.0,13.0,13.0,1.0,2238550049-105691.jpg,2238482972-317759.jpg,A11MOA9HW11EP1
74,1.0,left,left,1.0,1.8476,0.0,14.0,14.0,14.0,1.0,2274829821-263682.jpg,2238570526-257884.jpg,A11MOA9HW11EP1
75,3.0,right,right,1.0,1.109,0.0,15.0,15.0,15.0,1.0,2238490590-169598.jpg,2964224310-219527.jpg,A11MOA9HW11EP1
76,1.0,right,right,1.0,1.3577,0.0,16.0,16.0,16.0,1.0,2446760621-272102.jpg,2446760524-123999.jpg,A11MOA9HW11EP1
77,1.0,left,left,1.0,1.5536,0.0,17.0,17.0,17.0,1.0,2868485396-288511.jpg,2868470456-287597.jpg,A11MOA9HW11EP1
78,2.0,right,right,1.0,2.3301,0.0,18.0,18.0,18.0,1.0,2592380049-131077.jpg,2238375302-311538.jpg,A11MOA9HW11EP1
79,3.0,right,right,1.0,1.3931,0.0,19.0,19.0,19.0,1.0,2446760306-272024.jpg,2238521193-26286.jpg,A11MOA9HW11EP1
80,1.0,left,right,0.0,1.809,0.0,20.0,20.0,20.0,1.0,2238584869-113153.jpg,2864901420-212147.jpg,A11MOA9HW11EP1
81,2.0,right,left,0.0,1.0703,0.0,21.0,21.0,21.0,1.0,2575121890-204630.jpg,2883254439-140940.jpg,A11MOA9HW11EP1
82,3.0,right,right,1.0,2.136,0.0,22.0,22.0,22.0,1.0,2238525773-27014.jpg,2964218374-144968.jpg,A11MOA9HW11EP1
83,3.0,right,right,1.0,2.5991,0.0,23.0,23.0,23.0,1.0,2238537701-251772.jpg,2592380138-56727.jpg,A11MOA9HW11EP1
84,3.0,left,left,1.0,1.1509,0.0,24.0,24.0,24.0,1.0,2898632385-217137.jpg,2864904453-63932.jpg,A11MOA9HW11EP1
85,3.0,left,left,1.0,1.8321,0.0,25.0,25.0,25.0,1.0,2575964140-205050.jpg,2446760226-272005.jpg,A11MOA9HW11EP1
86,3.0,right,left,0.0,2.0979,0.0,26.0,26.0,26.0,1.0,2592380136-279476.jpg,2883272438-68133.jpg,A11MOA9HW11EP1
87,1.0,left,right,0.0,1.4873,0.0,27.0,27.0,27.0,1.0,2579432576-279079.jpg,2901934574-143126.jpg,A11MOA9HW11EP1
88,2.0,right,left,0.0,1.8038,0.0,28.0,28.0,28.0,1.0,2868476439-138927.jpg,2883255450-215309.jpg,A11MOA9HW11EP1
89,1.0,right,right,1.0,1.5984,0.0,29.0,29.0,29.0,1.0,2452380171-273112.jpg,2452380166-273109.jpg,A11MOA9HW11EP1
90,3.0,right,right,1.0,3.6159,0.0,30.0,30.0,30.0,1.0,2452381442-348755.jpg,2238584018-38513.jpg,A11MOA9HW11EP1
91,3.0,left,left,1.0,1.4522,0.0,31.0,31.0,31.0,1.0,2446760940-198145.jpg,2446760692-347392.jpg,A11MOA9HW11EP1
92,3.0,right,left,0.0,2.1699,0.0,32.0,32.0,32.0,1.0,2901951430-218724.jpg,2238126735-154721.jpg,A11MOA9HW11EP1
93,1.0,right,right,1.0,1.5689,0.0,33.0,33.0,33.0,1.0,2989715328-73658.jpg,2898626385-216899.jpg,A11MOA9HW11EP1
94,1.0,left,right,0.0,1.9248,0.0,34.0,34.0,34.0,1.0,2898617468-68274.jpg,2512875899-126682.jpg,A11MOA9HW11EP1
95,2.0,left,right,0.0,1.7415,0.0,35.0,35.0,35.0,1.0,2981231446-294731.jpg,2238568685-183597.jpg,A11MOA9HW11EP1
96,1.0,right,right,1.0,3.3076,0.0,36.0,36.0,36.0,1.0,2592380177-354629.jpg,2446759803-49249.jpg,A11MOA9HW11EP1
97,2.0,right,left,0.0,1.5818,0.0,37.0,37.0,37.0,1.0,2238555799-106905.jpg,2864909447-362146.jpg,A11MOA9HW11EP1
98,2.0,left,right,0.0,1.7106,0.0,38.0,38.0,38.0,1.0,2901941426-292805.jpg,2238510189-98616.jpg,A11MOA9HW11EP1
99,2.0,right,left,0.0,2.059,0.0,39.0,39.0,39.0,1.0,2898631429-142736.jpg,2964209380-218956.jpg,A11MOA9HW11EP1
100,2.0,right,left,0.0,4.3034,0.0,40.0,40.0,40.0,1.0,2238470079-92499.jpg,2460547467-349421.jpg,A11MOA9HW11EP1
101,3.0,right,right,1.0,1.8212,0.0,41.0,41.0,41.0,1.0,2994403305-222559.jpg,2864906345-212360.jpg,A11MOA9HW11EP1
102,2.0,left,left,1.0,1.8339,0.0,42.0,42.0,42.0,1.0,2238575092-334269.jpg,2860304305-210777.jpg,A11MOA9HW11EP1
103,2.0,left,right,0.0,1.3521,0.0,43.0,43.0,43.0,1.0,2238561223-33794.jpg,2592380177-354626.jpg,A11MOA9HW11EP1
104,3.0,left,right,0.0,1.3532,0.0,44.0,44.0,44.0,1.0,2446758985-197609.jpg,2984618344-146295.jpg,A11MOA9HW11EP1
105,3.0,right,right,1.0,1.8436,0.0,45.0,45.0,45.0,1.0,2883273443-68192.jpg,2994405328-74628.jpg,A11MOA9HW11EP1
106,2.0,left,left,1.0,1.8716,0.0,46.0,46.0,46.0,1.0,2986408352-371293.jpg,2446759580-197801.jpg,A11MOA9HW11EP1
107,2.0,right,left,0.0,1.3236,0.0,47.0,47.0,47.0,1.0,2452380832-348593.jpg,2238499155-170911.jpg,A11MOA9HW11EP1
108,1.0,left,left,1.0,1.7003,0.0,48.0,48.0,48.0,1.0,2238516618-25604.jpg,2238573549-110485.jpg,A11MOA9HW11EP1
109,1.0,left,right,0.0,1.4182,0.0,49.0,49.0,49.0,1.0,2986400320-221190.jpg,2989727350-222011.jpg,A11MOA9HW11EP1
110,3.0,right,left,0.0,1.4957,0.0,50.0,50.0,50.0,1.0,2446760917-347439.jpg,2964216465-219242.jpg,A11MOA9HW11EP1
111,3.0,left,left,1.0,1.902,0.0,51.0,51.0,51.0,1.0,2901939379-143479.jpg,2864909422-362141.jpg,A11MOA9HW11EP1
112,1.0,left,left,1.0,2.052,0.0,52.0,52.0,52.0,1.0,2898632385-217138.jpg,2575120738-55529.jpg,A11MOA9HW11EP1
113,3.0,right,left,0.0,3.7672,0.0,53.0,53.0,53.0,1.0,2901936407-367476.jpg,2901934573-69337.jpg,A11MOA9HW11EP1
114,3.0,right,right,1.0,3.0385,0.0,54.0,54.0,54.0,1.0,2238436851-238821.jpg,2868475410-213219.jpg,A11MOA9HW11EP1
115,2.0,left,left,1.0,1.8074,0.0,55.0,55.0,55.0,1.0,2862691449-137104.jpg,2986455341-296758.jpg,A11MOA9HW11EP1
116,2.0,left,right,0.0,1.6794,0.0,56.0,56.0,56.0,1.0,2625337302-355866.jpg,2238478760-167789.jpg,A11MOA9HW11EP1
117,2.0,right,left,0.0,2.1259,0.0,57.0,57.0,57.0,1.0,2449442529-124445.jpg,2331570830-189984.jpg,A11MOA9HW11EP1
118,2.0,right,right,1.0,1.6604,0.0,58.0,58.0,58.0,1.0,2237965109-79314.jpg,2883254439-140941.jpg,A11MOA9HW11EP1
119,1.0,right,right,1.0,2.9225,0.0,59.0,59.0,59.0,1.0,2986448334-147157.jpg,2238429999-90218.jpg,A11MOA9HW11EP1
120,1.0,left,left,1.0,21.669,0.0,0.0,0.0,0.0,1.0,2579432576-279079.jpg,2901934574-143126.jpg,A16QH3MFZ9CC4M
121,3.0,right,right,1.0,2.234,0.0,1.0,1.0,1.0,1.0,2575964014-130589.jpg,2883255450-215311.jpg,A16QH3MFZ9CC4M
122,3.0,left,left,1.0,4.95,0.0,2.0,2.0,2.0,1.0,2274829821-263682.jpg,2862687442-360837.jpg,A16QH3MFZ9CC4M
123,1.0,left,left,1.0,3.621,0.0,3.0,3.0,3.0,1.0,2986408352-371293.jpg,2868488422-363713.jpg,A16QH3MFZ9CC4M
124,2.0,right,right,1.0,1.824,0.0,4.0,4.0,4.0,1.0,2512875796-274856.jpg,2964216465-219242.jpg,A16QH3MFZ9CC4M
125,3.0,left,right,0.0,7.737,0.0,5.0,5.0,5.0,1.0,2898632385-217137.jpg,2864904453-63932.jpg,A16QH3MFZ9CC4M
126,3.0,left,right,0.0,1.212,0.0,6.0,6.0,6.0,1.0,2964218374-144968.jpg,2238525773-27014.jpg,A16QH3MFZ9CC4M
127,3.0,right,left,0.0,1.129,0.0,7.0,7.0,7.0,1.0,2237858043-1434.jpg,2898633480-217190.jpg,A16QH3MFZ9CC4M
128,3.0,left,right,0.0,1.025,0.0,8.0,8.0,8.0,1.0,2981231446-294731.jpg,2417207297-342139.jpg,A16QH3MFZ9CC4M
129,2.0,left,left,1.0,1.071,0.0,9.0,9.0,9.0,1.0,2238516618-25604.jpg,2862686459-136888.jpg,A16QH3MFZ9CC4M
130,2.0,right,left,0.0,1.156,0.0,10.0,10.0,10.0,1.0,2238345946-235007.jpg,2901934573-69337.jpg,A16QH3MFZ9CC4M
131,1.0,right,right,1.0,1.298,0.0,11.0,11.0,11.0,1.0,2986397365-221133.jpg,2864906345-212360.jpg,A16QH3MFZ9CC4M
132,2.0,left,left,1.0,1.162,0.0,12.0,12.0,12.0,1.0,2883255450-215309.jpg,2868476439-138927.jpg,A16QH3MFZ9CC4M
133,2.0,right,right,1.0,1.303,0.0,13.0,13.0,13.0,1.0,2860304305-210777.jpg,2238575092-334269.jpg,A16QH3MFZ9CC4M
134,1.0,right,right,1.0,0.799,0.0,14.0,14.0,14.0,1.0,2238433340-164524.jpg,2964213381-294061.jpg,A16QH3MFZ9CC4M
135,2.0,right,left,0.0,1.074,0.0,15.0,15.0,15.0,1.0,2449442365-198476.jpg,2898626385-216899.jpg,A16QH3MFZ9CC4M
136,3.0,left,right,0.0,0.992,0.0,16.0,16.0,16.0,1.0,2898624426-291546.jpg,2864902304-137862.jpg,A16QH3MFZ9CC4M
137,2.0,right,right,1.0,0.908,0.0,17.0,17.0,17.0,1.0,2964213441-294073.jpg,2964224310-219527.jpg,A16QH3MFZ9CC4M
138,3.0,right,right,1.0,1.013,0.0,18.0,18.0,18.0,1.0,2460547992-349586.jpg,2898632385-217138.jpg,A16QH3MFZ9CC4M
139,1.0,right,left,0.0,0.812,0.0,19.0,19.0,19.0,1.0,2417206274-118542.jpg,2994405328-74628.jpg,A16QH3MFZ9CC4M
140,3.0,left,left,1.0,1.197,0.0,20.0,20.0,20.0,1.0,2460547467-349421.jpg,2238554179-106663.jpg,A16QH3MFZ9CC4M
141,1.0,left,left,1.0,0.816,0.0,21.0,21.0,21.0,1.0,2446759803-49249.jpg,2592380177-354629.jpg,A16QH3MFZ9CC4M
142,1.0,left,right,0.0,0.829,0.0,22.0,22.0,22.0,1.0,2452380166-273109.jpg,2452380171-273112.jpg,A16QH3MFZ9CC4M
143,1.0,right,right,1.0,0.779,0.0,23.0,23.0,23.0,1.0,2986419351-296471.jpg,2592380138-56727.jpg,A16QH3MFZ9CC4M
144,3.0,right,right,1.0,1.291,0.0,24.0,24.0,24.0,1.0,2446760306-272024.jpg,2238521193-26286.jpg,A16QH3MFZ9CC4M
145,1.0,right,right,1.0,0.85,0.0,25.0,25.0,25.0,1.0,2579432708-56394.jpg,2901938432-367627.jpg,A16QH3MFZ9CC4M
146,2.0,left,left,1.0,0.877,0.0,26.0,26.0,26.0,1.0,2238584869-113153.jpg,2981241419-145844.jpg,A16QH3MFZ9CC4M
147,1.0,right,left,0.0,0.773,0.0,27.0,27.0,27.0,1.0,2238482972-317759.jpg,2238550049-105691.jpg,A16QH3MFZ9CC4M
148,2.0,left,right,0.0,1.111,0.0,28.0,28.0,28.0,1.0,2512876023-52283.jpg,2898636443-69154.jpg,A16QH3MFZ9CC4M
149,1.0,left,right,0.0,1.325,0.0,29.0,29.0,29.0,1.0,2901941426-292805.jpg,2868488422-363715.jpg,A16QH3MFZ9CC4M
150,3.0,left,right,0.0,0.979,0.0,30.0,30.0,30.0,1.0,2446758985-197609.jpg,2984618344-146295.jpg,A16QH3MFZ9CC4M
151,2.0,right,right,1.0,0.932,0.0,31.0,31.0,31.0,1.0,2238547522-328488.jpg,2575964140-205050.jpg,A16QH3MFZ9CC4M
152,1.0,right,right,1.0,0.88,0.0,32.0,32.0,32.0,1.0,2804906319-133082.jpg,2238480434-93829.jpg,A16QH3MFZ9CC4M
153,3.0,left,left,1.0,0.929,0.0,33.0,33.0,33.0,1.0,2964209380-218956.jpg,2898617396-291219.jpg,A16QH3MFZ9CC4M
154,3.0,left,right,0.0,0.962,0.0,34.0,34.0,34.0,1.0,2238429999-90218.jpg,2964222378-71332.jpg,A16QH3MFZ9CC4M
155,3.0,left,left,1.0,0.633,0.0,35.0,35.0,35.0,1.0,2883254439-140940.jpg,2812983311-281946.jpg,A16QH3MFZ9CC4M
156,2.0,right,right,1.0,1.26,0.0,36.0,36.0,36.0,1.0,2575122854-130480.jpg,2238126735-154721.jpg,A16QH3MFZ9CC4M
157,2.0,right,left,0.0,0.848,0.0,37.0,37.0,37.0,1.0,2868472420-213024.jpg,2868485396-288511.jpg,A16QH3MFZ9CC4M
158,1.0,left,left,1.0,0.963,0.0,38.0,38.0,38.0,1.0,2449442529-124446.jpg,2238481610-168214.jpg,A16QH3MFZ9CC4M
159,1.0,left,right,0.0,1.058,0.0,39.0,39.0,39.0,1.0,2868475410-213219.jpg,2238216693-10721.jpg,A16QH3MFZ9CC4M
160,1.0,left,left,1.0,0.965,0.0,40.0,40.0,40.0,1.0,2238584018-38513.jpg,2449443163-50093.jpg,A16QH3MFZ9CC4M
161,2.0,right,right,1.0,0.982,0.0,41.0,41.0,41.0,1.0,2449442529-124445.jpg,2331570830-189984.jpg,A16QH3MFZ9CC4M
162,2.0,right,right,1.0,0.798,0.0,42.0,42.0,42.0,1.0,2237941457-301342.jpg,2898635427-367120.jpg,A16QH3MFZ9CC4M
163,3.0,left,right,0.0,0.89,0.0,43.0,43.0,43.0,1.0,2625337302-355866.jpg,2598726160-205998.jpg,A16QH3MFZ9CC4M
164,1.0,right,right,1.0,0.658,0.0,44.0,44.0,44.0,1.0,2898631359-142720.jpg,2964213381-294060.jpg,A16QH3MFZ9CC4M
165,3.0,right,left,0.0,1.216,0.0,45.0,45.0,45.0,1.0,2238538133-29662.jpg,2986400320-221190.jpg,A16QH3MFZ9CC4M
166,1.0,right,right,1.0,0.833,0.0,46.0,46.0,46.0,1.0,2874316384-140749.jpg,2864909447-362146.jpg,A16QH3MFZ9CC4M
167,2.0,left,right,0.0,1.393,0.0,47.0,47.0,47.0,1.0,2898617468-68274.jpg,2238585512-336576.jpg,A16QH3MFZ9CC4M
168,2.0,left,right,0.0,1.097,0.0,48.0,48.0,48.0,1.0,2446760940-198145.jpg,2592380188-56743.jpg,A16QH3MFZ9CC4M
169,3.0,left,right,0.0,1.098,0.0,49.0,49.0,49.0,1.0,2238375302-311538.jpg,2460547508-51571.jpg,A16QH3MFZ9CC4M
170,2.0,right,left,0.0,1.065,0.0,50.0,50.0,50.0,1.0,2901936369-143233.jpg,2883272438-68133.jpg,A16QH3MFZ9CC4M
171,1.0,right,left,0.0,1.494,0.0,51.0,51.0,51.0,1.0,2446760621-272103.jpg,2238499155-170911.jpg,A16QH3MFZ9CC4M
172,3.0,right,left,0.0,1.576,0.0,52.0,52.0,52.0,1.0,2238161924-82646.jpg,2238129579-80916.jpg,A16QH3MFZ9CC4M
173,3.0,right,right,1.0,1.332,0.0,53.0,53.0,53.0,1.0,2460547467-349422.jpg,2238496457-319749.jpg,A16QH3MFZ9CC4M
174,2.0,left,right,0.0,1.014,0.0,54.0,54.0,54.0,1.0,2883254439-140941.jpg,2237965109-79314.jpg,A16QH3MFZ9CC4M
175,2.0,left,left,1.0,0.929,0.0,55.0,55.0,55.0,1.0,2446760524-123999.jpg,2238552469-106359.jpg,A16QH3MFZ9CC4M
176,1.0,right,right,1.0,0.644,0.0,56.0,56.0,56.0,1.0,2238540598-30035.jpg,2862691449-137104.jpg,A16QH3MFZ9CC4M
177,1.0,left,left,1.0,0.683,0.0,57.0,57.0,57.0,1.0,2901939379-143479.jpg,2986450334-147215.jpg,A16QH3MFZ9CC4M
178,3.0,left,right,0.0,0.778,0.0,58.0,58.0,58.0,1.0,2238471391-240918.jpg,2986399339-146857.jpg,A16QH3MFZ9CC4M
179,2.0,left,left,1.0,0.863,0.0,59.0,59.0,59.0,1.0,2238561223-33794.jpg,2592380177-354626.jpg,A16QH3MFZ9CC4M
180,2.0,left,right,0.0,3.4276,0.0,0.0,0.0,0.0,1.0,2446760524-123999.jpg,2238552469-106359.jpg,A16TOOYC3QOJVE
181,2.0,right,left,0.0,1.2791,0.0,1.0,1.0,1.0,1.0,2446759580-197801.jpg,2986408352-371293.jpg,A16TOOYC3QOJVE
182,3.0,left,right,0.0,1.3421,0.0,2.0,2.0,2.0,1.0,2864906345-212360.jpg,2994403305-222559.jpg,A16TOOYC3QOJVE
183,2.0,right,right,1.0,1.2406,0.0,3.0,3.0,3.0,1.0,2868485399-139476.jpg,2883255450-215311.jpg,A16TOOYC3QOJVE
184,3.0,right,left,0.0,1.1081,0.0,4.0,4.0,4.0,1.0,2446760917-347439.jpg,2964216465-219242.jpg,A16TOOYC3QOJVE
185,1.0,right,right,1.0,0.7441,0.0,5.0,5.0,5.0,1.0,2446760147-347245.jpg,2898633480-217190.jpg,A16TOOYC3QOJVE
186,3.0,left,right,0.0,1.0629,0.0,6.0,6.0,6.0,1.0,2868485396-288511.jpg,2238380314-88261.jpg,A16TOOYC3QOJVE
187,1.0,left,left,1.0,1.0917,0.0,7.0,7.0,7.0,1.0,2625337302-355866.jpg,2425492472-343825.jpg,A16TOOYC3QOJVE
188,2.0,right,right,1.0,1.0502,0.0,8.0,8.0,8.0,1.0,2430664847-345753.jpg,2592380138-56727.jpg,A16TOOYC3QOJVE
189,3.0,left,right,0.0,0.6174,0.0,9.0,9.0,9.0,1.0,2964218374-144968.jpg,2238525773-27014.jpg,A16TOOYC3QOJVE
190,1.0,right,left,0.0,0.6344,0.0,10.0,10.0,10.0,1.0,2238482972-317759.jpg,2238550049-105691.jpg,A16TOOYC3QOJVE
191,2.0,left,right,0.0,0.6164,0.0,11.0,11.0,11.0,1.0,2238129579-80916.jpg,2898618444-142233.jpg,A16TOOYC3QOJVE
192,1.0,right,left,0.0,1.0667,0.0,12.0,12.0,12.0,1.0,2986402377-371266.jpg,2898624426-291546.jpg,A16TOOYC3QOJVE
193,2.0,left,left,1.0,1.3639,0.0,13.0,13.0,13.0,1.0,2901941426-292805.jpg,2238510189-98616.jpg,A16TOOYC3QOJVE
194,1.0,right,right,1.0,1.0144,0.0,14.0,14.0,14.0,1.0,2874316384-140749.jpg,2864909447-362146.jpg,A16TOOYC3QOJVE
195,3.0,right,right,1.0,1.5921,0.0,15.0,15.0,15.0,1.0,2901936407-367476.jpg,2901934573-69337.jpg,A16TOOYC3QOJVE
196,2.0,right,right,1.0,1.1169,0.0,16.0,16.0,16.0,1.0,2238470079-92499.jpg,2460547467-349421.jpg,A16TOOYC3QOJVE
197,3.0,right,right,1.0,1.4373,0.0,17.0,17.0,17.0,1.0,2238328478-11678.jpg,2862691449-137104.jpg,A16TOOYC3QOJVE
198,3.0,left,left,1.0,1.3578,0.0,18.0,18.0,18.0,1.0,2964213381-294061.jpg,2989721347-371917.jpg,A16TOOYC3QOJVE
199,3.0,right,right,1.0,0.5837,0.0,19.0,19.0,19.0,1.0,2446760306-272024.jpg,2238521193-26286.jpg,A16TOOYC3QOJVE
200,1.0,right,right,1.0,1.4557,0.0,20.0,20.0,20.0,1.0,2512875899-126682.jpg,2898617468-68274.jpg,A16TOOYC3QOJVE
201,3.0,left,left,1.0,1.0464,0.0,21.0,21.0,21.0,1.0,2901939379-143479.jpg,2864909422-362141.jpg,A16TOOYC3QOJVE
202,3.0,left,left,1.0,1.3152,0.0,22.0,22.0,22.0,1.0,2901938432-367627.jpg,2424122568-45517.jpg,A16TOOYC3QOJVE
203,3.0,left,right,0.0,1.2239,0.0,23.0,23.0,23.0,1.0,2883272438-68133.jpg,2592380136-279476.jpg,A16TOOYC3QOJVE
204,3.0,left,left,1.0,1.303,0.0,24.0,24.0,24.0,1.0,2238584869-113153.jpg,2986455373-73646.jpg,A16TOOYC3QOJVE
205,1.0,right,right,1.0,0.9247,0.0,25.0,25.0,25.0,1.0,2856919327-359676.jpg,2238126735-154721.jpg,A16TOOYC3QOJVE
206,2.0,left,right,0.0,1.0575,0.0,26.0,26.0,26.0,1.0,2238516618-25604.jpg,2862686459-136888.jpg,A16TOOYC3QOJVE
207,3.0,right,left,0.0,0.4723,0.0,27.0,27.0,27.0,1.0,2898618440-216545.jpg,2898626385-216899.jpg,A16TOOYC3QOJVE
208,2.0,right,left,0.0,0.4877,0.0,28.0,28.0,28.0,1.0,2238468265-166556.jpg,2446759803-49249.jpg,A16TOOYC3QOJVE
209,2.0,left,right,0.0,0.8158,0.0,29.0,29.0,29.0,1.0,2452380166-273109.jpg,2592379781-279345.jpg,A16TOOYC3QOJVE
210,1.0,right,right,1.0,0.8769,0.0,30.0,30.0,30.0,1.0,2446760621-272103.jpg,2238499155-170911.jpg,A16TOOYC3QOJVE
211,3.0,right,left,0.0,0.6935,0.0,31.0,31.0,31.0,1.0,2460547992-349586.jpg,2898632385-217138.jpg,A16TOOYC3QOJVE
212,2.0,right,right,1.0,0.9,0.0,32.0,32.0,32.0,1.0,2898631429-142736.jpg,2964209380-218956.jpg,A16TOOYC3QOJVE
213,3.0,left,right,0.0,0.7844,0.0,33.0,33.0,33.0,1.0,2238561223-33794.jpg,2883271323-68049.jpg,A16TOOYC3QOJVE
214,3.0,left,left,1.0,0.3112,0.0,34.0,34.0,34.0,1.0,2238496457-319749.jpg,2460547467-349422.jpg,A16TOOYC3QOJVE
215,2.0,right,left,0.0,0.6414,0.0,35.0,35.0,35.0,1.0,2898636443-69154.jpg,2512876023-52283.jpg,A16TOOYC3QOJVE
216,2.0,right,left,0.0,0.7246,0.0,36.0,36.0,36.0,1.0,2868476439-138927.jpg,2883255450-215309.jpg,A16TOOYC3QOJVE
217,2.0,right,right,1.0,0.628,0.0,37.0,37.0,37.0,1.0,2446758985-197610.jpg,2274829821-263682.jpg,A16TOOYC3QOJVE
218,2.0,right,left,0.0,0.9545,0.0,38.0,38.0,38.0,1.0,2238568685-183597.jpg,2981231446-294731.jpg,A16TOOYC3QOJVE
219,1.0,right,right,1.0,0.9048,0.0,39.0,39.0,39.0,1.0,2417206274-118542.jpg,2994405328-74628.jpg,A16TOOYC3QOJVE
220,1.0,right,right,1.0,0.8318,0.0,40.0,40.0,40.0,1.0,2898631359-142720.jpg,2964213381-294060.jpg,A16TOOYC3QOJVE
221,2.0,left,left,1.0,0.6009,0.0,41.0,41.0,41.0,1.0,2238575092-334269.jpg,2860304305-210777.jpg,A16TOOYC3QOJVE
222,2.0,right,left,0.0,0.9688,0.0,42.0,42.0,42.0,1.0,2592380188-56743.jpg,2446760940-198145.jpg,A16TOOYC3QOJVE
223,1.0,left,right,0.0,0.8234,0.0,43.0,43.0,43.0,1.0,2238471391-240918.jpg,2868470400-212889.jpg,A16TOOYC3QOJVE
224,3.0,left,right,0.0,0.7847,0.0,44.0,44.0,44.0,1.0,2575964140-205050.jpg,2446760226-272005.jpg,A16TOOYC3QOJVE
225,3.0,right,right,1.0,2.1988,0.0,45.0,45.0,45.0,1.0,2458348012-349114.jpg,2331570830-189984.jpg,A16TOOYC3QOJVE
226,1.0,left,left,1.0,0.3484,0.0,46.0,46.0,46.0,1.0,2964224310-219527.jpg,2238380178-14011.jpg,A16TOOYC3QOJVE
227,3.0,left,left,1.0,1.2703,0.0,47.0,47.0,47.0,1.0,2898635427-367120.jpg,2901936309-143207.jpg,A16TOOYC3QOJVE
228,3.0,left,left,1.0,0.9198,0.0,48.0,48.0,48.0,1.0,2238375302-311538.jpg,2460547508-51571.jpg,A16TOOYC3QOJVE
229,1.0,right,right,1.0,0.6411,0.0,49.0,49.0,49.0,1.0,2238216693-10721.jpg,2868475410-213219.jpg,A16TOOYC3QOJVE
230,1.0,left,right,0.0,1.0056,0.0,50.0,50.0,50.0,1.0,2238584018-38513.jpg,2449443163-50093.jpg,A16TOOYC3QOJVE
231,1.0,right,left,0.0,0.6396,0.0,51.0,51.0,51.0,1.0,2452380166-273110.jpg,2883254439-140940.jpg,A16TOOYC3QOJVE
232,2.0,right,right,1.0,0.6591,0.0,52.0,52.0,52.0,1.0,2901951459-144433.jpg,2238429999-90218.jpg,A16TOOYC3QOJVE
233,2.0,right,left,0.0,0.8012,0.0,53.0,53.0,53.0,1.0,2238480803-19739.jpg,2898632385-217137.jpg,A16TOOYC3QOJVE
234,2.0,left,left,1.0,0.9777,0.0,54.0,54.0,54.0,1.0,2449442529-124446.jpg,2868469458-64561.jpg,A16TOOYC3QOJVE
235,1.0,right,right,1.0,0.9661,0.0,55.0,55.0,55.0,1.0,2901934574-143126.jpg,2579432576-279079.jpg,A16TOOYC3QOJVE
236,1.0,left,left,1.0,1.2016,0.0,56.0,56.0,56.0,1.0,2986400320-221190.jpg,2989727350-222011.jpg,A16TOOYC3QOJVE
237,1.0,right,right,1.0,0.6328,0.0,57.0,57.0,57.0,1.0,2989724308-73928.jpg,2883254439-140941.jpg,A16TOOYC3QOJVE
238,1.0,right,left,0.0,0.4952,0.0,58.0,58.0,58.0,1.0,2804906319-133082.jpg,2238480434-93829.jpg,A16TOOYC3QOJVE
239,1.0,left,right,0.0,1.8339,0.0,59.0,59.0,59.0,1.0,2446758985-197609.jpg,2898633421-291973.jpg,A16TOOYC3QOJVE
240,2.0,right,right,1.0,1.7819,0.0,0.0,0.0,0.0,1.0,2238568685-183597.jpg,2981231446-294731.jpg,A1969Q0R4Y0E3J
241,1.0,left,left,1.0,2.4278,0.0,1.0,1.0,1.0,1.0,2898632385-217137.jpg,2238360884-87525.jpg,A1969Q0R4Y0E3J
242,1.0,right,right,1.0,3.7123,0.0,2.0,2.0,2.0,1.0,2449443300-198739.jpg,2446760940-198145.jpg,A1969Q0R4Y0E3J
243,3.0,right,right,1.0,2.4457,0.0,3.0,3.0,3.0,1.0,2238161924-82646.jpg,2238129579-80916.jpg,A1969Q0R4Y0E3J
244,1.0,left,left,1.0,1.1501,0.0,4.0,4.0,4.0,1.0,2898633480-217190.jpg,2446760147-347245.jpg,A1969Q0R4Y0E3J
245,3.0,left,left,1.0,1.7594,0.0,5.0,5.0,5.0,1.0,2964209380-218956.jpg,2898617396-291219.jpg,A1969Q0R4Y0E3J
246,3.0,left,left,1.0,1.2281,0.0,6.0,6.0,6.0,1.0,2898624426-291546.jpg,2864902304-137862.jpg,A1969Q0R4Y0E3J
247,2.0,right,right,1.0,1.1941,0.0,7.0,7.0,7.0,1.0,2856919327-359675.jpg,2901938432-367627.jpg,A1969Q0R4Y0E3J
248,1.0,left,left,1.0,1.444,0.0,8.0,8.0,8.0,1.0,2238429999-90218.jpg,2986448334-147157.jpg,A1969Q0R4Y0E3J
249,2.0,left,left,1.0,1.5963,0.0,9.0,9.0,9.0,1.0,2964213381-294061.jpg,2981234334-145491.jpg,A1969Q0R4Y0E3J
250,3.0,right,right,1.0,1.5455,0.0,10.0,10.0,10.0,1.0,2238525773-27014.jpg,2964218374-144968.jpg,A1969Q0R4Y0E3J
251,2.0,left,right,0.0,1.9925,0.0,11.0,11.0,11.0,1.0,2883272438-68133.jpg,2901936369-143233.jpg,A1969Q0R4Y0E3J
252,2.0,right,left,0.0,1.6605,0.0,12.0,12.0,12.0,1.0,2238510189-98616.jpg,2901941426-292805.jpg,A1969Q0R4Y0E3J
253,3.0,right,right,1.0,2.9087,0.0,13.0,13.0,13.0,1.0,2238470979-92618.jpg,2238516618-25604.jpg,A1969Q0R4Y0E3J
254,2.0,left,left,1.0,0.9777,0.0,14.0,14.0,14.0,1.0,2446758985-197609.jpg,2635396318-58409.jpg,A1969Q0R4Y0E3J
255,1.0,right,right,1.0,2.1949,0.0,15.0,15.0,15.0,1.0,2898631359-142720.jpg,2964213381-294060.jpg,A1969Q0R4Y0E3J
256,2.0,right,left,0.0,1.1159,0.0,16.0,16.0,16.0,1.0,2446760226-272006.jpg,2579432576-279079.jpg,A1969Q0R4Y0E3J
257,2.0,right,right,1.0,1.5103,0.0,17.0,17.0,17.0,1.0,2986455341-296758.jpg,2862691449-137104.jpg,A1969Q0R4Y0E3J
258,3.0,right,right,1.0,0.7934,0.0,18.0,18.0,18.0,1.0,2575964014-130589.jpg,2883255450-215311.jpg,A1969Q0R4Y0E3J
259,2.0,left,left,1.0,1.6942,0.0,19.0,19.0,19.0,1.0,2238499155-170911.jpg,2452380832-348593.jpg,A1969Q0R4Y0E3J
260,1.0,right,right,1.0,1.0289,0.0,20.0,20.0,20.0,1.0,2592380285-205564.jpg,2238575092-334269.jpg,A1969Q0R4Y0E3J
261,2.0,right,left,0.0,0.9774,0.0,21.0,21.0,21.0,1.0,2981241419-145844.jpg,2238584869-113153.jpg,A1969Q0R4Y0E3J
262,3.0,left,right,0.0,0.8104,0.0,22.0,22.0,22.0,1.0,2238126735-154721.jpg,2901951430-218724.jpg,A1969Q0R4Y0E3J
263,1.0,left,right,0.0,1.2939,0.0,23.0,23.0,23.0,1.0,2964224310-219527.jpg,2238380178-14011.jpg,A1969Q0R4Y0E3J
264,2.0,left,right,0.0,1.1116,0.0,24.0,24.0,24.0,1.0,2592380138-56727.jpg,2430664847-345753.jpg,A1969Q0R4Y0E3J
265,3.0,left,left,1.0,2.4102,0.0,25.0,25.0,25.0,1.0,2901934573-69337.jpg,2901936407-367476.jpg,A1969Q0R4Y0E3J
266,2.0,left,left,1.0,0.6644,0.0,26.0,26.0,26.0,1.0,2898635427-367120.jpg,2237941457-301342.jpg,A1969Q0R4Y0E3J
267,1.0,left,right,0.0,1.2594,0.0,27.0,27.0,27.0,1.0,2238561223-33794.jpg,2238506233-23904.jpg,A1969Q0R4Y0E3J
268,3.0,right,left,0.0,1.1165,0.0,28.0,28.0,28.0,1.0,2238479903-19596.jpg,2238480434-93829.jpg,A1969Q0R4Y0E3J
269,1.0,right,left,0.0,1.2146,0.0,29.0,29.0,29.0,1.0,2868488422-363713.jpg,2986408352-371293.jpg,A1969Q0R4Y0E3J
270,2.0,right,right,1.0,1.0428,0.0,30.0,30.0,30.0,1.0,2868476439-138927.jpg,2883255450-215309.jpg,A1969Q0R4Y0E3J
271,1.0,right,right,1.0,1.5272,0.0,31.0,31.0,31.0,1.0,2452380171-273112.jpg,2452380166-273109.jpg,A1969Q0R4Y0E3J
272,1.0,left,left,1.0,0.7785,0.0,32.0,32.0,32.0,1.0,2460547467-349421.jpg,2901934573-69336.jpg,A1969Q0R4Y0E3J
273,2.0,right,right,1.0,0.679,0.0,33.0,33.0,33.0,1.0,2238555799-106905.jpg,2864909447-362146.jpg,A1969Q0R4Y0E3J
274,3.0,right,left,0.0,1.0938,0.0,34.0,34.0,34.0,1.0,2460547508-51571.jpg,2238375302-311538.jpg,A1969Q0R4Y0E3J
275,3.0,right,left,0.0,2.227,0.0,35.0,35.0,35.0,1.0,2458348012-349114.jpg,2331570830-189984.jpg,A1969Q0R4Y0E3J
276,1.0,left,right,0.0,2.0765,0.0,36.0,36.0,36.0,1.0,2898626385-216899.jpg,2989715328-73658.jpg,A1969Q0R4Y0E3J
277,2.0,right,left,0.0,0.8623,0.0,37.0,37.0,37.0,1.0,2898636443-69154.jpg,2512876023-52283.jpg,A1969Q0R4Y0E3J
278,3.0,left,right,0.0,1.6276,0.0,38.0,38.0,38.0,1.0,2868485396-288511.jpg,2238380314-88261.jpg,A1969Q0R4Y0E3J
279,2.0,left,right,0.0,1.295,0.0,39.0,39.0,39.0,1.0,2238471391-240918.jpg,2901943388-69995.jpg,A1969Q0R4Y0E3J
280,1.0,right,right,1.0,1.543,0.0,40.0,40.0,40.0,1.0,2417206274-118542.jpg,2994405328-74628.jpg,A1969Q0R4Y0E3J
281,1.0,left,left,1.0,0.7263,0.0,41.0,41.0,41.0,1.0,2901939379-143479.jpg,2986450334-147215.jpg,A1969Q0R4Y0E3J
282,1.0,right,right,1.0,0.9948,0.0,42.0,42.0,42.0,1.0,2512875899-126682.jpg,2898617468-68274.jpg,A1969Q0R4Y0E3J
283,3.0,left,left,1.0,0.9782,0.0,43.0,43.0,43.0,1.0,2446760524-123999.jpg,2238539138-29878.jpg,A1969Q0R4Y0E3J
284,3.0,left,left,1.0,1.1958,0.0,44.0,44.0,44.0,1.0,2449442529-124446.jpg,2864911339-138231.jpg,A1969Q0R4Y0E3J
285,1.0,right,left,0.0,1.3432,0.0,45.0,45.0,45.0,1.0,2825712309-134957.jpg,2238521193-26286.jpg,A1969Q0R4Y0E3J
286,3.0,left,right,0.0,1.2611,0.0,46.0,46.0,46.0,1.0,2964216465-219242.jpg,2446760917-347439.jpg,A1969Q0R4Y0E3J
287,2.0,left,left,1.0,0.727,0.0,47.0,47.0,47.0,1.0,2898632385-217138.jpg,2273188118-40829.jpg,A1969Q0R4Y0E3J
288,3.0,left,left,1.0,0.7454,0.0,48.0,48.0,48.0,1.0,2446759803-49249.jpg,2238498786-244797.jpg,A1969Q0R4Y0E3J
289,3.0,left,left,1.0,2.3777,0.0,49.0,49.0,49.0,1.0,2868475410-213219.jpg,2238436851-238821.jpg,A1969Q0R4Y0E3J
290,1.0,left,left,1.0,1.6939,0.0,50.0,50.0,50.0,1.0,2625337302-355866.jpg,2425492472-343825.jpg,A1969Q0R4Y0E3J
291,2.0,right,right,1.0,1.1445,0.0,51.0,51.0,51.0,1.0,2237965109-79314.jpg,2883254439-140941.jpg,A1969Q0R4Y0E3J
292,1.0,left,left,1.0,1.0767,0.0,52.0,52.0,52.0,1.0,2864906345-212360.jpg,2986397365-221133.jpg,A1969Q0R4Y0E3J
293,2.0,left,right,0.0,0.8609,0.0,53.0,53.0,53.0,1.0,2274829821-263682.jpg,2446758985-197610.jpg,A1969Q0R4Y0E3J
294,3.0,right,left,0.0,0.9117,0.0,54.0,54.0,54.0,1.0,2446760226-272005.jpg,2575964140-205050.jpg,A1969Q0R4Y0E3J
295,2.0,right,right,1.0,1.1813,0.0,55.0,55.0,55.0,1.0,2449443271-272729.jpg,2238550049-105691.jpg,A1969Q0R4Y0E3J
296,1.0,left,left,1.0,1.6941,0.0,56.0,56.0,56.0,1.0,2238584018-38513.jpg,2449443163-50093.jpg,A1969Q0R4Y0E3J
297,3.0,right,left,0.0,0.8948,0.0,57.0,57.0,57.0,1.0,2460547467-349422.jpg,2238496457-319749.jpg,A1969Q0R4Y0E3J
298,1.0,left,right,0.0,0.8969,0.0,58.0,58.0,58.0,1.0,2883254439-140940.jpg,2452380166-273110.jpg,A1969Q0R4Y0E3J
299,3.0,right,left,0.0,1.3495,0.0,59.0,59.0,59.0,1.0,2238538133-29662.jpg,2986400320-221190.jpg,A1969Q0R4Y0E3J
300,3.0,left,right,0.0,1.567700001,0.0,0.0,0.0,0.0,1.0,2512876023-52283.jpg,2238576267-334532.jpg,A1DXDFRHO1A157
301,2.0,left,left,1.0,0.916,0.0,1.0,1.0,1.0,1.0,2986408352-371293.jpg,2446759580-197801.jpg,A1DXDFRHO1A157
302,2.0,left,left,1.0,3.7895,0.0,2.0,2.0,2.0,1.0,2592380138-56727.jpg,2430664847-345753.jpg,A1DXDFRHO1A157
303,1.0,right,right,1.0,1.025200001,0.0,3.0,3.0,3.0,1.0,2446760483-49429.jpg,2331570830-189984.jpg,A1DXDFRHO1A157
304,2.0,left,right,0.0,1.4635,0.0,4.0,4.0,4.0,1.0,2579432576-279079.jpg,2446760226-272006.jpg,A1DXDFRHO1A157
305,2.0,right,right,1.0,1.1536,0.0,5.0,5.0,5.0,1.0,2862686459-136888.jpg,2238516618-25604.jpg,A1DXDFRHO1A157
306,1.0,right,left,0.0,1.024099998,0.0,6.0,6.0,6.0,1.0,2825712309-134957.jpg,2238521193-26286.jpg,A1DXDFRHO1A157
307,2.0,left,right,0.0,0.744,0.0,7.0,7.0,7.0,1.0,2898624426-291546.jpg,2549106844-127878.jpg,A1DXDFRHO1A157
308,1.0,right,left,0.0,1.030700001,0.0,8.0,8.0,8.0,1.0,2874316384-140749.jpg,2864909447-362146.jpg,A1DXDFRHO1A157
309,3.0,left,right,0.0,1.019,0.0,9.0,9.0,9.0,1.0,2238375302-311538.jpg,2460547508-51571.jpg,A1DXDFRHO1A157
310,2.0,right,left,0.0,1.3379,0.0,10.0,10.0,10.0,1.0,2449442365-198476.jpg,2898626385-216899.jpg,A1DXDFRHO1A157
311,3.0,right,right,1.0,0.593300001,0.0,11.0,11.0,11.0,1.0,2452381442-348755.jpg,2238584018-38513.jpg,A1DXDFRHO1A157
312,1.0,left,left,1.0,0.5765,0.0,12.0,12.0,12.0,1.0,2964216465-219242.jpg,2592380049-131079.jpg,A1DXDFRHO1A157
313,1.0,left,right,0.0,0.850099998,0.0,13.0,13.0,13.0,1.0,2964224310-219527.jpg,2238380178-14011.jpg,A1DXDFRHO1A157
314,2.0,right,left,0.0,0.298700001,0.0,14.0,14.0,14.0,1.0,2238521157-323782.jpg,2964218374-144968.jpg,A1DXDFRHO1A157
315,2.0,right,right,1.0,0.872800001,0.0,15.0,15.0,15.0,1.0,2449443271-272729.jpg,2238550049-105691.jpg,A1DXDFRHO1A157
316,1.0,right,right,1.0,3.0404,0.0,16.0,16.0,16.0,1.0,2238481610-168214.jpg,2449442529-124446.jpg,A1DXDFRHO1A157
317,3.0,right,left,0.0,0.732199999,0.0,17.0,17.0,17.0,1.0,2417207297-342139.jpg,2981231446-294731.jpg,A1DXDFRHO1A157
318,1.0,left,right,0.0,1.3035,0.0,18.0,18.0,18.0,1.0,2864906345-212360.jpg,2986397365-221133.jpg,A1DXDFRHO1A157
319,2.0,right,left,0.0,0.7165,0.0,19.0,19.0,19.0,1.0,2238470979-92615.jpg,2986400320-221190.jpg,A1DXDFRHO1A157
320,2.0,right,right,1.0,0.7411,0.0,20.0,20.0,20.0,1.0,2238470079-92499.jpg,2460547467-349421.jpg,A1DXDFRHO1A157
321,3.0,left,left,1.0,0.575799999,0.0,21.0,21.0,21.0,1.0,2238496457-319749.jpg,2460547467-349422.jpg,A1DXDFRHO1A157
322,1.0,left,right,0.0,0.7284,0.0,22.0,22.0,22.0,1.0,2446760524-123999.jpg,2446760621-272102.jpg,A1DXDFRHO1A157
323,1.0,left,left,1.0,0.5979,0.0,23.0,23.0,23.0,1.0,2625337302-355866.jpg,2425492472-343825.jpg,A1DXDFRHO1A157
324,3.0,right,right,1.0,0.718,0.0,24.0,24.0,24.0,1.0,2238479903-19596.jpg,2238480434-93829.jpg,A1DXDFRHO1A157
325,1.0,left,left,1.0,1.2999,0.0,25.0,25.0,25.0,1.0,2238575092-334269.jpg,2592380285-205564.jpg,A1DXDFRHO1A157
326,1.0,right,right,1.0,1.7059,0.0,26.0,26.0,26.0,1.0,2898633421-291973.jpg,2446758985-197609.jpg,A1DXDFRHO1A157
327,1.0,right,left,0.0,1.006800001,0.0,27.0,27.0,27.0,1.0,2868470456-287597.jpg,2868485396-288511.jpg,A1DXDFRHO1A157
328,1.0,left,right,0.0,0.8451,0.0,28.0,28.0,28.0,1.0,2238126735-154721.jpg,2856919327-359676.jpg,A1DXDFRHO1A157
329,1.0,right,left,0.0,0.565700001,0.0,29.0,29.0,29.0,1.0,2238570526-257884.jpg,2274829821-263682.jpg,A1DXDFRHO1A157
330,3.0,right,right,1.0,1.1329,0.0,30.0,30.0,30.0,1.0,2883273443-68192.jpg,2994405328-74628.jpg,A1DXDFRHO1A157
331,3.0,left,left,1.0,0.7229,0.0,31.0,31.0,31.0,1.0,2898632385-217138.jpg,2460547992-349586.jpg,A1DXDFRHO1A157
332,2.0,right,right,1.0,1.0429,0.0,32.0,32.0,32.0,1.0,2592379781-279345.jpg,2452380166-273109.jpg,A1DXDFRHO1A157
333,1.0,left,left,1.0,1.3166,0.0,33.0,33.0,33.0,1.0,2898633480-217190.jpg,2446760147-347245.jpg,A1DXDFRHO1A157
334,1.0,right,right,1.0,0.8891,0.0,34.0,34.0,34.0,1.0,2238482920-168428.jpg,2575964140-205050.jpg,A1DXDFRHO1A157
335,3.0,right,left,0.0,0.897799999,0.0,35.0,35.0,35.0,1.0,2989721347-371917.jpg,2964213381-294061.jpg,A1DXDFRHO1A157
336,3.0,left,right,0.0,0.993200001,0.0,36.0,36.0,36.0,1.0,2883255450-215309.jpg,2238562336-256366.jpg,A1DXDFRHO1A157
337,3.0,left,left,1.0,1.1685,0.0,37.0,37.0,37.0,1.0,2901939379-143479.jpg,2864909422-362141.jpg,A1DXDFRHO1A157
338,2.0,left,right,0.0,0.744700001,0.0,38.0,38.0,38.0,1.0,2238584869-113153.jpg,2981241419-145844.jpg,A1DXDFRHO1A157
339,3.0,right,left,0.0,1.329200001,0.0,39.0,39.0,39.0,1.0,2446760692-347392.jpg,2446760940-198145.jpg,A1DXDFRHO1A157
340,2.0,right,right,1.0,0.5744,0.0,40.0,40.0,40.0,1.0,2238468265-166556.jpg,2446759803-49249.jpg,A1DXDFRHO1A157
341,1.0,left,left,1.0,0.5795,0.0,41.0,41.0,41.0,1.0,2238561223-33794.jpg,2238506233-23904.jpg,A1DXDFRHO1A157
342,2.0,left,right,0.0,0.894,0.0,42.0,42.0,42.0,1.0,2898617468-68274.jpg,2238585512-336576.jpg,A1DXDFRHO1A157
343,2.0,right,left,0.0,1.0311,0.0,43.0,43.0,43.0,1.0,2898618444-142233.jpg,2238129579-80916.jpg,A1DXDFRHO1A157
344,1.0,left,right,0.0,1.1806,0.0,44.0,44.0,44.0,1.0,2898632385-217137.jpg,2238360884-87525.jpg,A1DXDFRHO1A157
345,2.0,right,left,0.0,1.0011,0.0,45.0,45.0,45.0,1.0,2575121890-204630.jpg,2883254439-140940.jpg,A1DXDFRHO1A157
346,3.0,left,right,0.0,0.7669,0.0,46.0,46.0,46.0,1.0,2883255450-215311.jpg,2575964014-130589.jpg,A1DXDFRHO1A157
347,1.0,right,left,0.0,1.566,0.0,47.0,47.0,47.0,1.0,2238216693-10721.jpg,2868475410-213219.jpg,A1DXDFRHO1A157
348,3.0,left,right,0.0,0.581199999,0.0,48.0,48.0,48.0,1.0,2883272438-68133.jpg,2592380136-279476.jpg,A1DXDFRHO1A157
349,3.0,left,left,1.0,0.718299999,0.0,49.0,49.0,49.0,1.0,2862691449-137104.jpg,2238328478-11678.jpg,A1DXDFRHO1A157
350,2.0,left,right,0.0,0.59,0.0,50.0,50.0,50.0,1.0,2238429999-90218.jpg,2901951459-144433.jpg,A1DXDFRHO1A157
351,3.0,right,left,0.0,0.592900002,0.0,51.0,51.0,51.0,1.0,2989724308-73930.jpg,2964213381-294060.jpg,A1DXDFRHO1A157
352,3.0,left,right,0.0,0.593200001,0.0,52.0,52.0,52.0,1.0,2901941426-292805.jpg,2901945303-70125.jpg,A1DXDFRHO1A157
353,2.0,left,left,1.0,0.746700001,0.0,53.0,53.0,53.0,1.0,2898635427-367120.jpg,2237941457-301342.jpg,A1DXDFRHO1A157
354,3.0,left,right,0.0,0.735299999,0.0,54.0,54.0,54.0,1.0,2238471391-240918.jpg,2986399339-146857.jpg,A1DXDFRHO1A157
355,1.0,left,left,1.0,0.589,0.0,55.0,55.0,55.0,1.0,2238499155-170911.jpg,2446760621-272103.jpg,A1DXDFRHO1A157
356,2.0,right,right,1.0,0.832299999,0.0,56.0,56.0,56.0,1.0,2856919327-359675.jpg,2901938432-367627.jpg,A1DXDFRHO1A157
357,2.0,left,left,1.0,0.5665,0.0,57.0,57.0,57.0,1.0,2883254439-140941.jpg,2237965109-79314.jpg,A1DXDFRHO1A157
358,3.0,right,right,1.0,1.037699999,0.0,58.0,58.0,58.0,1.0,2898617396-291219.jpg,2964209380-218956.jpg,A1DXDFRHO1A157
359,3.0,left,left,1.0,0.728699999,0.0,59.0,59.0,59.0,1.0,2901934573-69337.jpg,2901936407-367476.jpg,A1DXDFRHO1A157
360,3.0,right,left,0.0,3.08,0.0,0.0,0.0,0.0,1.0,2883271323-68049.jpg,2238561223-33794.jpg,A1FCTM2O25QKL2
361,2.0,left,left,1.0,2.07,0.0,1.0,1.0,1.0,1.0,2898635427-367120.jpg,2237941457-301342.jpg,A1FCTM2O25QKL2
362,1.0,left,right,0.0,1.524,0.0,2.0,2.0,2.0,1.0,2446760524-123999.jpg,2446760621-272102.jpg,A1FCTM2O25QKL2
363,3.0,left,left,1.0,1.46,0.0,3.0,3.0,3.0,1.0,2964213381-294061.jpg,2989721347-371917.jpg,A1FCTM2O25QKL2
364,3.0,right,right,1.0,1.241,0.0,4.0,4.0,4.0,1.0,2989724308-73930.jpg,2964213381-294060.jpg,A1FCTM2O25QKL2
365,2.0,right,right,1.0,1.506,0.0,5.0,5.0,5.0,1.0,2592380188-56743.jpg,2446760940-198145.jpg,A1FCTM2O25QKL2
366,1.0,left,left,1.0,1.488,0.0,6.0,6.0,6.0,1.0,2238480434-93829.jpg,2804906319-133082.jpg,A1FCTM2O25QKL2
367,2.0,right,right,1.0,1.259,0.0,7.0,7.0,7.0,1.0,2592380234-131135.jpg,2238496457-319749.jpg,A1FCTM2O25QKL2
368,2.0,right,right,1.0,1.394,0.0,8.0,8.0,8.0,1.0,2449443292-348022.jpg,2901939379-143479.jpg,A1FCTM2O25QKL2
369,1.0,right,right,1.0,1.835,0.0,9.0,9.0,9.0,1.0,2238481610-168214.jpg,2449442529-124446.jpg,A1FCTM2O25QKL2
370,2.0,left,left,1.0,2.062,0.0,10.0,10.0,10.0,1.0,2964216465-219242.jpg,2512875796-274856.jpg,A1FCTM2O25QKL2
371,3.0,right,right,1.0,1.877,0.0,11.0,11.0,11.0,1.0,2238490590-169598.jpg,2964224310-219527.jpg,A1FCTM2O25QKL2
372,2.0,right,right,1.0,1.61,0.0,12.0,12.0,12.0,1.0,2868485399-139476.jpg,2883255450-215311.jpg,A1FCTM2O25QKL2
373,1.0,right,right,1.0,1.573,0.0,13.0,13.0,13.0,1.0,2452380166-273110.jpg,2883254439-140940.jpg,A1FCTM2O25QKL2
374,3.0,right,right,1.0,1.849,0.0,14.0,14.0,14.0,1.0,2238538133-29662.jpg,2986400320-221190.jpg,A1FCTM2O25QKL2
375,3.0,left,left,1.0,1.36,0.0,15.0,15.0,15.0,1.0,2592380138-56727.jpg,2238537701-251772.jpg,A1FCTM2O25QKL2
376,3.0,right,left,0.0,1.359,0.0,16.0,16.0,16.0,1.0,2864904453-63932.jpg,2898632385-217137.jpg,A1FCTM2O25QKL2
377,2.0,right,left,0.0,1.94,0.0,17.0,17.0,17.0,1.0,2238547522-328488.jpg,2575964140-205050.jpg,A1FCTM2O25QKL2
378,3.0,right,right,1.0,1.551,0.0,18.0,18.0,18.0,1.0,2417207297-342139.jpg,2981231446-294731.jpg,A1FCTM2O25QKL2
379,2.0,right,left,0.0,1.504,0.0,19.0,19.0,19.0,1.0,2446758985-197610.jpg,2274829821-263682.jpg,A1FCTM2O25QKL2
380,3.0,right,left,0.0,1.641,0.0,20.0,20.0,20.0,1.0,2458348012-349114.jpg,2331570830-189984.jpg,A1FCTM2O25QKL2
381,3.0,left,left,1.0,1.154,0.0,21.0,21.0,21.0,1.0,2446758985-197609.jpg,2984618344-146295.jpg,A1FCTM2O25QKL2
382,1.0,left,left,1.0,1.575,0.0,22.0,22.0,22.0,1.0,2864909447-362146.jpg,2874316384-140749.jpg,A1FCTM2O25QKL2
383,1.0,right,right,1.0,1.393,0.0,23.0,23.0,23.0,1.0,2989724308-73928.jpg,2883254439-140941.jpg,A1FCTM2O25QKL2
384,1.0,right,left,0.0,1.613,0.0,24.0,24.0,24.0,1.0,2238482972-317759.jpg,2238550049-105691.jpg,A1FCTM2O25QKL2
385,2.0,left,right,0.0,3.516,0.0,25.0,25.0,25.0,1.0,2868485396-288511.jpg,2868472420-213024.jpg,A1FCTM2O25QKL2
386,2.0,right,left,0.0,1.504,0.0,26.0,26.0,26.0,1.0,2446760226-272006.jpg,2579432576-279079.jpg,A1FCTM2O25QKL2
387,1.0,right,left,0.0,1.37,0.0,27.0,27.0,27.0,1.0,2446760621-272103.jpg,2238499155-170911.jpg,A1FCTM2O25QKL2
388,2.0,left,right,0.0,2.38,0.0,28.0,28.0,28.0,1.0,2625337302-355866.jpg,2238478760-167789.jpg,A1FCTM2O25QKL2
389,3.0,left,right,0.0,1.744,0.0,29.0,29.0,29.0,1.0,2994405328-74628.jpg,2883273443-68192.jpg,A1FCTM2O25QKL2
390,3.0,left,left,1.0,1.481,0.0,30.0,30.0,30.0,1.0,2898633480-217190.jpg,2237858043-1434.jpg,A1FCTM2O25QKL2
391,1.0,right,left,0.0,1.467,0.0,31.0,31.0,31.0,1.0,2579432708-56394.jpg,2901938432-367627.jpg,A1FCTM2O25QKL2
392,2.0,left,left,1.0,1.23,0.0,32.0,32.0,32.0,1.0,2452380166-273109.jpg,2592379781-279345.jpg,A1FCTM2O25QKL2
393,2.0,right,right,1.0,1.726,0.0,33.0,33.0,33.0,1.0,2575964140-205051.jpg,2868475410-213219.jpg,A1FCTM2O25QKL2
394,1.0,right,right,1.0,1.338,0.0,34.0,34.0,34.0,1.0,2986401333-73218.jpg,2901934573-69337.jpg,A1FCTM2O25QKL2
395,3.0,left,right,0.0,1.743,0.0,35.0,35.0,35.0,1.0,2883272438-68133.jpg,2592380136-279476.jpg,A1FCTM2O25QKL2
396,1.0,right,left,0.0,1.541,0.0,36.0,36.0,36.0,1.0,2592380177-354629.jpg,2446759803-49249.jpg,A1FCTM2O25QKL2
397,1.0,left,right,0.0,1.408,0.0,37.0,37.0,37.0,1.0,2986408352-371293.jpg,2868488422-363713.jpg,A1FCTM2O25QKL2
398,1.0,right,left,0.0,1.495,0.0,38.0,38.0,38.0,1.0,2864901420-212147.jpg,2238584869-113153.jpg,A1FCTM2O25QKL2
399,2.0,left,left,1.0,1.417,0.0,39.0,39.0,39.0,1.0,2238375302-311538.jpg,2592380049-131077.jpg,A1FCTM2O25QKL2
400,1.0,left,left,1.0,1.549,0.0,40.0,40.0,40.0,1.0,2862691449-137104.jpg,2238540598-30035.jpg,A1FCTM2O25QKL2
401,2.0,left,right,0.0,1.425,0.0,41.0,41.0,41.0,1.0,2238516618-25604.jpg,2862686459-136888.jpg,A1FCTM2O25QKL2
402,3.0,right,right,1.0,1.766,0.0,42.0,42.0,42.0,1.0,2238562336-256366.jpg,2883255450-215309.jpg,A1FCTM2O25QKL2
403,1.0,left,left,1.0,1.838,0.0,43.0,43.0,43.0,1.0,2512876023-52283.jpg,2864908323-64106.jpg,A1FCTM2O25QKL2
404,3.0,right,left,0.0,1.46,0.0,44.0,44.0,44.0,1.0,2994403305-222559.jpg,2864906345-212360.jpg,A1FCTM2O25QKL2
405,3.0,right,right,1.0,1.99,0.0,45.0,45.0,45.0,1.0,2460547992-349586.jpg,2898632385-217138.jpg,A1FCTM2O25QKL2
406,2.0,left,left,1.0,1.568,0.0,46.0,46.0,46.0,1.0,2238129579-80916.jpg,2898618444-142233.jpg,A1FCTM2O25QKL2
407,1.0,right,right,1.0,1.864,0.0,47.0,47.0,47.0,1.0,2449443163-50093.jpg,2238584018-38513.jpg,A1FCTM2O25QKL2
408,3.0,left,right,0.0,1.391,0.0,48.0,48.0,48.0,1.0,2238126735-154721.jpg,2901951430-218724.jpg,A1FCTM2O25QKL2
409,2.0,right,right,1.0,1.374,0.0,49.0,49.0,49.0,1.0,2549106844-127878.jpg,2898624426-291546.jpg,A1FCTM2O25QKL2
410,3.0,right,right,1.0,1.541,0.0,50.0,50.0,50.0,1.0,2901945303-70125.jpg,2901941426-292805.jpg,A1FCTM2O25QKL2
411,2.0,left,left,1.0,1.646,0.0,51.0,51.0,51.0,1.0,2238521193-26286.jpg,2874301437-363905.jpg,A1FCTM2O25QKL2
412,1.0,left,left,1.0,1.616,0.0,52.0,52.0,52.0,1.0,2898626385-216899.jpg,2989715328-73658.jpg,A1FCTM2O25QKL2
413,1.0,right,right,1.0,1.279,0.0,53.0,53.0,53.0,1.0,2986448334-147157.jpg,2238429999-90218.jpg,A1FCTM2O25QKL2
414,2.0,left,left,1.0,1.384,0.0,54.0,54.0,54.0,1.0,2964218374-144968.jpg,2238521157-323782.jpg,A1FCTM2O25QKL2
415,3.0,left,left,1.0,1.588,0.0,55.0,55.0,55.0,1.0,2898617468-68274.jpg,2862684406-285700.jpg,A1FCTM2O25QKL2
416,1.0,right,left,0.0,1.432,0.0,56.0,56.0,56.0,1.0,2868470400-212889.jpg,2238471391-240918.jpg,A1FCTM2O25QKL2
417,2.0,left,left,1.0,1.922,0.0,57.0,57.0,57.0,1.0,2238575092-334269.jpg,2860304305-210777.jpg,A1FCTM2O25QKL2
418,1.0,left,left,1.0,1.292,0.0,58.0,58.0,58.0,1.0,2460547467-349421.jpg,2901934573-69336.jpg,A1FCTM2O25QKL2
419,3.0,right,right,1.0,2.277,0.0,59.0,59.0,59.0,1.0,2898617396-291219.jpg,2964209380-218956.jpg,A1FCTM2O25QKL2
420,1.0,left,left,1.0,1.3814,0.0,0.0,0.0,0.0,1.0,2964218374-144968.jpg,2238411877-313125.jpg,A1JWKT0IS06YKL
421,2.0,right,right,1.0,2.5391,0.0,1.0,1.0,1.0,1.0,2575122854-130480.jpg,2238126735-154721.jpg,A1JWKT0IS06YKL
422,2.0,left,right,0.0,0.8731,0.0,2.0,2.0,2.0,1.0,2331570830-189984.jpg,2449442529-124445.jpg,A1JWKT0IS06YKL
423,2.0,left,left,1.0,1.8076,0.0,3.0,3.0,3.0,1.0,2238375302-311538.jpg,2592380049-131077.jpg,A1JWKT0IS06YKL
424,3.0,right,right,1.0,1.6361,0.0,4.0,4.0,4.0,1.0,2238470979-92618.jpg,2238516618-25604.jpg,A1JWKT0IS06YKL
425,3.0,left,left,1.0,2.6285,0.0,5.0,5.0,5.0,1.0,2901934573-69337.jpg,2901936407-367476.jpg,A1JWKT0IS06YKL
426,2.0,right,right,1.0,0.9992,0.0,6.0,6.0,6.0,1.0,2868469458-64561.jpg,2449442529-124446.jpg,A1JWKT0IS06YKL
427,3.0,left,left,1.0,2.1825,0.0,7.0,7.0,7.0,1.0,2964213381-294061.jpg,2989721347-371917.jpg,A1JWKT0IS06YKL
428,2.0,left,right,0.0,2.3991,0.0,8.0,8.0,8.0,1.0,2864906345-212360.jpg,2238087237-303447.jpg,A1JWKT0IS06YKL
429,1.0,right,right,1.0,1.4497,0.0,9.0,9.0,9.0,1.0,2238481575-168208.jpg,2883255450-215311.jpg,A1JWKT0IS06YKL
430,2.0,left,left,1.0,3.2023,0.0,10.0,10.0,10.0,1.0,2446760524-123999.jpg,2238552469-106359.jpg,A1JWKT0IS06YKL
431,1.0,left,left,1.0,1.7416,0.0,11.0,11.0,11.0,1.0,2883255450-215309.jpg,2238429999-90216.jpg,A1JWKT0IS06YKL
432,2.0,left,left,1.0,3.1588,0.0,12.0,12.0,12.0,1.0,2868485396-288511.jpg,2868472420-213024.jpg,A1JWKT0IS06YKL
433,1.0,right,right,1.0,1.6599,0.0,13.0,13.0,13.0,1.0,2575120738-55529.jpg,2898632385-217138.jpg,A1JWKT0IS06YKL
434,1.0,left,right,0.0,3.5862,0.0,14.0,14.0,14.0,1.0,2579432576-279079.jpg,2901934574-143126.jpg,A1JWKT0IS06YKL
435,1.0,right,right,1.0,3.3851,0.0,15.0,15.0,15.0,1.0,2898631359-142720.jpg,2964213381-294060.jpg,A1JWKT0IS06YKL
436,3.0,right,left,0.0,3.3555,0.0,16.0,16.0,16.0,1.0,2898618440-216545.jpg,2898626385-216899.jpg,A1JWKT0IS06YKL
437,1.0,right,left,0.0,2.2927,0.0,17.0,17.0,17.0,1.0,2238482972-317759.jpg,2238550049-105691.jpg,A1JWKT0IS06YKL
438,3.0,left,right,0.0,7.5024,0.0,18.0,18.0,18.0,1.0,2238480434-93829.jpg,2238479903-19596.jpg,A1JWKT0IS06YKL
439,3.0,left,left,1.0,1.9931,0.0,19.0,19.0,19.0,1.0,2964224310-219527.jpg,2238490590-169598.jpg,A1JWKT0IS06YKL
440,2.0,left,left,1.0,2.4836,0.0,20.0,20.0,20.0,1.0,2452380166-273109.jpg,2592379781-279345.jpg,A1JWKT0IS06YKL
441,2.0,left,left,1.0,1.3527,0.0,21.0,21.0,21.0,1.0,2446759803-49249.jpg,2238468265-166556.jpg,A1JWKT0IS06YKL
442,3.0,left,left,1.0,2.1679,0.0,22.0,22.0,22.0,1.0,2883254439-140940.jpg,2812983311-281946.jpg,A1JWKT0IS06YKL
443,3.0,left,left,1.0,4.5655,0.0,23.0,23.0,23.0,1.0,2575964140-205050.jpg,2446760226-272005.jpg,A1JWKT0IS06YKL
444,2.0,right,right,1.0,2.648,0.0,24.0,24.0,24.0,1.0,2592380177-354626.jpg,2238561223-33794.jpg,A1JWKT0IS06YKL
445,1.0,right,right,1.0,5.3983,0.0,25.0,25.0,25.0,1.0,2901934573-69336.jpg,2460547467-349421.jpg,A1JWKT0IS06YKL
446,1.0,left,left,1.0,10.2315,0.0,26.0,26.0,26.0,1.0,2238584018-38513.jpg,2449443163-50093.jpg,A1JWKT0IS06YKL
447,3.0,left,left,1.0,1.8283,0.0,27.0,27.0,27.0,1.0,2238496457-319749.jpg,2460547467-349422.jpg,A1JWKT0IS06YKL
448,2.0,left,right,0.0,3.7533,0.0,28.0,28.0,28.0,1.0,2238584869-113153.jpg,2981241419-145844.jpg,A1JWKT0IS06YKL
449,3.0,right,right,1.0,1.226,0.0,29.0,29.0,29.0,1.0,2864904453-63932.jpg,2898632385-217137.jpg,A1JWKT0IS06YKL
450,1.0,right,left,0.0,2.9953,0.0,30.0,30.0,30.0,1.0,2868488422-363713.jpg,2986408352-371293.jpg,A1JWKT0IS06YKL
451,1.0,left,left,1.0,1.7331,0.0,31.0,31.0,31.0,1.0,2901941426-292805.jpg,2868488422-363715.jpg,A1JWKT0IS06YKL
452,3.0,left,left,1.0,1.9186,0.0,32.0,32.0,32.0,1.0,2238471391-240918.jpg,2986399339-146857.jpg,A1JWKT0IS06YKL
453,3.0,left,right,0.0,6.436,0.0,33.0,33.0,33.0,1.0,2446760940-198145.jpg,2446760692-347392.jpg,A1JWKT0IS06YKL
454,1.0,right,right,1.0,4.6472,0.0,34.0,34.0,34.0,1.0,2425492472-343825.jpg,2625337302-355866.jpg,A1JWKT0IS06YKL
455,2.0,left,left,1.0,1.3595,0.0,35.0,35.0,35.0,1.0,2883254439-140941.jpg,2237965109-79314.jpg,A1JWKT0IS06YKL
456,1.0,right,left,0.0,1.286,0.0,36.0,36.0,36.0,1.0,2446760621-272103.jpg,2238499155-170911.jpg,A1JWKT0IS06YKL
457,1.0,left,left,1.0,6.6159,0.0,37.0,37.0,37.0,1.0,2868475410-213219.jpg,2238216693-10721.jpg,A1JWKT0IS06YKL
458,1.0,left,left,1.0,5.7429,0.0,38.0,38.0,38.0,1.0,2883272438-68133.jpg,2237949408-4018.jpg,A1JWKT0IS06YKL
459,2.0,left,left,1.0,4.8603,0.0,39.0,39.0,39.0,1.0,2274829821-263682.jpg,2446758985-197610.jpg,A1JWKT0IS06YKL
460,1.0,left,left,1.0,3.6821,0.0,40.0,40.0,40.0,1.0,2964216465-219242.jpg,2592380049-131079.jpg,A1JWKT0IS06YKL
461,1.0,left,left,1.0,5.7015,0.0,41.0,41.0,41.0,1.0,2898633480-217190.jpg,2446760147-347245.jpg,A1JWKT0IS06YKL
462,3.0,right,left,0.0,3.9907,0.0,42.0,42.0,42.0,1.0,2883273443-68192.jpg,2994405328-74628.jpg,A1JWKT0IS06YKL
463,2.0,right,left,0.0,1.4226,0.0,43.0,43.0,43.0,1.0,2898636443-69154.jpg,2512876023-52283.jpg,A1JWKT0IS06YKL
464,2.0,left,left,1.0,2.3584,0.0,44.0,44.0,44.0,1.0,2862691449-137104.jpg,2986455341-296758.jpg,A1JWKT0IS06YKL
465,1.0,left,left,1.0,2.0466,0.0,45.0,45.0,45.0,1.0,2964209380-218956.jpg,2868488456-288710.jpg,A1JWKT0IS06YKL
466,2.0,left,left,1.0,1.6184,0.0,46.0,46.0,46.0,1.0,2446758985-197609.jpg,2635396318-58409.jpg,A1JWKT0IS06YKL
467,1.0,left,left,1.0,4.2012,0.0,47.0,47.0,47.0,1.0,2898617468-68274.jpg,2512875899-126682.jpg,A1JWKT0IS06YKL
468,2.0,left,left,1.0,1.5077,0.0,48.0,48.0,48.0,1.0,2901938432-367627.jpg,2856919327-359675.jpg,A1JWKT0IS06YKL
469,2.0,right,right,1.0,5.1522,0.0,49.0,49.0,49.0,1.0,2238555799-106905.jpg,2864909447-362146.jpg,A1JWKT0IS06YKL
470,3.0,right,right,1.0,5.813,0.0,50.0,50.0,50.0,1.0,2417207297-342139.jpg,2981231446-294731.jpg,A1JWKT0IS06YKL
471,2.0,right,right,1.0,1.2876,0.0,51.0,51.0,51.0,1.0,2549106844-127878.jpg,2898624426-291546.jpg,A1JWKT0IS06YKL
472,3.0,right,right,1.0,3.1149,0.0,52.0,52.0,52.0,1.0,2901936309-143207.jpg,2898635427-367120.jpg,A1JWKT0IS06YKL
473,3.0,left,right,0.0,6.0739,0.0,53.0,53.0,53.0,1.0,2238129579-80916.jpg,2238161924-82646.jpg,A1JWKT0IS06YKL
474,2.0,left,left,1.0,1.2564,0.0,54.0,54.0,54.0,1.0,2986400320-221190.jpg,2238470979-92615.jpg,A1JWKT0IS06YKL
475,3.0,right,right,1.0,2.8962,0.0,55.0,55.0,55.0,1.0,2446760306-272024.jpg,2238521193-26286.jpg,A1JWKT0IS06YKL
476,3.0,right,right,1.0,2.8836,0.0,56.0,56.0,56.0,1.0,2864909422-362141.jpg,2901939379-143479.jpg,A1JWKT0IS06YKL
477,3.0,right,left,0.0,1.9854,0.0,57.0,57.0,57.0,1.0,2238537701-251772.jpg,2592380138-56727.jpg,A1JWKT0IS06YKL
478,1.0,left,left,1.0,2.8662,0.0,58.0,58.0,58.0,1.0,2238575092-334269.jpg,2592380285-205564.jpg,A1JWKT0IS06YKL
479,3.0,right,left,0.0,4.4749,0.0,59.0,59.0,59.0,1.0,2964222378-71332.jpg,2238429999-90218.jpg,A1JWKT0IS06YKL
480,1.0,left,left,1.0,2.308599999,0.0,0.0,0.0,0.0,1.0,2986408352-371293.jpg,2868488422-363713.jpg,A1RSQOCZVV1FF2
481,3.0,right,right,1.0,1.4922,0.0,1.0,1.0,1.0,1.0,2901936407-367476.jpg,2901934573-69337.jpg,A1RSQOCZVV1FF2
482,2.0,right,left,0.0,2.7587,0.0,2.0,2.0,2.0,1.0,2981234334-145491.jpg,2964213381-294061.jpg,A1RSQOCZVV1FF2
483,2.0,left,left,1.0,1.7401,0.0,3.0,3.0,3.0,1.0,2238375302-311538.jpg,2592380049-131077.jpg,A1RSQOCZVV1FF2
484,2.0,right,right,1.0,1.276799999,0.0,4.0,4.0,4.0,1.0,2986455341-296758.jpg,2862691449-137104.jpg,A1RSQOCZVV1FF2
485,1.0,right,left,0.0,2.0678,0.0,5.0,5.0,5.0,1.0,2901934574-143126.jpg,2579432576-279079.jpg,A1RSQOCZVV1FF2
486,1.0,right,right,1.0,1.576599999,0.0,6.0,6.0,6.0,1.0,2452380171-273112.jpg,2452380166-273109.jpg,A1RSQOCZVV1FF2
487,3.0,right,right,1.0,1.8579,0.0,7.0,7.0,7.0,1.0,2460547467-349422.jpg,2238496457-319749.jpg,A1RSQOCZVV1FF2
488,2.0,right,right,1.0,1.5265,0.0,8.0,8.0,8.0,1.0,2238470079-92499.jpg,2460547467-349421.jpg,A1RSQOCZVV1FF2
489,3.0,right,right,1.0,1.7282,0.0,9.0,9.0,9.0,1.0,2898617396-291219.jpg,2964209380-218956.jpg,A1RSQOCZVV1FF2
490,2.0,left,right,0.0,1.771,0.0,10.0,10.0,10.0,1.0,2446760524-123999.jpg,2238552469-106359.jpg,A1RSQOCZVV1FF2
491,1.0,right,left,0.0,1.1991,0.0,11.0,11.0,11.0,1.0,2868470400-212889.jpg,2238471391-240918.jpg,A1RSQOCZVV1FF2
492,2.0,right,left,0.0,1.1021,0.0,12.0,12.0,12.0,1.0,2868485399-139476.jpg,2883255450-215311.jpg,A1RSQOCZVV1FF2
493,3.0,left,left,1.0,1.2885,0.0,13.0,13.0,13.0,1.0,2238575092-334269.jpg,2964218374-144967.jpg,A1RSQOCZVV1FF2
494,1.0,right,left,0.0,1.094200001,0.0,14.0,14.0,14.0,1.0,2868470456-287597.jpg,2868485396-288511.jpg,A1RSQOCZVV1FF2
495,1.0,left,left,1.0,1.214799999,0.0,15.0,15.0,15.0,1.0,2238126735-154721.jpg,2856919327-359676.jpg,A1RSQOCZVV1FF2
496,1.0,right,left,0.0,1.4804,0.0,16.0,16.0,16.0,1.0,2238570526-257884.jpg,2274829821-263682.jpg,A1RSQOCZVV1FF2
497,1.0,left,left,1.0,1.2867,0.0,17.0,17.0,17.0,1.0,2964218374-144968.jpg,2238411877-313125.jpg,A1RSQOCZVV1FF2
498,1.0,right,left,0.0,1.0706,0.0,18.0,18.0,18.0,1.0,2238429999-90216.jpg,2883255450-215309.jpg,A1RSQOCZVV1FF2
499,3.0,left,left,1.0,1.212400001,0.0,19.0,19.0,19.0,1.0,2883254439-140941.jpg,2417207511-266975.jpg,A1RSQOCZVV1FF2
500,3.0,left,right,0.0,1.576200001,0.0,20.0,20.0,20.0,1.0,2883272438-68133.jpg,2592380136-279476.jpg,A1RSQOCZVV1FF2
501,3.0,right,left,0.0,1.212,0.0,21.0,21.0,21.0,1.0,2446760226-272005.jpg,2575964140-205050.jpg,A1RSQOCZVV1FF2
502,3.0,right,left,0.0,1.283299999,0.0,22.0,22.0,22.0,1.0,2238490590-169598.jpg,2964224310-219527.jpg,A1RSQOCZVV1FF2
503,2.0,left,left,1.0,1.011200001,0.0,23.0,23.0,23.0,1.0,2901939379-143479.jpg,2449443292-348022.jpg,A1RSQOCZVV1FF2
504,1.0,left,left,1.0,3.1141,0.0,24.0,24.0,24.0,1.0,2238429999-90218.jpg,2986448334-147157.jpg,A1RSQOCZVV1FF2
505,2.0,left,left,1.0,3.2666,0.0,25.0,25.0,25.0,1.0,2238480434-93829.jpg,2592380255-205551.jpg,A1RSQOCZVV1FF2
506,2.0,left,left,1.0,3.924,0.0,26.0,26.0,26.0,1.0,2898624426-291546.jpg,2549106844-127878.jpg,A1RSQOCZVV1FF2
507,2.0,right,left,0.0,1.8835,0.0,27.0,27.0,27.0,1.0,2238478760-167789.jpg,2625337302-355866.jpg,A1RSQOCZVV1FF2
508,1.0,right,left,0.0,1.3879,0.0,28.0,28.0,28.0,1.0,2864901420-212147.jpg,2238584869-113153.jpg,A1RSQOCZVV1FF2
509,3.0,right,left,0.0,1.5135,0.0,29.0,29.0,29.0,1.0,2874303453-66056.jpg,2864909447-362146.jpg,A1RSQOCZVV1FF2
510,1.0,right,left,0.0,3.023299999,0.0,30.0,30.0,30.0,1.0,2512875899-126682.jpg,2898617468-68274.jpg,A1RSQOCZVV1FF2
511,1.0,left,left,1.0,1.122,0.0,31.0,31.0,31.0,1.0,2446760940-198145.jpg,2449443300-198739.jpg,A1RSQOCZVV1FF2
512,3.0,right,left,0.0,1.5627,0.0,32.0,32.0,32.0,1.0,2424122568-45517.jpg,2901938432-367627.jpg,A1RSQOCZVV1FF2
513,2.0,right,left,0.0,1.3023,0.0,33.0,33.0,33.0,1.0,2238468265-166556.jpg,2446759803-49249.jpg,A1RSQOCZVV1FF2
514,3.0,right,left,0.0,0.8599,0.0,34.0,34.0,34.0,1.0,2901936309-143207.jpg,2898635427-367120.jpg,A1RSQOCZVV1FF2
515,2.0,right,left,0.0,1.3798,0.0,35.0,35.0,35.0,1.0,2449442529-124445.jpg,2331570830-189984.jpg,A1RSQOCZVV1FF2
516,3.0,right,left,0.0,1.3797,0.0,36.0,36.0,36.0,1.0,2238576267-334532.jpg,2512876023-52283.jpg,A1RSQOCZVV1FF2
517,3.0,left,right,0.0,1.181,0.0,37.0,37.0,37.0,1.0,2449442529-124446.jpg,2864911339-138231.jpg,A1RSQOCZVV1FF2
518,1.0,left,left,1.0,1.3186,0.0,38.0,38.0,38.0,1.0,2898626385-216899.jpg,2989715328-73658.jpg,A1RSQOCZVV1FF2
519,1.0,right,right,1.0,1.0247,0.0,39.0,39.0,39.0,1.0,2446760147-347245.jpg,2898633480-217190.jpg,A1RSQOCZVV1FF2
520,3.0,right,right,1.0,1.6633,0.0,40.0,40.0,40.0,1.0,2452381442-348755.jpg,2238584018-38513.jpg,A1RSQOCZVV1FF2
521,3.0,right,left,0.0,0.9463,0.0,41.0,41.0,41.0,1.0,2984618344-146295.jpg,2446758985-197609.jpg,A1RSQOCZVV1FF2
522,2.0,right,left,0.0,1.0375,0.0,42.0,42.0,42.0,1.0,2238087237-303447.jpg,2864906345-212360.jpg,A1RSQOCZVV1FF2
523,2.0,left,left,1.0,1.363299999,0.0,43.0,43.0,43.0,1.0,2592380138-56727.jpg,2430664847-345753.jpg,A1RSQOCZVV1FF2
524,1.0,right,right,1.0,1.1042,0.0,44.0,44.0,44.0,1.0,2986450330-221526.jpg,2981231446-294731.jpg,A1RSQOCZVV1FF2
525,2.0,right,left,0.0,1.2593,0.0,45.0,45.0,45.0,1.0,2273188118-40829.jpg,2898632385-217138.jpg,A1RSQOCZVV1FF2
526,3.0,right,right,1.0,0.938400001,0.0,46.0,46.0,46.0,1.0,2446760917-347439.jpg,2964216465-219242.jpg,A1RSQOCZVV1FF2
527,2.0,right,left,0.0,1.1938,0.0,47.0,47.0,47.0,1.0,2575121890-204630.jpg,2883254439-140940.jpg,A1RSQOCZVV1FF2
528,3.0,left,right,0.0,1.044,0.0,48.0,48.0,48.0,1.0,2238521193-26286.jpg,2446760306-272024.jpg,A1RSQOCZVV1FF2
529,1.0,right,right,1.0,1.135,0.0,49.0,49.0,49.0,1.0,2238216693-10721.jpg,2868475410-213219.jpg,A1RSQOCZVV1FF2
530,3.0,right,left,0.0,1.016900001,0.0,50.0,50.0,50.0,1.0,2864904453-63932.jpg,2898632385-217137.jpg,A1RSQOCZVV1FF2
531,2.0,left,left,1.0,1.3328,0.0,51.0,51.0,51.0,1.0,2238550049-105691.jpg,2449443271-272729.jpg,A1RSQOCZVV1FF2
532,2.0,right,left,0.0,0.9909,0.0,52.0,52.0,52.0,1.0,2592380177-354626.jpg,2238561223-33794.jpg,A1RSQOCZVV1FF2
533,3.0,right,left,0.0,0.830400001,0.0,53.0,53.0,53.0,1.0,2238161924-82646.jpg,2238129579-80916.jpg,A1RSQOCZVV1FF2
534,1.0,right,left,0.0,0.8325,0.0,54.0,54.0,54.0,1.0,2417206274-118542.jpg,2994405328-74628.jpg,A1RSQOCZVV1FF2
535,1.0,right,left,0.0,0.8475,0.0,55.0,55.0,55.0,1.0,2446760621-272103.jpg,2238499155-170911.jpg,A1RSQOCZVV1FF2
536,2.0,right,left,0.0,0.748599999,0.0,56.0,56.0,56.0,1.0,2238510189-98616.jpg,2901941426-292805.jpg,A1RSQOCZVV1FF2
537,3.0,left,left,1.0,0.922700001,0.0,57.0,57.0,57.0,1.0,2964213381-294060.jpg,2989724308-73930.jpg,A1RSQOCZVV1FF2
538,1.0,right,left,0.0,1.0026,0.0,58.0,58.0,58.0,1.0,2238573549-110485.jpg,2238516618-25604.jpg,A1RSQOCZVV1FF2
539,2.0,left,left,1.0,1.3968,0.0,59.0,59.0,59.0,1.0,2986400320-221190.jpg,2238470979-92615.jpg,A1RSQOCZVV1FF2
540,2.0,left,left,1.0,1.565,0.0,0.0,0.0,0.0,1.0,2964213381-294061.jpg,2981234334-145491.jpg,A1Y07DW8W2UXSD
541,2.0,left,left,1.0,1.117,0.0,1.0,1.0,1.0,1.0,2901939379-143479.jpg,2449443292-348022.jpg,A1Y07DW8W2UXSD
542,1.0,right,left,0.0,1.608,0.0,2.0,2.0,2.0,1.0,2986419351-296471.jpg,2592380138-56727.jpg,A1Y07DW8W2UXSD
543,2.0,right,left,0.0,1.41,0.0,3.0,3.0,3.0,1.0,2898618444-142233.jpg,2238129579-80916.jpg,A1Y07DW8W2UXSD
544,1.0,right,right,1.0,1.084,0.0,4.0,4.0,4.0,1.0,2874316384-140749.jpg,2864909447-362146.jpg,A1Y07DW8W2UXSD
545,2.0,right,right,1.0,1.072,0.0,5.0,5.0,5.0,1.0,2238585512-336576.jpg,2898617468-68274.jpg,A1Y07DW8W2UXSD
546,1.0,right,right,1.0,1.234,0.0,6.0,6.0,6.0,1.0,2579432708-56394.jpg,2901938432-367627.jpg,A1Y07DW8W2UXSD
547,3.0,left,left,1.0,1.696,0.0,7.0,7.0,7.0,1.0,2331570830-189984.jpg,2458348012-349114.jpg,A1Y07DW8W2UXSD
548,2.0,right,left,0.0,1.774,0.0,8.0,8.0,8.0,1.0,2238510189-98616.jpg,2901941426-292805.jpg,A1Y07DW8W2UXSD
549,2.0,left,left,1.0,1.202,0.0,9.0,9.0,9.0,1.0,2449442529-124446.jpg,2868469458-64561.jpg,A1Y07DW8W2UXSD
550,3.0,right,right,1.0,1.06,0.0,10.0,10.0,10.0,1.0,2238498786-244797.jpg,2446759803-49249.jpg,A1Y07DW8W2UXSD
551,2.0,right,right,1.0,1.158,0.0,11.0,11.0,11.0,1.0,2237965109-79314.jpg,2883254439-140941.jpg,A1Y07DW8W2UXSD
552,2.0,right,right,1.0,1.351,0.0,12.0,12.0,12.0,1.0,2825702353-60662.jpg,2994405328-74628.jpg,A1Y07DW8W2UXSD
553,3.0,right,right,1.0,1.286,0.0,13.0,13.0,13.0,1.0,2575964014-130589.jpg,2883255450-215311.jpg,A1Y07DW8W2UXSD
554,1.0,right,left,0.0,1.31,0.0,14.0,14.0,14.0,1.0,2425492472-343825.jpg,2625337302-355866.jpg,A1Y07DW8W2UXSD
555,3.0,right,right,1.0,1.315,0.0,15.0,15.0,15.0,1.0,2984618344-146295.jpg,2446758985-197609.jpg,A1Y07DW8W2UXSD
556,3.0,left,right,0.0,1.253,0.0,16.0,16.0,16.0,1.0,2446760940-198145.jpg,2446760692-347392.jpg,A1Y07DW8W2UXSD
557,1.0,right,right,1.0,1.239,0.0,17.0,17.0,17.0,1.0,2452380166-273110.jpg,2883254439-140940.jpg,A1Y07DW8W2UXSD
558,2.0,right,right,1.0,1.075,0.0,18.0,18.0,18.0,1.0,2238520921-248323.jpg,2964213381-294060.jpg,A1Y07DW8W2UXSD
559,3.0,right,right,1.0,0.998,0.0,19.0,19.0,19.0,1.0,2238554179-106663.jpg,2460547467-349421.jpg,A1Y07DW8W2UXSD
560,1.0,right,left,0.0,1.296,0.0,20.0,20.0,20.0,1.0,2238482920-168428.jpg,2575964140-205050.jpg,A1Y07DW8W2UXSD
561,1.0,left,right,0.0,1.023,0.0,21.0,21.0,21.0,1.0,2238499155-170911.jpg,2446760621-272103.jpg,A1Y07DW8W2UXSD
562,1.0,left,left,1.0,1.395,0.0,22.0,22.0,22.0,1.0,2964209380-218956.jpg,2868488456-288710.jpg,A1Y07DW8W2UXSD
563,3.0,left,left,1.0,1.783,0.0,23.0,23.0,23.0,1.0,2238584018-38513.jpg,2452381442-348755.jpg,A1Y07DW8W2UXSD
564,3.0,left,left,1.0,2.444,0.0,24.0,24.0,24.0,1.0,2238516618-25604.jpg,2238470979-92618.jpg,A1Y07DW8W2UXSD
565,1.0,right,right,1.0,1.188,0.0,25.0,25.0,25.0,1.0,2238411877-313125.jpg,2964218374-144968.jpg,A1Y07DW8W2UXSD
566,3.0,left,right,0.0,1.282,0.0,26.0,26.0,26.0,1.0,2864906345-212360.jpg,2994403305-222559.jpg,A1Y07DW8W2UXSD
567,1.0,right,right,1.0,1.578,0.0,27.0,27.0,27.0,1.0,2575120738-55529.jpg,2898632385-217138.jpg,A1Y07DW8W2UXSD
568,3.0,left,left,1.0,1.589,0.0,28.0,28.0,28.0,1.0,2868485396-288511.jpg,2238380314-88261.jpg,A1Y07DW8W2UXSD
569,1.0,right,left,0.0,1.073,0.0,29.0,29.0,29.0,1.0,2238429999-90216.jpg,2883255450-215309.jpg,A1Y07DW8W2UXSD
570,3.0,left,left,1.0,1.608,0.0,30.0,30.0,30.0,1.0,2986408352-371293.jpg,2856916345-210056.jpg,A1Y07DW8W2UXSD
571,3.0,left,left,1.0,1.208,0.0,31.0,31.0,31.0,1.0,2452380166-273109.jpg,2238380901-236499.jpg,A1Y07DW8W2UXSD
572,2.0,right,right,1.0,1.122,0.0,32.0,32.0,32.0,1.0,2592380234-131135.jpg,2238496457-319749.jpg,A1Y07DW8W2UXSD
573,3.0,right,right,1.0,1.426,0.0,33.0,33.0,33.0,1.0,2864902304-137862.jpg,2898624426-291546.jpg,A1Y07DW8W2UXSD
574,1.0,left,left,1.0,2.444,0.0,34.0,34.0,34.0,1.0,2898633480-217190.jpg,2446760147-347245.jpg,A1Y07DW8W2UXSD
575,2.0,right,right,1.0,1.271,0.0,35.0,35.0,35.0,1.0,2901936369-143233.jpg,2883272438-68133.jpg,A1Y07DW8W2UXSD
576,3.0,left,right,0.0,1.376,0.0,36.0,36.0,36.0,1.0,2238575092-334269.jpg,2964218374-144967.jpg,A1Y07DW8W2UXSD
577,1.0,right,left,0.0,1.548,0.0,37.0,37.0,37.0,1.0,2238506233-23904.jpg,2238561223-33794.jpg,A1Y07DW8W2UXSD
578,1.0,right,left,0.0,1.459,0.0,38.0,38.0,38.0,1.0,2868470400-212889.jpg,2238471391-240918.jpg,A1Y07DW8W2UXSD
579,2.0,left,left,1.0,1.488,0.0,39.0,39.0,39.0,1.0,2981231446-294731.jpg,2238568685-183597.jpg,A1Y07DW8W2UXSD
580,3.0,right,right,1.0,1.359,0.0,40.0,40.0,40.0,1.0,2901936407-367476.jpg,2901934573-69337.jpg,A1Y07DW8W2UXSD
581,2.0,right,left,0.0,1.684,0.0,41.0,41.0,41.0,1.0,2874301437-363905.jpg,2238521193-26286.jpg,A1Y07DW8W2UXSD
582,1.0,right,right,1.0,1.821,0.0,42.0,42.0,42.0,1.0,2989715328-73658.jpg,2898626385-216899.jpg,A1Y07DW8W2UXSD
583,3.0,left,right,0.0,1.619,0.0,43.0,43.0,43.0,1.0,2898635427-367120.jpg,2901936309-143207.jpg,A1Y07DW8W2UXSD
584,2.0,right,right,1.0,1.725,0.0,44.0,44.0,44.0,1.0,2575122854-130480.jpg,2238126735-154721.jpg,A1Y07DW8W2UXSD
585,1.0,left,left,1.0,1.614,0.0,45.0,45.0,45.0,1.0,2862691449-137104.jpg,2238540598-30035.jpg,A1Y07DW8W2UXSD
586,3.0,left,left,1.0,1.911,0.0,46.0,46.0,46.0,1.0,2446760524-123999.jpg,2238539138-29878.jpg,A1Y07DW8W2UXSD
587,3.0,right,right,1.0,1.32,0.0,47.0,47.0,47.0,1.0,2864904453-63932.jpg,2898632385-217137.jpg,A1Y07DW8W2UXSD
588,1.0,left,left,1.0,1.302,0.0,48.0,48.0,48.0,1.0,2964216465-219242.jpg,2592380049-131079.jpg,A1Y07DW8W2UXSD
589,1.0,right,left,0.0,1.823,0.0,49.0,49.0,49.0,1.0,2238380178-14011.jpg,2964224310-219527.jpg,A1Y07DW8W2UXSD
590,2.0,right,left,0.0,1.299,0.0,50.0,50.0,50.0,1.0,2446760226-272006.jpg,2579432576-279079.jpg,A1Y07DW8W2UXSD
591,2.0,left,left,1.0,1.472,0.0,51.0,51.0,51.0,1.0,2238429999-90218.jpg,2901951459-144433.jpg,A1Y07DW8W2UXSD
592,2.0,left,right,0.0,1.412,0.0,52.0,52.0,52.0,1.0,2512876023-52283.jpg,2898636443-69154.jpg,A1Y07DW8W2UXSD
593,2.0,right,right,1.0,1.486,0.0,53.0,53.0,53.0,1.0,2592380049-131077.jpg,2238375302-311538.jpg,A1Y07DW8W2UXSD
594,1.0,left,left,1.0,1.752,0.0,54.0,54.0,54.0,1.0,2238550049-105691.jpg,2238482972-317759.jpg,A1Y07DW8W2UXSD
595,1.0,right,left,0.0,1.508,0.0,55.0,55.0,55.0,1.0,2864901420-212147.jpg,2238584869-113153.jpg,A1Y07DW8W2UXSD
596,2.0,right,left,0.0,1.408,0.0,56.0,56.0,56.0,1.0,2446758985-197610.jpg,2274829821-263682.jpg,A1Y07DW8W2UXSD
597,3.0,right,left,0.0,1.774,0.0,57.0,57.0,57.0,1.0,2238538133-29662.jpg,2986400320-221190.jpg,A1Y07DW8W2UXSD
598,3.0,left,right,0.0,1.301,0.0,58.0,58.0,58.0,1.0,2868475410-213219.jpg,2238436851-238821.jpg,A1Y07DW8W2UXSD
599,2.0,left,left,1.0,1.638,0.0,59.0,59.0,59.0,1.0,2238480434-93829.jpg,2592380255-205551.jpg,A1Y07DW8W2UXSD
600,3.0,right,right,1.0,11.9116,0.0,0.0,0.0,0.0,1.0,2460547508-51571.jpg,2238375302-311538.jpg,A25N2OW7USWS2H
601,2.0,left,left,1.0,3.3194,0.0,1.0,1.0,1.0,1.0,2898626385-216899.jpg,2449442365-198476.jpg,A25N2OW7USWS2H
602,3.0,right,left,0.0,2.217599999,0.0,2.0,2.0,2.0,1.0,2238490590-169598.jpg,2964224310-219527.jpg,A25N2OW7USWS2H
603,3.0,right,right,1.0,2.578,0.0,3.0,3.0,3.0,1.0,2984618344-146295.jpg,2446758985-197609.jpg,A25N2OW7USWS2H
604,2.0,left,right,0.0,2.807,0.0,4.0,4.0,4.0,1.0,2238521193-26286.jpg,2874301437-363905.jpg,A25N2OW7USWS2H
605,1.0,left,left,1.0,2.006099999,0.0,5.0,5.0,5.0,1.0,2981231446-294731.jpg,2986450330-221526.jpg,A25N2OW7USWS2H
606,1.0,left,right,0.0,1.6343,0.0,6.0,6.0,6.0,1.0,2625337302-355866.jpg,2425492472-343825.jpg,A25N2OW7USWS2H
607,3.0,left,left,1.0,2.3202,0.0,7.0,7.0,7.0,1.0,2964213381-294061.jpg,2989721347-371917.jpg,A25N2OW7USWS2H
608,1.0,right,right,1.0,5.048,0.0,8.0,8.0,8.0,1.0,2446760621-272102.jpg,2446760524-123999.jpg,A25N2OW7USWS2H
609,1.0,right,left,0.0,5.3412,0.0,9.0,9.0,9.0,1.0,2237949408-4018.jpg,2883272438-68133.jpg,A25N2OW7USWS2H
610,1.0,right,left,0.0,5.563599999,0.0,10.0,10.0,10.0,1.0,2449443300-198739.jpg,2446760940-198145.jpg,A25N2OW7USWS2H
611,2.0,left,left,1.0,2.0175,0.0,11.0,11.0,11.0,1.0,2868475410-213219.jpg,2575964140-205051.jpg,A25N2OW7USWS2H
612,1.0,left,left,1.0,2.8948,0.0,12.0,12.0,12.0,1.0,2883254439-140941.jpg,2989724308-73928.jpg,A25N2OW7USWS2H
613,3.0,left,right,0.0,1.5872,0.0,13.0,13.0,13.0,1.0,2238561223-33794.jpg,2883271323-68049.jpg,A25N2OW7USWS2H
614,3.0,left,left,1.0,2.089099999,0.0,14.0,14.0,14.0,1.0,2460547467-349421.jpg,2238554179-106663.jpg,A25N2OW7USWS2H
615,2.0,right,left,0.0,2.48,0.0,15.0,15.0,15.0,1.0,2986450334-147216.jpg,2898633480-217190.jpg,A25N2OW7USWS2H
616,1.0,left,left,1.0,1.4358,0.0,16.0,16.0,16.0,1.0,2898632385-217137.jpg,2238360884-87525.jpg,A25N2OW7USWS2H
617,3.0,right,right,1.0,1.8829,0.0,17.0,17.0,17.0,1.0,2424122568-45517.jpg,2901938432-367627.jpg,A25N2OW7USWS2H
618,3.0,right,right,1.0,2.1003,0.0,18.0,18.0,18.0,1.0,2901936309-143207.jpg,2898635427-367120.jpg,A25N2OW7USWS2H
619,3.0,right,right,1.0,2.822700001,0.0,19.0,19.0,19.0,1.0,2238498786-244797.jpg,2446759803-49249.jpg,A25N2OW7USWS2H
620,2.0,right,left,0.0,3.2359,0.0,20.0,20.0,20.0,1.0,2449443271-272729.jpg,2238550049-105691.jpg,A25N2OW7USWS2H
621,1.0,right,left,0.0,2.5708,0.0,21.0,21.0,21.0,1.0,2238540598-30035.jpg,2862691449-137104.jpg,A25N2OW7USWS2H
622,1.0,left,left,1.0,3.8793,0.0,22.0,22.0,22.0,1.0,2883254439-140940.jpg,2452380166-273110.jpg,A25N2OW7USWS2H
623,2.0,right,left,0.0,2.701,0.0,23.0,23.0,23.0,1.0,2901951459-144433.jpg,2238429999-90218.jpg,A25N2OW7USWS2H
624,1.0,right,right,1.0,1.972900001,0.0,24.0,24.0,24.0,1.0,2986450334-147215.jpg,2901939379-143479.jpg,A25N2OW7USWS2H
625,3.0,right,right,1.0,3.4431,0.0,25.0,25.0,25.0,1.0,2238537701-251772.jpg,2592380138-56727.jpg,A25N2OW7USWS2H
626,2.0,right,right,1.0,2.2288,0.0,26.0,26.0,26.0,1.0,2238520921-248323.jpg,2964213381-294060.jpg,A25N2OW7USWS2H
627,1.0,left,left,1.0,2.955,0.0,27.0,27.0,27.0,1.0,2238575092-334269.jpg,2592380285-205564.jpg,A25N2OW7USWS2H
628,1.0,left,right,0.0,2.1637,0.0,28.0,28.0,28.0,1.0,2986408352-371293.jpg,2868488422-363713.jpg,A25N2OW7USWS2H
629,1.0,left,right,0.0,2.7595,0.0,29.0,29.0,29.0,1.0,2238471391-240918.jpg,2868470400-212889.jpg,A25N2OW7USWS2H
630,2.0,right,right,1.0,2.941400001,0.0,30.0,30.0,30.0,1.0,2981241419-145844.jpg,2238584869-113153.jpg,A25N2OW7USWS2H
631,2.0,left,left,1.0,2.858599999,0.0,31.0,31.0,31.0,1.0,2898617468-68274.jpg,2238585512-336576.jpg,A25N2OW7USWS2H
632,3.0,right,right,1.0,2.5043,0.0,32.0,32.0,32.0,1.0,2238576267-334532.jpg,2512876023-52283.jpg,A25N2OW7USWS2H
633,1.0,left,right,0.0,2.0563,0.0,33.0,33.0,33.0,1.0,2575964140-205050.jpg,2238482920-168428.jpg,A25N2OW7USWS2H
634,2.0,right,right,1.0,2.717,0.0,34.0,34.0,34.0,1.0,2238555799-106905.jpg,2864909447-362146.jpg,A25N2OW7USWS2H
635,1.0,right,right,1.0,2.230900001,0.0,35.0,35.0,35.0,1.0,2986402377-371266.jpg,2898624426-291546.jpg,A25N2OW7USWS2H
636,1.0,right,right,1.0,1.8095,0.0,36.0,36.0,36.0,1.0,2986397365-221133.jpg,2864906345-212360.jpg,A25N2OW7USWS2H
637,2.0,left,left,1.0,3.1757,0.0,37.0,37.0,37.0,1.0,2238516618-25604.jpg,2862686459-136888.jpg,A25N2OW7USWS2H
638,2.0,left,right,0.0,2.998,0.0,38.0,38.0,38.0,1.0,2331570830-189984.jpg,2449442529-124445.jpg,A25N2OW7USWS2H
639,2.0,left,right,0.0,1.9795,0.0,39.0,39.0,39.0,1.0,2238129579-80916.jpg,2898618444-142233.jpg,A25N2OW7USWS2H
640,3.0,left,left,1.0,2.8544,0.0,40.0,40.0,40.0,1.0,2883255450-215311.jpg,2575964014-130589.jpg,A25N2OW7USWS2H
641,2.0,right,right,1.0,1.4006,0.0,41.0,41.0,41.0,1.0,2273188118-40829.jpg,2898632385-217138.jpg,A25N2OW7USWS2H
642,2.0,left,left,1.0,3.4292,0.0,42.0,42.0,42.0,1.0,2238499155-170911.jpg,2452380832-348593.jpg,A25N2OW7USWS2H
643,2.0,right,right,1.0,2.6404,0.0,43.0,43.0,43.0,1.0,2825702353-60662.jpg,2994405328-74628.jpg,A25N2OW7USWS2H
644,3.0,right,right,1.0,2.713,0.0,44.0,44.0,44.0,1.0,2452381442-348755.jpg,2238584018-38513.jpg,A25N2OW7USWS2H
645,3.0,right,left,0.0,3.1522,0.0,45.0,45.0,45.0,1.0,2901951430-218724.jpg,2238126735-154721.jpg,A25N2OW7USWS2H
646,3.0,right,left,0.0,2.218,0.0,46.0,46.0,46.0,1.0,2862687442-360837.jpg,2274829821-263682.jpg,A25N2OW7USWS2H
647,2.0,left,left,1.0,2.8817,0.0,47.0,47.0,47.0,1.0,2449442529-124446.jpg,2868469458-64561.jpg,A25N2OW7USWS2H
648,2.0,left,left,1.0,1.8777,0.0,48.0,48.0,48.0,1.0,2238496457-319749.jpg,2592380234-131135.jpg,A25N2OW7USWS2H
649,1.0,right,left,0.0,2.258099999,0.0,49.0,49.0,49.0,1.0,2804906319-133082.jpg,2238480434-93829.jpg,A25N2OW7USWS2H
650,3.0,right,left,0.0,5.4482,0.0,50.0,50.0,50.0,1.0,2238380314-88261.jpg,2868485396-288511.jpg,A25N2OW7USWS2H
651,3.0,right,right,1.0,2.8046,0.0,51.0,51.0,51.0,1.0,2901945303-70125.jpg,2901941426-292805.jpg,A25N2OW7USWS2H
652,1.0,left,left,1.0,2.5044,0.0,52.0,52.0,52.0,1.0,2579432576-279079.jpg,2901934574-143126.jpg,A25N2OW7USWS2H
653,3.0,right,left,0.0,2.4551,0.0,53.0,53.0,53.0,1.0,2238525773-27014.jpg,2964218374-144968.jpg,A25N2OW7USWS2H
654,2.0,left,left,1.0,2.0188,0.0,54.0,54.0,54.0,1.0,2901934573-69337.jpg,2238345946-235007.jpg,A25N2OW7USWS2H
655,3.0,right,left,0.0,2.661200001,0.0,55.0,55.0,55.0,1.0,2238562336-256366.jpg,2883255450-215309.jpg,A25N2OW7USWS2H
656,1.0,right,left,0.0,1.5973,0.0,56.0,56.0,56.0,1.0,2989727350-222011.jpg,2986400320-221190.jpg,A25N2OW7USWS2H
657,2.0,left,left,1.0,2.9193,0.0,57.0,57.0,57.0,1.0,2964216465-219242.jpg,2512875796-274856.jpg,A25N2OW7USWS2H
658,3.0,right,right,1.0,2.0334,0.0,58.0,58.0,58.0,1.0,2238380901-236499.jpg,2452380166-273109.jpg,A25N2OW7USWS2H
659,1.0,left,left,1.0,1.7582,0.0,59.0,59.0,59.0,1.0,2964209380-218956.jpg,2868488456-288710.jpg,A25N2OW7USWS2H
660,2.0,right,right,1.0,2.837,0.0,0.0,0.0,0.0,1.0,2592379781-279345.jpg,2452380166-273109.jpg,A290Z6QAL17PQE
661,1.0,left,left,1.0,1.299,0.0,1.0,1.0,1.0,1.0,2274829821-263682.jpg,2238570526-257884.jpg,A290Z6QAL17PQE
662,3.0,right,right,1.0,2.911,0.0,2.0,2.0,2.0,1.0,2417207297-342139.jpg,2981231446-294731.jpg,A290Z6QAL17PQE
663,3.0,right,right,1.0,2.523,0.0,3.0,3.0,3.0,1.0,2812983311-281946.jpg,2883254439-140940.jpg,A290Z6QAL17PQE
664,2.0,left,right,0.0,0.798,0.0,4.0,4.0,4.0,1.0,2238550049-105691.jpg,2449443271-272729.jpg,A290Z6QAL17PQE
665,3.0,left,left,1.0,2.676,0.0,5.0,5.0,5.0,1.0,2446759803-49249.jpg,2238498786-244797.jpg,A290Z6QAL17PQE
666,2.0,left,left,1.0,4.094,0.0,6.0,6.0,6.0,1.0,2868475410-213219.jpg,2575964140-205051.jpg,A290Z6QAL17PQE
667,3.0,left,right,0.0,1.411,0.0,7.0,7.0,7.0,1.0,2446758985-197609.jpg,2984618344-146295.jpg,A290Z6QAL17PQE
668,3.0,left,left,1.0,1.255,0.0,8.0,8.0,8.0,1.0,2883255450-215311.jpg,2575964014-130589.jpg,A290Z6QAL17PQE
669,3.0,right,right,1.0,1.99,0.0,9.0,9.0,9.0,1.0,2986399339-146857.jpg,2238471391-240918.jpg,A290Z6QAL17PQE
670,3.0,left,right,0.0,1.934,0.0,10.0,10.0,10.0,1.0,2898633480-217190.jpg,2237858043-1434.jpg,A290Z6QAL17PQE
671,1.0,right,left,0.0,1.732,0.0,11.0,11.0,11.0,1.0,2446760621-272102.jpg,2446760524-123999.jpg,A290Z6QAL17PQE
672,2.0,right,right,1.0,2.388,0.0,12.0,12.0,12.0,1.0,2238470079-92499.jpg,2460547467-349421.jpg,A290Z6QAL17PQE
673,3.0,right,left,0.0,2.92,0.0,13.0,13.0,13.0,1.0,2238479903-19596.jpg,2238480434-93829.jpg,A290Z6QAL17PQE
674,3.0,left,right,0.0,1.895,0.0,14.0,14.0,14.0,1.0,2898617468-68274.jpg,2862684406-285700.jpg,A290Z6QAL17PQE
675,1.0,left,left,1.0,3.388,0.0,15.0,15.0,15.0,1.0,2964218374-144968.jpg,2238411877-313125.jpg,A290Z6QAL17PQE
676,3.0,left,right,0.0,3.53,0.0,16.0,16.0,16.0,1.0,2238516618-25604.jpg,2238470979-92618.jpg,A290Z6QAL17PQE
677,1.0,right,right,1.0,2.791,0.0,17.0,17.0,17.0,1.0,2989724308-73928.jpg,2883254439-140941.jpg,A290Z6QAL17PQE
678,1.0,right,right,1.0,3.573,0.0,18.0,18.0,18.0,1.0,2579432708-56394.jpg,2901938432-367627.jpg,A290Z6QAL17PQE
679,3.0,right,right,1.0,2.312,0.0,19.0,19.0,19.0,1.0,2964218374-144967.jpg,2238575092-334269.jpg,A290Z6QAL17PQE
680,1.0,right,left,0.0,2.562,0.0,20.0,20.0,20.0,1.0,2901934574-143126.jpg,2579432576-279079.jpg,A290Z6QAL17PQE
681,1.0,left,right,0.0,1.648,0.0,21.0,21.0,21.0,1.0,2986408352-371293.jpg,2868488422-363713.jpg,A290Z6QAL17PQE
682,2.0,left,left,1.0,2.443,0.0,22.0,22.0,22.0,1.0,2238375302-311538.jpg,2592380049-131077.jpg,A290Z6QAL17PQE
683,1.0,right,left,0.0,2.482,0.0,23.0,23.0,23.0,1.0,2989727350-222011.jpg,2986400320-221190.jpg,A290Z6QAL17PQE
684,2.0,left,left,1.0,1.734,0.0,24.0,24.0,24.0,1.0,2901939379-143479.jpg,2449443292-348022.jpg,A290Z6QAL17PQE
685,1.0,right,right,1.0,1.581,0.0,25.0,25.0,25.0,1.0,2449443163-50093.jpg,2238584018-38513.jpg,A290Z6QAL17PQE
686,1.0,left,left,1.0,1.21,0.0,26.0,26.0,26.0,1.0,2862691449-137104.jpg,2238540598-30035.jpg,A290Z6QAL17PQE
687,2.0,left,left,1.0,1.336,0.0,27.0,27.0,27.0,1.0,2964213381-294060.jpg,2238520921-248323.jpg,A290Z6QAL17PQE
688,1.0,left,right,0.0,1.22,0.0,28.0,28.0,28.0,1.0,2238129579-80916.jpg,2460547477-349426.jpg,A290Z6QAL17PQE
689,2.0,right,right,1.0,2.241,0.0,29.0,29.0,29.0,1.0,2449442365-198476.jpg,2898626385-216899.jpg,A290Z6QAL17PQE
690,2.0,right,right,1.0,1.455,0.0,30.0,30.0,30.0,1.0,2273188118-40829.jpg,2898632385-217138.jpg,A290Z6QAL17PQE
691,2.0,right,left,0.0,2.85,0.0,31.0,31.0,31.0,1.0,2901936369-143233.jpg,2883272438-68133.jpg,A290Z6QAL17PQE
692,2.0,left,right,0.0,1.277,0.0,32.0,32.0,32.0,1.0,2331570830-189984.jpg,2449442529-124445.jpg,A290Z6QAL17PQE
693,3.0,left,right,0.0,1.275,0.0,33.0,33.0,33.0,1.0,2898632385-217137.jpg,2864904453-63932.jpg,A290Z6QAL17PQE
694,2.0,left,right,0.0,2.517,0.0,34.0,34.0,34.0,1.0,2592380138-56727.jpg,2430664847-345753.jpg,A290Z6QAL17PQE
695,3.0,right,left,0.0,2.253,0.0,35.0,35.0,35.0,1.0,2238380314-88261.jpg,2868485396-288511.jpg,A290Z6QAL17PQE
696,1.0,left,right,0.0,1.121,0.0,36.0,36.0,36.0,1.0,2238584869-113153.jpg,2864901420-212147.jpg,A290Z6QAL17PQE
697,2.0,right,right,1.0,1.409,0.0,37.0,37.0,37.0,1.0,2238345946-235007.jpg,2901934573-69337.jpg,A290Z6QAL17PQE
698,1.0,left,left,1.0,2.074,0.0,38.0,38.0,38.0,1.0,2964216465-219242.jpg,2592380049-131079.jpg,A290Z6QAL17PQE
699,3.0,right,left,0.0,1.476,0.0,39.0,39.0,39.0,1.0,2238373603-13733.jpg,2238499155-170911.jpg,A290Z6QAL17PQE
700,1.0,left,left,1.0,2.461,0.0,40.0,40.0,40.0,1.0,2964224310-219527.jpg,2238380178-14011.jpg,A290Z6QAL17PQE
701,3.0,right,right,1.0,1.543,0.0,41.0,41.0,41.0,1.0,2238576267-334532.jpg,2512876023-52283.jpg,A290Z6QAL17PQE
702,2.0,left,left,1.0,1.785,0.0,42.0,42.0,42.0,1.0,2994405328-74628.jpg,2825702353-60662.jpg,A290Z6QAL17PQE
703,1.0,left,left,1.0,1.77,0.0,43.0,43.0,43.0,1.0,2449442529-124446.jpg,2238481610-168214.jpg,A290Z6QAL17PQE
704,3.0,right,right,1.0,1.474,0.0,44.0,44.0,44.0,1.0,2874303453-66056.jpg,2864909447-362146.jpg,A290Z6QAL17PQE
705,1.0,left,left,1.0,1.614,0.0,45.0,45.0,45.0,1.0,2238429999-90218.jpg,2986448334-147157.jpg,A290Z6QAL17PQE
706,2.0,left,left,1.0,3.351,0.0,46.0,46.0,46.0,1.0,2446760940-198145.jpg,2592380188-56743.jpg,A290Z6QAL17PQE
707,2.0,left,right,0.0,2.401,0.0,47.0,47.0,47.0,1.0,2575964140-205050.jpg,2238547522-328488.jpg,A290Z6QAL17PQE
708,1.0,right,right,1.0,3.179,0.0,48.0,48.0,48.0,1.0,2868488456-288710.jpg,2964209380-218956.jpg,A290Z6QAL17PQE
709,2.0,right,right,1.0,2.199,0.0,49.0,49.0,49.0,1.0,2874301437-363905.jpg,2238521193-26286.jpg,A290Z6QAL17PQE
710,1.0,right,right,1.0,2.747,0.0,50.0,50.0,50.0,1.0,2238570142-333223.jpg,2238496457-319749.jpg,A290Z6QAL17PQE
711,3.0,right,left,0.0,1.095,0.0,51.0,51.0,51.0,1.0,2883271323-68049.jpg,2238561223-33794.jpg,A290Z6QAL17PQE
712,2.0,left,left,1.0,1.43,0.0,52.0,52.0,52.0,1.0,2898635427-367120.jpg,2237941457-301342.jpg,A290Z6QAL17PQE
713,3.0,right,left,0.0,2.412,0.0,53.0,53.0,53.0,1.0,2598726160-205998.jpg,2625337302-355866.jpg,A290Z6QAL17PQE
714,1.0,right,right,1.0,1.289,0.0,54.0,54.0,54.0,1.0,2856919327-359676.jpg,2238126735-154721.jpg,A290Z6QAL17PQE
715,2.0,right,right,1.0,2.144,0.0,55.0,55.0,55.0,1.0,2238510189-98616.jpg,2901941426-292805.jpg,A290Z6QAL17PQE
716,3.0,right,left,0.0,1.948,0.0,56.0,56.0,56.0,1.0,2994403305-222559.jpg,2864906345-212360.jpg,A290Z6QAL17PQE
717,1.0,right,right,1.0,2.197,0.0,57.0,57.0,57.0,1.0,2238429999-90216.jpg,2883255450-215309.jpg,A290Z6QAL17PQE
718,3.0,left,left,1.0,1.49,0.0,58.0,58.0,58.0,1.0,2898624426-291546.jpg,2864902304-137862.jpg,A290Z6QAL17PQE
719,2.0,right,right,1.0,1.465,0.0,59.0,59.0,59.0,1.0,2981234334-145491.jpg,2964213381-294061.jpg,A290Z6QAL17PQE
720,2.0,left,right,0.0,3.7309,0.0,0.0,0.0,0.0,1.0,2446759803-49249.jpg,2238468265-166556.jpg,A2GUSVGAKNEGQF
721,2.0,right,right,1.0,1.3996,0.0,1.0,1.0,1.0,1.0,2592380177-354626.jpg,2238561223-33794.jpg,A2GUSVGAKNEGQF
722,1.0,left,left,1.0,1.1033,0.0,2.0,2.0,2.0,1.0,2592380138-56727.jpg,2986419351-296471.jpg,A2GUSVGAKNEGQF
723,3.0,left,left,1.0,1.4321,0.0,3.0,3.0,3.0,1.0,2238480434-93829.jpg,2238479903-19596.jpg,A2GUSVGAKNEGQF
724,1.0,left,left,1.0,1.2656,0.0,4.0,4.0,4.0,1.0,2575964140-205050.jpg,2238482920-168428.jpg,A2GUSVGAKNEGQF
725,2.0,left,right,0.0,1.5588,0.0,5.0,5.0,5.0,1.0,2460547467-349421.jpg,2238470079-92499.jpg,A2GUSVGAKNEGQF
726,2.0,left,left,1.0,1.2751,0.0,6.0,6.0,6.0,1.0,2238499155-170911.jpg,2452380832-348593.jpg,A2GUSVGAKNEGQF
727,3.0,left,left,1.0,1.2718,0.0,7.0,7.0,7.0,1.0,2238584018-38513.jpg,2452381442-348755.jpg,A2GUSVGAKNEGQF
728,1.0,right,right,1.0,1.2575,0.0,8.0,8.0,8.0,1.0,2898633421-291973.jpg,2446758985-197609.jpg,A2GUSVGAKNEGQF
729,2.0,right,right,1.0,1.4088,0.0,9.0,9.0,9.0,1.0,2237941457-301342.jpg,2898635427-367120.jpg,A2GUSVGAKNEGQF
730,1.0,right,left,0.0,1.5871,0.0,10.0,10.0,10.0,1.0,2238216693-10721.jpg,2868475410-213219.jpg,A2GUSVGAKNEGQF
731,1.0,right,right,1.0,1.2691,0.0,11.0,11.0,11.0,1.0,2575120738-55529.jpg,2898632385-217138.jpg,A2GUSVGAKNEGQF
732,3.0,right,left,0.0,1.535,0.0,12.0,12.0,12.0,1.0,2238380314-88261.jpg,2868485396-288511.jpg,A2GUSVGAKNEGQF
733,2.0,left,right,0.0,1.3208,0.0,13.0,13.0,13.0,1.0,2864906345-212360.jpg,2238087237-303447.jpg,A2GUSVGAKNEGQF
734,1.0,left,right,0.0,1.4957,0.0,14.0,14.0,14.0,1.0,2331570830-189984.jpg,2446760483-49429.jpg,A2GUSVGAKNEGQF
735,3.0,right,left,0.0,1.17,0.0,15.0,15.0,15.0,1.0,2864902304-137862.jpg,2898624426-291546.jpg,A2GUSVGAKNEGQF
736,1.0,right,right,1.0,1.1228,0.0,16.0,16.0,16.0,1.0,2592380255-205552.jpg,2238375302-311538.jpg,A2GUSVGAKNEGQF
737,3.0,right,right,1.0,1.236,0.0,17.0,17.0,17.0,1.0,2986455373-73646.jpg,2238584869-113153.jpg,A2GUSVGAKNEGQF
738,1.0,left,left,1.0,1.2773,0.0,18.0,18.0,18.0,1.0,2964224310-219527.jpg,2238380178-14011.jpg,A2GUSVGAKNEGQF
739,3.0,right,right,1.0,1.1481,0.0,19.0,19.0,19.0,1.0,2856916345-210056.jpg,2986408352-371293.jpg,A2GUSVGAKNEGQF
740,3.0,left,left,1.0,1.3345,0.0,20.0,20.0,20.0,1.0,2238575092-334269.jpg,2964218374-144967.jpg,A2GUSVGAKNEGQF
741,1.0,right,right,1.0,1.3688,0.0,21.0,21.0,21.0,1.0,2986450334-147215.jpg,2901939379-143479.jpg,A2GUSVGAKNEGQF
742,1.0,left,left,1.0,1.3035,0.0,22.0,22.0,22.0,1.0,2883255450-215311.jpg,2238481575-168208.jpg,A2GUSVGAKNEGQF
743,1.0,right,right,1.0,1.1693,0.0,23.0,23.0,23.0,1.0,2986401333-73218.jpg,2901934573-69337.jpg,A2GUSVGAKNEGQF
744,3.0,left,right,0.0,1.2977,0.0,24.0,24.0,24.0,1.0,2579432576-279079.jpg,2458348144-125787.jpg,A2GUSVGAKNEGQF
745,1.0,right,left,0.0,1.1812,0.0,25.0,25.0,25.0,1.0,2417206274-118542.jpg,2994405328-74628.jpg,A2GUSVGAKNEGQF
746,1.0,left,left,1.0,1.3196,0.0,26.0,26.0,26.0,1.0,2274829821-263682.jpg,2238570526-257884.jpg,A2GUSVGAKNEGQF
747,1.0,left,left,1.0,1.8496,0.0,27.0,27.0,27.0,1.0,2238429999-90218.jpg,2986448334-147157.jpg,A2GUSVGAKNEGQF
748,3.0,left,right,0.0,1.0141,0.0,28.0,28.0,28.0,1.0,2238496457-319749.jpg,2460547467-349422.jpg,A2GUSVGAKNEGQF
749,2.0,right,right,1.0,1.1243,0.0,29.0,29.0,29.0,1.0,2901943388-69995.jpg,2238471391-240918.jpg,A2GUSVGAKNEGQF
750,3.0,right,left,0.0,1.1276,0.0,30.0,30.0,30.0,1.0,2424122568-45517.jpg,2901938432-367627.jpg,A2GUSVGAKNEGQF
751,2.0,right,right,1.0,1.1452,0.0,31.0,31.0,31.0,1.0,2238585512-336576.jpg,2898617468-68274.jpg,A2GUSVGAKNEGQF
752,3.0,left,left,1.0,1.2324,0.0,32.0,32.0,32.0,1.0,2862691449-137104.jpg,2238328478-11678.jpg,A2GUSVGAKNEGQF
753,2.0,left,left,1.0,1.1202,0.0,33.0,33.0,33.0,1.0,2898633480-217190.jpg,2986450334-147216.jpg,A2GUSVGAKNEGQF
754,3.0,left,left,1.0,1.0622,0.0,34.0,34.0,34.0,1.0,2238516618-25604.jpg,2238470979-92618.jpg,A2GUSVGAKNEGQF
755,3.0,right,right,1.0,1.1429,0.0,35.0,35.0,35.0,1.0,2238525773-27014.jpg,2964218374-144968.jpg,A2GUSVGAKNEGQF
756,2.0,right,left,0.0,0.9689,0.0,36.0,36.0,36.0,1.0,2449443271-272729.jpg,2238550049-105691.jpg,A2GUSVGAKNEGQF
757,1.0,right,left,0.0,1.1965,0.0,37.0,37.0,37.0,1.0,2989727350-222011.jpg,2986400320-221190.jpg,A2GUSVGAKNEGQF
758,2.0,right,left,0.0,1.099,0.0,38.0,38.0,38.0,1.0,2238520921-248323.jpg,2964213381-294060.jpg,A2GUSVGAKNEGQF
759,2.0,left,right,0.0,0.9455,0.0,39.0,39.0,39.0,1.0,2898632385-217137.jpg,2238480803-19739.jpg,A2GUSVGAKNEGQF
760,3.0,right,left,0.0,1.0183,0.0,40.0,40.0,40.0,1.0,2238562336-256366.jpg,2883255450-215309.jpg,A2GUSVGAKNEGQF
761,3.0,right,right,1.0,0.9976,0.0,41.0,41.0,41.0,1.0,2446760917-347439.jpg,2964216465-219242.jpg,A2GUSVGAKNEGQF
762,2.0,left,left,1.0,0.999,0.0,42.0,42.0,42.0,1.0,2864909447-362146.jpg,2238555799-106905.jpg,A2GUSVGAKNEGQF
763,1.0,right,right,1.0,0.8974,0.0,43.0,43.0,43.0,1.0,2868488422-363715.jpg,2901941426-292805.jpg,A2GUSVGAKNEGQF
764,3.0,right,right,1.0,3.5975,0.0,44.0,44.0,44.0,1.0,2989721347-371917.jpg,2964213381-294061.jpg,A2GUSVGAKNEGQF
765,2.0,right,left,0.0,0.9393,0.0,45.0,45.0,45.0,1.0,2898631429-142736.jpg,2964209380-218956.jpg,A2GUSVGAKNEGQF
766,3.0,right,right,1.0,0.9611,0.0,46.0,46.0,46.0,1.0,2898618440-216545.jpg,2898626385-216899.jpg,A2GUSVGAKNEGQF
767,3.0,right,right,1.0,0.8836,0.0,47.0,47.0,47.0,1.0,2812983311-281946.jpg,2883254439-140940.jpg,A2GUSVGAKNEGQF
768,2.0,right,right,1.0,1.2738,0.0,48.0,48.0,48.0,1.0,2592379781-279345.jpg,2452380166-273109.jpg,A2GUSVGAKNEGQF
769,3.0,right,left,0.0,0.8604,0.0,49.0,49.0,49.0,1.0,2238161924-82646.jpg,2238129579-80916.jpg,A2GUSVGAKNEGQF
770,2.0,left,right,0.0,0.8157,0.0,50.0,50.0,50.0,1.0,2449442529-124446.jpg,2868469458-64561.jpg,A2GUSVGAKNEGQF
771,2.0,left,left,1.0,0.8186,0.0,51.0,51.0,51.0,1.0,2625337302-355866.jpg,2238478760-167789.jpg,A2GUSVGAKNEGQF
772,2.0,left,right,0.0,0.8498,0.0,52.0,52.0,52.0,1.0,2238126735-154721.jpg,2575122854-130480.jpg,A2GUSVGAKNEGQF
773,2.0,right,right,1.0,0.8492,0.0,53.0,53.0,53.0,1.0,2237965109-79314.jpg,2883254439-140941.jpg,A2GUSVGAKNEGQF
774,1.0,right,left,0.0,1.0078,0.0,54.0,54.0,54.0,1.0,2446760621-272102.jpg,2446760524-123999.jpg,A2GUSVGAKNEGQF
775,1.0,left,right,0.0,0.8366,0.0,55.0,55.0,55.0,1.0,2446760940-198145.jpg,2449443300-198739.jpg,A2GUSVGAKNEGQF
776,3.0,right,left,0.0,1.0405,0.0,56.0,56.0,56.0,1.0,2238576267-334532.jpg,2512876023-52283.jpg,A2GUSVGAKNEGQF
777,1.0,left,right,0.0,1.152,0.0,57.0,57.0,57.0,1.0,2238521193-26286.jpg,2825712309-134957.jpg,A2GUSVGAKNEGQF
778,2.0,left,right,0.0,0.8557,0.0,58.0,58.0,58.0,1.0,2883272438-68133.jpg,2901936369-143233.jpg,A2GUSVGAKNEGQF
779,1.0,right,left,0.0,0.9526,0.0,59.0,59.0,59.0,1.0,2986450330-221526.jpg,2981231446-294731.jpg,A2GUSVGAKNEGQF
780,3.0,left,left,1.0,4.0584,0.0,0.0,0.0,0.0,1.0,2994405328-74628.jpg,2883273443-68192.jpg,A2L18Q7871EONK
781,1.0,right,right,1.0,2.9905,0.0,1.0,1.0,1.0,1.0,2592380255-205552.jpg,2238375302-311538.jpg,A2L18Q7871EONK
782,3.0,left,left,1.0,1.8781,0.0,2.0,2.0,2.0,1.0,2274829821-263682.jpg,2862687442-360837.jpg,A2L18Q7871EONK
783,1.0,left,left,1.0,1.5127,0.0,3.0,3.0,3.0,1.0,2238429999-90218.jpg,2986448334-147157.jpg,A2L18Q7871EONK
784,2.0,left,left,1.0,1.3898,0.0,4.0,4.0,4.0,1.0,2238584869-113153.jpg,2981241419-145844.jpg,A2L18Q7871EONK
785,1.0,right,left,0.0,2.0813,0.0,5.0,5.0,5.0,1.0,2804906319-133082.jpg,2238480434-93829.jpg,A2L18Q7871EONK
786,2.0,right,left,0.0,1.5976,0.0,6.0,6.0,6.0,1.0,2592380177-354626.jpg,2238561223-33794.jpg,A2L18Q7871EONK
787,1.0,right,right,1.0,1.083,0.0,7.0,7.0,7.0,1.0,2579432708-56394.jpg,2901938432-367627.jpg,A2L18Q7871EONK
788,1.0,right,right,1.0,1.2884,0.0,8.0,8.0,8.0,1.0,2986397365-221133.jpg,2864906345-212360.jpg,A2L18Q7871EONK
789,2.0,right,right,1.0,2.1611,0.0,9.0,9.0,9.0,1.0,2452380832-348593.jpg,2238499155-170911.jpg,A2L18Q7871EONK
790,2.0,left,left,1.0,0.9184,0.0,10.0,10.0,10.0,1.0,2964213381-294060.jpg,2238520921-248323.jpg,A2L18Q7871EONK
791,1.0,left,left,1.0,1.2002,0.0,11.0,11.0,11.0,1.0,2964218374-144968.jpg,2238411877-313125.jpg,A2L18Q7871EONK
792,2.0,left,left,1.0,3.1196,0.0,12.0,12.0,12.0,1.0,2238126735-154721.jpg,2575122854-130480.jpg,A2L18Q7871EONK
793,2.0,right,right,1.0,2.4111,0.0,13.0,13.0,13.0,1.0,2446759580-197801.jpg,2986408352-371293.jpg,A2L18Q7871EONK
794,3.0,left,left,1.0,0.7673,0.0,14.0,14.0,14.0,1.0,2898632385-217137.jpg,2864904453-63932.jpg,A2L18Q7871EONK
795,2.0,left,left,1.0,1.6042,0.0,15.0,15.0,15.0,1.0,2981231446-294731.jpg,2238568685-183597.jpg,A2L18Q7871EONK
796,2.0,right,right,1.0,0.8131,0.0,16.0,16.0,16.0,1.0,2898631429-142736.jpg,2964209380-218956.jpg,A2L18Q7871EONK
797,1.0,right,right,1.0,2.3887,0.0,17.0,17.0,17.0,1.0,2460547477-349426.jpg,2238129579-80916.jpg,A2L18Q7871EONK
798,1.0,right,right,1.0,1.0649,0.0,18.0,18.0,18.0,1.0,2238481610-168214.jpg,2449442529-124446.jpg,A2L18Q7871EONK
799,2.0,right,right,1.0,1.7533,0.0,19.0,19.0,19.0,1.0,2449442365-198476.jpg,2898626385-216899.jpg,A2L18Q7871EONK
800,2.0,left,left,1.0,1.3737,0.0,20.0,20.0,20.0,1.0,2898617468-68274.jpg,2238585512-336576.jpg,A2L18Q7871EONK
801,2.0,right,left,0.0,2.6626,0.0,21.0,21.0,21.0,1.0,2238510189-98616.jpg,2901941426-292805.jpg,A2L18Q7871EONK
802,3.0,left,left,1.0,1.7238,0.0,22.0,22.0,22.0,1.0,2901934573-69337.jpg,2901936407-367476.jpg,A2L18Q7871EONK
803,1.0,left,right,0.0,2.4161,0.0,23.0,23.0,23.0,1.0,2512876023-52283.jpg,2864908323-64106.jpg,A2L18Q7871EONK
804,3.0,left,left,1.0,2.719,0.0,24.0,24.0,24.0,1.0,2868485396-288511.jpg,2238380314-88261.jpg,A2L18Q7871EONK
805,2.0,left,left,1.0,2.046,0.0,25.0,25.0,25.0,1.0,2883272438-68133.jpg,2901936369-143233.jpg,A2L18Q7871EONK
806,3.0,left,left,1.0,1.671,0.0,26.0,26.0,26.0,1.0,2446758985-197609.jpg,2984618344-146295.jpg,A2L18Q7871EONK
807,3.0,left,left,1.0,3.5429,0.0,27.0,27.0,27.0,1.0,2238550049-105691.jpg,2964219468-71238.jpg,A2L18Q7871EONK
808,3.0,left,left,1.0,1.4422,0.0,28.0,28.0,28.0,1.0,2964213381-294061.jpg,2989721347-371917.jpg,A2L18Q7871EONK
809,1.0,right,right,1.0,1.3376,0.0,29.0,29.0,29.0,1.0,2986402377-371266.jpg,2898624426-291546.jpg,A2L18Q7871EONK
810,1.0,right,right,1.0,2.5169,0.0,30.0,30.0,30.0,1.0,2989727350-222011.jpg,2986400320-221190.jpg,A2L18Q7871EONK
811,1.0,left,left,1.0,3.2635,0.0,31.0,31.0,31.0,1.0,2592380138-56727.jpg,2986419351-296471.jpg,A2L18Q7871EONK
812,1.0,left,left,1.0,1.2058,0.0,32.0,32.0,32.0,1.0,2898632385-217138.jpg,2575120738-55529.jpg,A2L18Q7871EONK
813,3.0,left,left,1.0,2.879,0.0,33.0,33.0,33.0,1.0,2883254439-140940.jpg,2812983311-281946.jpg,A2L18Q7871EONK
814,2.0,left,left,1.0,0.7188,0.0,34.0,34.0,34.0,1.0,2901939379-143479.jpg,2449443292-348022.jpg,A2L18Q7871EONK
815,1.0,left,right,0.0,1.5315,0.0,35.0,35.0,35.0,1.0,2238521193-26286.jpg,2825712309-134957.jpg,A2L18Q7871EONK
816,2.0,right,right,1.0,2.8854,0.0,36.0,36.0,36.0,1.0,2592380188-56743.jpg,2446760940-198145.jpg,A2L18Q7871EONK
817,1.0,left,left,1.0,3.3457,0.0,37.0,37.0,37.0,1.0,2446760524-123999.jpg,2446760621-272102.jpg,A2L18Q7871EONK
818,3.0,right,left,0.0,3.8786,0.0,38.0,38.0,38.0,1.0,2237858043-1434.jpg,2898633480-217190.jpg,A2L18Q7871EONK
819,3.0,right,right,1.0,1.2069,0.0,39.0,39.0,39.0,1.0,2238498786-244797.jpg,2446759803-49249.jpg,A2L18Q7871EONK
820,2.0,right,right,1.0,1.8908,0.0,40.0,40.0,40.0,1.0,2237965109-79314.jpg,2883254439-140941.jpg,A2L18Q7871EONK
821,2.0,left,left,1.0,3.8152,0.0,41.0,41.0,41.0,1.0,2964216465-219242.jpg,2512875796-274856.jpg,A2L18Q7871EONK
822,3.0,left,left,1.0,1.8895,0.0,42.0,42.0,42.0,1.0,2331570830-189984.jpg,2458348012-349114.jpg,A2L18Q7871EONK
823,2.0,right,right,1.0,2.2833,0.0,43.0,43.0,43.0,1.0,2238470079-92499.jpg,2460547467-349421.jpg,A2L18Q7871EONK
824,1.0,right,right,1.0,3.5851,0.0,44.0,44.0,44.0,1.0,2238481575-168208.jpg,2883255450-215311.jpg,A2L18Q7871EONK
825,3.0,left,right,0.0,3.0494,0.0,45.0,45.0,45.0,1.0,2898635427-367120.jpg,2901936309-143207.jpg,A2L18Q7871EONK
826,2.0,left,left,1.0,1.5896,0.0,46.0,46.0,46.0,1.0,2862691449-137104.jpg,2986455341-296758.jpg,A2L18Q7871EONK
827,1.0,left,left,1.0,1.5825,0.0,47.0,47.0,47.0,1.0,2238471391-240918.jpg,2868470400-212889.jpg,A2L18Q7871EONK
828,3.0,right,left,0.0,1.6861,0.0,48.0,48.0,48.0,1.0,2458348144-125787.jpg,2579432576-279079.jpg,A2L18Q7871EONK
829,1.0,right,right,1.0,1.2066,0.0,49.0,49.0,49.0,1.0,2592380285-205564.jpg,2238575092-334269.jpg,A2L18Q7871EONK
830,1.0,left,left,1.0,0.788,0.0,50.0,50.0,50.0,1.0,2238496457-319749.jpg,2238570142-333223.jpg,A2L18Q7871EONK
831,3.0,left,left,1.0,2.0743,0.0,51.0,51.0,51.0,1.0,2575964140-205050.jpg,2446760226-272005.jpg,A2L18Q7871EONK
832,3.0,right,right,1.0,2.929,0.0,52.0,52.0,52.0,1.0,2598726160-205998.jpg,2625337302-355866.jpg,A2L18Q7871EONK
833,3.0,left,left,1.0,3.3485,0.0,53.0,53.0,53.0,1.0,2238516618-25604.jpg,2238470979-92618.jpg,A2L18Q7871EONK
834,3.0,right,right,1.0,3.4713,0.0,54.0,54.0,54.0,1.0,2238380901-236499.jpg,2452380166-273109.jpg,A2L18Q7871EONK
835,2.0,left,left,1.0,2.5537,0.0,55.0,55.0,55.0,1.0,2238584018-38513.jpg,2898633321-291943.jpg,A2L18Q7871EONK
836,2.0,left,left,1.0,3.2073,0.0,56.0,56.0,56.0,1.0,2964224310-219527.jpg,2964213441-294073.jpg,A2L18Q7871EONK
837,3.0,right,right,1.0,1.536,0.0,57.0,57.0,57.0,1.0,2238562336-256366.jpg,2883255450-215309.jpg,A2L18Q7871EONK
838,3.0,right,left,0.0,2.194,0.0,58.0,58.0,58.0,1.0,2238436851-238821.jpg,2868475410-213219.jpg,A2L18Q7871EONK
839,1.0,left,left,1.0,2.4877,0.0,59.0,59.0,59.0,1.0,2864909447-362146.jpg,2874316384-140749.jpg,A2L18Q7871EONK
840,2.0,right,left,0.0,2.6851,0.0,0.0,0.0,0.0,1.0,2898636443-69154.jpg,2512876023-52283.jpg,A2MJQG58XN41OW
841,2.0,right,left,0.0,1.1418,0.0,1.0,1.0,1.0,1.0,2452380832-348593.jpg,2238499155-170911.jpg,A2MJQG58XN41OW
842,1.0,left,right,0.0,2.6135,0.0,2.0,2.0,2.0,1.0,2331570830-189984.jpg,2446760483-49429.jpg,A2MJQG58XN41OW
843,1.0,left,left,1.0,1.4126,0.0,3.0,3.0,3.0,1.0,2898635427-367120.jpg,2238436632-314069.jpg,A2MJQG58XN41OW
844,3.0,right,right,1.0,1.2158,0.0,4.0,4.0,4.0,1.0,2862684406-285700.jpg,2898617468-68274.jpg,A2MJQG58XN41OW
845,3.0,right,right,1.0,2.1579,0.0,5.0,5.0,5.0,1.0,2446760226-272005.jpg,2575964140-205050.jpg,A2MJQG58XN41OW
846,1.0,left,left,1.0,1.6658,0.0,6.0,6.0,6.0,1.0,2864906345-212360.jpg,2986397365-221133.jpg,A2MJQG58XN41OW
847,1.0,left,left,1.0,1.5459,0.0,7.0,7.0,7.0,1.0,2238550049-105691.jpg,2238482972-317759.jpg,A2MJQG58XN41OW
848,3.0,left,left,1.0,1.2432,0.0,8.0,8.0,8.0,1.0,2898632385-217137.jpg,2864904453-63932.jpg,A2MJQG58XN41OW
849,2.0,left,left,1.0,2.3354,0.0,9.0,9.0,9.0,1.0,2238496457-319749.jpg,2592380234-131135.jpg,A2MJQG58XN41OW
850,3.0,left,right,0.0,1.5579,0.0,10.0,10.0,10.0,1.0,2994405328-74628.jpg,2883273443-68192.jpg,A2MJQG58XN41OW
851,3.0,right,left,0.0,1.2095,0.0,11.0,11.0,11.0,1.0,2592380136-279476.jpg,2883272438-68133.jpg,A2MJQG58XN41OW
852,1.0,left,right,0.0,1.7824,0.0,12.0,12.0,12.0,1.0,2238126735-154721.jpg,2856919327-359676.jpg,A2MJQG58XN41OW
853,3.0,left,right,0.0,1.981,0.0,13.0,13.0,13.0,1.0,2238471391-240918.jpg,2986399339-146857.jpg,A2MJQG58XN41OW
854,3.0,right,right,1.0,1.5412,0.0,14.0,14.0,14.0,1.0,2238525773-27014.jpg,2964218374-144968.jpg,A2MJQG58XN41OW
855,3.0,right,left,0.0,1.4928,0.0,15.0,15.0,15.0,1.0,2238537701-251772.jpg,2592380138-56727.jpg,A2MJQG58XN41OW
856,2.0,left,left,1.0,1.7074,0.0,16.0,16.0,16.0,1.0,2901938432-367627.jpg,2856919327-359675.jpg,A2MJQG58XN41OW
857,2.0,right,right,1.0,2.3233,0.0,17.0,17.0,17.0,1.0,2575964140-205051.jpg,2868475410-213219.jpg,A2MJQG58XN41OW
858,2.0,left,left,1.0,2.4995,0.0,18.0,18.0,18.0,1.0,2898633480-217190.jpg,2986450334-147216.jpg,A2MJQG58XN41OW
859,2.0,left,left,1.0,2.386,0.0,19.0,19.0,19.0,1.0,2898632385-217138.jpg,2273188118-40829.jpg,A2MJQG58XN41OW
860,1.0,right,left,0.0,1.6236,0.0,20.0,20.0,20.0,1.0,2460547477-349426.jpg,2238129579-80916.jpg,A2MJQG58XN41OW
861,1.0,right,right,1.0,2.0004,0.0,21.0,21.0,21.0,1.0,2238429999-90216.jpg,2883255450-215309.jpg,A2MJQG58XN41OW
862,1.0,left,left,1.0,1.5608,0.0,22.0,22.0,22.0,1.0,2238516618-25604.jpg,2238573549-110485.jpg,A2MJQG58XN41OW
863,2.0,left,left,1.0,1.3595,0.0,23.0,23.0,23.0,1.0,2449442529-124446.jpg,2868469458-64561.jpg,A2MJQG58XN41OW
864,2.0,left,left,1.0,2.3768,0.0,24.0,24.0,24.0,1.0,2238480434-93829.jpg,2592380255-205551.jpg,A2MJQG58XN41OW
865,1.0,right,right,1.0,2.9017,0.0,25.0,25.0,25.0,1.0,2446760621-272102.jpg,2446760524-123999.jpg,A2MJQG58XN41OW
866,3.0,left,left,1.0,1.3206,0.0,26.0,26.0,26.0,1.0,2964216465-219242.jpg,2446760917-347439.jpg,A2MJQG58XN41OW
867,2.0,right,left,0.0,1.522,0.0,27.0,27.0,27.0,1.0,2238555799-106905.jpg,2864909447-362146.jpg,A2MJQG58XN41OW
868,2.0,left,left,1.0,1.5378,0.0,28.0,28.0,28.0,1.0,2898624426-291546.jpg,2549106844-127878.jpg,A2MJQG58XN41OW
869,1.0,left,left,1.0,1.5086,0.0,29.0,29.0,29.0,1.0,2883254439-140940.jpg,2452380166-273110.jpg,A2MJQG58XN41OW
870,2.0,left,left,1.0,1.7582,0.0,30.0,30.0,30.0,1.0,2964224310-219527.jpg,2964213441-294073.jpg,A2MJQG58XN41OW
871,1.0,right,right,1.0,2.0697,0.0,31.0,31.0,31.0,1.0,2989724308-73928.jpg,2883254439-140941.jpg,A2MJQG58XN41OW
872,1.0,right,right,1.0,1.558,0.0,32.0,32.0,32.0,1.0,2238570526-257884.jpg,2274829821-263682.jpg,A2MJQG58XN41OW
873,1.0,left,left,1.0,1.3967,0.0,33.0,33.0,33.0,1.0,2238375302-311538.jpg,2592380255-205552.jpg,A2MJQG58XN41OW
874,3.0,right,left,0.0,1.5085,0.0,34.0,34.0,34.0,1.0,2898618440-216545.jpg,2898626385-216899.jpg,A2MJQG58XN41OW
875,2.0,right,left,0.0,1.8801,0.0,35.0,35.0,35.0,1.0,2446760226-272006.jpg,2579432576-279079.jpg,A2MJQG58XN41OW
876,2.0,left,right,0.0,3.0508,0.0,36.0,36.0,36.0,1.0,2986400320-221190.jpg,2238470979-92615.jpg,A2MJQG58XN41OW
877,3.0,right,left,0.0,1.5468,0.0,37.0,37.0,37.0,1.0,2238328478-11678.jpg,2862691449-137104.jpg,A2MJQG58XN41OW
878,3.0,left,left,1.0,1.8804,0.0,38.0,38.0,38.0,1.0,2238521193-26286.jpg,2446760306-272024.jpg,A2MJQG58XN41OW
879,2.0,left,right,0.0,1.8121,0.0,39.0,39.0,39.0,1.0,2238584018-38513.jpg,2898633321-291943.jpg,A2MJQG58XN41OW
880,2.0,left,left,1.0,1.8488,0.0,40.0,40.0,40.0,1.0,2901939379-143479.jpg,2449443292-348022.jpg,A2MJQG58XN41OW
881,3.0,right,left,0.0,1.3899,0.0,41.0,41.0,41.0,1.0,2238380901-236499.jpg,2452380166-273109.jpg,A2MJQG58XN41OW
882,3.0,right,right,1.0,1.5082,0.0,42.0,42.0,42.0,1.0,2898617396-291219.jpg,2964209380-218956.jpg,A2MJQG58XN41OW
883,3.0,right,left,0.0,1.3918,0.0,43.0,43.0,43.0,1.0,2901945303-70125.jpg,2901941426-292805.jpg,A2MJQG58XN41OW
884,1.0,left,right,0.0,2.0012,0.0,44.0,44.0,44.0,1.0,2625337302-355866.jpg,2425492472-343825.jpg,A2MJQG58XN41OW
885,2.0,right,right,1.0,1.902,0.0,45.0,45.0,45.0,1.0,2868472420-213024.jpg,2868485396-288511.jpg,A2MJQG58XN41OW
886,1.0,left,left,1.0,1.5443,0.0,46.0,46.0,46.0,1.0,2446758985-197609.jpg,2898633421-291973.jpg,A2MJQG58XN41OW
887,2.0,left,left,1.0,2.1813,0.0,47.0,47.0,47.0,1.0,2446760940-198145.jpg,2592380188-56743.jpg,A2MJQG58XN41OW
888,2.0,left,left,1.0,3.8194,0.0,48.0,48.0,48.0,1.0,2964213381-294060.jpg,2238520921-248323.jpg,A2MJQG58XN41OW
889,3.0,right,right,1.0,2.7403,0.0,49.0,49.0,49.0,1.0,2238554179-106663.jpg,2460547467-349421.jpg,A2MJQG58XN41OW
890,1.0,right,right,1.0,5.0374,0.0,50.0,50.0,50.0,1.0,2864901420-212147.jpg,2238584869-113153.jpg,A2MJQG58XN41OW
891,1.0,right,right,1.0,1.3887,0.0,51.0,51.0,51.0,1.0,2238433340-164524.jpg,2964213381-294061.jpg,A2MJQG58XN41OW
892,3.0,left,left,1.0,1.1882,0.0,52.0,52.0,52.0,1.0,2238575092-334269.jpg,2964218374-144967.jpg,A2MJQG58XN41OW
893,1.0,left,left,1.0,3.326,0.0,53.0,53.0,53.0,1.0,2238429999-90218.jpg,2986448334-147157.jpg,A2MJQG58XN41OW
894,3.0,left,right,0.0,1.8544,0.0,54.0,54.0,54.0,1.0,2901934573-69337.jpg,2901936407-367476.jpg,A2MJQG58XN41OW
895,1.0,left,left,1.0,1.4606,0.0,55.0,55.0,55.0,1.0,2981231446-294731.jpg,2986450330-221526.jpg,A2MJQG58XN41OW
896,3.0,left,left,1.0,1.2712,0.0,56.0,56.0,56.0,1.0,2446759803-49249.jpg,2238498786-244797.jpg,A2MJQG58XN41OW
897,2.0,left,left,1.0,1.4916,0.0,57.0,57.0,57.0,1.0,2986408352-371293.jpg,2446759580-197801.jpg,A2MJQG58XN41OW
898,3.0,right,left,0.0,1.4353,0.0,58.0,58.0,58.0,1.0,2883271323-68049.jpg,2238561223-33794.jpg,A2MJQG58XN41OW
899,1.0,left,left,1.0,1.3228,0.0,59.0,59.0,59.0,1.0,2883255450-215311.jpg,2238481575-168208.jpg,A2MJQG58XN41OW
900,2.0,left,left,1.0,0.9984,0.0,0.0,0.0,0.0,1.0,2898632385-217138.jpg,2273188118-40829.jpg,A2ZHWGGGH028UZ
