button.numClicks,button.timesOn,button.timesOff,workID,Age,Gender,Hours slept (last night),date,expName,psychopyVersion,OS,frameRate,space_key_responce.keys,space_key_responce.rt,demo_encoding_response.keys,demo_encoding_response.corr,demo_encoding_loop.thisRepN,demo_encoding_loop.thisTrialN,demo_encoding_loop.thisN,demo_encoding_loop.thisIndex,demo_encoding_loop.ran,DemoImage,DemoCorrect,demo_encoding_response.rt,demo_test_response.keys,demo_test_response.corr,demo_test_response.rt,demo_test_loop.thisRepN,demo_test_loop.thisTrialN,demo_test_loop.thisN,demo_test_loop.thisIndex,demo_test_loop.ran,DemoImage1,DemoImage2,DemoCorrectTest,test_encoding_response.keys,test_encoding_response.corr,trials.thisRepN,trials.thisTrialN,trials.thisN,trials.thisIndex,trials.ran,target_image,pair,layer,correct,test_encoding_response.rt,key_resp_end.keys,key_resp_end.rt,key_resp_end_2.keys,key_resp_end_2.rt
1,[109.83899999999994],[109.83919999998807],A21YNTPZSVT4QX,25,female,8,2023-02-02_22h16.07.863,memory_pilot_most_recent,2022.2.4,Win32,2.837644188,,,,,,,,,,,,,,,,,,,,,,,,,,,,,,,,,,,,,,,
,,,A21YNTPZSVT4QX,25,female,8,2023-02-02_22h16.07.863,memory_pilot_most_recent,2022.2.4,Win32,2.837644188,,,,,,,,,,,,,,,,,,,,,,,,,,,,,,,,,,,,,,,
,,,A21YNTPZSVT4QX,25,female,8,2023-02-02_22h16.07.863,memory_pilot_most_recent,2022.2.4,Win32,2.837644188,space,5.8034,,,,,,,,,,,,,,,,,,,,,,,,,,,,,,,,,,,,,
,,,A21YNTPZSVT4QX,25,female,8,2023-02-02_22h16.07.863,memory_pilot_most_recent,2022.2.4,Win32,2.837644188,,,,,,,,,,,,,,,,,,,,,,,,,,,,,,,,,,,,,,,
,,,A21YNTPZSVT4QX,25,female,8,2023-02-02_22h16.07.863,memory_pilot_most_recent,2022.2.4,Win32,2.837644188,,,,1,0,0,0,0,1,flower1.jpg,,,,,,,,,,,,,,,,,,,,,,,,,,,,,
,,,A21YNTPZSVT4QX,25,female,8,2023-02-02_22h16.07.863,memory_pilot_most_recent,2022.2.4,Win32,2.837644188,,,,1,0,1,1,1,1,flower2.jpg,,,,,,,,,,,,,,,,,,,,,,,,,,,,,
,,,A21YNTPZSVT4QX,25,female,8,2023-02-02_22h16.07.863,memory_pilot_most_recent,2022.2.4,Win32,2.837644188,,,left,1,0,2,2,2,1,left.jpg,left,1.1606,,,,,,,,,,,,,,,,,,,,,,,,,,,
,,,A21YNTPZSVT4QX,25,female,8,2023-02-02_22h16.07.863,memory_pilot_most_recent,2022.2.4,Win32,2.837644188,,,,1,0,3,3,3,1,flower3.jpg,,,,,,,,,,,,,,,,,,,,,,,,,,,,,
,,,A21YNTPZSVT4QX,25,female,8,2023-02-02_22h16.07.863,memory_pilot_most_recent,2022.2.4,Win32,2.837644188,,,,1,0,4,4,4,1,flower4.jpg,,,,,,,,,,,,,,,,,,,,,,,,,,,,,
,,,A21YNTPZSVT4QX,25,female,8,2023-02-02_22h16.07.863,memory_pilot_most_recent,2022.2.4,Win32,2.837644188,,,,1,0,5,5,5,1,flower5.jpg,,,,,,,,,,,,,,,,,,,,,,,,,,,,,
,,,A21YNTPZSVT4QX,25,female,8,2023-02-02_22h16.07.863,memory_pilot_most_recent,2022.2.4,Win32,2.837644188,,,,1,0,6,6,6,1,flower6.jpg,,,,,,,,,,,,,,,,,,,,,,,,,,,,,
,,,A21YNTPZSVT4QX,25,female,8,2023-02-02_22h16.07.863,memory_pilot_most_recent,2022.2.4,Win32,2.837644188,,,,,,,,,,,,,,,,,,,,,,,,,,,,,,,,,,,,,,,
,,,A21YNTPZSVT4QX,25,female,8,2023-02-02_22h16.07.863,memory_pilot_most_recent,2022.2.4,Win32,2.837644188,,,,,,,,,,,,,left,1,2.221,0,0,0,0,1,flower1.jpg,flower1_pair.jpg,left,,,,,,,,,,,,,,,,
,,,A21YNTPZSVT4QX,25,female,8,2023-02-02_22h16.07.863,memory_pilot_most_recent,2022.2.4,Win32,2.837644188,,,,,,,,,,,,,right,1,2.2422,0,1,1,1,1,flower2_pair.jpg,flower2.jpg,right,,,,,,,,,,,,,,,,
,,,A21YNTPZSVT4QX,25,female,8,2023-02-02_22h16.07.863,memory_pilot_most_recent,2022.2.4,Win32,2.837644188,,,,,,,,,,,,,left,1,4.6498,0,2,2,2,1,flower3.jpg,flower3_pair.jpg,left,,,,,,,,,,,,,,,,
,,,A21YNTPZSVT4QX,25,female,8,2023-02-02_22h16.07.863,memory_pilot_most_recent,2022.2.4,Win32,2.837644188,,,,,,,,,,,,,left,1,1.9948,0,3,3,3,1,flower4.jpg,flower4_pair.jpg,left,,,,,,,,,,,,,,,,
,,,A21YNTPZSVT4QX,25,female,8,2023-02-02_22h16.07.863,memory_pilot_most_recent,2022.2.4,Win32,2.837644188,,,,,,,,,,,,,right,1,4.4566,0,4,4,4,1,flower5_pair.jpg,flower5.jpg,right,,,,,,,,,,,,,,,,
,,,A21YNTPZSVT4QX,25,female,8,2023-02-02_22h16.07.863,memory_pilot_most_recent,2022.2.4,Win32,2.837644188,,,,,,,,,,,,,left,1,2.3646,0,5,5,5,1,flower6.jpg,flower6_pair.jpg,left,,,,,,,,,,,,,,,,
,,,A21YNTPZSVT4QX,25,female,8,2023-02-02_22h16.07.863,memory_pilot_most_recent,2022.2.4,Win32,2.837644188,,,,,,,,,,,,,,,,,,,,,,,,,,,,,,,,,,,,,,,
,,,A21YNTPZSVT4QX,25,female,8,2023-02-02_22h16.07.863,memory_pilot_most_recent,2022.2.4,Win32,2.837644188,space,3.6762,,,,,,,,,,,,,,,,,,,,,,,,,,,,,,,,,,,,,
,,,A21YNTPZSVT4QX,25,female,8,2023-02-02_22h16.07.863,memory_pilot_most_recent,2022.2.4,Win32,2.837644188,,,,,,,,,,,,,,,,,,,,,,,,,1,0,0,0,0,1,LESSER_ADJUTANT_4.jpg,FAIRY_TERN_3.jpg,3,,,,,,
,,,A21YNTPZSVT4QX,25,female,8,2023-02-02_22h16.07.863,memory_pilot_most_recent,2022.2.4,Win32,2.837644188,,,,,,,,,,,,,,,,,,,,,,,,,1,0,1,1,1,1,CASSOWARY_1.jpg,SCARLET_MACAW_1.jpg,2,,,,,,
,,,A21YNTPZSVT4QX,25,female,8,2023-02-02_22h16.07.863,memory_pilot_most_recent,2022.2.4,Win32,2.837644188,,,,,,,,,,,,,,,,,,,,,,,,,1,0,2,2,2,1,CHUKAR_PARTRIDGE_5.jpg,OSTRICH_5.jpg,1,,,,,,
,,,A21YNTPZSVT4QX,25,female,8,2023-02-02_22h16.07.863,memory_pilot_most_recent,2022.2.4,Win32,2.837644188,,,,,,,,,,,,,,,,,,,,,,,,,1,0,3,3,3,1,LARK_BUNTING_2.jpg,CACTUS_WREN_3.jpg,3,,,,,,
,,,A21YNTPZSVT4QX,25,female,8,2023-02-02_22h16.07.863,memory_pilot_most_recent,2022.2.4,Win32,2.837644188,,,,,,,,,,,,,,,,,,,,,,,,,1,0,4,4,4,1,CRESTED_NUTHATCH_2.jpg,AFRICAN_FIREFINCH_1.jpg,2,,,,,,
,,,A21YNTPZSVT4QX,25,female,8,2023-02-02_22h16.07.863,memory_pilot_most_recent,2022.2.4,Win32,2.837644188,,,,,,,,,,,,,,,,,,,,,,,,,1,0,5,5,5,1,BROWN_THRASHER_3.jpg,DOUBLE_EYED_FIG_PARROT_3.jpg,1,,,,,,
,,,A21YNTPZSVT4QX,25,female,8,2023-02-02_22h16.07.863,memory_pilot_most_recent,2022.2.4,Win32,2.837644188,,,,,,,,,,,,,,,,,,,,,,,,,1,0,6,6,6,1,SHOEBILL_3.jpg,BALD_EAGLE_5.jpg,3,,,,,,
,,,A21YNTPZSVT4QX,25,female,8,2023-02-02_22h16.07.863,memory_pilot_most_recent,2022.2.4,Win32,2.837644188,,,,,,,,,,,,,,,,,,,,,,,,,1,0,7,7,7,1,HAWAIIAN_GOOSE_4.jpg,CUBAN_TODY_3.jpg,1,,,,,,
,,,A21YNTPZSVT4QX,25,female,8,2023-02-02_22h16.07.863,memory_pilot_most_recent,2022.2.4,Win32,2.837644188,,,,,,,,,,,,,,,,,,,,,,,,,1,0,8,8,8,1,PYGMY_KINGFISHER_5.jpg,DOUBLE_EYED_FIG_PARROT_4.jpg,3,,,,,,
,,,A21YNTPZSVT4QX,25,female,8,2023-02-02_22h16.07.863,memory_pilot_most_recent,2022.2.4,Win32,2.837644188,,,,,,,,,,,,,,,,,,,,,,,,,1,0,9,9,9,1,INDIGO_BUNTING_1.jpg,DARWINS_FLYCATCHER_2.jpg,3,,,,,,
,,,A21YNTPZSVT4QX,25,female,8,2023-02-02_22h16.07.863,memory_pilot_most_recent,2022.2.4,Win32,2.837644188,,,,,,,,,,,,,,,,,,,,,,,,left,1,0,10,10,10,1,left.jpg,,,left,1.4355,,,,
,,,A21YNTPZSVT4QX,25,female,8,2023-02-02_22h16.07.863,memory_pilot_most_recent,2022.2.4,Win32,2.837644188,,,,,,,,,,,,,,,,,,,,,,,,,1,0,11,11,11,1,OCELLATED_TURKEY_1.jpg,AMERICAN_PIPIT_1.jpg,2,,,,,,
,,,A21YNTPZSVT4QX,25,female,8,2023-02-02_22h16.07.863,memory_pilot_most_recent,2022.2.4,Win32,2.837644188,,,,,,,,,,,,,,,,,,,,,,,,,1,0,12,12,12,1,GOLDEN_CHEEKED_WARBLER_2.jpg,SPOONBILL_1.jpg,1,,,,,,
,,,A21YNTPZSVT4QX,25,female,8,2023-02-02_22h16.07.863,memory_pilot_most_recent,2022.2.4,Win32,2.837644188,,,,,,,,,,,,,,,,,,,,,,,,,1,0,13,13,13,1,KILLDEAR_2.jpg,PEACOCK_5.jpg,1,,,,,,
,,,A21YNTPZSVT4QX,25,female,8,2023-02-02_22h16.07.863,memory_pilot_most_recent,2022.2.4,Win32,2.837644188,,,,,,,,,,,,,,,,,,,,,,,,,1,0,14,14,14,1,ASIAN_DOLLARD_BIRD_2.jpg,LOGGERHEAD_SHRIKE_4.jpg,2,,,,,,
,,,A21YNTPZSVT4QX,25,female,8,2023-02-02_22h16.07.863,memory_pilot_most_recent,2022.2.4,Win32,2.837644188,,,,,,,,,,,,,,,,,,,,,,,,,1,0,15,15,15,1,FLAME_BOWERBIRD_3.jpg,BROWN_THRASHER_4.jpg,2,,,,,,
,,,A21YNTPZSVT4QX,25,female,8,2023-02-02_22h16.07.863,memory_pilot_most_recent,2022.2.4,Win32,2.837644188,,,,,,,,,,,,,,,,,,,,,,,,,1,0,16,16,16,1,IVORY_GULL_1.jpg,WILSONS_BIRD_OF_PARADISE_4.jpg,1,,,,,,
,,,A21YNTPZSVT4QX,25,female,8,2023-02-02_22h16.07.863,memory_pilot_most_recent,2022.2.4,Win32,2.837644188,,,,,,,,,,,,,,,,,,,,,,,,,1,0,17,17,17,1,RUBY_THROATED_HUMMINGBIRD_2.jpg,GOLDEN_CHLOROPHONIA_2.jpg,1,,,,,,
,,,A21YNTPZSVT4QX,25,female,8,2023-02-02_22h16.07.863,memory_pilot_most_recent,2022.2.4,Win32,2.837644188,,,,,,,,,,,,,,,,,,,,,,,,,1,0,18,18,18,1,INCA_TERN_4.jpg,ELLIOTS__PHEASANT_4.jpg,1,,,,,,
,,,A21YNTPZSVT4QX,25,female,8,2023-02-02_22h16.07.863,memory_pilot_most_recent,2022.2.4,Win32,2.837644188,,,,,,,,,,,,,,,,,,,,,,,,,0,0,19,19,19,1,right.jpg,,,right,,,,,
,,,A21YNTPZSVT4QX,25,female,8,2023-02-02_22h16.07.863,memory_pilot_most_recent,2022.2.4,Win32,2.837644188,,,,,,,,,,,,,,,,,,,,,,,,,1,0,20,20,20,1,PINK_ROBIN_4.jpg,SPOONBILL_3.jpg,1,,,,,,
,,,A21YNTPZSVT4QX,25,female,8,2023-02-02_22h16.07.863,memory_pilot_most_recent,2022.2.4,Win32,2.837644188,,,,,,,,,,,,,,,,,,,,,,,,,1,0,21,21,21,1,CASPIAN_TERN_1.jpg,COMMON_LOON_2.jpg,3,,,,,,
,,,A21YNTPZSVT4QX,25,female,8,2023-02-02_22h16.07.863,memory_pilot_most_recent,2022.2.4,Win32,2.837644188,,,,,,,,,,,,,,,,,,,,,,,,,1,0,22,22,22,1,KAGU_5.jpg,ASHY_STORM_PETREL_1.jpg,2,,,,,,
,,,A21YNTPZSVT4QX,25,female,8,2023-02-02_22h16.07.863,memory_pilot_most_recent,2022.2.4,Win32,2.837644188,,,,,,,,,,,,,,,,,,,,,,,,,1,0,23,23,23,1,BALI_STARLING_1.jpg,IBERIAN_MAGPIE_1.jpg,3,,,,,,
,,,A21YNTPZSVT4QX,25,female,8,2023-02-02_22h16.07.863,memory_pilot_most_recent,2022.2.4,Win32,2.837644188,,,,,,,,,,,,,,,,,,,,,,,,,1,0,24,24,24,1,RED_HEADED_WOODPECKER_5.jpg,CRIMSON_CHAT_3.jpg,2,,,,,,
,,,A21YNTPZSVT4QX,25,female,8,2023-02-02_22h16.07.863,memory_pilot_most_recent,2022.2.4,Win32,2.837644188,,,,,,,,,,,,,,,,,,,,,,,,,1,0,25,25,25,1,WHITE_CHEEKED_TURACO_5.jpg,NORTHERN_MOCKINGBIRD_4.jpg,1,,,,,,
,,,A21YNTPZSVT4QX,25,female,8,2023-02-02_22h16.07.863,memory_pilot_most_recent,2022.2.4,Win32,2.837644188,,,,,,,,,,,,,,,,,,,,,,,,,1,0,26,26,26,1,AMERICAN_PIPIT_5.jpg,HEPATIC_TANAGER_5.jpg,3,,,,,,
,,,A21YNTPZSVT4QX,25,female,8,2023-02-02_22h16.07.863,memory_pilot_most_recent,2022.2.4,Win32,2.837644188,,,,,,,,,,,,,,,,,,,,,,,,,1,0,27,27,27,1,CERULEAN_WARBLER_1.jpg,AMERICAN_FLAMINGO_5.jpg,2,,,,,,
,,,A21YNTPZSVT4QX,25,female,8,2023-02-02_22h16.07.863,memory_pilot_most_recent,2022.2.4,Win32,2.837644188,,,,,,,,,,,,,,,,,,,,,,,,,1,0,28,28,28,1,EUROPEAN_TURTLE_DOVE_3.jpg,PAINTED_BUNTING_3.jpg,2,,,,,,
,,,A21YNTPZSVT4QX,25,female,8,2023-02-02_22h16.07.863,memory_pilot_most_recent,2022.2.4,Win32,2.837644188,,,,,,,,,,,,,,,,,,,,,,,,,1,0,29,29,29,1,GYRFALCON_1.jpg,OSTRICH_1.jpg,1,,,,,,
,,,A21YNTPZSVT4QX,25,female,8,2023-02-02_22h16.07.863,memory_pilot_most_recent,2022.2.4,Win32,2.837644188,,,,,,,,,,,,,,,,,,,,,,,,,1,0,30,30,30,1,AFRICAN_PIED_HORNBILL_5.jpg,CAPUCHINBIRD_2.jpg,3,,,,,,
,,,A21YNTPZSVT4QX,25,female,8,2023-02-02_22h16.07.863,memory_pilot_most_recent,2022.2.4,Win32,2.837644188,,,,,,,,,,,,,,,,,,,,,,,,,1,0,31,31,31,1,ASIAN_CRESTED_IBIS_4.jpg,OYSTER_CATCHER_2.jpg,2,,,,,,
,,,A21YNTPZSVT4QX,25,female,8,2023-02-02_22h16.07.863,memory_pilot_most_recent,2022.2.4,Win32,2.837644188,,,,,,,,,,,,,,,,,,,,,,,,left,1,0,32,32,32,1,left.jpg,,,left,1.3609,,,,
,,,A21YNTPZSVT4QX,25,female,8,2023-02-02_22h16.07.863,memory_pilot_most_recent,2022.2.4,Win32,2.837644188,,,,,,,,,,,,,,,,,,,,,,,,,1,0,33,33,33,1,GOLDEN_CHLOROPHONIA_5.jpg,ROADRUNNER_2.jpg,1,,,,,,
,,,A21YNTPZSVT4QX,25,female,8,2023-02-02_22h16.07.863,memory_pilot_most_recent,2022.2.4,Win32,2.837644188,,,,,,,,,,,,,,,,,,,,,,,,,1,0,34,34,34,1,MAGPIE_GOOSE_5.jpg,HAMERKOP_1.jpg,2,,,,,,
,,,A21YNTPZSVT4QX,25,female,8,2023-02-02_22h16.07.863,memory_pilot_most_recent,2022.2.4,Win32,2.837644188,,,,,,,,,,,,,,,,,,,,,,,,,1,0,35,35,35,1,CRESTED_CARACARA_4.jpg,INDIAN_PITTA_2.jpg,2,,,,,,
,,,A21YNTPZSVT4QX,25,female,8,2023-02-02_22h16.07.863,memory_pilot_most_recent,2022.2.4,Win32,2.837644188,,,,,,,,,,,,,,,,,,,,,,,,,1,0,36,36,36,1,PEACOCK_3.jpg,STRAWBERRY_FINCH_4.jpg,2,,,,,,
,,,A21YNTPZSVT4QX,25,female,8,2023-02-02_22h16.07.863,memory_pilot_most_recent,2022.2.4,Win32,2.837644188,,,,,,,,,,,,,,,,,,,,,,,,,1,0,37,37,37,1,ARARIPE_MANAKIN_4.jpg,BORNEAN_LEAFBIRD_3.jpg,3,,,,,,
,,,A21YNTPZSVT4QX,25,female,8,2023-02-02_22h16.07.863,memory_pilot_most_recent,2022.2.4,Win32,2.837644188,,,,,,,,,,,,,,,,,,,,,,,,,1,0,38,38,38,1,EASTERN_TOWEE_2.jpg,GOLDEN_CHLOROPHONIA_1.jpg,2,,,,,,
,,,A21YNTPZSVT4QX,25,female,8,2023-02-02_22h16.07.863,memory_pilot_most_recent,2022.2.4,Win32,2.837644188,,,,,,,,,,,,,,,,,,,,,,,,right,1,0,39,39,39,1,right.jpg,,,right,1.5765,,,,
,,,A21YNTPZSVT4QX,25,female,8,2023-02-02_22h16.07.863,memory_pilot_most_recent,2022.2.4,Win32,2.837644188,,,,,,,,,,,,,,,,,,,,,,,,,1,0,40,40,40,1,GREY_PLOVER_1.jpg,GOULDIAN_FINCH_4.jpg,2,,,,,,
,,,A21YNTPZSVT4QX,25,female,8,2023-02-02_22h16.07.863,memory_pilot_most_recent,2022.2.4,Win32,2.837644188,,,,,,,,,,,,,,,,,,,,,,,,,1,0,41,41,41,1,DOUBLE_BRESTED_CORMARANT_5.jpg,CHINESE_POND_HERON_2.jpg,3,,,,,,
,,,A21YNTPZSVT4QX,25,female,8,2023-02-02_22h16.07.863,memory_pilot_most_recent,2022.2.4,Win32,2.837644188,,,,,,,,,,,,,,,,,,,,,,,,,1,0,42,42,42,1,MALACHITE_KINGFISHER_2.jpg,AMERICAN_FLAMINGO_1.jpg,1,,,,,,
,,,A21YNTPZSVT4QX,25,female,8,2023-02-02_22h16.07.863,memory_pilot_most_recent,2022.2.4,Win32,2.837644188,,,,,,,,,,,,,,,,,,,,,,,,,1,0,43,43,43,1,OVENBIRD_5.jpg,SHORT_BILLED_DOWITCHER_5.jpg,3,,,,,,
,,,A21YNTPZSVT4QX,25,female,8,2023-02-02_22h16.07.863,memory_pilot_most_recent,2022.2.4,Win32,2.837644188,,,,,,,,,,,,,,,,,,,,,,,,,1,0,44,44,44,1,SCARLET_TANAGER_2.jpg,BEARDED_BARBET_2.jpg,1,,,,,,
,,,A21YNTPZSVT4QX,25,female,8,2023-02-02_22h16.07.863,memory_pilot_most_recent,2022.2.4,Win32,2.837644188,,,,,,,,,,,,,,,,,,,,,,,,,1,0,45,45,45,1,VERMILION_FLYCATHER_3.jpg,CALIFORNIA_GULL_1.jpg,2,,,,,,
,,,A21YNTPZSVT4QX,25,female,8,2023-02-02_22h16.07.863,memory_pilot_most_recent,2022.2.4,Win32,2.837644188,,,,,,,,,,,,,,,,,,,,,,,,,1,0,46,46,46,1,BREWERS_BLACKBIRD_3.jpg,CAPE_LONGCLAW_2.jpg,3,,,,,,
,,,A21YNTPZSVT4QX,25,female,8,2023-02-02_22h16.07.863,memory_pilot_most_recent,2022.2.4,Win32,2.837644188,,,,,,,,,,,,,,,,,,,,,,,,,1,0,47,47,47,1,ALPINE_CHOUGH_4.jpg,BOBOLINK_3.jpg,3,,,,,,
,,,A21YNTPZSVT4QX,25,female,8,2023-02-02_22h16.07.863,memory_pilot_most_recent,2022.2.4,Win32,2.837644188,,,,,,,,,,,,,,,,,,,,,,,,,1,0,48,48,48,1,RUFOUS_KINGFISHER_1.jpg,HORNED_SUNGEM_4.jpg,3,,,,,,
,,,A21YNTPZSVT4QX,25,female,8,2023-02-02_22h16.07.863,memory_pilot_most_recent,2022.2.4,Win32,2.837644188,,,,,,,,,,,,,,,,,,,,,,,,,1,0,49,49,49,1,RUBY_THROATED_HUMMINGBIRD_3.jpg,MYNA_5.jpg,2,,,,,,
,,,A21YNTPZSVT4QX,25,female,8,2023-02-02_22h16.07.863,memory_pilot_most_recent,2022.2.4,Win32,2.837644188,,,,,,,,,,,,,,,,,,,,,,,,right,1,0,50,50,50,1,right.jpg,,,right,1.3613,,,,
,,,A21YNTPZSVT4QX,25,female,8,2023-02-02_22h16.07.863,memory_pilot_most_recent,2022.2.4,Win32,2.837644188,,,,,,,,,,,,,,,,,,,,,,,,,1,0,51,51,51,1,MYNA_1.jpg,GREY_PLOVER_4.jpg,2,,,,,,
,,,A21YNTPZSVT4QX,25,female,8,2023-02-02_22h16.07.863,memory_pilot_most_recent,2022.2.4,Win32,2.837644188,,,,,,,,,,,,,,,,,,,,,,,,,1,0,52,52,52,1,LITTLE_AUK_5.jpg,SANDHILL_CRANE_3.jpg,1,,,,,,
,,,A21YNTPZSVT4QX,25,female,8,2023-02-02_22h16.07.863,memory_pilot_most_recent,2022.2.4,Win32,2.837644188,,,,,,,,,,,,,,,,,,,,,,,,,1,0,53,53,53,1,RUBY_THROATED_HUMMINGBIRD_1.jpg,FRIGATE_1.jpg,3,,,,,,
,,,A21YNTPZSVT4QX,25,female,8,2023-02-02_22h16.07.863,memory_pilot_most_recent,2022.2.4,Win32,2.837644188,,,,,,,,,,,,,,,,,,,,,,,,,1,0,54,54,54,1,ECUADORIAN_HILLSTAR_5.jpg,CRIMSON_SUNBIRD_5.jpg,3,,,,,,
,,,A21YNTPZSVT4QX,25,female,8,2023-02-02_22h16.07.863,memory_pilot_most_recent,2022.2.4,Win32,2.837644188,,,,,,,,,,,,,,,,,,,,,,,,,1,0,55,55,55,1,BROWN_NOODY_3.jpg,PEACOCK_2.jpg,1,,,,,,
,,,A21YNTPZSVT4QX,25,female,8,2023-02-02_22h16.07.863,memory_pilot_most_recent,2022.2.4,Win32,2.837644188,,,,,,,,,,,,,,,,,,,,,,,,,1,0,56,56,56,1,PARUS_MAJOR_1.jpg,SANDHILL_CRANE_4.jpg,1,,,,,,
,,,A21YNTPZSVT4QX,25,female,8,2023-02-02_22h16.07.863,memory_pilot_most_recent,2022.2.4,Win32,2.837644188,,,,,,,,,,,,,,,,,,,,,,,,,1,0,57,57,57,1,LESSER_ADJUTANT_5.jpg,RED_HEADED_WOODPECKER_1.jpg,3,,,,,,
,,,A21YNTPZSVT4QX,25,female,8,2023-02-02_22h16.07.863,memory_pilot_most_recent,2022.2.4,Win32,2.837644188,,,,,,,,,,,,,,,,,,,,,,,,,1,0,58,58,58,1,TASMANIAN_HEN_5.jpg,AFRICAN_EMERALD_CUCKOO_5.jpg,2,,,,,,
,,,A21YNTPZSVT4QX,25,female,8,2023-02-02_22h16.07.863,memory_pilot_most_recent,2022.2.4,Win32,2.837644188,,,,,,,,,,,,,,,,,,,,,,,,,1,0,59,59,59,1,GRAY_KINGBIRD_5.jpg,BALD_EAGLE_2.jpg,1,,,,,,
,,,A21YNTPZSVT4QX,25,female,8,2023-02-02_22h16.07.863,memory_pilot_most_recent,2022.2.4,Win32,2.837644188,,,,,,,,,,,,,,,,,,,,,,,,,1,0,60,60,60,1,STRIPPED_SWALLOW_1.jpg,DOUBLE_BRESTED_CORMARANT_4.jpg,1,,,,,,
,,,A21YNTPZSVT4QX,25,female,8,2023-02-02_22h16.07.863,memory_pilot_most_recent,2022.2.4,Win32,2.837644188,,,,,,,,,,,,,,,,,,,,,,,,,1,0,61,61,61,1,NORTHERN_JACANA_3.jpg,SCARLET_IBIS_4.jpg,3,,,,,,
,,,A21YNTPZSVT4QX,25,female,8,2023-02-02_22h16.07.863,memory_pilot_most_recent,2022.2.4,Win32,2.837644188,,,,,,,,,,,,,,,,,,,,,,,,,1,0,62,62,62,1,INLAND_DOTTEREL_4.jpg,CASSOWARY_2.jpg,1,,,,,,
,,,A21YNTPZSVT4QX,25,female,8,2023-02-02_22h16.07.863,memory_pilot_most_recent,2022.2.4,Win32,2.837644188,,,,,,,,,,,,,,,,,,,,,,,,,1,0,63,63,63,1,SPLENDID_WREN_1.jpg,CUBAN_TODY_4.jpg,3,,,,,,
,,,A21YNTPZSVT4QX,25,female,8,2023-02-02_22h16.07.863,memory_pilot_most_recent,2022.2.4,Win32,2.837644188,,,,,,,,,,,,,,,,,,,,,,,,,1,0,64,64,64,1,IVORY_GULL_3.jpg,FLAME_TANAGER_3.jpg,2,,,,,,
,,,A21YNTPZSVT4QX,25,female,8,2023-02-02_22h16.07.863,memory_pilot_most_recent,2022.2.4,Win32,2.837644188,,,,,,,,,,,,,,,,,,,,,,,,,,,,,,,,,,,,space,2.7096,,
,,,A21YNTPZSVT4QX,25,female,8,2023-02-02_22h16.07.863,memory_pilot_most_recent,2022.2.4,Win32,2.837644188,,,,,,,,,,,,,,,,,,,,,,,,,,,,,,,,,,,,,,,
,,,A21YNTPZSVT4QX,25,female,8,2023-02-02_22h16.07.863,memory_pilot_most_recent,2022.2.4,Win32,2.837644188,,,,,,,,,,,,,,,,,,,,,,,,,,,,,,,,,,,,,,space,85.7323
