button.numClicks,button.timesOn,button.timesOff,workID,Age,Gender,Hours slept (last night),date,expName,psychopyVersion,OS,frameRate,space_key_responce.keys,space_key_responce.rt,demo_encoding_response.keys,demo_encoding_response.corr,demo_encoding_loop.thisRepN,demo_encoding_loop.thisTrialN,demo_encoding_loop.thisN,demo_encoding_loop.thisIndex,demo_encoding_loop.ran,DemoImage,DemoCorrect,demo_encoding_response.rt,demo_test_response.keys,demo_test_response.corr,demo_test_response.rt,demo_bar_2.response,demo_bar_2.rt,demo_test_loop.thisRepN,demo_test_loop.thisTrialN,demo_test_loop.thisN,demo_test_loop.thisIndex,demo_test_loop.ran,DemoImage1,DemoImage2,DemoCorrectTest,test_encoding_response.keys,test_encoding_response.corr,trials.thisRepN,trials.thisTrialN,trials.thisN,trials.thisIndex,trials.ran,target,category,correct,test_encoding_response.rt,key_resp_end.keys,key_resp_end.rt,key_resp_end_2.keys,key_resp_end_2.rt
1,[8.901699999988068],[8.901899999976138],A3AU8PZ6HHBCVT,32,Male,6,2023-05-03_09h17.32.494,memory_pilot_most_recent,2022.2.4,Linux x86_64,60.0240096,,,,,,,,,,,,,,,,,,,,,,,,,,,,,,,,,,,,,,,,
,,,A3AU8PZ6HHBCVT,32,Male,6,2023-05-03_09h17.32.494,memory_pilot_most_recent,2022.2.4,Linux x86_64,60.0240096,,,,,,,,,,,,,,,,,,,,,,,,,,,,,,,,,,,,,,,,
,,,A3AU8PZ6HHBCVT,32,Male,6,2023-05-03_09h17.32.494,memory_pilot_most_recent,2022.2.4,Linux x86_64,60.0240096,space,5.7355,,,,,,,,,,,,,,,,,,,,,,,,,,,,,,,,,,,,,,
,,,A3AU8PZ6HHBCVT,32,Male,6,2023-05-03_09h17.32.494,memory_pilot_most_recent,2022.2.4,Linux x86_64,60.0240096,,,,,,,,,,,,,,,,,,,,,,,,,,,,,,,,,,,,,,,,
,,,A3AU8PZ6HHBCVT,32,Male,6,2023-05-03_09h17.32.494,memory_pilot_most_recent,2022.2.4,Linux x86_64,60.0240096,,,,1,0,0,0,0,1,flower1.jpg,,,,,,,,,,,,,,,,,,,,,,,,,,,,,,
,,,A3AU8PZ6HHBCVT,32,Male,6,2023-05-03_09h17.32.494,memory_pilot_most_recent,2022.2.4,Linux x86_64,60.0240096,,,,1,0,1,1,1,1,flower2.jpg,,,,,,,,,,,,,,,,,,,,,,,,,,,,,,
,,,A3AU8PZ6HHBCVT,32,Male,6,2023-05-03_09h17.32.494,memory_pilot_most_recent,2022.2.4,Linux x86_64,60.0240096,,,left,1,0,2,2,2,1,left.jpg,left,0.7025,,,,,,,,,,,,,,,,,,,,,,,,,,,,
,,,A3AU8PZ6HHBCVT,32,Male,6,2023-05-03_09h17.32.494,memory_pilot_most_recent,2022.2.4,Linux x86_64,60.0240096,,,,1,0,3,3,3,1,flower3.jpg,,,,,,,,,,,,,,,,,,,,,,,,,,,,,,
,,,A3AU8PZ6HHBCVT,32,Male,6,2023-05-03_09h17.32.494,memory_pilot_most_recent,2022.2.4,Linux x86_64,60.0240096,,,,1,0,4,4,4,1,flower4.jpg,,,,,,,,,,,,,,,,,,,,,,,,,,,,,,
,,,A3AU8PZ6HHBCVT,32,Male,6,2023-05-03_09h17.32.494,memory_pilot_most_recent,2022.2.4,Linux x86_64,60.0240096,,,,1,0,5,5,5,1,flower5.jpg,,,,,,,,,,,,,,,,,,,,,,,,,,,,,,
,,,A3AU8PZ6HHBCVT,32,Male,6,2023-05-03_09h17.32.494,memory_pilot_most_recent,2022.2.4,Linux x86_64,60.0240096,,,,1,0,6,6,6,1,flower6.jpg,,,,,,,,,,,,,,,,,,,,,,,,,,,,,,
,,,A3AU8PZ6HHBCVT,32,Male,6,2023-05-03_09h17.32.494,memory_pilot_most_recent,2022.2.4,Linux x86_64,60.0240096,,,,,,,,,,,,,,,,,,,,,,,,,,,,,,,,,,,,,,,,
,,,A3AU8PZ6HHBCVT,32,Male,6,2023-05-03_09h17.32.494,memory_pilot_most_recent,2022.2.4,Linux x86_64,60.0240096,,,,,,,,,,,,,left,1,4.2569,7,4.4452,0,0,0,0,1,flower1.jpg,flower1_pair.jpg,left,,,,,,,,,,,,,,,
,,,A3AU8PZ6HHBCVT,32,Male,6,2023-05-03_09h17.32.494,memory_pilot_most_recent,2022.2.4,Linux x86_64,60.0240096,,,,,,,,,,,,,right,1,2.7342,6,2.54,0,1,1,1,1,flower2_pair.jpg,flower2.jpg,right,,,,,,,,,,,,,,,
,,,A3AU8PZ6HHBCVT,32,Male,6,2023-05-03_09h17.32.494,memory_pilot_most_recent,2022.2.4,Linux x86_64,60.0240096,,,,,,,,,,,,,left,1,1.5695,6,3.1035,0,2,2,2,1,flower3.jpg,flower3_pair.jpg,left,,,,,,,,,,,,,,,
,,,A3AU8PZ6HHBCVT,32,Male,6,2023-05-03_09h17.32.494,memory_pilot_most_recent,2022.2.4,Linux x86_64,60.0240096,,,,,,,,,,,,,right,0,1.9741,6,2.6281,0,3,3,3,1,flower4.jpg,flower4_pair.jpg,left,,,,,,,,,,,,,,,
,,,A3AU8PZ6HHBCVT,32,Male,6,2023-05-03_09h17.32.494,memory_pilot_most_recent,2022.2.4,Linux x86_64,60.0240096,,,,,,,,,,,,,right,1,2.765,3,3.9064,0,4,4,4,1,flower5_pair.jpg,flower5.jpg,right,,,,,,,,,,,,,,,
,,,A3AU8PZ6HHBCVT,32,Male,6,2023-05-03_09h17.32.494,memory_pilot_most_recent,2022.2.4,Linux x86_64,60.0240096,,,,,,,,,,,,,left,1,3.3584,4,2.6168,0,5,5,5,1,flower6.jpg,flower6_pair.jpg,left,,,,,,,,,,,,,,,
,,,A3AU8PZ6HHBCVT,32,Male,6,2023-05-03_09h17.32.494,memory_pilot_most_recent,2022.2.4,Linux x86_64,60.0240096,,,,,,,,,,,,,,,,,,,,,,,,,,,,,,,,,,,,,,,,
,,,A3AU8PZ6HHBCVT,32,Male,6,2023-05-03_09h17.32.494,memory_pilot_most_recent,2022.2.4,Linux x86_64,60.0240096,space,1.4022,,,,,,,,,,,,,,,,,,,,,,,,,,,,,,,,,,,,,,
,,,A3AU8PZ6HHBCVT,32,Male,6,2023-05-03_09h17.32.494,memory_pilot_most_recent,2022.2.4,Linux x86_64,60.0240096,,,,,,,,,,,,,,,,,,,,,,,,,,,1,0,0,0,0,1,bridge_108.jpg,bridge,,,,,,
,,,A3AU8PZ6HHBCVT,32,Male,6,2023-05-03_09h17.32.494,memory_pilot_most_recent,2022.2.4,Linux x86_64,60.0240096,,,,,,,,,,,,,,,,,,,,,,,,,,,1,0,1,1,1,1,playground_257.jpg,playground,,,,,,
,,,A3AU8PZ6HHBCVT,32,Male,6,2023-05-03_09h17.32.494,memory_pilot_most_recent,2022.2.4,Linux x86_64,60.0240096,,,,,,,,,,,,,,,,,,,,,,,,,,,1,0,2,2,2,1,highway_359.jpg,highway,,,,,,
,,,A3AU8PZ6HHBCVT,32,Male,6,2023-05-03_09h17.32.494,memory_pilot_most_recent,2022.2.4,Linux x86_64,60.0240096,,,,,,,,,,,,,,,,,,,,,,,,,,,1,0,3,3,3,1,badlands_222.jpg,badlands,,,,,,
,,,A3AU8PZ6HHBCVT,32,Male,6,2023-05-03_09h17.32.494,memory_pilot_most_recent,2022.2.4,Linux x86_64,60.0240096,,,,,,,,,,,,,,,,,,,,,,,,,,,1,0,4,4,4,1,playground_10.jpg,playground,,,,,,
,,,A3AU8PZ6HHBCVT,32,Male,6,2023-05-03_09h17.32.494,memory_pilot_most_recent,2022.2.4,Linux x86_64,60.0240096,,,,,,,,,,,,,,,,,,,,,,,,,,,1,0,5,5,5,1,bridge_128.jpg,bridge,,,,,,
,,,A3AU8PZ6HHBCVT,32,Male,6,2023-05-03_09h17.32.494,memory_pilot_most_recent,2022.2.4,Linux x86_64,60.0240096,,,,,,,,,,,,,,,,,,,,,,,,,,,1,0,6,6,6,1,bridge_172.jpg,bridge,,,,,,
,,,A3AU8PZ6HHBCVT,32,Male,6,2023-05-03_09h17.32.494,memory_pilot_most_recent,2022.2.4,Linux x86_64,60.0240096,,,,,,,,,,,,,,,,,,,,,,,,,,,1,0,7,7,7,1,bridge_91.jpg,bridge,,,,,,
,,,A3AU8PZ6HHBCVT,32,Male,6,2023-05-03_09h17.32.494,memory_pilot_most_recent,2022.2.4,Linux x86_64,60.0240096,,,,,,,,,,,,,,,,,,,,,,,,,,,1,0,8,8,8,1,mountain_57.jpg,mountain,,,,,,
,,,A3AU8PZ6HHBCVT,32,Male,6,2023-05-03_09h17.32.494,memory_pilot_most_recent,2022.2.4,Linux x86_64,60.0240096,,,,,,,,,,,,,,,,,,,,,,,,,,,1,0,9,9,9,1,badlands_137.jpg,badlands,,,,,,
,,,A3AU8PZ6HHBCVT,32,Male,6,2023-05-03_09h17.32.494,memory_pilot_most_recent,2022.2.4,Linux x86_64,60.0240096,,,,,,,,,,,,,,,,,,,,,,,,,,left,1,0,10,10,10,1,left.jpg,,left,0.7455,,,,
,,,A3AU8PZ6HHBCVT,32,Male,6,2023-05-03_09h17.32.494,memory_pilot_most_recent,2022.2.4,Linux x86_64,60.0240096,,,,,,,,,,,,,,,,,,,,,,,,,,,1,0,11,11,11,1,badlands_52.jpg,badlands,,,,,,
,,,A3AU8PZ6HHBCVT,32,Male,6,2023-05-03_09h17.32.494,memory_pilot_most_recent,2022.2.4,Linux x86_64,60.0240096,,,,,,,,,,,,,,,,,,,,,,,,,,,1,0,12,12,12,1,badlands_113.jpg,badlands,,,,,,
,,,A3AU8PZ6HHBCVT,32,Male,6,2023-05-03_09h17.32.494,memory_pilot_most_recent,2022.2.4,Linux x86_64,60.0240096,,,,,,,,,,,,,,,,,,,,,,,,,,,1,0,13,13,13,1,playground_76.jpg,playground,,,,,,
,,,A3AU8PZ6HHBCVT,32,Male,6,2023-05-03_09h17.32.494,memory_pilot_most_recent,2022.2.4,Linux x86_64,60.0240096,,,,,,,,,,,,,,,,,,,,,,,,,,,1,0,14,14,14,1,bridge_202.jpg,bridge,,,,,,
,,,A3AU8PZ6HHBCVT,32,Male,6,2023-05-03_09h17.32.494,memory_pilot_most_recent,2022.2.4,Linux x86_64,60.0240096,,,,,,,,,,,,,,,,,,,,,,,,,,,1,0,15,15,15,1,badlands_221.jpg,badlands,,,,,,
,,,A3AU8PZ6HHBCVT,32,Male,6,2023-05-03_09h17.32.494,memory_pilot_most_recent,2022.2.4,Linux x86_64,60.0240096,,,,,,,,,,,,,,,,,,,,,,,,,,,1,0,16,16,16,1,mountain_101.jpg,mountain,,,,,,
,,,A3AU8PZ6HHBCVT,32,Male,6,2023-05-03_09h17.32.494,memory_pilot_most_recent,2022.2.4,Linux x86_64,60.0240096,,,,,,,,,,,,,,,,,,,,,,,,,,,1,0,17,17,17,1,playground_60.jpg,playground,,,,,,
,,,A3AU8PZ6HHBCVT,32,Male,6,2023-05-03_09h17.32.494,memory_pilot_most_recent,2022.2.4,Linux x86_64,60.0240096,,,,,,,,,,,,,,,,,,,,,,,,,,,1,0,18,18,18,1,mountain_154.jpg,mountain,,,,,,
,,,A3AU8PZ6HHBCVT,32,Male,6,2023-05-03_09h17.32.494,memory_pilot_most_recent,2022.2.4,Linux x86_64,60.0240096,,,,,,,,,,,,,,,,,,,,,,,,,,,1,0,19,19,19,1,badlands_24.jpg,badlands,,,,,,
,,,A3AU8PZ6HHBCVT,32,Male,6,2023-05-03_09h17.32.494,memory_pilot_most_recent,2022.2.4,Linux x86_64,60.0240096,,,,,,,,,,,,,,,,,,,,,,,,,,,1,0,20,20,20,1,mountain_293.jpg,mountain,,,,,,
,,,A3AU8PZ6HHBCVT,32,Male,6,2023-05-03_09h17.32.494,memory_pilot_most_recent,2022.2.4,Linux x86_64,60.0240096,,,,,,,,,,,,,,,,,,,,,,,,,,,1,0,21,21,21,1,highway_177.jpg,highway,,,,,,
,,,A3AU8PZ6HHBCVT,32,Male,6,2023-05-03_09h17.32.494,memory_pilot_most_recent,2022.2.4,Linux x86_64,60.0240096,,,,,,,,,,,,,,,,,,,,,,,,,,,1,0,22,22,22,1,mountain_110.jpg,mountain,,,,,,
,,,A3AU8PZ6HHBCVT,32,Male,6,2023-05-03_09h17.32.494,memory_pilot_most_recent,2022.2.4,Linux x86_64,60.0240096,,,,,,,,,,,,,,,,,,,,,,,,,,right,1,0,23,23,23,1,right.jpg,,right,0.5718,,,,
,,,A3AU8PZ6HHBCVT,32,Male,6,2023-05-03_09h17.32.494,memory_pilot_most_recent,2022.2.4,Linux x86_64,60.0240096,,,,,,,,,,,,,,,,,,,,,,,,,,,1,0,24,24,24,1,playground_240.jpg,playground,,,,,,
,,,A3AU8PZ6HHBCVT,32,Male,6,2023-05-03_09h17.32.494,memory_pilot_most_recent,2022.2.4,Linux x86_64,60.0240096,,,,,,,,,,,,,,,,,,,,,,,,,,,1,0,25,25,25,1,highway_415.jpg,highway,,,,,,
,,,A3AU8PZ6HHBCVT,32,Male,6,2023-05-03_09h17.32.494,memory_pilot_most_recent,2022.2.4,Linux x86_64,60.0240096,,,,,,,,,,,,,,,,,,,,,,,,,,right,1,0,26,26,26,1,right.jpg,,right,0.6811,,,,
,,,A3AU8PZ6HHBCVT,32,Male,6,2023-05-03_09h17.32.494,memory_pilot_most_recent,2022.2.4,Linux x86_64,60.0240096,,,,,,,,,,,,,,,,,,,,,,,,,,,1,0,27,27,27,1,highway_394.jpg,highway,,,,,,
,,,A3AU8PZ6HHBCVT,32,Male,6,2023-05-03_09h17.32.494,memory_pilot_most_recent,2022.2.4,Linux x86_64,60.0240096,,,,,,,,,,,,,,,,,,,,,,,,,,,1,0,28,28,28,1,golf_course_78.jpg,golf,,,,,,
,,,A3AU8PZ6HHBCVT,32,Male,6,2023-05-03_09h17.32.494,memory_pilot_most_recent,2022.2.4,Linux x86_64,60.0240096,,,,,,,,,,,,,,,,,,,,,,,,,,,1,0,29,29,29,1,golf_course_331.jpg,golf,,,,,,
,,,A3AU8PZ6HHBCVT,32,Male,6,2023-05-03_09h17.32.494,memory_pilot_most_recent,2022.2.4,Linux x86_64,60.0240096,,,,,,,,,,,,,,,,,,,,,,,,,,,1,0,30,30,30,1,bridge_146.jpg,bridge,,,,,,
,,,A3AU8PZ6HHBCVT,32,Male,6,2023-05-03_09h17.32.494,memory_pilot_most_recent,2022.2.4,Linux x86_64,60.0240096,,,,,,,,,,,,,,,,,,,,,,,,,,,1,0,31,31,31,1,highway_156.jpg,highway,,,,,,
,,,A3AU8PZ6HHBCVT,32,Male,6,2023-05-03_09h17.32.494,memory_pilot_most_recent,2022.2.4,Linux x86_64,60.0240096,,,,,,,,,,,,,,,,,,,,,,,,,,,1,0,32,32,32,1,golf_course_217.jpg,golf,,,,,,
,,,A3AU8PZ6HHBCVT,32,Male,6,2023-05-03_09h17.32.494,memory_pilot_most_recent,2022.2.4,Linux x86_64,60.0240096,,,,,,,,,,,,,,,,,,,,,,,,,,,1,0,33,33,33,1,badlands_70.jpg,badlands,,,,,,
,,,A3AU8PZ6HHBCVT,32,Male,6,2023-05-03_09h17.32.494,memory_pilot_most_recent,2022.2.4,Linux x86_64,60.0240096,,,,,,,,,,,,,,,,,,,,,,,,,,,1,0,34,34,34,1,golf_course_87.jpg,golf,,,,,,
,,,A3AU8PZ6HHBCVT,32,Male,6,2023-05-03_09h17.32.494,memory_pilot_most_recent,2022.2.4,Linux x86_64,60.0240096,,,,,,,,,,,,,,,,,,,,,,,,,,,1,0,35,35,35,1,highway_209.jpg,highway,,,,,,
,,,A3AU8PZ6HHBCVT,32,Male,6,2023-05-03_09h17.32.494,memory_pilot_most_recent,2022.2.4,Linux x86_64,60.0240096,,,,,,,,,,,,,,,,,,,,,,,,,,,1,0,36,36,36,1,playground_117.jpg,playground,,,,,,
,,,A3AU8PZ6HHBCVT,32,Male,6,2023-05-03_09h17.32.494,memory_pilot_most_recent,2022.2.4,Linux x86_64,60.0240096,,,,,,,,,,,,,,,,,,,,,,,,,,,1,0,37,37,37,1,badlands_21.jpg,badlands,,,,,,
,,,A3AU8PZ6HHBCVT,32,Male,6,2023-05-03_09h17.32.494,memory_pilot_most_recent,2022.2.4,Linux x86_64,60.0240096,,,,,,,,,,,,,,,,,,,,,,,,,,,1,0,38,38,38,1,bridge_256.jpg,bridge,,,,,,
,,,A3AU8PZ6HHBCVT,32,Male,6,2023-05-03_09h17.32.494,memory_pilot_most_recent,2022.2.4,Linux x86_64,60.0240096,,,,,,,,,,,,,,,,,,,,,,,,,,,1,0,39,39,39,1,bridge_250.jpg,bridge,,,,,,
,,,A3AU8PZ6HHBCVT,32,Male,6,2023-05-03_09h17.32.494,memory_pilot_most_recent,2022.2.4,Linux x86_64,60.0240096,,,,,,,,,,,,,,,,,,,,,,,,,,,1,0,40,40,40,1,golf_course_193.jpg,golf,,,,,,
,,,A3AU8PZ6HHBCVT,32,Male,6,2023-05-03_09h17.32.494,memory_pilot_most_recent,2022.2.4,Linux x86_64,60.0240096,,,,,,,,,,,,,,,,,,,,,,,,,,left,1,0,41,41,41,1,left.jpg,,left,0.7874,,,,
,,,A3AU8PZ6HHBCVT,32,Male,6,2023-05-03_09h17.32.494,memory_pilot_most_recent,2022.2.4,Linux x86_64,60.0240096,,,,,,,,,,,,,,,,,,,,,,,,,,,1,0,42,42,42,1,bridge_65.jpg,bridge,,,,,,
,,,A3AU8PZ6HHBCVT,32,Male,6,2023-05-03_09h17.32.494,memory_pilot_most_recent,2022.2.4,Linux x86_64,60.0240096,,,,,,,,,,,,,,,,,,,,,,,,,,,1,0,43,43,43,1,highway_245.jpg,highway,,,,,,
,,,A3AU8PZ6HHBCVT,32,Male,6,2023-05-03_09h17.32.494,memory_pilot_most_recent,2022.2.4,Linux x86_64,60.0240096,,,,,,,,,,,,,,,,,,,,,,,,,,,1,0,44,44,44,1,playground_131.jpg,playground,,,,,,
,,,A3AU8PZ6HHBCVT,32,Male,6,2023-05-03_09h17.32.494,memory_pilot_most_recent,2022.2.4,Linux x86_64,60.0240096,,,,,,,,,,,,,,,,,,,,,,,,,,,1,0,45,45,45,1,golf_course_195.jpg,golf,,,,,,
,,,A3AU8PZ6HHBCVT,32,Male,6,2023-05-03_09h17.32.494,memory_pilot_most_recent,2022.2.4,Linux x86_64,60.0240096,,,,,,,,,,,,,,,,,,,,,,,,,,,1,0,46,46,46,1,bridge_191.jpg,bridge,,,,,,
,,,A3AU8PZ6HHBCVT,32,Male,6,2023-05-03_09h17.32.494,memory_pilot_most_recent,2022.2.4,Linux x86_64,60.0240096,,,,,,,,,,,,,,,,,,,,,,,,,,,1,0,47,47,47,1,mountain_123.jpg,mountain,,,,,,
,,,A3AU8PZ6HHBCVT,32,Male,6,2023-05-03_09h17.32.494,memory_pilot_most_recent,2022.2.4,Linux x86_64,60.0240096,,,,,,,,,,,,,,,,,,,,,,,,,,,1,0,48,48,48,1,mountain_230.jpg,mountain,,,,,,
,,,A3AU8PZ6HHBCVT,32,Male,6,2023-05-03_09h17.32.494,memory_pilot_most_recent,2022.2.4,Linux x86_64,60.0240096,,,,,,,,,,,,,,,,,,,,,,,,,,,1,0,49,49,49,1,highway_93.jpg,highway,,,,,,
,,,A3AU8PZ6HHBCVT,32,Male,6,2023-05-03_09h17.32.494,memory_pilot_most_recent,2022.2.4,Linux x86_64,60.0240096,,,,,,,,,,,,,,,,,,,,,,,,,,,1,0,50,50,50,1,badlands_23.jpg,badlands,,,,,,
,,,A3AU8PZ6HHBCVT,32,Male,6,2023-05-03_09h17.32.494,memory_pilot_most_recent,2022.2.4,Linux x86_64,60.0240096,,,,,,,,,,,,,,,,,,,,,,,,,,left,1,0,51,51,51,1,left.jpg,,left,0.8842,,,,
,,,A3AU8PZ6HHBCVT,32,Male,6,2023-05-03_09h17.32.494,memory_pilot_most_recent,2022.2.4,Linux x86_64,60.0240096,,,,,,,,,,,,,,,,,,,,,,,,,,,1,0,52,52,52,1,mountain_156.jpg,mountain,,,,,,
,,,A3AU8PZ6HHBCVT,32,Male,6,2023-05-03_09h17.32.494,memory_pilot_most_recent,2022.2.4,Linux x86_64,60.0240096,,,,,,,,,,,,,,,,,,,,,,,,,,,1,0,53,53,53,1,highway_273.jpg,highway,,,,,,
,,,A3AU8PZ6HHBCVT,32,Male,6,2023-05-03_09h17.32.494,memory_pilot_most_recent,2022.2.4,Linux x86_64,60.0240096,,,,,,,,,,,,,,,,,,,,,,,,,,,1,0,54,54,54,1,badlands_184.jpg,badlands,,,,,,
,,,A3AU8PZ6HHBCVT,32,Male,6,2023-05-03_09h17.32.494,memory_pilot_most_recent,2022.2.4,Linux x86_64,60.0240096,,,,,,,,,,,,,,,,,,,,,,,,,,,1,0,55,55,55,1,highway_294.jpg,highway,,,,,,
,,,A3AU8PZ6HHBCVT,32,Male,6,2023-05-03_09h17.32.494,memory_pilot_most_recent,2022.2.4,Linux x86_64,60.0240096,,,,,,,,,,,,,,,,,,,,,,,,,,,1,0,56,56,56,1,golf_course_309.jpg,golf,,,,,,
,,,A3AU8PZ6HHBCVT,32,Male,6,2023-05-03_09h17.32.494,memory_pilot_most_recent,2022.2.4,Linux x86_64,60.0240096,,,,,,,,,,,,,,,,,,,,,,,,,,,1,0,57,57,57,1,mountain_232.jpg,mountain,,,,,,
,,,A3AU8PZ6HHBCVT,32,Male,6,2023-05-03_09h17.32.494,memory_pilot_most_recent,2022.2.4,Linux x86_64,60.0240096,,,,,,,,,,,,,,,,,,,,,,,,,,,1,0,58,58,58,1,playground_145.jpg,playground,,,,,,
,,,A3AU8PZ6HHBCVT,32,Male,6,2023-05-03_09h17.32.494,memory_pilot_most_recent,2022.2.4,Linux x86_64,60.0240096,,,,,,,,,,,,,,,,,,,,,,,,,,,1,0,59,59,59,1,golf_course_214.jpg,golf,,,,,,
,,,A3AU8PZ6HHBCVT,32,Male,6,2023-05-03_09h17.32.494,memory_pilot_most_recent,2022.2.4,Linux x86_64,60.0240096,,,,,,,,,,,,,,,,,,,,,,,,,,,1,0,60,60,60,1,playground_219.jpg,playground,,,,,,
,,,A3AU8PZ6HHBCVT,32,Male,6,2023-05-03_09h17.32.494,memory_pilot_most_recent,2022.2.4,Linux x86_64,60.0240096,,,,,,,,,,,,,,,,,,,,,,,,,,,1,0,61,61,61,1,golf_course_188.jpg,golf,,,,,,
,,,A3AU8PZ6HHBCVT,32,Male,6,2023-05-03_09h17.32.494,memory_pilot_most_recent,2022.2.4,Linux x86_64,60.0240096,,,,,,,,,,,,,,,,,,,,,,,,,,,1,0,62,62,62,1,mountain_222.jpg,mountain,,,,,,
,,,A3AU8PZ6HHBCVT,32,Male,6,2023-05-03_09h17.32.494,memory_pilot_most_recent,2022.2.4,Linux x86_64,60.0240096,,,,,,,,,,,,,,,,,,,,,,,,,,,1,0,63,63,63,1,golf_course_15.jpg,golf,,,,,,
,,,A3AU8PZ6HHBCVT,32,Male,6,2023-05-03_09h17.32.494,memory_pilot_most_recent,2022.2.4,Linux x86_64,60.0240096,,,,,,,,,,,,,,,,,,,,,,,,,,,1,0,64,64,64,1,playground_144.jpg,playground,,,,,,
,,,A3AU8PZ6HHBCVT,32,Male,6,2023-05-03_09h17.32.494,memory_pilot_most_recent,2022.2.4,Linux x86_64,60.0240096,,,,,,,,,,,,,,,,,,,,,,,,,,,,,,,,,,,,,space,2.6552,,
,,,A3AU8PZ6HHBCVT,32,Male,6,2023-05-03_09h17.32.494,memory_pilot_most_recent,2022.2.4,Linux x86_64,60.0240096,,,,,,,,,,,,,,,,,,,,,,,,,,,,,,,,,,,,,,,,
,,,A3AU8PZ6HHBCVT,32,Male,6,2023-05-03_09h17.32.494,memory_pilot_most_recent,2022.2.4,Linux x86_64,60.0240096,,,,,,,,,,,,,,,,,,,,,,,,,,,,,,,,,,,,,,,space,23.7219
