,index,test_encoding_response.keys,test_encoding_response.corr,trials.thisTrialN,target_image,pair,layer,correct,test_encoding_response.rt,key_resp_end.keys,subject
0,20,,1.0,0.0,AFRICAN_PIED_HORNBILL_5.jpg,KIWI_4.jpg,1.0,,,,A146QN6EU8LAEI
1,21,,1.0,1.0,AMERICAN_PIPIT_5.jpg,EMU_2.jpg,1.0,,,,A146QN6EU8LAEI
2,22,,1.0,2.0,CASSOWARY_1.jpg,ROSY_FACED_LOVEBIRD_4.jpg,1.0,,,,A146QN6EU8LAEI
3,23,,1.0,3.0,KILLDEAR_2.jpg,PEACOCK_5.jpg,1.0,,,,A146QN6EU8LAEI
4,24,,1.0,4.0,INDIGO_BUNTING_1.jpg,FRIGATE_4.jpg,1.0,,,,A146QN6EU8LAEI
5,25,,1.0,5.0,ASIAN_DOLLARD_BIRD_2.jpg,ALBATROSS_2.jpg,1.0,,,,A146QN6EU8LAEI
6,26,,1.0,6.0,INLAND_DOTTEREL_4.jpg,NICOBAR_PIGEON_4.jpg,2.0,,,,A146QN6EU8LAEI
7,27,,1.0,7.0,EUROPEAN_TURTLE_DOVE_3.jpg,PAINTED_BUNTING_3.jpg,2.0,,,,A146QN6EU8LAEI
8,28,,1.0,8.0,SPLENDID_WREN_1.jpg,DOUBLE_BRESTED_CORMARANT_1.jpg,2.0,,,,A146QN6EU8LAEI
9,29,right,1.0,9.0,right.jpg,,,right,1.3076,,A146QN6EU8LAEI
10,30,,1.0,10.0,STRIPPED_SWALLOW_1.jpg,DOUBLE_BRESTED_CORMARANT_4.jpg,1.0,,,,A146QN6EU8LAEI
11,31,,1.0,11.0,CHUKAR_PARTRIDGE_5.jpg,BLACK_THROATED_BUSHTIT_1.jpg,3.0,,,,A146QN6EU8LAEI
12,32,,1.0,12.0,PEACOCK_3.jpg,CHATTERING_LORY_2.jpg,3.0,,,,A146QN6EU8LAEI
13,33,,1.0,13.0,ECUADORIAN_HILLSTAR_5.jpg,SCARLET_IBIS_2.jpg,1.0,,,,A146QN6EU8LAEI
14,34,,1.0,14.0,DOUBLE_BRESTED_CORMARANT_5.jpg,EURASIAN_MAGPIE_4.jpg,2.0,,,,A146QN6EU8LAEI
15,35,,1.0,15.0,IVORY_GULL_3.jpg,FLAME_TANAGER_3.jpg,2.0,,,,A146QN6EU8LAEI
16,36,,1.0,16.0,CRESTED_NUTHATCH_2.jpg,AFRICAN_FIREFINCH_1.jpg,2.0,,,,A146QN6EU8LAEI
17,37,,1.0,17.0,MAGPIE_GOOSE_5.jpg,OYSTER_CATCHER_3.jpg,3.0,,,,A146QN6EU8LAEI
18,38,,1.0,18.0,PYGMY_KINGFISHER_5.jpg,DOUBLE_EYED_FIG_PARROT_4.jpg,3.0,,,,A146QN6EU8LAEI
19,39,,1.0,19.0,RUFOUS_KINGFISHER_1.jpg,SNOWY_OWL_5.jpg,1.0,,,,A146QN6EU8LAEI
20,40,,1.0,20.0,RED_HEADED_WOODPECKER_5.jpg,CRIMSON_CHAT_3.jpg,2.0,,,,A146QN6EU8LAEI
21,41,right,1.0,21.0,right.jpg,,,right,1.6722,,A146QN6EU8LAEI
22,42,,1.0,22.0,GREY_PLOVER_1.jpg,GOULDIAN_FINCH_4.jpg,2.0,,,,A146QN6EU8LAEI
23,43,,1.0,23.0,IVORY_GULL_1.jpg,FAIRY_TERN_4.jpg,3.0,,,,A146QN6EU8LAEI
24,44,,1.0,24.0,FLAME_BOWERBIRD_3.jpg,INDIAN_BUSTARD_2.jpg,1.0,,,,A146QN6EU8LAEI
25,45,,1.0,25.0,BALI_STARLING_1.jpg,PURPLE_FINCH_2.jpg,2.0,,,,A146QN6EU8LAEI
26,46,,1.0,26.0,PARUS_MAJOR_1.jpg,PINK_ROBIN_3.jpg,3.0,,,,A146QN6EU8LAEI
27,47,,1.0,27.0,BROWN_NOODY_3.jpg,PEACOCK_2.jpg,1.0,,,,A146QN6EU8LAEI
28,48,,1.0,28.0,OVENBIRD_5.jpg,SHORT_BILLED_DOWITCHER_5.jpg,3.0,,,,A146QN6EU8LAEI
29,49,,1.0,29.0,HAWAIIAN_GOOSE_4.jpg,CUBAN_TODY_3.jpg,1.0,,,,A146QN6EU8LAEI
30,50,,1.0,30.0,MALACHITE_KINGFISHER_2.jpg,GREEN_BROADBILL_5.jpg,3.0,,,,A146QN6EU8LAEI
31,51,,1.0,31.0,CERULEAN_WARBLER_1.jpg,AMERICAN_FLAMINGO_2.jpg,1.0,,,,A146QN6EU8LAEI
32,52,,1.0,32.0,GOLDEN_CHEEKED_WARBLER_2.jpg,HOUSE_FINCH_2.jpg,2.0,,,,A146QN6EU8LAEI
33,53,right,1.0,33.0,right.jpg,,,right,1.1141,,A146QN6EU8LAEI
34,54,,1.0,34.0,KAGU_5.jpg,DEMOISELLE_CRANE_1.jpg,3.0,,,,A146QN6EU8LAEI
35,55,,1.0,35.0,LITTLE_AUK_5.jpg,ORANGE_BRESTED_BUNTING_3.jpg,2.0,,,,A146QN6EU8LAEI
36,56,,1.0,36.0,MYNA_1.jpg,GREY_PLOVER_4.jpg,2.0,,,,A146QN6EU8LAEI
37,57,,1.0,37.0,SCARLET_TANAGER_2.jpg,BORNEAN_LEAFBIRD_1.jpg,3.0,,,,A146QN6EU8LAEI
38,58,,1.0,38.0,LESSER_ADJUTANT_4.jpg,RAINBOW_LORIKEET_5.jpg,2.0,,,,A146QN6EU8LAEI
39,59,,1.0,39.0,ASIAN_CRESTED_IBIS_4.jpg,IVORY_GULL_2.jpg,3.0,,,,A146QN6EU8LAEI
40,60,,1.0,40.0,RUBY_THROATED_HUMMINGBIRD_1.jpg,FRIGATE_1.jpg,3.0,,,,A146QN6EU8LAEI
41,61,right,1.0,41.0,right.jpg,,,right,1.1001,,A146QN6EU8LAEI
42,62,,1.0,42.0,OCELLATED_TURKEY_1.jpg,PURPLE_SWAMPHEN_4.jpg,3.0,,,,A146QN6EU8LAEI
43,63,,1.0,43.0,ALPINE_CHOUGH_4.jpg,BOBOLINK_3.jpg,3.0,,,,A146QN6EU8LAEI
44,64,,1.0,44.0,BROWN_THRASHER_3.jpg,DOUBLE_EYED_FIG_PARROT_3.jpg,1.0,,,,A146QN6EU8LAEI
45,65,,1.0,45.0,INCA_TERN_4.jpg,SMITHS_LONGSPUR_5.jpg,2.0,,,,A146QN6EU8LAEI
46,66,,1.0,46.0,WHITE_CHEEKED_TURACO_5.jpg,GREAT_POTOO_3.jpg,2.0,,,,A146QN6EU8LAEI
47,67,,1.0,47.0,SHOEBILL_3.jpg,BALD_EAGLE_5.jpg,3.0,,,,A146QN6EU8LAEI
48,68,,1.0,48.0,EASTERN_TOWEE_2.jpg,GOLDEN_CHLOROPHONIA_1.jpg,2.0,,,,A146QN6EU8LAEI
49,69,,1.0,49.0,BREWERS_BLACKBIRD_3.jpg,GUINEA_TURACO_3.jpg,1.0,,,,A146QN6EU8LAEI
50,70,,1.0,50.0,CASPIAN_TERN_1.jpg,COMMON_LOON_2.jpg,3.0,,,,A146QN6EU8LAEI
51,71,,1.0,51.0,RUBY_THROATED_HUMMINGBIRD_2.jpg,GOLDEN_CHLOROPHONIA_2.jpg,1.0,,,,A146QN6EU8LAEI
52,72,,1.0,52.0,PINK_ROBIN_4.jpg,ALBATROSS_4.jpg,2.0,,,,A146QN6EU8LAEI
53,73,,1.0,53.0,GYRFALCON_1.jpg,FAIRY_TERN_1.jpg,3.0,,,,A146QN6EU8LAEI
54,74,left,1.0,54.0,left.jpg,,,left,1.339,,A146QN6EU8LAEI
55,75,,1.0,55.0,RUBY_THROATED_HUMMINGBIRD_3.jpg,MALAGASY_WHITE_EYE_2.jpg,1.0,,,,A146QN6EU8LAEI
56,76,,1.0,56.0,LESSER_ADJUTANT_5.jpg,GREEN_BROADBILL_4.jpg,1.0,,,,A146QN6EU8LAEI
57,77,,1.0,57.0,GRAY_KINGBIRD_5.jpg,COCK_OF_THE__ROCK_4.jpg,2.0,,,,A146QN6EU8LAEI
58,78,,1.0,58.0,NORTHERN_JACANA_3.jpg,AMERICAN_GOLDFINCH_4.jpg,1.0,,,,A146QN6EU8LAEI
59,79,,1.0,59.0,TASMANIAN_HEN_5.jpg,COPPERY_TAILED_COUCAL_1.jpg,3.0,,,,A146QN6EU8LAEI
60,80,,1.0,60.0,ARARIPE_MANAKIN_4.jpg,BORNEAN_LEAFBIRD_3.jpg,3.0,,,,A146QN6EU8LAEI
61,81,,1.0,61.0,VERMILION_FLYCATHER_3.jpg,INDIAN_BUSTARD_1.jpg,1.0,,,,A146QN6EU8LAEI
62,82,,1.0,62.0,GOLDEN_CHLOROPHONIA_5.jpg,COMMON_HOUSE_MARTIN_4.jpg,2.0,,,,A146QN6EU8LAEI
63,83,,1.0,63.0,CRESTED_CARACARA_4.jpg,TOUCHAN_4.jpg,3.0,,,,A146QN6EU8LAEI
64,84,,1.0,64.0,LARK_BUNTING_2.jpg,KING_VULTURE_3.jpg,2.0,,,,A146QN6EU8LAEI
65,20,,1.0,0.0,DOUBLE_BRESTED_CORMARANT_5.jpg,CHINESE_POND_HERON_2.jpg,3.0,,,,A1AMGHYG5PT0L2
66,21,,1.0,1.0,OCELLATED_TURKEY_1.jpg,AMERICAN_PIPIT_1.jpg,2.0,,,,A1AMGHYG5PT0L2
67,22,,1.0,2.0,CHUKAR_PARTRIDGE_5.jpg,OSTRICH_5.jpg,1.0,,,,A1AMGHYG5PT0L2
68,23,,1.0,3.0,IVORY_GULL_1.jpg,FAIRY_TERN_4.jpg,3.0,,,,A1AMGHYG5PT0L2
69,24,,1.0,4.0,BREWERS_BLACKBIRD_3.jpg,CAPE_LONGCLAW_2.jpg,3.0,,,,A1AMGHYG5PT0L2
70,25,,1.0,5.0,RED_HEADED_WOODPECKER_5.jpg,CRIMSON_CHAT_3.jpg,2.0,,,,A1AMGHYG5PT0L2
71,26,,1.0,6.0,OVENBIRD_5.jpg,FAIRY_PENGUIN_1.jpg,2.0,,,,A1AMGHYG5PT0L2
72,27,right,1.0,7.0,right.jpg,,,right,1.2493,,A1AMGHYG5PT0L2
73,28,,1.0,8.0,NORTHERN_JACANA_3.jpg,SCARLET_IBIS_4.jpg,3.0,,,,A1AMGHYG5PT0L2
74,29,,1.0,9.0,CASPIAN_TERN_1.jpg,EUROPEAN_GOLDFINCH_4.jpg,2.0,,,,A1AMGHYG5PT0L2
75,30,,1.0,10.0,MYNA_1.jpg,PARADISE_TANAGER_3.jpg,3.0,,,,A1AMGHYG5PT0L2
76,31,,1.0,11.0,CERULEAN_WARBLER_1.jpg,AMERICAN_FLAMINGO_2.jpg,1.0,,,,A1AMGHYG5PT0L2
77,32,,1.0,12.0,PEACOCK_3.jpg,CHATTERING_LORY_2.jpg,3.0,,,,A1AMGHYG5PT0L2
78,33,,1.0,13.0,GOLDEN_CHEEKED_WARBLER_2.jpg,HOUSE_FINCH_2.jpg,2.0,,,,A1AMGHYG5PT0L2
79,34,,1.0,14.0,BALI_STARLING_1.jpg,IBERIAN_MAGPIE_1.jpg,3.0,,,,A1AMGHYG5PT0L2
80,35,,1.0,15.0,PARUS_MAJOR_1.jpg,PINK_ROBIN_3.jpg,3.0,,,,A1AMGHYG5PT0L2
81,36,,1.0,16.0,WHITE_CHEEKED_TURACO_5.jpg,PYGMY_KINGFISHER_2.jpg,3.0,,,,A1AMGHYG5PT0L2
82,37,,1.0,17.0,CRESTED_CARACARA_4.jpg,FAIRY_PENGUIN_5.jpg,1.0,,,,A1AMGHYG5PT0L2
83,38,,1.0,18.0,INDIGO_BUNTING_1.jpg,NORTHERN_GANNET_1.jpg,2.0,,,,A1AMGHYG5PT0L2
84,39,,1.0,19.0,PYGMY_KINGFISHER_5.jpg,MASKED_BOOBY_5.jpg,2.0,,,,A1AMGHYG5PT0L2
85,40,,1.0,20.0,SCARLET_TANAGER_2.jpg,NORTHERN_GANNET_2.jpg,2.0,,,,A1AMGHYG5PT0L2
86,41,,1.0,21.0,MAGPIE_GOOSE_5.jpg,OYSTER_CATCHER_3.jpg,3.0,,,,A1AMGHYG5PT0L2
87,42,,0.0,22.0,left.jpg,,,left,,,A1AMGHYG5PT0L2
88,43,,1.0,23.0,VERMILION_FLYCATHER_3.jpg,CALIFORNIA_GULL_1.jpg,2.0,,,,A1AMGHYG5PT0L2
89,44,,1.0,24.0,ASIAN_CRESTED_IBIS_4.jpg,IVORY_GULL_2.jpg,3.0,,,,A1AMGHYG5PT0L2
90,45,,1.0,25.0,GYRFALCON_1.jpg,CINNAMON_ATTILA_2.jpg,2.0,,,,A1AMGHYG5PT0L2
91,46,,1.0,26.0,AFRICAN_PIED_HORNBILL_5.jpg,CAPUCHINBIRD_2.jpg,3.0,,,,A1AMGHYG5PT0L2
92,47,,1.0,27.0,RUBY_THROATED_HUMMINGBIRD_1.jpg,BANANAQUIT_2.jpg,1.0,,,,A1AMGHYG5PT0L2
93,48,,1.0,28.0,STRIPPED_SWALLOW_1.jpg,DOUBLE_BRESTED_CORMARANT_4.jpg,1.0,,,,A1AMGHYG5PT0L2
94,49,,1.0,29.0,ECUADORIAN_HILLSTAR_5.jpg,BOBOLINK_5.jpg,2.0,,,,A1AMGHYG5PT0L2
95,50,,1.0,30.0,HAWAIIAN_GOOSE_4.jpg,WATTLED_LAPWING_3.jpg,3.0,,,,A1AMGHYG5PT0L2
96,51,,1.0,31.0,CRESTED_NUTHATCH_2.jpg,AFRICAN_FIREFINCH_1.jpg,2.0,,,,A1AMGHYG5PT0L2
97,52,,1.0,32.0,SHOEBILL_3.jpg,EASTERN_MEADOWLARK_1.jpg,1.0,,,,A1AMGHYG5PT0L2
98,53,right,1.0,33.0,right.jpg,,,right,0.6128,,A1AMGHYG5PT0L2
99,54,,1.0,34.0,MALACHITE_KINGFISHER_2.jpg,AMERICAN_FLAMINGO_1.jpg,1.0,,,,A1AMGHYG5PT0L2
100,55,,1.0,35.0,IVORY_GULL_3.jpg,INDIGO_FLYCATCHER_2.jpg,1.0,,,,A1AMGHYG5PT0L2
101,56,,1.0,36.0,RUFOUS_KINGFISHER_1.jpg,SNOWY_OWL_5.jpg,1.0,,,,A1AMGHYG5PT0L2
102,57,,1.0,37.0,ASIAN_DOLLARD_BIRD_2.jpg,ALBATROSS_2.jpg,1.0,,,,A1AMGHYG5PT0L2
103,58,,1.0,38.0,EUROPEAN_TURTLE_DOVE_3.jpg,TEAL_DUCK_2.jpg,1.0,,,,A1AMGHYG5PT0L2
104,59,,1.0,39.0,LITTLE_AUK_5.jpg,SANDHILL_CRANE_3.jpg,1.0,,,,A1AMGHYG5PT0L2
105,60,right,1.0,40.0,right.jpg,,,right,0.5102,,A1AMGHYG5PT0L2
106,61,,1.0,41.0,LESSER_ADJUTANT_4.jpg,ALTAMIRA_YELLOWTHROAT_5.jpg,1.0,,,,A1AMGHYG5PT0L2
107,62,,1.0,42.0,FLAME_BOWERBIRD_3.jpg,QUETZAL_3.jpg,3.0,,,,A1AMGHYG5PT0L2
108,63,,1.0,43.0,INLAND_DOTTEREL_4.jpg,NICOBAR_PIGEON_4.jpg,2.0,,,,A1AMGHYG5PT0L2
109,64,,1.0,44.0,AMERICAN_PIPIT_5.jpg,EMU_2.jpg,1.0,,,,A1AMGHYG5PT0L2
110,65,,1.0,45.0,BROWN_NOODY_3.jpg,SPANGLED_COTINGA_4.jpg,2.0,,,,A1AMGHYG5PT0L2
111,66,,1.0,46.0,ALPINE_CHOUGH_4.jpg,EUROPEAN_GOLDFINCH_3.jpg,2.0,,,,A1AMGHYG5PT0L2
112,67,,1.0,47.0,LESSER_ADJUTANT_5.jpg,RED_HEADED_WOODPECKER_1.jpg,3.0,,,,A1AMGHYG5PT0L2
113,68,,1.0,48.0,RUBY_THROATED_HUMMINGBIRD_2.jpg,DUSKY_ROBIN_5.jpg,3.0,,,,A1AMGHYG5PT0L2
114,69,,1.0,49.0,EASTERN_TOWEE_2.jpg,SANDHILL_CRANE_2.jpg,1.0,,,,A1AMGHYG5PT0L2
115,70,right,1.0,50.0,right.jpg,,,right,0.3548,,A1AMGHYG5PT0L2
116,71,,1.0,51.0,GOLDEN_CHLOROPHONIA_5.jpg,ROADRUNNER_2.jpg,1.0,,,,A1AMGHYG5PT0L2
117,72,,1.0,52.0,GREY_PLOVER_1.jpg,GOULDIAN_FINCH_4.jpg,2.0,,,,A1AMGHYG5PT0L2
118,73,,1.0,53.0,PINK_ROBIN_4.jpg,SPOONBILL_3.jpg,1.0,,,,A1AMGHYG5PT0L2
119,74,,1.0,54.0,SPLENDID_WREN_1.jpg,CUBAN_TODY_4.jpg,3.0,,,,A1AMGHYG5PT0L2
120,75,,1.0,55.0,KILLDEAR_2.jpg,PEACOCK_5.jpg,1.0,,,,A1AMGHYG5PT0L2
121,76,,1.0,56.0,GRAY_KINGBIRD_5.jpg,AFRICAN_FIREFINCH_3.jpg,3.0,,,,A1AMGHYG5PT0L2
122,77,,1.0,57.0,BROWN_THRASHER_3.jpg,BLACK_BAZA_4.jpg,3.0,,,,A1AMGHYG5PT0L2
123,78,,1.0,58.0,INCA_TERN_4.jpg,SMITHS_LONGSPUR_5.jpg,2.0,,,,A1AMGHYG5PT0L2
124,79,,1.0,59.0,KAGU_5.jpg,ASHY_STORM_PETREL_1.jpg,2.0,,,,A1AMGHYG5PT0L2
125,80,,1.0,60.0,LARK_BUNTING_2.jpg,PEACOCK_1.jpg,1.0,,,,A1AMGHYG5PT0L2
126,81,,1.0,61.0,RUBY_THROATED_HUMMINGBIRD_3.jpg,MALAGASY_WHITE_EYE_2.jpg,1.0,,,,A1AMGHYG5PT0L2
127,82,,1.0,62.0,TASMANIAN_HEN_5.jpg,COPPERY_TAILED_COUCAL_1.jpg,3.0,,,,A1AMGHYG5PT0L2
128,83,,1.0,63.0,CASSOWARY_1.jpg,SCARLET_MACAW_1.jpg,2.0,,,,A1AMGHYG5PT0L2
129,84,,1.0,64.0,ARARIPE_MANAKIN_4.jpg,BLACK_VULTURE_1.jpg,2.0,,,,A1AMGHYG5PT0L2
130,20,,1.0,0.0,FLAME_BOWERBIRD_3.jpg,INDIAN_BUSTARD_2.jpg,1.0,,,,A23KAJRDVCVGOE
131,21,,1.0,1.0,MAGPIE_GOOSE_5.jpg,HAMERKOP_1.jpg,2.0,,,,A23KAJRDVCVGOE
132,22,,1.0,2.0,CASPIAN_TERN_1.jpg,EUROPEAN_GOLDFINCH_4.jpg,2.0,,,,A23KAJRDVCVGOE
133,23,,1.0,3.0,WHITE_CHEEKED_TURACO_5.jpg,GREAT_POTOO_3.jpg,2.0,,,,A23KAJRDVCVGOE
134,24,,1.0,4.0,CERULEAN_WARBLER_1.jpg,BANANAQUIT_1.jpg,3.0,,,,A23KAJRDVCVGOE
135,25,,1.0,5.0,CHUKAR_PARTRIDGE_5.jpg,RAZORBILL_1.jpg,2.0,,,,A23KAJRDVCVGOE
136,26,,1.0,6.0,SPLENDID_WREN_1.jpg,POMARINE_JAEGER_5.jpg,1.0,,,,A23KAJRDVCVGOE
137,27,,1.0,7.0,BREWERS_BLACKBIRD_3.jpg,GUINEA_TURACO_3.jpg,1.0,,,,A23KAJRDVCVGOE
138,28,,1.0,8.0,ARARIPE_MANAKIN_4.jpg,BORNEAN_LEAFBIRD_3.jpg,3.0,,,,A23KAJRDVCVGOE
139,29,,1.0,9.0,OCELLATED_TURKEY_1.jpg,CHIPPING_SPARROW_1.jpg,1.0,,,,A23KAJRDVCVGOE
140,30,,1.0,10.0,HAWAIIAN_GOOSE_4.jpg,WATTLED_LAPWING_3.jpg,3.0,,,,A23KAJRDVCVGOE
141,31,,1.0,11.0,LARK_BUNTING_2.jpg,PEACOCK_1.jpg,1.0,,,,A23KAJRDVCVGOE
142,32,,1.0,12.0,NORTHERN_JACANA_3.jpg,CRAB_PLOVER_3.jpg,2.0,,,,A23KAJRDVCVGOE
143,33,,1.0,13.0,MALACHITE_KINGFISHER_2.jpg,GREEN_BROADBILL_5.jpg,3.0,,,,A23KAJRDVCVGOE
144,34,left,1.0,14.0,left.jpg,,,left,0.6959,,A23KAJRDVCVGOE
145,35,,1.0,15.0,SCARLET_TANAGER_2.jpg,BEARDED_BARBET_2.jpg,1.0,,,,A23KAJRDVCVGOE
146,36,left,1.0,16.0,left.jpg,,,left,0.6348,,A23KAJRDVCVGOE
147,37,,1.0,17.0,LITTLE_AUK_5.jpg,SANDHILL_CRANE_3.jpg,1.0,,,,A23KAJRDVCVGOE
148,38,,1.0,18.0,INCA_TERN_4.jpg,ELLIOTS__PHEASANT_4.jpg,1.0,,,,A23KAJRDVCVGOE
149,39,,1.0,19.0,BROWN_THRASHER_3.jpg,OYSTER_CATCHER_4.jpg,2.0,,,,A23KAJRDVCVGOE
150,40,,1.0,20.0,BALI_STARLING_1.jpg,PURPLE_FINCH_2.jpg,2.0,,,,A23KAJRDVCVGOE
151,41,,1.0,21.0,EASTERN_TOWEE_2.jpg,NORTHERN_BEARDLESS_TYRANNULET_5.jpg,3.0,,,,A23KAJRDVCVGOE
152,42,,1.0,22.0,IVORY_GULL_3.jpg,FLAME_TANAGER_3.jpg,2.0,,,,A23KAJRDVCVGOE
153,43,,1.0,23.0,OVENBIRD_5.jpg,MYNA_4.jpg,1.0,,,,A23KAJRDVCVGOE
154,44,,1.0,24.0,ASIAN_CRESTED_IBIS_4.jpg,IVORY_GULL_2.jpg,3.0,,,,A23KAJRDVCVGOE
155,45,,1.0,25.0,GOLDEN_CHLOROPHONIA_5.jpg,VERMILION_FLYCATHER_5.jpg,3.0,,,,A23KAJRDVCVGOE
156,46,,1.0,26.0,RUBY_THROATED_HUMMINGBIRD_2.jpg,APAPANE_4.jpg,2.0,,,,A23KAJRDVCVGOE
157,47,,1.0,27.0,MYNA_1.jpg,GREY_PLOVER_4.jpg,2.0,,,,A23KAJRDVCVGOE
158,48,,1.0,28.0,SHOEBILL_3.jpg,EASTERN_MEADOWLARK_1.jpg,1.0,,,,A23KAJRDVCVGOE
159,49,,1.0,29.0,IVORY_GULL_1.jpg,WILSONS_BIRD_OF_PARADISE_4.jpg,1.0,,,,A23KAJRDVCVGOE
160,50,,1.0,30.0,KILLDEAR_2.jpg,AZURE_TIT_5.jpg,3.0,,,,A23KAJRDVCVGOE
161,51,,1.0,31.0,GRAY_KINGBIRD_5.jpg,AFRICAN_FIREFINCH_3.jpg,3.0,,,,A23KAJRDVCVGOE
162,52,,1.0,32.0,LESSER_ADJUTANT_4.jpg,FAIRY_TERN_3.jpg,3.0,,,,A23KAJRDVCVGOE
163,53,,1.0,33.0,CRESTED_NUTHATCH_2.jpg,CANARY_1.jpg,3.0,,,,A23KAJRDVCVGOE
164,54,right,1.0,34.0,right.jpg,,,right,0.6435,,A23KAJRDVCVGOE
165,55,,1.0,35.0,RUFOUS_KINGFISHER_1.jpg,SNOWY_OWL_5.jpg,1.0,,,,A23KAJRDVCVGOE
166,56,left,1.0,36.0,left.jpg,,,left,0.6865,,A23KAJRDVCVGOE
167,57,,1.0,37.0,RUBY_THROATED_HUMMINGBIRD_1.jpg,BANANAQUIT_2.jpg,1.0,,,,A23KAJRDVCVGOE
168,58,,1.0,38.0,LESSER_ADJUTANT_5.jpg,GREEN_BROADBILL_4.jpg,1.0,,,,A23KAJRDVCVGOE
169,59,,1.0,39.0,INDIGO_BUNTING_1.jpg,FRIGATE_4.jpg,1.0,,,,A23KAJRDVCVGOE
170,60,,1.0,40.0,ASIAN_DOLLARD_BIRD_2.jpg,ALBATROSS_2.jpg,1.0,,,,A23KAJRDVCVGOE
171,61,,1.0,41.0,INLAND_DOTTEREL_4.jpg,NICOBAR_PIGEON_4.jpg,2.0,,,,A23KAJRDVCVGOE
172,62,,1.0,42.0,PINK_ROBIN_4.jpg,SPOONBILL_3.jpg,1.0,,,,A23KAJRDVCVGOE
173,63,,1.0,43.0,EUROPEAN_TURTLE_DOVE_3.jpg,MALABAR_HORNBILL_2.jpg,3.0,,,,A23KAJRDVCVGOE
174,64,,1.0,44.0,AMERICAN_PIPIT_5.jpg,HEPATIC_TANAGER_5.jpg,3.0,,,,A23KAJRDVCVGOE
175,65,,1.0,45.0,GOLDEN_CHEEKED_WARBLER_2.jpg,HOUSE_FINCH_2.jpg,2.0,,,,A23KAJRDVCVGOE
176,66,right,1.0,46.0,right.jpg,,,right,0.648,,A23KAJRDVCVGOE
177,67,,1.0,47.0,RUBY_THROATED_HUMMINGBIRD_3.jpg,NORTHERN_SHOVELER_1.jpg,3.0,,,,A23KAJRDVCVGOE
178,68,,1.0,48.0,PARUS_MAJOR_1.jpg,PINK_ROBIN_3.jpg,3.0,,,,A23KAJRDVCVGOE
179,69,,1.0,49.0,ECUADORIAN_HILLSTAR_5.jpg,BOBOLINK_5.jpg,2.0,,,,A23KAJRDVCVGOE
180,70,,1.0,50.0,TASMANIAN_HEN_5.jpg,COPPERY_TAILED_COUCAL_1.jpg,3.0,,,,A23KAJRDVCVGOE
181,71,,1.0,51.0,AFRICAN_PIED_HORNBILL_5.jpg,ALEXANDRINE_PARAKEET_1.jpg,2.0,,,,A23KAJRDVCVGOE
182,72,,1.0,52.0,DOUBLE_BRESTED_CORMARANT_5.jpg,EURASIAN_MAGPIE_4.jpg,2.0,,,,A23KAJRDVCVGOE
183,73,,1.0,53.0,ALPINE_CHOUGH_4.jpg,EUROPEAN_GOLDFINCH_3.jpg,2.0,,,,A23KAJRDVCVGOE
184,74,,1.0,54.0,PYGMY_KINGFISHER_5.jpg,DOUBLE_EYED_FIG_PARROT_4.jpg,3.0,,,,A23KAJRDVCVGOE
185,75,,1.0,55.0,VERMILION_FLYCATHER_3.jpg,CALIFORNIA_GULL_1.jpg,2.0,,,,A23KAJRDVCVGOE
186,76,,1.0,56.0,CRESTED_CARACARA_4.jpg,FAIRY_PENGUIN_5.jpg,1.0,,,,A23KAJRDVCVGOE
187,77,,1.0,57.0,GREY_PLOVER_1.jpg,ECUADORIAN_HILLSTAR_3.jpg,3.0,,,,A23KAJRDVCVGOE
188,78,,1.0,58.0,RED_HEADED_WOODPECKER_5.jpg,ASHY_STORM_PETREL_2.jpg,1.0,,,,A23KAJRDVCVGOE
189,79,,1.0,59.0,STRIPPED_SWALLOW_1.jpg,DOUBLE_BRESTED_CORMARANT_4.jpg,1.0,,,,A23KAJRDVCVGOE
190,80,,1.0,60.0,GYRFALCON_1.jpg,CINNAMON_ATTILA_2.jpg,2.0,,,,A23KAJRDVCVGOE
191,81,,1.0,61.0,BROWN_NOODY_3.jpg,GUINEA_TURACO_5.jpg,3.0,,,,A23KAJRDVCVGOE
192,82,,1.0,62.0,PEACOCK_3.jpg,STRAWBERRY_FINCH_4.jpg,2.0,,,,A23KAJRDVCVGOE
193,83,,1.0,63.0,CASSOWARY_1.jpg,AFRICAN_OYSTER_CATCHER_2.jpg,3.0,,,,A23KAJRDVCVGOE
194,84,,1.0,64.0,KAGU_5.jpg,ASHY_STORM_PETREL_1.jpg,2.0,,,,A23KAJRDVCVGOE
195,20,,1.0,0.0,CRESTED_CARACARA_4.jpg,TOUCHAN_4.jpg,3.0,,,,A2541C8MY0BYV3
196,21,,1.0,1.0,GRAY_KINGBIRD_5.jpg,COCK_OF_THE__ROCK_4.jpg,2.0,,,,A2541C8MY0BYV3
197,22,,1.0,2.0,DOUBLE_BRESTED_CORMARANT_5.jpg,GILDED_FLICKER_2.jpg,1.0,,,,A2541C8MY0BYV3
198,23,,1.0,3.0,EASTERN_TOWEE_2.jpg,NORTHERN_BEARDLESS_TYRANNULET_5.jpg,3.0,,,,A2541C8MY0BYV3
199,24,,1.0,4.0,RUBY_THROATED_HUMMINGBIRD_2.jpg,DUSKY_ROBIN_5.jpg,3.0,,,,A2541C8MY0BYV3
200,25,,1.0,5.0,TASMANIAN_HEN_5.jpg,COPPERY_TAILED_COUCAL_1.jpg,3.0,,,,A2541C8MY0BYV3
201,26,,1.0,6.0,VERMILION_FLYCATHER_3.jpg,CALIFORNIA_GULL_1.jpg,2.0,,,,A2541C8MY0BYV3
202,27,left,1.0,7.0,left.jpg,,,left,0.474,,A2541C8MY0BYV3
203,28,,1.0,8.0,RUBY_THROATED_HUMMINGBIRD_3.jpg,NORTHERN_SHOVELER_1.jpg,3.0,,,,A2541C8MY0BYV3
204,29,,1.0,9.0,NORTHERN_JACANA_3.jpg,AMERICAN_GOLDFINCH_4.jpg,1.0,,,,A2541C8MY0BYV3
205,30,,1.0,10.0,PARUS_MAJOR_1.jpg,PINK_ROBIN_3.jpg,3.0,,,,A2541C8MY0BYV3
206,31,,1.0,11.0,INCA_TERN_4.jpg,ELLIOTS__PHEASANT_4.jpg,1.0,,,,A2541C8MY0BYV3
207,32,,1.0,12.0,FLAME_BOWERBIRD_3.jpg,BROWN_THRASHER_4.jpg,2.0,,,,A2541C8MY0BYV3
208,33,,1.0,13.0,LARK_BUNTING_2.jpg,KING_VULTURE_3.jpg,2.0,,,,A2541C8MY0BYV3
209,34,,1.0,14.0,KILLDEAR_2.jpg,AZURE_TIT_5.jpg,3.0,,,,A2541C8MY0BYV3
210,35,,1.0,15.0,IVORY_GULL_1.jpg,EASTERN_GOLDEN_WEAVER_5.jpg,2.0,,,,A2541C8MY0BYV3
211,36,,1.0,16.0,OVENBIRD_5.jpg,FAIRY_PENGUIN_1.jpg,2.0,,,,A2541C8MY0BYV3
212,37,,1.0,17.0,BALI_STARLING_1.jpg,CAPE_LONGCLAW_5.jpg,1.0,,,,A2541C8MY0BYV3
213,38,,1.0,18.0,RED_HEADED_WOODPECKER_5.jpg,ASHY_STORM_PETREL_2.jpg,1.0,,,,A2541C8MY0BYV3
214,39,,1.0,19.0,OCELLATED_TURKEY_1.jpg,CHIPPING_SPARROW_1.jpg,1.0,,,,A2541C8MY0BYV3
215,40,,1.0,20.0,CASPIAN_TERN_1.jpg,EUROPEAN_GOLDFINCH_4.jpg,2.0,,,,A2541C8MY0BYV3
216,41,right,1.0,21.0,right.jpg,,,right,0.994,,A2541C8MY0BYV3
217,42,,1.0,22.0,PINK_ROBIN_4.jpg,SPOONBILL_3.jpg,1.0,,,,A2541C8MY0BYV3
218,43,,1.0,23.0,SPLENDID_WREN_1.jpg,POMARINE_JAEGER_5.jpg,1.0,,,,A2541C8MY0BYV3
219,44,,1.0,24.0,SHOEBILL_3.jpg,BALD_EAGLE_5.jpg,3.0,,,,A2541C8MY0BYV3
220,45,,1.0,25.0,ARARIPE_MANAKIN_4.jpg,KIWI_3.jpg,1.0,,,,A2541C8MY0BYV3
221,46,,1.0,26.0,PYGMY_KINGFISHER_5.jpg,DOUBLE_EYED_FIG_PARROT_4.jpg,3.0,,,,A2541C8MY0BYV3
222,47,,1.0,27.0,CRESTED_NUTHATCH_2.jpg,CANARY_1.jpg,3.0,,,,A2541C8MY0BYV3
223,48,,1.0,28.0,BREWERS_BLACKBIRD_3.jpg,GOLDEN_CHEEKED_WARBLER_3.jpg,2.0,,,,A2541C8MY0BYV3
224,49,,1.0,29.0,LITTLE_AUK_5.jpg,BEARDED_BELLBIRD_1.jpg,3.0,,,,A2541C8MY0BYV3
225,50,,1.0,30.0,ECUADORIAN_HILLSTAR_5.jpg,SCARLET_IBIS_2.jpg,1.0,,,,A2541C8MY0BYV3
226,51,,1.0,31.0,INLAND_DOTTEREL_4.jpg,NICOBAR_PIGEON_4.jpg,2.0,,,,A2541C8MY0BYV3
227,52,right,1.0,32.0,right.jpg,,,right,0.493,,A2541C8MY0BYV3
228,53,,1.0,33.0,PEACOCK_3.jpg,CHATTERING_LORY_2.jpg,3.0,,,,A2541C8MY0BYV3
229,54,,1.0,34.0,ALPINE_CHOUGH_4.jpg,SNOWY_EGRET_2.jpg,1.0,,,,A2541C8MY0BYV3
230,55,,1.0,35.0,SCARLET_TANAGER_2.jpg,BORNEAN_LEAFBIRD_1.jpg,3.0,,,,A2541C8MY0BYV3
231,56,right,1.0,36.0,right.jpg,,,right,0.437,,A2541C8MY0BYV3
232,57,,1.0,37.0,MYNA_1.jpg,OSTRICH_3.jpg,1.0,,,,A2541C8MY0BYV3
233,58,,1.0,38.0,CERULEAN_WARBLER_1.jpg,BANANAQUIT_1.jpg,3.0,,,,A2541C8MY0BYV3
234,59,,1.0,39.0,GREY_PLOVER_1.jpg,GOULDIAN_FINCH_4.jpg,2.0,,,,A2541C8MY0BYV3
235,60,,1.0,40.0,INDIGO_BUNTING_1.jpg,DARWINS_FLYCATCHER_2.jpg,3.0,,,,A2541C8MY0BYV3
236,61,,1.0,41.0,MAGPIE_GOOSE_5.jpg,OYSTER_CATCHER_3.jpg,3.0,,,,A2541C8MY0BYV3
237,62,,1.0,42.0,WHITE_CHEEKED_TURACO_5.jpg,NORTHERN_MOCKINGBIRD_4.jpg,1.0,,,,A2541C8MY0BYV3
238,63,,1.0,43.0,RUBY_THROATED_HUMMINGBIRD_1.jpg,VULTURINE_GUINEAFOWL_4.jpg,2.0,,,,A2541C8MY0BYV3
239,64,,1.0,44.0,ASIAN_DOLLARD_BIRD_2.jpg,ALBATROSS_2.jpg,1.0,,,,A2541C8MY0BYV3
240,65,,1.0,45.0,EUROPEAN_TURTLE_DOVE_3.jpg,TEAL_DUCK_2.jpg,1.0,,,,A2541C8MY0BYV3
241,66,,1.0,46.0,AMERICAN_PIPIT_5.jpg,GREEN_MAGPIE_1.jpg,2.0,,,,A2541C8MY0BYV3
242,67,,1.0,47.0,HAWAIIAN_GOOSE_4.jpg,HIMALAYAN_MONAL_2.jpg,2.0,,,,A2541C8MY0BYV3
243,68,,1.0,48.0,IVORY_GULL_3.jpg,INDIGO_FLYCATCHER_2.jpg,1.0,,,,A2541C8MY0BYV3
244,69,right,1.0,49.0,right.jpg,,,right,0.501,,A2541C8MY0BYV3
245,70,,1.0,50.0,ASIAN_CRESTED_IBIS_4.jpg,IVORY_GULL_2.jpg,3.0,,,,A2541C8MY0BYV3
246,71,,1.0,51.0,CASSOWARY_1.jpg,AFRICAN_OYSTER_CATCHER_2.jpg,3.0,,,,A2541C8MY0BYV3
247,72,,1.0,52.0,BROWN_NOODY_3.jpg,GUINEA_TURACO_5.jpg,3.0,,,,A2541C8MY0BYV3
248,73,,1.0,53.0,STRIPPED_SWALLOW_1.jpg,MAGPIE_GOOSE_4.jpg,2.0,,,,A2541C8MY0BYV3
249,74,,1.0,54.0,MALACHITE_KINGFISHER_2.jpg,AMERICAN_FLAMINGO_1.jpg,1.0,,,,A2541C8MY0BYV3
250,75,,1.0,55.0,BROWN_THRASHER_3.jpg,OYSTER_CATCHER_4.jpg,2.0,,,,A2541C8MY0BYV3
251,76,,1.0,56.0,LESSER_ADJUTANT_4.jpg,RAINBOW_LORIKEET_5.jpg,2.0,,,,A2541C8MY0BYV3
252,77,,1.0,57.0,GOLDEN_CHLOROPHONIA_5.jpg,COMMON_HOUSE_MARTIN_4.jpg,2.0,,,,A2541C8MY0BYV3
253,78,,1.0,58.0,KAGU_5.jpg,ASHY_STORM_PETREL_1.jpg,2.0,,,,A2541C8MY0BYV3
254,79,,1.0,59.0,RUFOUS_KINGFISHER_1.jpg,HORNED_SUNGEM_4.jpg,3.0,,,,A2541C8MY0BYV3
255,80,,1.0,60.0,GOLDEN_CHEEKED_WARBLER_2.jpg,SPOONBILL_1.jpg,1.0,,,,A2541C8MY0BYV3
256,81,,1.0,61.0,CHUKAR_PARTRIDGE_5.jpg,RAZORBILL_1.jpg,2.0,,,,A2541C8MY0BYV3
257,82,,1.0,62.0,GYRFALCON_1.jpg,OSTRICH_1.jpg,1.0,,,,A2541C8MY0BYV3
258,83,,1.0,63.0,AFRICAN_PIED_HORNBILL_5.jpg,ALEXANDRINE_PARAKEET_1.jpg,2.0,,,,A2541C8MY0BYV3
259,84,,1.0,64.0,LESSER_ADJUTANT_5.jpg,GREEN_BROADBILL_4.jpg,1.0,,,,A2541C8MY0BYV3
260,20,,1.0,0.0,RUBY_THROATED_HUMMINGBIRD_1.jpg,VULTURINE_GUINEAFOWL_4.jpg,2.0,,,,A2CZ5PS567SA10
261,21,,1.0,1.0,ASIAN_DOLLARD_BIRD_2.jpg,ALBATROSS_2.jpg,1.0,,,,A2CZ5PS567SA10
262,22,,1.0,2.0,LARK_BUNTING_2.jpg,CACTUS_WREN_3.jpg,3.0,,,,A2CZ5PS567SA10
263,23,,1.0,3.0,KAGU_5.jpg,DEMOISELLE_CRANE_1.jpg,3.0,,,,A2CZ5PS567SA10
264,24,,1.0,4.0,DOUBLE_BRESTED_CORMARANT_5.jpg,CHINESE_POND_HERON_2.jpg,3.0,,,,A2CZ5PS567SA10
265,25,,1.0,5.0,RUBY_THROATED_HUMMINGBIRD_2.jpg,GOLDEN_CHLOROPHONIA_2.jpg,1.0,,,,A2CZ5PS567SA10
266,26,left,1.0,6.0,left.jpg,,,left,1.0361,,A2CZ5PS567SA10
267,27,,1.0,7.0,SCARLET_TANAGER_2.jpg,BEARDED_BARBET_2.jpg,1.0,,,,A2CZ5PS567SA10
268,28,,1.0,8.0,PEACOCK_3.jpg,ANIANIAU_2.jpg,1.0,,,,A2CZ5PS567SA10
269,29,,1.0,9.0,VERMILION_FLYCATHER_3.jpg,INDIAN_BUSTARD_1.jpg,1.0,,,,A2CZ5PS567SA10
270,30,,1.0,10.0,HAWAIIAN_GOOSE_4.jpg,CUBAN_TODY_3.jpg,1.0,,,,A2CZ5PS567SA10
271,31,,1.0,11.0,INLAND_DOTTEREL_4.jpg,NICOBAR_PIGEON_4.jpg,2.0,,,,A2CZ5PS567SA10
272,32,,1.0,12.0,ARARIPE_MANAKIN_4.jpg,BLACK_VULTURE_1.jpg,2.0,,,,A2CZ5PS567SA10
273,33,,1.0,13.0,KILLDEAR_2.jpg,AZURE_TIT_5.jpg,3.0,,,,A2CZ5PS567SA10
274,34,,1.0,14.0,CASSOWARY_1.jpg,SCARLET_MACAW_1.jpg,2.0,,,,A2CZ5PS567SA10
275,35,,1.0,15.0,SPLENDID_WREN_1.jpg,CUBAN_TODY_4.jpg,3.0,,,,A2CZ5PS567SA10
276,36,left,1.0,16.0,left.jpg,,,left,1.2965,,A2CZ5PS567SA10
277,37,,1.0,17.0,CRESTED_NUTHATCH_2.jpg,SCARLET_IBIS_3.jpg,1.0,,,,A2CZ5PS567SA10
278,38,,1.0,18.0,INDIGO_BUNTING_1.jpg,DARWINS_FLYCATCHER_2.jpg,3.0,,,,A2CZ5PS567SA10
279,39,,1.0,19.0,PYGMY_KINGFISHER_5.jpg,GRANDALA_2.jpg,1.0,,,,A2CZ5PS567SA10
280,40,,1.0,20.0,FLAME_BOWERBIRD_3.jpg,BROWN_THRASHER_4.jpg,2.0,,,,A2CZ5PS567SA10
281,41,,1.0,21.0,IVORY_GULL_3.jpg,FLAME_TANAGER_3.jpg,2.0,,,,A2CZ5PS567SA10
282,42,,1.0,22.0,WHITE_CHEEKED_TURACO_5.jpg,GREAT_POTOO_3.jpg,2.0,,,,A2CZ5PS567SA10
283,43,,1.0,23.0,AMERICAN_PIPIT_5.jpg,HEPATIC_TANAGER_5.jpg,3.0,,,,A2CZ5PS567SA10
284,44,,1.0,24.0,PARUS_MAJOR_1.jpg,CALIFORNIA_GULL_2.jpg,2.0,,,,A2CZ5PS567SA10
285,45,,1.0,25.0,ALPINE_CHOUGH_4.jpg,SNOWY_EGRET_2.jpg,1.0,,,,A2CZ5PS567SA10
286,46,,1.0,26.0,GOLDEN_CHLOROPHONIA_5.jpg,VERMILION_FLYCATHER_5.jpg,3.0,,,,A2CZ5PS567SA10
287,47,,1.0,27.0,OCELLATED_TURKEY_1.jpg,AMERICAN_PIPIT_1.jpg,2.0,,,,A2CZ5PS567SA10
288,48,,1.0,28.0,SHOEBILL_3.jpg,GILDED_FLICKER_5.jpg,2.0,,,,A2CZ5PS567SA10
289,49,,1.0,29.0,CHUKAR_PARTRIDGE_5.jpg,BLACK_THROATED_BUSHTIT_1.jpg,3.0,,,,A2CZ5PS567SA10
290,50,,1.0,30.0,NORTHERN_JACANA_3.jpg,SCARLET_IBIS_4.jpg,3.0,,,,A2CZ5PS567SA10
291,51,,1.0,31.0,OVENBIRD_5.jpg,MYNA_4.jpg,1.0,,,,A2CZ5PS567SA10
292,52,,1.0,32.0,GOLDEN_CHEEKED_WARBLER_2.jpg,SPOONBILL_1.jpg,1.0,,,,A2CZ5PS567SA10
293,53,right,1.0,33.0,right.jpg,,,right,1.072,,A2CZ5PS567SA10
294,54,,1.0,34.0,IVORY_GULL_1.jpg,FAIRY_TERN_4.jpg,3.0,,,,A2CZ5PS567SA10
295,55,,1.0,35.0,ECUADORIAN_HILLSTAR_5.jpg,SCARLET_IBIS_2.jpg,1.0,,,,A2CZ5PS567SA10
296,56,,1.0,36.0,MYNA_1.jpg,OSTRICH_3.jpg,1.0,,,,A2CZ5PS567SA10
297,57,,1.0,37.0,RUFOUS_KINGFISHER_1.jpg,MAGPIE_GOOSE_3.jpg,2.0,,,,A2CZ5PS567SA10
298,58,,1.0,38.0,MAGPIE_GOOSE_5.jpg,DOUBLE_EYED_FIG_PARROT_5.jpg,1.0,,,,A2CZ5PS567SA10
299,59,,1.0,39.0,GRAY_KINGBIRD_5.jpg,BALD_EAGLE_2.jpg,1.0,,,,A2CZ5PS567SA10
300,60,right,1.0,40.0,right.jpg,,,right,1.2169,,A2CZ5PS567SA10
301,61,,1.0,41.0,MALACHITE_KINGFISHER_2.jpg,AMERICAN_FLAMINGO_1.jpg,1.0,,,,A2CZ5PS567SA10
302,62,,1.0,42.0,EASTERN_TOWEE_2.jpg,SANDHILL_CRANE_2.jpg,1.0,,,,A2CZ5PS567SA10
303,63,,1.0,43.0,TASMANIAN_HEN_5.jpg,COPPERY_TAILED_COUCAL_1.jpg,3.0,,,,A2CZ5PS567SA10
304,64,,1.0,44.0,BREWERS_BLACKBIRD_3.jpg,GOLDEN_CHEEKED_WARBLER_3.jpg,2.0,,,,A2CZ5PS567SA10
305,65,,1.0,45.0,LITTLE_AUK_5.jpg,BEARDED_BELLBIRD_1.jpg,3.0,,,,A2CZ5PS567SA10
306,66,,1.0,46.0,CASPIAN_TERN_1.jpg,GREAT_GRAY_OWL_4.jpg,1.0,,,,A2CZ5PS567SA10
307,67,,1.0,47.0,RED_HEADED_WOODPECKER_5.jpg,COLLARED_ARACARI_1.jpg,3.0,,,,A2CZ5PS567SA10
308,68,right,1.0,48.0,right.jpg,,,right,1.0417,,A2CZ5PS567SA10
309,69,,1.0,49.0,BROWN_THRASHER_3.jpg,OYSTER_CATCHER_4.jpg,2.0,,,,A2CZ5PS567SA10
310,70,,1.0,50.0,GYRFALCON_1.jpg,FAIRY_TERN_1.jpg,3.0,,,,A2CZ5PS567SA10
311,71,,1.0,51.0,CERULEAN_WARBLER_1.jpg,BANANAQUIT_1.jpg,3.0,,,,A2CZ5PS567SA10
312,72,,1.0,52.0,GREY_PLOVER_1.jpg,HYACINTH_MACAW_3.jpg,1.0,,,,A2CZ5PS567SA10
313,73,,1.0,53.0,PINK_ROBIN_4.jpg,COMMON_IORA_4.jpg,3.0,,,,A2CZ5PS567SA10
314,74,,1.0,54.0,LESSER_ADJUTANT_5.jpg,GAMBELS_QUAIL_1.jpg,2.0,,,,A2CZ5PS567SA10
315,75,,1.0,55.0,CRESTED_CARACARA_4.jpg,INDIAN_PITTA_2.jpg,2.0,,,,A2CZ5PS567SA10
316,76,,1.0,56.0,AFRICAN_PIED_HORNBILL_5.jpg,CAPUCHINBIRD_2.jpg,3.0,,,,A2CZ5PS567SA10
317,77,,1.0,57.0,EUROPEAN_TURTLE_DOVE_3.jpg,PAINTED_BUNTING_3.jpg,2.0,,,,A2CZ5PS567SA10
318,78,,1.0,58.0,LESSER_ADJUTANT_4.jpg,FAIRY_TERN_3.jpg,3.0,,,,A2CZ5PS567SA10
319,79,,1.0,59.0,RUBY_THROATED_HUMMINGBIRD_3.jpg,NORTHERN_SHOVELER_1.jpg,3.0,,,,A2CZ5PS567SA10
320,80,,1.0,60.0,INCA_TERN_4.jpg,SMITHS_LONGSPUR_5.jpg,2.0,,,,A2CZ5PS567SA10
321,81,,1.0,61.0,BALI_STARLING_1.jpg,CAPE_LONGCLAW_5.jpg,1.0,,,,A2CZ5PS567SA10
322,82,,1.0,62.0,ASIAN_CRESTED_IBIS_4.jpg,OYSTER_CATCHER_2.jpg,2.0,,,,A2CZ5PS567SA10
323,83,,1.0,63.0,STRIPPED_SWALLOW_1.jpg,MAGPIE_GOOSE_4.jpg,2.0,,,,A2CZ5PS567SA10
324,84,,1.0,64.0,BROWN_NOODY_3.jpg,SPANGLED_COTINGA_4.jpg,2.0,,,,A2CZ5PS567SA10
325,20,,1.0,0.0,CASPIAN_TERN_1.jpg,EUROPEAN_GOLDFINCH_4.jpg,2.0,,,,A2DX27FIUVZYB5
326,21,,1.0,1.0,AFRICAN_PIED_HORNBILL_5.jpg,KIWI_4.jpg,1.0,,,,A2DX27FIUVZYB5
327,22,,1.0,2.0,MAGPIE_GOOSE_5.jpg,OYSTER_CATCHER_3.jpg,3.0,,,,A2DX27FIUVZYB5
328,23,,1.0,3.0,TASMANIAN_HEN_5.jpg,COPPERY_TAILED_COUCAL_1.jpg,3.0,,,,A2DX27FIUVZYB5
329,24,,1.0,4.0,RUBY_THROATED_HUMMINGBIRD_2.jpg,APAPANE_4.jpg,2.0,,,,A2DX27FIUVZYB5
330,25,,1.0,5.0,VERMILION_FLYCATHER_3.jpg,CALIFORNIA_GULL_1.jpg,2.0,,,,A2DX27FIUVZYB5
331,26,,1.0,6.0,PINK_ROBIN_4.jpg,SPOONBILL_3.jpg,1.0,,,,A2DX27FIUVZYB5
332,27,,1.0,7.0,CRESTED_CARACARA_4.jpg,TOUCHAN_4.jpg,3.0,,,,A2DX27FIUVZYB5
333,28,,1.0,8.0,LESSER_ADJUTANT_5.jpg,RED_HEADED_WOODPECKER_1.jpg,3.0,,,,A2DX27FIUVZYB5
334,29,,1.0,9.0,LESSER_ADJUTANT_4.jpg,ALTAMIRA_YELLOWTHROAT_5.jpg,1.0,,,,A2DX27FIUVZYB5
335,30,left,1.0,10.0,left.jpg,,,left,0.9322,,A2DX27FIUVZYB5
336,31,,1.0,11.0,BROWN_THRASHER_3.jpg,DOUBLE_EYED_FIG_PARROT_3.jpg,1.0,,,,A2DX27FIUVZYB5
337,32,,1.0,12.0,BROWN_NOODY_3.jpg,PEACOCK_2.jpg,1.0,,,,A2DX27FIUVZYB5
338,33,,1.0,13.0,GYRFALCON_1.jpg,OSTRICH_1.jpg,1.0,,,,A2DX27FIUVZYB5
339,34,,1.0,14.0,IVORY_GULL_1.jpg,EASTERN_GOLDEN_WEAVER_5.jpg,2.0,,,,A2DX27FIUVZYB5
340,35,,1.0,15.0,ARARIPE_MANAKIN_4.jpg,BORNEAN_LEAFBIRD_3.jpg,3.0,,,,A2DX27FIUVZYB5
341,36,,1.0,16.0,KILLDEAR_2.jpg,CAATINGA_CACHOLOTE_4.jpg,2.0,,,,A2DX27FIUVZYB5
342,37,,1.0,17.0,INCA_TERN_4.jpg,SMITHS_LONGSPUR_5.jpg,2.0,,,,A2DX27FIUVZYB5
343,38,,1.0,18.0,CRESTED_NUTHATCH_2.jpg,AFRICAN_FIREFINCH_1.jpg,2.0,,,,A2DX27FIUVZYB5
344,39,,1.0,19.0,CASSOWARY_1.jpg,AFRICAN_OYSTER_CATCHER_2.jpg,3.0,,,,A2DX27FIUVZYB5
345,40,,1.0,20.0,FLAME_BOWERBIRD_3.jpg,BROWN_THRASHER_4.jpg,2.0,,,,A2DX27FIUVZYB5
346,41,right,1.0,21.0,right.jpg,,,right,0.9259,,A2DX27FIUVZYB5
347,42,,1.0,22.0,GREY_PLOVER_1.jpg,HYACINTH_MACAW_3.jpg,1.0,,,,A2DX27FIUVZYB5
348,43,,1.0,23.0,ALPINE_CHOUGH_4.jpg,SNOWY_EGRET_2.jpg,1.0,,,,A2DX27FIUVZYB5
349,44,,1.0,24.0,DOUBLE_BRESTED_CORMARANT_5.jpg,EURASIAN_MAGPIE_4.jpg,2.0,,,,A2DX27FIUVZYB5
350,45,,1.0,25.0,EUROPEAN_TURTLE_DOVE_3.jpg,MALABAR_HORNBILL_2.jpg,3.0,,,,A2DX27FIUVZYB5
351,46,,1.0,26.0,AMERICAN_PIPIT_5.jpg,HEPATIC_TANAGER_5.jpg,3.0,,,,A2DX27FIUVZYB5
352,47,,1.0,27.0,STRIPPED_SWALLOW_1.jpg,GO_AWAY_BIRD_5.jpg,3.0,,,,A2DX27FIUVZYB5
353,48,,1.0,28.0,RED_HEADED_WOODPECKER_5.jpg,ASHY_STORM_PETREL_2.jpg,1.0,,,,A2DX27FIUVZYB5
354,49,,1.0,29.0,GRAY_KINGBIRD_5.jpg,AFRICAN_FIREFINCH_3.jpg,3.0,,,,A2DX27FIUVZYB5
355,50,left,1.0,30.0,left.jpg,,,left,1.4463,,A2DX27FIUVZYB5
356,51,,1.0,31.0,EASTERN_TOWEE_2.jpg,SANDHILL_CRANE_2.jpg,1.0,,,,A2DX27FIUVZYB5
357,52,,1.0,32.0,BALI_STARLING_1.jpg,IBERIAN_MAGPIE_1.jpg,3.0,,,,A2DX27FIUVZYB5
358,53,,1.0,33.0,MYNA_1.jpg,OSTRICH_3.jpg,1.0,,,,A2DX27FIUVZYB5
359,54,,1.0,34.0,PARUS_MAJOR_1.jpg,PINK_ROBIN_3.jpg,3.0,,,,A2DX27FIUVZYB5
360,55,,1.0,35.0,OVENBIRD_5.jpg,SHORT_BILLED_DOWITCHER_5.jpg,3.0,,,,A2DX27FIUVZYB5
361,56,,1.0,36.0,HAWAIIAN_GOOSE_4.jpg,HIMALAYAN_MONAL_2.jpg,2.0,,,,A2DX27FIUVZYB5
362,57,,1.0,37.0,INLAND_DOTTEREL_4.jpg,NICOBAR_PIGEON_4.jpg,2.0,,,,A2DX27FIUVZYB5
363,58,,1.0,38.0,RUBY_THROATED_HUMMINGBIRD_3.jpg,NORTHERN_SHOVELER_1.jpg,3.0,,,,A2DX27FIUVZYB5
364,59,,1.0,39.0,SPLENDID_WREN_1.jpg,POMARINE_JAEGER_5.jpg,1.0,,,,A2DX27FIUVZYB5
365,60,,1.0,40.0,LITTLE_AUK_5.jpg,BEARDED_BELLBIRD_1.jpg,3.0,,,,A2DX27FIUVZYB5
366,61,right,1.0,41.0,right.jpg,,,right,0.9644,,A2DX27FIUVZYB5
367,62,,1.0,42.0,ECUADORIAN_HILLSTAR_5.jpg,SCARLET_IBIS_2.jpg,1.0,,,,A2DX27FIUVZYB5
368,63,,1.0,43.0,ASIAN_DOLLARD_BIRD_2.jpg,LOGGERHEAD_SHRIKE_4.jpg,2.0,,,,A2DX27FIUVZYB5
369,64,,1.0,44.0,WHITE_CHEEKED_TURACO_5.jpg,GREAT_POTOO_3.jpg,2.0,,,,A2DX27FIUVZYB5
370,65,,1.0,45.0,IVORY_GULL_3.jpg,INDIGO_FLYCATCHER_2.jpg,1.0,,,,A2DX27FIUVZYB5
371,66,,1.0,46.0,ASIAN_CRESTED_IBIS_4.jpg,CANARY_2.jpg,1.0,,,,A2DX27FIUVZYB5
372,67,,1.0,47.0,NORTHERN_JACANA_3.jpg,CRAB_PLOVER_3.jpg,2.0,,,,A2DX27FIUVZYB5
373,68,,1.0,48.0,INDIGO_BUNTING_1.jpg,NORTHERN_GANNET_1.jpg,2.0,,,,A2DX27FIUVZYB5
374,69,left,1.0,49.0,left.jpg,,,left,0.9246,,A2DX27FIUVZYB5
375,70,,1.0,50.0,KAGU_5.jpg,RED_BEARDED_BEE_EATER_3.jpg,1.0,,,,A2DX27FIUVZYB5
376,71,,1.0,51.0,OCELLATED_TURKEY_1.jpg,AMERICAN_PIPIT_1.jpg,2.0,,,,A2DX27FIUVZYB5
377,72,,1.0,52.0,SCARLET_TANAGER_2.jpg,NORTHERN_GANNET_2.jpg,2.0,,,,A2DX27FIUVZYB5
378,73,,1.0,53.0,RUFOUS_KINGFISHER_1.jpg,SNOWY_OWL_5.jpg,1.0,,,,A2DX27FIUVZYB5
379,74,,1.0,54.0,GOLDEN_CHEEKED_WARBLER_2.jpg,SPOONBILL_1.jpg,1.0,,,,A2DX27FIUVZYB5
380,75,,1.0,55.0,LARK_BUNTING_2.jpg,CACTUS_WREN_3.jpg,3.0,,,,A2DX27FIUVZYB5
381,76,,1.0,56.0,PEACOCK_3.jpg,STRAWBERRY_FINCH_4.jpg,2.0,,,,A2DX27FIUVZYB5
382,77,,1.0,57.0,BREWERS_BLACKBIRD_3.jpg,GOLDEN_CHEEKED_WARBLER_3.jpg,2.0,,,,A2DX27FIUVZYB5
383,78,,1.0,58.0,SHOEBILL_3.jpg,BALD_EAGLE_5.jpg,3.0,,,,A2DX27FIUVZYB5
384,79,,1.0,59.0,CERULEAN_WARBLER_1.jpg,AMERICAN_FLAMINGO_5.jpg,2.0,,,,A2DX27FIUVZYB5
385,80,,1.0,60.0,CHUKAR_PARTRIDGE_5.jpg,OSTRICH_5.jpg,1.0,,,,A2DX27FIUVZYB5
386,81,,1.0,61.0,RUBY_THROATED_HUMMINGBIRD_1.jpg,FRIGATE_1.jpg,3.0,,,,A2DX27FIUVZYB5
387,82,,1.0,62.0,PYGMY_KINGFISHER_5.jpg,DOUBLE_EYED_FIG_PARROT_4.jpg,3.0,,,,A2DX27FIUVZYB5
388,83,,1.0,63.0,GOLDEN_CHLOROPHONIA_5.jpg,ROADRUNNER_2.jpg,1.0,,,,A2DX27FIUVZYB5
389,84,,1.0,64.0,MALACHITE_KINGFISHER_2.jpg,GREEN_BROADBILL_5.jpg,3.0,,,,A2DX27FIUVZYB5
390,20,,1.0,0.0,DOUBLE_BRESTED_CORMARANT_5.jpg,CHINESE_POND_HERON_2.jpg,3.0,,,,A2LI71A9ZRA199
391,21,,1.0,1.0,OCELLATED_TURKEY_1.jpg,AMERICAN_PIPIT_1.jpg,2.0,,,,A2LI71A9ZRA199
392,22,,1.0,2.0,CHUKAR_PARTRIDGE_5.jpg,OSTRICH_5.jpg,1.0,,,,A2LI71A9ZRA199
393,23,,1.0,3.0,IVORY_GULL_1.jpg,FAIRY_TERN_4.jpg,3.0,,,,A2LI71A9ZRA199
394,24,,1.0,4.0,BREWERS_BLACKBIRD_3.jpg,CAPE_LONGCLAW_2.jpg,3.0,,,,A2LI71A9ZRA199
395,25,,1.0,5.0,RED_HEADED_WOODPECKER_5.jpg,CRIMSON_CHAT_3.jpg,2.0,,,,A2LI71A9ZRA199
396,26,,1.0,6.0,OVENBIRD_5.jpg,FAIRY_PENGUIN_1.jpg,2.0,,,,A2LI71A9ZRA199
397,27,right,1.0,7.0,right.jpg,,,right,1.3334,,A2LI71A9ZRA199
398,28,,1.0,8.0,NORTHERN_JACANA_3.jpg,SCARLET_IBIS_4.jpg,3.0,,,,A2LI71A9ZRA199
399,29,,1.0,9.0,CASPIAN_TERN_1.jpg,EUROPEAN_GOLDFINCH_4.jpg,2.0,,,,A2LI71A9ZRA199
400,30,,1.0,10.0,MYNA_1.jpg,PARADISE_TANAGER_3.jpg,3.0,,,,A2LI71A9ZRA199
401,31,,1.0,11.0,CERULEAN_WARBLER_1.jpg,AMERICAN_FLAMINGO_2.jpg,1.0,,,,A2LI71A9ZRA199
402,32,,1.0,12.0,PEACOCK_3.jpg,CHATTERING_LORY_2.jpg,3.0,,,,A2LI71A9ZRA199
403,33,,1.0,13.0,GOLDEN_CHEEKED_WARBLER_2.jpg,HOUSE_FINCH_2.jpg,2.0,,,,A2LI71A9ZRA199
404,34,,1.0,14.0,BALI_STARLING_1.jpg,IBERIAN_MAGPIE_1.jpg,3.0,,,,A2LI71A9ZRA199
405,35,,1.0,15.0,PARUS_MAJOR_1.jpg,PINK_ROBIN_3.jpg,3.0,,,,A2LI71A9ZRA199
406,36,,1.0,16.0,WHITE_CHEEKED_TURACO_5.jpg,PYGMY_KINGFISHER_2.jpg,3.0,,,,A2LI71A9ZRA199
407,37,,1.0,17.0,CRESTED_CARACARA_4.jpg,FAIRY_PENGUIN_5.jpg,1.0,,,,A2LI71A9ZRA199
408,38,,1.0,18.0,INDIGO_BUNTING_1.jpg,NORTHERN_GANNET_1.jpg,2.0,,,,A2LI71A9ZRA199
409,39,,1.0,19.0,PYGMY_KINGFISHER_5.jpg,MASKED_BOOBY_5.jpg,2.0,,,,A2LI71A9ZRA199
410,40,,1.0,20.0,SCARLET_TANAGER_2.jpg,NORTHERN_GANNET_2.jpg,2.0,,,,A2LI71A9ZRA199
411,41,,1.0,21.0,MAGPIE_GOOSE_5.jpg,OYSTER_CATCHER_3.jpg,3.0,,,,A2LI71A9ZRA199
412,42,left,1.0,22.0,left.jpg,,,left,1.3936,,A2LI71A9ZRA199
413,43,,1.0,23.0,VERMILION_FLYCATHER_3.jpg,CALIFORNIA_GULL_1.jpg,2.0,,,,A2LI71A9ZRA199
414,44,,1.0,24.0,ASIAN_CRESTED_IBIS_4.jpg,IVORY_GULL_2.jpg,3.0,,,,A2LI71A9ZRA199
415,45,,1.0,25.0,GYRFALCON_1.jpg,CINNAMON_ATTILA_2.jpg,2.0,,,,A2LI71A9ZRA199
416,46,,1.0,26.0,AFRICAN_PIED_HORNBILL_5.jpg,CAPUCHINBIRD_2.jpg,3.0,,,,A2LI71A9ZRA199
417,47,,1.0,27.0,RUBY_THROATED_HUMMINGBIRD_1.jpg,BANANAQUIT_2.jpg,1.0,,,,A2LI71A9ZRA199
418,48,,1.0,28.0,STRIPPED_SWALLOW_1.jpg,DOUBLE_BRESTED_CORMARANT_4.jpg,1.0,,,,A2LI71A9ZRA199
419,49,,1.0,29.0,ECUADORIAN_HILLSTAR_5.jpg,BOBOLINK_5.jpg,2.0,,,,A2LI71A9ZRA199
420,50,,1.0,30.0,HAWAIIAN_GOOSE_4.jpg,WATTLED_LAPWING_3.jpg,3.0,,,,A2LI71A9ZRA199
421,51,,1.0,31.0,CRESTED_NUTHATCH_2.jpg,AFRICAN_FIREFINCH_1.jpg,2.0,,,,A2LI71A9ZRA199
422,52,,1.0,32.0,SHOEBILL_3.jpg,EASTERN_MEADOWLARK_1.jpg,1.0,,,,A2LI71A9ZRA199
423,53,right,1.0,33.0,right.jpg,,,right,1.5357,,A2LI71A9ZRA199
424,54,,1.0,34.0,MALACHITE_KINGFISHER_2.jpg,AMERICAN_FLAMINGO_1.jpg,1.0,,,,A2LI71A9ZRA199
425,55,,1.0,35.0,IVORY_GULL_3.jpg,INDIGO_FLYCATCHER_2.jpg,1.0,,,,A2LI71A9ZRA199
426,56,,1.0,36.0,RUFOUS_KINGFISHER_1.jpg,SNOWY_OWL_5.jpg,1.0,,,,A2LI71A9ZRA199
427,57,,1.0,37.0,ASIAN_DOLLARD_BIRD_2.jpg,ALBATROSS_2.jpg,1.0,,,,A2LI71A9ZRA199
428,58,,1.0,38.0,EUROPEAN_TURTLE_DOVE_3.jpg,TEAL_DUCK_2.jpg,1.0,,,,A2LI71A9ZRA199
429,59,,1.0,39.0,LITTLE_AUK_5.jpg,SANDHILL_CRANE_3.jpg,1.0,,,,A2LI71A9ZRA199
430,60,right,1.0,40.0,right.jpg,,,right,1.3857,,A2LI71A9ZRA199
431,61,,1.0,41.0,LESSER_ADJUTANT_4.jpg,ALTAMIRA_YELLOWTHROAT_5.jpg,1.0,,,,A2LI71A9ZRA199
432,62,,1.0,42.0,FLAME_BOWERBIRD_3.jpg,QUETZAL_3.jpg,3.0,,,,A2LI71A9ZRA199
433,63,,1.0,43.0,INLAND_DOTTEREL_4.jpg,NICOBAR_PIGEON_4.jpg,2.0,,,,A2LI71A9ZRA199
434,64,,1.0,44.0,AMERICAN_PIPIT_5.jpg,EMU_2.jpg,1.0,,,,A2LI71A9ZRA199
435,65,,1.0,45.0,BROWN_NOODY_3.jpg,SPANGLED_COTINGA_4.jpg,2.0,,,,A2LI71A9ZRA199
436,66,,1.0,46.0,ALPINE_CHOUGH_4.jpg,EUROPEAN_GOLDFINCH_3.jpg,2.0,,,,A2LI71A9ZRA199
437,67,,1.0,47.0,LESSER_ADJUTANT_5.jpg,RED_HEADED_WOODPECKER_1.jpg,3.0,,,,A2LI71A9ZRA199
438,68,,1.0,48.0,RUBY_THROATED_HUMMINGBIRD_2.jpg,DUSKY_ROBIN_5.jpg,3.0,,,,A2LI71A9ZRA199
439,69,,1.0,49.0,EASTERN_TOWEE_2.jpg,SANDHILL_CRANE_2.jpg,1.0,,,,A2LI71A9ZRA199
440,70,right,1.0,50.0,right.jpg,,,right,1.3807,,A2LI71A9ZRA199
441,71,,1.0,51.0,GOLDEN_CHLOROPHONIA_5.jpg,ROADRUNNER_2.jpg,1.0,,,,A2LI71A9ZRA199
442,72,,1.0,52.0,GREY_PLOVER_1.jpg,GOULDIAN_FINCH_4.jpg,2.0,,,,A2LI71A9ZRA199
443,73,,1.0,53.0,PINK_ROBIN_4.jpg,SPOONBILL_3.jpg,1.0,,,,A2LI71A9ZRA199
444,74,,1.0,54.0,SPLENDID_WREN_1.jpg,CUBAN_TODY_4.jpg,3.0,,,,A2LI71A9ZRA199
445,75,,1.0,55.0,KILLDEAR_2.jpg,PEACOCK_5.jpg,1.0,,,,A2LI71A9ZRA199
446,76,,1.0,56.0,GRAY_KINGBIRD_5.jpg,AFRICAN_FIREFINCH_3.jpg,3.0,,,,A2LI71A9ZRA199
447,77,,1.0,57.0,BROWN_THRASHER_3.jpg,BLACK_BAZA_4.jpg,3.0,,,,A2LI71A9ZRA199
448,78,,1.0,58.0,INCA_TERN_4.jpg,SMITHS_LONGSPUR_5.jpg,2.0,,,,A2LI71A9ZRA199
449,79,,1.0,59.0,KAGU_5.jpg,ASHY_STORM_PETREL_1.jpg,2.0,,,,A2LI71A9ZRA199
450,80,,1.0,60.0,LARK_BUNTING_2.jpg,PEACOCK_1.jpg,1.0,,,,A2LI71A9ZRA199
451,81,,1.0,61.0,RUBY_THROATED_HUMMINGBIRD_3.jpg,MALAGASY_WHITE_EYE_2.jpg,1.0,,,,A2LI71A9ZRA199
452,82,,1.0,62.0,TASMANIAN_HEN_5.jpg,COPPERY_TAILED_COUCAL_1.jpg,3.0,,,,A2LI71A9ZRA199
453,83,,1.0,63.0,CASSOWARY_1.jpg,SCARLET_MACAW_1.jpg,2.0,,,,A2LI71A9ZRA199
454,84,,1.0,64.0,ARARIPE_MANAKIN_4.jpg,BLACK_VULTURE_1.jpg,2.0,,,,A2LI71A9ZRA199
455,20,,1.0,0.0,KILLDEAR_2.jpg,PEACOCK_5.jpg,1.0,,,,A2OT9ZJC4MQBS8
456,21,,1.0,1.0,HAWAIIAN_GOOSE_4.jpg,CUBAN_TODY_3.jpg,1.0,,,,A2OT9ZJC4MQBS8
457,22,,1.0,2.0,ASIAN_CRESTED_IBIS_4.jpg,IVORY_GULL_2.jpg,3.0,,,,A2OT9ZJC4MQBS8
458,23,,1.0,3.0,MYNA_1.jpg,GREY_PLOVER_4.jpg,2.0,,,,A2OT9ZJC4MQBS8
459,24,,1.0,4.0,CHUKAR_PARTRIDGE_5.jpg,OSTRICH_5.jpg,1.0,,,,A2OT9ZJC4MQBS8
460,25,,1.0,5.0,INLAND_DOTTEREL_4.jpg,CASSOWARY_2.jpg,1.0,,,,A2OT9ZJC4MQBS8
461,26,,1.0,6.0,PYGMY_KINGFISHER_5.jpg,MASKED_BOOBY_5.jpg,2.0,,,,A2OT9ZJC4MQBS8
462,27,left,1.0,7.0,left.jpg,,,left,1.0063,,A2OT9ZJC4MQBS8
463,28,,1.0,8.0,CASSOWARY_1.jpg,SCARLET_MACAW_1.jpg,2.0,,,,A2OT9ZJC4MQBS8
464,29,,1.0,9.0,EUROPEAN_TURTLE_DOVE_3.jpg,TEAL_DUCK_2.jpg,1.0,,,,A2OT9ZJC4MQBS8
465,30,,1.0,10.0,ASIAN_DOLLARD_BIRD_2.jpg,LOGGERHEAD_SHRIKE_4.jpg,2.0,,,,A2OT9ZJC4MQBS8
466,31,,1.0,11.0,AFRICAN_PIED_HORNBILL_5.jpg,CAPUCHINBIRD_2.jpg,3.0,,,,A2OT9ZJC4MQBS8
467,32,,1.0,12.0,GOLDEN_CHEEKED_WARBLER_2.jpg,WHITE_THROATED_BEE_EATER_1.jpg,3.0,,,,A2OT9ZJC4MQBS8
468,33,,1.0,13.0,SHOEBILL_3.jpg,GILDED_FLICKER_5.jpg,2.0,,,,A2OT9ZJC4MQBS8
469,34,,1.0,14.0,FLAME_BOWERBIRD_3.jpg,INDIAN_BUSTARD_2.jpg,1.0,,,,A2OT9ZJC4MQBS8
470,35,,1.0,15.0,GRAY_KINGBIRD_5.jpg,AFRICAN_FIREFINCH_3.jpg,3.0,,,,A2OT9ZJC4MQBS8
471,36,,1.0,16.0,TASMANIAN_HEN_5.jpg,GREEN_BROADBILL_1.jpg,1.0,,,,A2OT9ZJC4MQBS8
472,37,,1.0,17.0,ARARIPE_MANAKIN_4.jpg,BLACK_VULTURE_1.jpg,2.0,,,,A2OT9ZJC4MQBS8
473,38,,1.0,18.0,OCELLATED_TURKEY_1.jpg,PURPLE_SWAMPHEN_4.jpg,3.0,,,,A2OT9ZJC4MQBS8
474,39,,1.0,19.0,BREWERS_BLACKBIRD_3.jpg,GUINEA_TURACO_3.jpg,1.0,,,,A2OT9ZJC4MQBS8
475,40,,1.0,20.0,INCA_TERN_4.jpg,ELLIOTS__PHEASANT_4.jpg,1.0,,,,A2OT9ZJC4MQBS8
476,41,,1.0,21.0,PINK_ROBIN_4.jpg,COMMON_IORA_4.jpg,3.0,,,,A2OT9ZJC4MQBS8
477,42,,1.0,22.0,MALACHITE_KINGFISHER_2.jpg,AMERICAN_FLAMINGO_1.jpg,1.0,,,,A2OT9ZJC4MQBS8
478,43,,1.0,23.0,IVORY_GULL_1.jpg,EASTERN_GOLDEN_WEAVER_5.jpg,2.0,,,,A2OT9ZJC4MQBS8
479,44,right,1.0,24.0,right.jpg,,,right,0.862,,A2OT9ZJC4MQBS8
480,45,,1.0,25.0,RUFOUS_KINGFISHER_1.jpg,MAGPIE_GOOSE_3.jpg,2.0,,,,A2OT9ZJC4MQBS8
481,46,,1.0,26.0,LESSER_ADJUTANT_5.jpg,GAMBELS_QUAIL_1.jpg,2.0,,,,A2OT9ZJC4MQBS8
482,47,,1.0,27.0,IVORY_GULL_3.jpg,SNOWY_EGRET_4.jpg,3.0,,,,A2OT9ZJC4MQBS8
483,48,,1.0,28.0,INDIGO_BUNTING_1.jpg,DARWINS_FLYCATCHER_2.jpg,3.0,,,,A2OT9ZJC4MQBS8
484,49,,1.0,29.0,EASTERN_TOWEE_2.jpg,NORTHERN_BEARDLESS_TYRANNULET_5.jpg,3.0,,,,A2OT9ZJC4MQBS8
485,50,,1.0,30.0,AMERICAN_PIPIT_5.jpg,EMU_2.jpg,1.0,,,,A2OT9ZJC4MQBS8
486,51,,1.0,31.0,VERMILION_FLYCATHER_3.jpg,RED_BEARDED_BEE_EATER_1.jpg,3.0,,,,A2OT9ZJC4MQBS8
487,52,right,1.0,32.0,right.jpg,,,right,1.2991,,A2OT9ZJC4MQBS8
488,53,,1.0,33.0,SPLENDID_WREN_1.jpg,POMARINE_JAEGER_5.jpg,1.0,,,,A2OT9ZJC4MQBS8
489,54,,1.0,34.0,LESSER_ADJUTANT_4.jpg,FAIRY_TERN_3.jpg,3.0,,,,A2OT9ZJC4MQBS8
490,55,,1.0,35.0,NORTHERN_JACANA_3.jpg,SCARLET_IBIS_4.jpg,3.0,,,,A2OT9ZJC4MQBS8
491,56,,1.0,36.0,ECUADORIAN_HILLSTAR_5.jpg,SCARLET_IBIS_2.jpg,1.0,,,,A2OT9ZJC4MQBS8
492,57,left,1.0,37.0,left.jpg,,,left,0.9065,,A2OT9ZJC4MQBS8
493,58,,1.0,38.0,BROWN_NOODY_3.jpg,GUINEA_TURACO_5.jpg,3.0,,,,A2OT9ZJC4MQBS8
494,59,,1.0,39.0,CRESTED_NUTHATCH_2.jpg,CANARY_1.jpg,3.0,,,,A2OT9ZJC4MQBS8
495,60,,1.0,40.0,ALPINE_CHOUGH_4.jpg,EUROPEAN_GOLDFINCH_3.jpg,2.0,,,,A2OT9ZJC4MQBS8
496,61,,1.0,41.0,BALI_STARLING_1.jpg,CAPE_LONGCLAW_5.jpg,1.0,,,,A2OT9ZJC4MQBS8
497,62,,1.0,42.0,RUBY_THROATED_HUMMINGBIRD_2.jpg,APAPANE_4.jpg,2.0,,,,A2OT9ZJC4MQBS8
498,63,,1.0,43.0,SCARLET_TANAGER_2.jpg,NORTHERN_GANNET_2.jpg,2.0,,,,A2OT9ZJC4MQBS8
499,64,,1.0,44.0,GOLDEN_CHLOROPHONIA_5.jpg,VERMILION_FLYCATHER_5.jpg,3.0,,,,A2OT9ZJC4MQBS8
500,65,,1.0,45.0,RUBY_THROATED_HUMMINGBIRD_1.jpg,BANANAQUIT_2.jpg,1.0,,,,A2OT9ZJC4MQBS8
501,66,,1.0,46.0,STRIPPED_SWALLOW_1.jpg,GO_AWAY_BIRD_5.jpg,3.0,,,,A2OT9ZJC4MQBS8
502,67,left,1.0,47.0,left.jpg,,,left,1.892,,A2OT9ZJC4MQBS8
503,68,,1.0,48.0,RUBY_THROATED_HUMMINGBIRD_3.jpg,MYNA_5.jpg,2.0,,,,A2OT9ZJC4MQBS8
504,69,,1.0,49.0,CRESTED_CARACARA_4.jpg,TOUCHAN_4.jpg,3.0,,,,A2OT9ZJC4MQBS8
505,70,,1.0,50.0,WHITE_CHEEKED_TURACO_5.jpg,NORTHERN_MOCKINGBIRD_4.jpg,1.0,,,,A2OT9ZJC4MQBS8
506,71,,1.0,51.0,DOUBLE_BRESTED_CORMARANT_5.jpg,CHINESE_POND_HERON_2.jpg,3.0,,,,A2OT9ZJC4MQBS8
507,72,,1.0,52.0,KAGU_5.jpg,ASHY_STORM_PETREL_1.jpg,2.0,,,,A2OT9ZJC4MQBS8
508,73,,1.0,53.0,RED_HEADED_WOODPECKER_5.jpg,CRIMSON_CHAT_3.jpg,2.0,,,,A2OT9ZJC4MQBS8
509,74,,1.0,54.0,GREY_PLOVER_1.jpg,HYACINTH_MACAW_3.jpg,1.0,,,,A2OT9ZJC4MQBS8
510,75,,1.0,55.0,CERULEAN_WARBLER_1.jpg,AMERICAN_FLAMINGO_2.jpg,1.0,,,,A2OT9ZJC4MQBS8
511,76,,1.0,56.0,LITTLE_AUK_5.jpg,SANDHILL_CRANE_3.jpg,1.0,,,,A2OT9ZJC4MQBS8
512,77,,1.0,57.0,LARK_BUNTING_2.jpg,CACTUS_WREN_3.jpg,3.0,,,,A2OT9ZJC4MQBS8
513,78,,1.0,58.0,OVENBIRD_5.jpg,FAIRY_PENGUIN_1.jpg,2.0,,,,A2OT9ZJC4MQBS8
514,79,,1.0,59.0,GYRFALCON_1.jpg,CINNAMON_ATTILA_2.jpg,2.0,,,,A2OT9ZJC4MQBS8
515,80,,1.0,60.0,PEACOCK_3.jpg,ANIANIAU_2.jpg,1.0,,,,A2OT9ZJC4MQBS8
516,81,,1.0,61.0,BROWN_THRASHER_3.jpg,OYSTER_CATCHER_4.jpg,2.0,,,,A2OT9ZJC4MQBS8
517,82,,1.0,62.0,PARUS_MAJOR_1.jpg,PINK_ROBIN_3.jpg,3.0,,,,A2OT9ZJC4MQBS8
518,83,,1.0,63.0,CASPIAN_TERN_1.jpg,EUROPEAN_GOLDFINCH_4.jpg,2.0,,,,A2OT9ZJC4MQBS8
519,84,,1.0,64.0,MAGPIE_GOOSE_5.jpg,HAMERKOP_1.jpg,2.0,,,,A2OT9ZJC4MQBS8
520,20,,1.0,0.0,ECUADORIAN_HILLSTAR_5.jpg,CRIMSON_SUNBIRD_5.jpg,3.0,,,,A2VY5GKTXHLC8Q
521,21,,1.0,1.0,ARARIPE_MANAKIN_4.jpg,KIWI_3.jpg,1.0,,,,A2VY5GKTXHLC8Q
522,22,,1.0,2.0,CRESTED_NUTHATCH_2.jpg,SCARLET_IBIS_3.jpg,1.0,,,,A2VY5GKTXHLC8Q
523,23,,1.0,3.0,OCELLATED_TURKEY_1.jpg,AMERICAN_PIPIT_1.jpg,2.0,,,,A2VY5GKTXHLC8Q
524,24,,1.0,4.0,GYRFALCON_1.jpg,FAIRY_TERN_1.jpg,3.0,,,,A2VY5GKTXHLC8Q
525,25,,1.0,5.0,CRESTED_CARACARA_4.jpg,TOUCHAN_4.jpg,3.0,,,,A2VY5GKTXHLC8Q
526,26,left,1.0,6.0,left.jpg,,,left,1.1204,,A2VY5GKTXHLC8Q
527,27,,1.0,7.0,INCA_TERN_4.jpg,SMITHS_LONGSPUR_5.jpg,2.0,,,,A2VY5GKTXHLC8Q
528,28,,1.0,8.0,BROWN_NOODY_3.jpg,GUINEA_TURACO_5.jpg,3.0,,,,A2VY5GKTXHLC8Q
529,29,,1.0,9.0,DOUBLE_BRESTED_CORMARANT_5.jpg,GILDED_FLICKER_2.jpg,1.0,,,,A2VY5GKTXHLC8Q
530,30,,1.0,10.0,PINK_ROBIN_4.jpg,ALBATROSS_4.jpg,2.0,,,,A2VY5GKTXHLC8Q
531,31,,1.0,11.0,RED_HEADED_WOODPECKER_5.jpg,COLLARED_ARACARI_1.jpg,3.0,,,,A2VY5GKTXHLC8Q
532,32,,1.0,12.0,OVENBIRD_5.jpg,SHORT_BILLED_DOWITCHER_5.jpg,3.0,,,,A2VY5GKTXHLC8Q
533,33,,1.0,13.0,AFRICAN_PIED_HORNBILL_5.jpg,KIWI_4.jpg,1.0,,,,A2VY5GKTXHLC8Q
534,34,,1.0,14.0,INDIGO_BUNTING_1.jpg,DARWINS_FLYCATCHER_2.jpg,3.0,,,,A2VY5GKTXHLC8Q
535,35,,1.0,15.0,KAGU_5.jpg,DEMOISELLE_CRANE_1.jpg,3.0,,,,A2VY5GKTXHLC8Q
536,36,,1.0,16.0,HAWAIIAN_GOOSE_4.jpg,CUBAN_TODY_3.jpg,1.0,,,,A2VY5GKTXHLC8Q
537,37,,1.0,17.0,AMERICAN_PIPIT_5.jpg,EMU_2.jpg,1.0,,,,A2VY5GKTXHLC8Q
538,38,,1.0,18.0,SHOEBILL_3.jpg,BALD_EAGLE_5.jpg,3.0,,,,A2VY5GKTXHLC8Q
539,39,,1.0,19.0,LESSER_ADJUTANT_4.jpg,ALTAMIRA_YELLOWTHROAT_5.jpg,1.0,,,,A2VY5GKTXHLC8Q
540,40,left,1.0,20.0,left.jpg,,,left,1.1114,,A2VY5GKTXHLC8Q
541,41,,1.0,21.0,GOLDEN_CHEEKED_WARBLER_2.jpg,WHITE_THROATED_BEE_EATER_1.jpg,3.0,,,,A2VY5GKTXHLC8Q
542,42,,1.0,22.0,LARK_BUNTING_2.jpg,KING_VULTURE_3.jpg,2.0,,,,A2VY5GKTXHLC8Q
543,43,,1.0,23.0,CHUKAR_PARTRIDGE_5.jpg,RAZORBILL_1.jpg,2.0,,,,A2VY5GKTXHLC8Q
544,44,,1.0,24.0,LESSER_ADJUTANT_5.jpg,RED_HEADED_WOODPECKER_1.jpg,3.0,,,,A2VY5GKTXHLC8Q
545,45,,1.0,25.0,LITTLE_AUK_5.jpg,BEARDED_BELLBIRD_1.jpg,3.0,,,,A2VY5GKTXHLC8Q
546,46,,1.0,26.0,BREWERS_BLACKBIRD_3.jpg,CAPE_LONGCLAW_2.jpg,3.0,,,,A2VY5GKTXHLC8Q
547,47,right,1.0,27.0,right.jpg,,,right,0.964,,A2VY5GKTXHLC8Q
548,48,,1.0,28.0,RUFOUS_KINGFISHER_1.jpg,SNOWY_OWL_5.jpg,1.0,,,,A2VY5GKTXHLC8Q
549,49,,1.0,29.0,RUBY_THROATED_HUMMINGBIRD_1.jpg,BANANAQUIT_2.jpg,1.0,,,,A2VY5GKTXHLC8Q
550,50,,1.0,30.0,STRIPPED_SWALLOW_1.jpg,MAGPIE_GOOSE_4.jpg,2.0,,,,A2VY5GKTXHLC8Q
551,51,,1.0,31.0,ASIAN_DOLLARD_BIRD_2.jpg,VIOLET_GREEN_SWALLOW_4.jpg,3.0,,,,A2VY5GKTXHLC8Q
552,52,,1.0,32.0,FLAME_BOWERBIRD_3.jpg,INDIAN_BUSTARD_2.jpg,1.0,,,,A2VY5GKTXHLC8Q
553,53,,1.0,33.0,SPLENDID_WREN_1.jpg,POMARINE_JAEGER_5.jpg,1.0,,,,A2VY5GKTXHLC8Q
554,54,,1.0,34.0,RUBY_THROATED_HUMMINGBIRD_2.jpg,GOLDEN_CHLOROPHONIA_2.jpg,1.0,,,,A2VY5GKTXHLC8Q
555,55,,1.0,35.0,CASPIAN_TERN_1.jpg,GREAT_GRAY_OWL_4.jpg,1.0,,,,A2VY5GKTXHLC8Q
556,56,,1.0,36.0,GREY_PLOVER_1.jpg,ECUADORIAN_HILLSTAR_3.jpg,3.0,,,,A2VY5GKTXHLC8Q
557,57,,1.0,37.0,BALI_STARLING_1.jpg,PURPLE_FINCH_2.jpg,2.0,,,,A2VY5GKTXHLC8Q
558,58,,1.0,38.0,WHITE_CHEEKED_TURACO_5.jpg,GREAT_POTOO_3.jpg,2.0,,,,A2VY5GKTXHLC8Q
559,59,left,1.0,39.0,left.jpg,,,left,1.0216,,A2VY5GKTXHLC8Q
560,60,,1.0,40.0,INLAND_DOTTEREL_4.jpg,NICOBAR_PIGEON_4.jpg,2.0,,,,A2VY5GKTXHLC8Q
561,61,,1.0,41.0,ALPINE_CHOUGH_4.jpg,EUROPEAN_GOLDFINCH_3.jpg,2.0,,,,A2VY5GKTXHLC8Q
562,62,,1.0,42.0,EUROPEAN_TURTLE_DOVE_3.jpg,PAINTED_BUNTING_3.jpg,2.0,,,,A2VY5GKTXHLC8Q
563,63,,1.0,43.0,PARUS_MAJOR_1.jpg,CALIFORNIA_GULL_2.jpg,2.0,,,,A2VY5GKTXHLC8Q
564,64,,1.0,44.0,IVORY_GULL_3.jpg,INDIGO_FLYCATCHER_2.jpg,1.0,,,,A2VY5GKTXHLC8Q
565,65,,1.0,45.0,ASIAN_CRESTED_IBIS_4.jpg,IVORY_GULL_2.jpg,3.0,,,,A2VY5GKTXHLC8Q
566,66,,1.0,46.0,CERULEAN_WARBLER_1.jpg,AMERICAN_FLAMINGO_5.jpg,2.0,,,,A2VY5GKTXHLC8Q
567,67,,1.0,47.0,NORTHERN_JACANA_3.jpg,SCARLET_IBIS_4.jpg,3.0,,,,A2VY5GKTXHLC8Q
568,68,,1.0,48.0,VERMILION_FLYCATHER_3.jpg,CALIFORNIA_GULL_1.jpg,2.0,,,,A2VY5GKTXHLC8Q
569,69,,1.0,49.0,CASSOWARY_1.jpg,SCARLET_MACAW_1.jpg,2.0,,,,A2VY5GKTXHLC8Q
570,70,,1.0,50.0,MALACHITE_KINGFISHER_2.jpg,INCA_TERN_2.jpg,2.0,,,,A2VY5GKTXHLC8Q
571,71,,1.0,51.0,RUBY_THROATED_HUMMINGBIRD_3.jpg,MALAGASY_WHITE_EYE_2.jpg,1.0,,,,A2VY5GKTXHLC8Q
572,72,right,1.0,52.0,right.jpg,,,right,0.9767,,A2VY5GKTXHLC8Q
573,73,,1.0,53.0,TASMANIAN_HEN_5.jpg,GREEN_BROADBILL_1.jpg,1.0,,,,A2VY5GKTXHLC8Q
574,74,,1.0,54.0,GRAY_KINGBIRD_5.jpg,BALD_EAGLE_2.jpg,1.0,,,,A2VY5GKTXHLC8Q
575,75,,1.0,55.0,MYNA_1.jpg,GREY_PLOVER_4.jpg,2.0,,,,A2VY5GKTXHLC8Q
576,76,,1.0,56.0,PEACOCK_3.jpg,ANIANIAU_2.jpg,1.0,,,,A2VY5GKTXHLC8Q
577,77,,1.0,57.0,KILLDEAR_2.jpg,PEACOCK_5.jpg,1.0,,,,A2VY5GKTXHLC8Q
578,78,,1.0,58.0,BROWN_THRASHER_3.jpg,BLACK_BAZA_4.jpg,3.0,,,,A2VY5GKTXHLC8Q
579,79,,1.0,59.0,EASTERN_TOWEE_2.jpg,GOLDEN_CHLOROPHONIA_1.jpg,2.0,,,,A2VY5GKTXHLC8Q
580,80,,1.0,60.0,IVORY_GULL_1.jpg,EASTERN_GOLDEN_WEAVER_5.jpg,2.0,,,,A2VY5GKTXHLC8Q
581,81,,1.0,61.0,GOLDEN_CHLOROPHONIA_5.jpg,ROADRUNNER_2.jpg,1.0,,,,A2VY5GKTXHLC8Q
582,82,,1.0,62.0,PYGMY_KINGFISHER_5.jpg,DOUBLE_EYED_FIG_PARROT_4.jpg,3.0,,,,A2VY5GKTXHLC8Q
583,83,,1.0,63.0,MAGPIE_GOOSE_5.jpg,OYSTER_CATCHER_3.jpg,3.0,,,,A2VY5GKTXHLC8Q
584,84,,1.0,64.0,SCARLET_TANAGER_2.jpg,NORTHERN_GANNET_2.jpg,2.0,,,,A2VY5GKTXHLC8Q
585,20,,1.0,0.0,RED_HEADED_WOODPECKER_5.jpg,CRIMSON_CHAT_3.jpg,2.0,,,,A3OUAR84WQO03Y
586,21,,1.0,1.0,SCARLET_TANAGER_2.jpg,BORNEAN_LEAFBIRD_1.jpg,3.0,,,,A3OUAR84WQO03Y
587,22,,1.0,2.0,KAGU_5.jpg,RED_BEARDED_BEE_EATER_3.jpg,1.0,,,,A3OUAR84WQO03Y
588,23,,1.0,3.0,CHUKAR_PARTRIDGE_5.jpg,OSTRICH_5.jpg,1.0,,,,A3OUAR84WQO03Y
589,24,,1.0,4.0,ECUADORIAN_HILLSTAR_5.jpg,SCARLET_IBIS_2.jpg,1.0,,,,A3OUAR84WQO03Y
590,25,,1.0,5.0,RUFOUS_KINGFISHER_1.jpg,MAGPIE_GOOSE_3.jpg,2.0,,,,A3OUAR84WQO03Y
591,26,,1.0,6.0,INDIGO_BUNTING_1.jpg,FRIGATE_4.jpg,1.0,,,,A3OUAR84WQO03Y
592,27,,1.0,7.0,GOLDEN_CHEEKED_WARBLER_2.jpg,WHITE_THROATED_BEE_EATER_1.jpg,3.0,,,,A3OUAR84WQO03Y
593,28,,1.0,8.0,LARK_BUNTING_2.jpg,KING_VULTURE_3.jpg,2.0,,,,A3OUAR84WQO03Y
594,29,,1.0,9.0,PARUS_MAJOR_1.jpg,PINK_ROBIN_3.jpg,3.0,,,,A3OUAR84WQO03Y
595,30,,1.0,10.0,GOLDEN_CHLOROPHONIA_5.jpg,VERMILION_FLYCATHER_5.jpg,3.0,,,,A3OUAR84WQO03Y
596,31,,1.0,11.0,EASTERN_TOWEE_2.jpg,NORTHERN_BEARDLESS_TYRANNULET_5.jpg,3.0,,,,A3OUAR84WQO03Y
597,32,,1.0,12.0,NORTHERN_JACANA_3.jpg,AMERICAN_GOLDFINCH_4.jpg,1.0,,,,A3OUAR84WQO03Y
598,33,,1.0,13.0,MAGPIE_GOOSE_5.jpg,HAMERKOP_1.jpg,2.0,,,,A3OUAR84WQO03Y
599,34,left,1.0,14.0,left.jpg,,,left,1.1689,,A3OUAR84WQO03Y
600,35,,1.0,15.0,WHITE_CHEEKED_TURACO_5.jpg,NORTHERN_MOCKINGBIRD_4.jpg,1.0,,,,A3OUAR84WQO03Y
601,36,left,1.0,16.0,left.jpg,,,left,1.0568,,A3OUAR84WQO03Y
602,37,,1.0,17.0,MALACHITE_KINGFISHER_2.jpg,AMERICAN_FLAMINGO_1.jpg,1.0,,,,A3OUAR84WQO03Y
603,38,,1.0,18.0,VERMILION_FLYCATHER_3.jpg,CALIFORNIA_GULL_1.jpg,2.0,,,,A3OUAR84WQO03Y
604,39,,1.0,19.0,OCELLATED_TURKEY_1.jpg,CHIPPING_SPARROW_1.jpg,1.0,,,,A3OUAR84WQO03Y
605,40,,1.0,20.0,CERULEAN_WARBLER_1.jpg,BANANAQUIT_1.jpg,3.0,,,,A3OUAR84WQO03Y
606,41,,1.0,21.0,KILLDEAR_2.jpg,CAATINGA_CACHOLOTE_4.jpg,2.0,,,,A3OUAR84WQO03Y
607,42,,1.0,22.0,LESSER_ADJUTANT_5.jpg,GAMBELS_QUAIL_1.jpg,2.0,,,,A3OUAR84WQO03Y
608,43,,1.0,23.0,IVORY_GULL_3.jpg,SNOWY_EGRET_4.jpg,3.0,,,,A3OUAR84WQO03Y
609,44,,1.0,24.0,DOUBLE_BRESTED_CORMARANT_5.jpg,CHINESE_POND_HERON_2.jpg,3.0,,,,A3OUAR84WQO03Y
610,45,,1.0,25.0,BALI_STARLING_1.jpg,CAPE_LONGCLAW_5.jpg,1.0,,,,A3OUAR84WQO03Y
611,46,,1.0,26.0,LESSER_ADJUTANT_4.jpg,RAINBOW_LORIKEET_5.jpg,2.0,,,,A3OUAR84WQO03Y
612,47,,1.0,27.0,CASPIAN_TERN_1.jpg,EUROPEAN_GOLDFINCH_4.jpg,2.0,,,,A3OUAR84WQO03Y
613,48,,1.0,28.0,ASIAN_DOLLARD_BIRD_2.jpg,LOGGERHEAD_SHRIKE_4.jpg,2.0,,,,A3OUAR84WQO03Y
614,49,,1.0,29.0,CRESTED_NUTHATCH_2.jpg,CANARY_1.jpg,3.0,,,,A3OUAR84WQO03Y
615,50,,1.0,30.0,AFRICAN_PIED_HORNBILL_5.jpg,CAPUCHINBIRD_2.jpg,3.0,,,,A3OUAR84WQO03Y
616,51,,1.0,31.0,SPLENDID_WREN_1.jpg,POMARINE_JAEGER_5.jpg,1.0,,,,A3OUAR84WQO03Y
617,52,left,1.0,32.0,left.jpg,,,left,0.9507,,A3OUAR84WQO03Y
618,53,,1.0,33.0,RUBY_THROATED_HUMMINGBIRD_3.jpg,MYNA_5.jpg,2.0,,,,A3OUAR84WQO03Y
619,54,,1.0,34.0,INLAND_DOTTEREL_4.jpg,CRESTED_KINGFISHER_1.jpg,3.0,,,,A3OUAR84WQO03Y
620,55,,1.0,35.0,ALPINE_CHOUGH_4.jpg,BOBOLINK_3.jpg,3.0,,,,A3OUAR84WQO03Y
621,56,,1.0,36.0,BROWN_NOODY_3.jpg,PEACOCK_2.jpg,1.0,,,,A3OUAR84WQO03Y
622,57,,1.0,37.0,MYNA_1.jpg,PARADISE_TANAGER_3.jpg,3.0,,,,A3OUAR84WQO03Y
623,58,,1.0,38.0,GYRFALCON_1.jpg,FAIRY_TERN_1.jpg,3.0,,,,A3OUAR84WQO03Y
624,59,right,1.0,39.0,right.jpg,,,right,0.9789,,A3OUAR84WQO03Y
625,60,,1.0,40.0,STRIPPED_SWALLOW_1.jpg,MAGPIE_GOOSE_4.jpg,2.0,,,,A3OUAR84WQO03Y
626,61,,1.0,41.0,HAWAIIAN_GOOSE_4.jpg,CUBAN_TODY_3.jpg,1.0,,,,A3OUAR84WQO03Y
627,62,,1.0,42.0,ASIAN_CRESTED_IBIS_4.jpg,OYSTER_CATCHER_2.jpg,2.0,,,,A3OUAR84WQO03Y
628,63,,1.0,43.0,GRAY_KINGBIRD_5.jpg,AFRICAN_FIREFINCH_3.jpg,3.0,,,,A3OUAR84WQO03Y
629,64,,1.0,44.0,PYGMY_KINGFISHER_5.jpg,DOUBLE_EYED_FIG_PARROT_4.jpg,3.0,,,,A3OUAR84WQO03Y
630,65,,1.0,45.0,BREWERS_BLACKBIRD_3.jpg,GUINEA_TURACO_3.jpg,1.0,,,,A3OUAR84WQO03Y
631,66,,1.0,46.0,EUROPEAN_TURTLE_DOVE_3.jpg,PAINTED_BUNTING_3.jpg,2.0,,,,A3OUAR84WQO03Y
632,67,,1.0,47.0,LITTLE_AUK_5.jpg,ORANGE_BRESTED_BUNTING_3.jpg,2.0,,,,A3OUAR84WQO03Y
633,68,,1.0,48.0,BROWN_THRASHER_3.jpg,DOUBLE_EYED_FIG_PARROT_3.jpg,1.0,,,,A3OUAR84WQO03Y
634,69,,1.0,49.0,GREY_PLOVER_1.jpg,GOULDIAN_FINCH_4.jpg,2.0,,,,A3OUAR84WQO03Y
635,70,,1.0,50.0,IVORY_GULL_1.jpg,FAIRY_TERN_4.jpg,3.0,,,,A3OUAR84WQO03Y
636,71,left,1.0,51.0,left.jpg,,,left,1.012,,A3OUAR84WQO03Y
637,72,,1.0,52.0,FLAME_BOWERBIRD_3.jpg,INDIAN_BUSTARD_2.jpg,1.0,,,,A3OUAR84WQO03Y
638,73,,1.0,53.0,CASSOWARY_1.jpg,SCARLET_MACAW_1.jpg,2.0,,,,A3OUAR84WQO03Y
639,74,,1.0,54.0,RUBY_THROATED_HUMMINGBIRD_2.jpg,DUSKY_ROBIN_5.jpg,3.0,,,,A3OUAR84WQO03Y
640,75,,1.0,55.0,RUBY_THROATED_HUMMINGBIRD_1.jpg,BANANAQUIT_2.jpg,1.0,,,,A3OUAR84WQO03Y
641,76,,1.0,56.0,CRESTED_CARACARA_4.jpg,FAIRY_PENGUIN_5.jpg,1.0,,,,A3OUAR84WQO03Y
642,77,,1.0,57.0,OVENBIRD_5.jpg,FAIRY_PENGUIN_1.jpg,2.0,,,,A3OUAR84WQO03Y
643,78,,1.0,58.0,PINK_ROBIN_4.jpg,ALBATROSS_4.jpg,2.0,,,,A3OUAR84WQO03Y
644,79,,1.0,59.0,ARARIPE_MANAKIN_4.jpg,BORNEAN_LEAFBIRD_3.jpg,3.0,,,,A3OUAR84WQO03Y
645,80,,1.0,60.0,PEACOCK_3.jpg,ANIANIAU_2.jpg,1.0,,,,A3OUAR84WQO03Y
646,81,,1.0,61.0,TASMANIAN_HEN_5.jpg,GREEN_BROADBILL_1.jpg,1.0,,,,A3OUAR84WQO03Y
647,82,,1.0,62.0,SHOEBILL_3.jpg,BALD_EAGLE_5.jpg,3.0,,,,A3OUAR84WQO03Y
648,83,,1.0,63.0,AMERICAN_PIPIT_5.jpg,EMU_2.jpg,1.0,,,,A3OUAR84WQO03Y
649,84,,1.0,64.0,INCA_TERN_4.jpg,SMITHS_LONGSPUR_5.jpg,2.0,,,,A3OUAR84WQO03Y
650,20,,1.0,0.0,PINK_ROBIN_4.jpg,SPOONBILL_3.jpg,1.0,,,,A3QHZCELFJ3BSN
651,21,,1.0,1.0,LITTLE_AUK_5.jpg,BEARDED_BELLBIRD_1.jpg,3.0,,,,A3QHZCELFJ3BSN
652,22,,1.0,2.0,CRESTED_NUTHATCH_2.jpg,CANARY_1.jpg,3.0,,,,A3QHZCELFJ3BSN
653,23,,1.0,3.0,PARUS_MAJOR_1.jpg,CALIFORNIA_GULL_2.jpg,2.0,,,,A3QHZCELFJ3BSN
654,24,,1.0,4.0,IVORY_GULL_1.jpg,FAIRY_TERN_4.jpg,3.0,,,,A3QHZCELFJ3BSN
655,25,,1.0,5.0,WHITE_CHEEKED_TURACO_5.jpg,GREAT_POTOO_3.jpg,2.0,,,,A3QHZCELFJ3BSN
656,26,,1.0,6.0,SPLENDID_WREN_1.jpg,DOUBLE_BRESTED_CORMARANT_1.jpg,2.0,,,,A3QHZCELFJ3BSN
657,27,,1.0,7.0,IVORY_GULL_3.jpg,SNOWY_EGRET_4.jpg,3.0,,,,A3QHZCELFJ3BSN
658,28,right,1.0,8.0,right.jpg,,,right,2.0861,,A3QHZCELFJ3BSN
659,29,,1.0,9.0,ECUADORIAN_HILLSTAR_5.jpg,CRIMSON_SUNBIRD_5.jpg,3.0,,,,A3QHZCELFJ3BSN
660,30,,1.0,10.0,CERULEAN_WARBLER_1.jpg,AMERICAN_FLAMINGO_2.jpg,1.0,,,,A3QHZCELFJ3BSN
661,31,,1.0,11.0,OVENBIRD_5.jpg,MYNA_4.jpg,1.0,,,,A3QHZCELFJ3BSN
662,32,,1.0,12.0,CHUKAR_PARTRIDGE_5.jpg,OSTRICH_5.jpg,1.0,,,,A3QHZCELFJ3BSN
663,33,,1.0,13.0,CASSOWARY_1.jpg,SCARLET_MACAW_1.jpg,2.0,,,,A3QHZCELFJ3BSN
664,34,,1.0,14.0,AMERICAN_PIPIT_5.jpg,GREEN_MAGPIE_1.jpg,2.0,,,,A3QHZCELFJ3BSN
665,35,,1.0,15.0,OCELLATED_TURKEY_1.jpg,AMERICAN_PIPIT_1.jpg,2.0,,,,A3QHZCELFJ3BSN
666,36,,1.0,16.0,EUROPEAN_TURTLE_DOVE_3.jpg,TEAL_DUCK_2.jpg,1.0,,,,A3QHZCELFJ3BSN
667,37,,1.0,17.0,BROWN_NOODY_3.jpg,SPANGLED_COTINGA_4.jpg,2.0,,,,A3QHZCELFJ3BSN
668,38,,1.0,18.0,BREWERS_BLACKBIRD_3.jpg,CAPE_LONGCLAW_2.jpg,3.0,,,,A3QHZCELFJ3BSN
669,39,,1.0,19.0,GRAY_KINGBIRD_5.jpg,AFRICAN_FIREFINCH_3.jpg,3.0,,,,A3QHZCELFJ3BSN
670,40,,1.0,20.0,GREY_PLOVER_1.jpg,HYACINTH_MACAW_3.jpg,1.0,,,,A3QHZCELFJ3BSN
671,41,,1.0,21.0,LARK_BUNTING_2.jpg,PEACOCK_1.jpg,1.0,,,,A3QHZCELFJ3BSN
672,42,right,1.0,22.0,right.jpg,,,right,1.3033,,A3QHZCELFJ3BSN
673,43,,1.0,23.0,RUBY_THROATED_HUMMINGBIRD_2.jpg,APAPANE_4.jpg,2.0,,,,A3QHZCELFJ3BSN
674,44,,1.0,24.0,NORTHERN_JACANA_3.jpg,CRAB_PLOVER_3.jpg,2.0,,,,A3QHZCELFJ3BSN
675,45,,1.0,25.0,RUBY_THROATED_HUMMINGBIRD_1.jpg,BANANAQUIT_2.jpg,1.0,,,,A3QHZCELFJ3BSN
676,46,left,1.0,26.0,left.jpg,,,left,1.9244,,A3QHZCELFJ3BSN
677,47,,1.0,27.0,AFRICAN_PIED_HORNBILL_5.jpg,KIWI_4.jpg,1.0,,,,A3QHZCELFJ3BSN
678,48,,1.0,28.0,GOLDEN_CHLOROPHONIA_5.jpg,COMMON_HOUSE_MARTIN_4.jpg,2.0,,,,A3QHZCELFJ3BSN
679,49,,1.0,29.0,RUFOUS_KINGFISHER_1.jpg,MAGPIE_GOOSE_3.jpg,2.0,,,,A3QHZCELFJ3BSN
680,50,,1.0,30.0,CRESTED_CARACARA_4.jpg,TOUCHAN_4.jpg,3.0,,,,A3QHZCELFJ3BSN
681,51,,1.0,31.0,INCA_TERN_4.jpg,SMITHS_LONGSPUR_5.jpg,2.0,,,,A3QHZCELFJ3BSN
682,52,,1.0,32.0,KAGU_5.jpg,ASHY_STORM_PETREL_1.jpg,2.0,,,,A3QHZCELFJ3BSN
683,53,,1.0,33.0,DOUBLE_BRESTED_CORMARANT_5.jpg,CHINESE_POND_HERON_2.jpg,3.0,,,,A3QHZCELFJ3BSN
684,54,,1.0,34.0,LESSER_ADJUTANT_5.jpg,RED_HEADED_WOODPECKER_1.jpg,3.0,,,,A3QHZCELFJ3BSN
685,55,,1.0,35.0,INLAND_DOTTEREL_4.jpg,CRESTED_KINGFISHER_1.jpg,3.0,,,,A3QHZCELFJ3BSN
686,56,,1.0,36.0,ARARIPE_MANAKIN_4.jpg,BLACK_VULTURE_1.jpg,2.0,,,,A3QHZCELFJ3BSN
687,57,,1.0,37.0,VERMILION_FLYCATHER_3.jpg,INDIAN_BUSTARD_1.jpg,1.0,,,,A3QHZCELFJ3BSN
688,58,,1.0,38.0,GYRFALCON_1.jpg,FAIRY_TERN_1.jpg,3.0,,,,A3QHZCELFJ3BSN
689,59,,1.0,39.0,ALPINE_CHOUGH_4.jpg,BOBOLINK_3.jpg,3.0,,,,A3QHZCELFJ3BSN
690,60,right,1.0,40.0,right.jpg,,,right,1.5437,,A3QHZCELFJ3BSN
691,61,,1.0,41.0,SCARLET_TANAGER_2.jpg,BORNEAN_LEAFBIRD_1.jpg,3.0,,,,A3QHZCELFJ3BSN
692,62,,1.0,42.0,MYNA_1.jpg,GREY_PLOVER_4.jpg,2.0,,,,A3QHZCELFJ3BSN
693,63,,1.0,43.0,MAGPIE_GOOSE_5.jpg,DOUBLE_EYED_FIG_PARROT_5.jpg,1.0,,,,A3QHZCELFJ3BSN
694,64,,1.0,44.0,LESSER_ADJUTANT_4.jpg,RAINBOW_LORIKEET_5.jpg,2.0,,,,A3QHZCELFJ3BSN
695,65,,1.0,45.0,RED_HEADED_WOODPECKER_5.jpg,ASHY_STORM_PETREL_2.jpg,1.0,,,,A3QHZCELFJ3BSN
696,66,,1.0,46.0,KILLDEAR_2.jpg,PEACOCK_5.jpg,1.0,,,,A3QHZCELFJ3BSN
697,67,,1.0,47.0,INDIGO_BUNTING_1.jpg,NORTHERN_GANNET_1.jpg,2.0,,,,A3QHZCELFJ3BSN
698,68,,1.0,48.0,BALI_STARLING_1.jpg,IBERIAN_MAGPIE_1.jpg,3.0,,,,A3QHZCELFJ3BSN
699,69,,1.0,49.0,GOLDEN_CHEEKED_WARBLER_2.jpg,SPOONBILL_1.jpg,1.0,,,,A3QHZCELFJ3BSN
700,70,,1.0,50.0,SHOEBILL_3.jpg,BALD_EAGLE_5.jpg,3.0,,,,A3QHZCELFJ3BSN
701,71,left,1.0,51.0,left.jpg,,,left,2.7044,,A3QHZCELFJ3BSN
702,72,,1.0,52.0,CASPIAN_TERN_1.jpg,COMMON_LOON_2.jpg,3.0,,,,A3QHZCELFJ3BSN
703,73,,1.0,53.0,STRIPPED_SWALLOW_1.jpg,GO_AWAY_BIRD_5.jpg,3.0,,,,A3QHZCELFJ3BSN
704,74,,1.0,54.0,EASTERN_TOWEE_2.jpg,GOLDEN_CHLOROPHONIA_1.jpg,2.0,,,,A3QHZCELFJ3BSN
705,75,,1.0,55.0,TASMANIAN_HEN_5.jpg,AFRICAN_EMERALD_CUCKOO_5.jpg,2.0,,,,A3QHZCELFJ3BSN
706,76,,1.0,56.0,HAWAIIAN_GOOSE_4.jpg,CUBAN_TODY_3.jpg,1.0,,,,A3QHZCELFJ3BSN
707,77,,1.0,57.0,PYGMY_KINGFISHER_5.jpg,GRANDALA_2.jpg,1.0,,,,A3QHZCELFJ3BSN
708,78,,1.0,58.0,BROWN_THRASHER_3.jpg,OYSTER_CATCHER_4.jpg,2.0,,,,A3QHZCELFJ3BSN
709,79,,1.0,59.0,FLAME_BOWERBIRD_3.jpg,INDIAN_BUSTARD_2.jpg,1.0,,,,A3QHZCELFJ3BSN
710,80,,1.0,60.0,RUBY_THROATED_HUMMINGBIRD_3.jpg,NORTHERN_SHOVELER_1.jpg,3.0,,,,A3QHZCELFJ3BSN
711,81,,1.0,61.0,MALACHITE_KINGFISHER_2.jpg,AMERICAN_FLAMINGO_1.jpg,1.0,,,,A3QHZCELFJ3BSN
712,82,,1.0,62.0,ASIAN_DOLLARD_BIRD_2.jpg,VIOLET_GREEN_SWALLOW_4.jpg,3.0,,,,A3QHZCELFJ3BSN
713,83,,1.0,63.0,PEACOCK_3.jpg,ANIANIAU_2.jpg,1.0,,,,A3QHZCELFJ3BSN
714,84,,1.0,64.0,ASIAN_CRESTED_IBIS_4.jpg,CANARY_2.jpg,1.0,,,,A3QHZCELFJ3BSN
715,20,,1.0,0.0,KAGU_5.jpg,RED_BEARDED_BEE_EATER_3.jpg,1.0,,,,A9LSEP71DNP4O
716,21,,1.0,1.0,FLAME_BOWERBIRD_3.jpg,QUETZAL_3.jpg,3.0,,,,A9LSEP71DNP4O
717,22,,1.0,2.0,AMERICAN_PIPIT_5.jpg,HEPATIC_TANAGER_5.jpg,3.0,,,,A9LSEP71DNP4O
718,23,,1.0,3.0,OVENBIRD_5.jpg,FAIRY_PENGUIN_1.jpg,2.0,,,,A9LSEP71DNP4O
719,24,,1.0,4.0,RUFOUS_KINGFISHER_1.jpg,HORNED_SUNGEM_4.jpg,3.0,,,,A9LSEP71DNP4O
720,25,,1.0,5.0,NORTHERN_JACANA_3.jpg,AMERICAN_GOLDFINCH_4.jpg,1.0,,,,A9LSEP71DNP4O
721,26,,1.0,6.0,ASIAN_DOLLARD_BIRD_2.jpg,VIOLET_GREEN_SWALLOW_4.jpg,3.0,,,,A9LSEP71DNP4O
722,27,,1.0,7.0,KILLDEAR_2.jpg,AZURE_TIT_5.jpg,3.0,,,,A9LSEP71DNP4O
723,28,,1.0,8.0,PARUS_MAJOR_1.jpg,SANDHILL_CRANE_4.jpg,1.0,,,,A9LSEP71DNP4O
724,29,right,1.0,9.0,right.jpg,,,right,0.5331,,A9LSEP71DNP4O
725,30,,1.0,10.0,IVORY_GULL_1.jpg,WILSONS_BIRD_OF_PARADISE_4.jpg,1.0,,,,A9LSEP71DNP4O
726,31,,1.0,11.0,STRIPPED_SWALLOW_1.jpg,GO_AWAY_BIRD_5.jpg,3.0,,,,A9LSEP71DNP4O
727,32,,1.0,12.0,GRAY_KINGBIRD_5.jpg,COCK_OF_THE__ROCK_4.jpg,2.0,,,,A9LSEP71DNP4O
728,33,,1.0,13.0,INLAND_DOTTEREL_4.jpg,CASSOWARY_2.jpg,1.0,,,,A9LSEP71DNP4O
729,34,,1.0,14.0,MAGPIE_GOOSE_5.jpg,HAMERKOP_1.jpg,2.0,,,,A9LSEP71DNP4O
730,35,,1.0,15.0,INDIGO_BUNTING_1.jpg,NORTHERN_GANNET_1.jpg,2.0,,,,A9LSEP71DNP4O
731,36,,1.0,16.0,LESSER_ADJUTANT_5.jpg,RED_HEADED_WOODPECKER_1.jpg,3.0,,,,A9LSEP71DNP4O
732,37,,1.0,17.0,ECUADORIAN_HILLSTAR_5.jpg,BOBOLINK_5.jpg,2.0,,,,A9LSEP71DNP4O
733,38,left,1.0,18.0,left.jpg,,,left,0.5255,,A9LSEP71DNP4O
734,39,,1.0,19.0,ARARIPE_MANAKIN_4.jpg,KIWI_3.jpg,1.0,,,,A9LSEP71DNP4O
735,40,,1.0,20.0,WHITE_CHEEKED_TURACO_5.jpg,GREAT_POTOO_3.jpg,2.0,,,,A9LSEP71DNP4O
736,41,,1.0,21.0,SCARLET_TANAGER_2.jpg,NORTHERN_GANNET_2.jpg,2.0,,,,A9LSEP71DNP4O
737,42,,1.0,22.0,RUBY_THROATED_HUMMINGBIRD_1.jpg,BANANAQUIT_2.jpg,1.0,,,,A9LSEP71DNP4O
738,43,,1.0,23.0,MYNA_1.jpg,GREY_PLOVER_4.jpg,2.0,,,,A9LSEP71DNP4O
739,44,,1.0,24.0,GYRFALCON_1.jpg,OSTRICH_1.jpg,1.0,,,,A9LSEP71DNP4O
740,45,,1.0,25.0,PINK_ROBIN_4.jpg,COMMON_IORA_4.jpg,3.0,,,,A9LSEP71DNP4O
741,46,,1.0,26.0,GREY_PLOVER_1.jpg,HYACINTH_MACAW_3.jpg,1.0,,,,A9LSEP71DNP4O
742,47,right,1.0,27.0,right.jpg,,,right,0.5759,,A9LSEP71DNP4O
743,48,,1.0,28.0,GOLDEN_CHLOROPHONIA_5.jpg,VERMILION_FLYCATHER_5.jpg,3.0,,,,A9LSEP71DNP4O
744,49,,1.0,29.0,SPLENDID_WREN_1.jpg,CUBAN_TODY_4.jpg,3.0,,,,A9LSEP71DNP4O
745,50,,1.0,30.0,EUROPEAN_TURTLE_DOVE_3.jpg,TEAL_DUCK_2.jpg,1.0,,,,A9LSEP71DNP4O
746,51,,1.0,31.0,PEACOCK_3.jpg,STRAWBERRY_FINCH_4.jpg,2.0,,,,A9LSEP71DNP4O
747,52,,1.0,32.0,CERULEAN_WARBLER_1.jpg,BANANAQUIT_1.jpg,3.0,,,,A9LSEP71DNP4O
748,53,,1.0,33.0,BREWERS_BLACKBIRD_3.jpg,CAPE_LONGCLAW_2.jpg,3.0,,,,A9LSEP71DNP4O
749,54,,1.0,34.0,LITTLE_AUK_5.jpg,BEARDED_BELLBIRD_1.jpg,3.0,,,,A9LSEP71DNP4O
750,55,,1.0,35.0,GOLDEN_CHEEKED_WARBLER_2.jpg,HOUSE_FINCH_2.jpg,2.0,,,,A9LSEP71DNP4O
751,56,right,1.0,36.0,right.jpg,,,right,0.5251,,A9LSEP71DNP4O
752,57,,1.0,37.0,CRESTED_CARACARA_4.jpg,FAIRY_PENGUIN_5.jpg,1.0,,,,A9LSEP71DNP4O
753,58,,1.0,38.0,CASPIAN_TERN_1.jpg,EUROPEAN_GOLDFINCH_4.jpg,2.0,,,,A9LSEP71DNP4O
754,59,,1.0,39.0,PYGMY_KINGFISHER_5.jpg,DOUBLE_EYED_FIG_PARROT_4.jpg,3.0,,,,A9LSEP71DNP4O
755,60,,1.0,40.0,LARK_BUNTING_2.jpg,CACTUS_WREN_3.jpg,3.0,,,,A9LSEP71DNP4O
756,61,,1.0,41.0,RUBY_THROATED_HUMMINGBIRD_2.jpg,APAPANE_4.jpg,2.0,,,,A9LSEP71DNP4O
757,62,,1.0,42.0,BALI_STARLING_1.jpg,PURPLE_FINCH_2.jpg,2.0,,,,A9LSEP71DNP4O
758,63,,1.0,43.0,EASTERN_TOWEE_2.jpg,GOLDEN_CHLOROPHONIA_1.jpg,2.0,,,,A9LSEP71DNP4O
759,64,,1.0,44.0,CRESTED_NUTHATCH_2.jpg,CANARY_1.jpg,3.0,,,,A9LSEP71DNP4O
760,65,,1.0,45.0,VERMILION_FLYCATHER_3.jpg,INDIAN_BUSTARD_1.jpg,1.0,,,,A9LSEP71DNP4O
761,66,,1.0,46.0,HAWAIIAN_GOOSE_4.jpg,HIMALAYAN_MONAL_2.jpg,2.0,,,,A9LSEP71DNP4O
762,67,,1.0,47.0,BROWN_NOODY_3.jpg,SPANGLED_COTINGA_4.jpg,2.0,,,,A9LSEP71DNP4O
763,68,,1.0,48.0,ASIAN_CRESTED_IBIS_4.jpg,CANARY_2.jpg,1.0,,,,A9LSEP71DNP4O
764,69,,1.0,49.0,IVORY_GULL_3.jpg,FLAME_TANAGER_3.jpg,2.0,,,,A9LSEP71DNP4O
765,70,,1.0,50.0,RED_HEADED_WOODPECKER_5.jpg,ASHY_STORM_PETREL_2.jpg,1.0,,,,A9LSEP71DNP4O
766,71,left,1.0,51.0,left.jpg,,,left,0.4878,,A9LSEP71DNP4O
767,72,,1.0,52.0,MALACHITE_KINGFISHER_2.jpg,GREEN_BROADBILL_5.jpg,3.0,,,,A9LSEP71DNP4O
768,73,,1.0,53.0,CASSOWARY_1.jpg,AFRICAN_OYSTER_CATCHER_2.jpg,3.0,,,,A9LSEP71DNP4O
769,74,,1.0,54.0,DOUBLE_BRESTED_CORMARANT_5.jpg,GILDED_FLICKER_2.jpg,1.0,,,,A9LSEP71DNP4O
770,75,,1.0,55.0,ALPINE_CHOUGH_4.jpg,SNOWY_EGRET_2.jpg,1.0,,,,A9LSEP71DNP4O
771,76,,1.0,56.0,TASMANIAN_HEN_5.jpg,AFRICAN_EMERALD_CUCKOO_5.jpg,2.0,,,,A9LSEP71DNP4O
772,77,,1.0,57.0,AFRICAN_PIED_HORNBILL_5.jpg,ALEXANDRINE_PARAKEET_1.jpg,2.0,,,,A9LSEP71DNP4O
773,78,,1.0,58.0,LESSER_ADJUTANT_4.jpg,FAIRY_TERN_3.jpg,3.0,,,,A9LSEP71DNP4O
774,79,,1.0,59.0,BROWN_THRASHER_3.jpg,OYSTER_CATCHER_4.jpg,2.0,,,,A9LSEP71DNP4O
775,80,,1.0,60.0,SHOEBILL_3.jpg,EASTERN_MEADOWLARK_1.jpg,1.0,,,,A9LSEP71DNP4O
776,81,,1.0,61.0,RUBY_THROATED_HUMMINGBIRD_3.jpg,MALAGASY_WHITE_EYE_2.jpg,1.0,,,,A9LSEP71DNP4O
777,82,,1.0,62.0,CHUKAR_PARTRIDGE_5.jpg,OSTRICH_5.jpg,1.0,,,,A9LSEP71DNP4O
778,83,,1.0,63.0,OCELLATED_TURKEY_1.jpg,CHIPPING_SPARROW_1.jpg,1.0,,,,A9LSEP71DNP4O
779,84,,1.0,64.0,INCA_TERN_4.jpg,BORNEAN_BRISTLEHEAD_5.jpg,3.0,,,,A9LSEP71DNP4O
780,20,,1.0,0.0,GREY_PLOVER_1.jpg,GOULDIAN_FINCH_4.jpg,2.0,,,,ALCPF5NANBDSZ
781,21,,1.0,1.0,LARK_BUNTING_2.jpg,PEACOCK_1.jpg,1.0,,,,ALCPF5NANBDSZ
782,22,,1.0,2.0,BREWERS_BLACKBIRD_3.jpg,GUINEA_TURACO_3.jpg,1.0,,,,ALCPF5NANBDSZ
783,23,,1.0,3.0,ALPINE_CHOUGH_4.jpg,SNOWY_EGRET_2.jpg,1.0,,,,ALCPF5NANBDSZ
784,24,,1.0,4.0,RED_HEADED_WOODPECKER_5.jpg,ASHY_STORM_PETREL_2.jpg,1.0,,,,ALCPF5NANBDSZ
785,25,,1.0,5.0,TASMANIAN_HEN_5.jpg,COPPERY_TAILED_COUCAL_1.jpg,3.0,,,,ALCPF5NANBDSZ
786,26,,1.0,6.0,BROWN_NOODY_3.jpg,SPANGLED_COTINGA_4.jpg,2.0,,,,ALCPF5NANBDSZ
787,27,,1.0,7.0,PEACOCK_3.jpg,ANIANIAU_2.jpg,1.0,,,,ALCPF5NANBDSZ
788,28,,1.0,8.0,GRAY_KINGBIRD_5.jpg,AFRICAN_FIREFINCH_3.jpg,3.0,,,,ALCPF5NANBDSZ
789,29,,1.0,9.0,MAGPIE_GOOSE_5.jpg,HAMERKOP_1.jpg,2.0,,,,ALCPF5NANBDSZ
790,30,,1.0,10.0,PARUS_MAJOR_1.jpg,PINK_ROBIN_3.jpg,3.0,,,,ALCPF5NANBDSZ
791,31,,1.0,11.0,GOLDEN_CHEEKED_WARBLER_2.jpg,HOUSE_FINCH_2.jpg,2.0,,,,ALCPF5NANBDSZ
792,32,,1.0,12.0,SCARLET_TANAGER_2.jpg,BEARDED_BARBET_2.jpg,1.0,,,,ALCPF5NANBDSZ
793,33,,1.0,13.0,EASTERN_TOWEE_2.jpg,NORTHERN_BEARDLESS_TYRANNULET_5.jpg,3.0,,,,ALCPF5NANBDSZ
794,34,left,1.0,14.0,left.jpg,,,left,0.5548,,ALCPF5NANBDSZ
795,35,,1.0,15.0,SHOEBILL_3.jpg,BALD_EAGLE_5.jpg,3.0,,,,ALCPF5NANBDSZ
796,36,right,1.0,16.0,right.jpg,,,right,0.548,,ALCPF5NANBDSZ
797,37,,1.0,17.0,KAGU_5.jpg,ASHY_STORM_PETREL_1.jpg,2.0,,,,ALCPF5NANBDSZ
798,38,,1.0,18.0,BROWN_THRASHER_3.jpg,OYSTER_CATCHER_4.jpg,2.0,,,,ALCPF5NANBDSZ
799,39,,1.0,19.0,CHUKAR_PARTRIDGE_5.jpg,BLACK_THROATED_BUSHTIT_1.jpg,3.0,,,,ALCPF5NANBDSZ
800,40,,1.0,20.0,ARARIPE_MANAKIN_4.jpg,BORNEAN_LEAFBIRD_3.jpg,3.0,,,,ALCPF5NANBDSZ
801,41,,1.0,21.0,INCA_TERN_4.jpg,SMITHS_LONGSPUR_5.jpg,2.0,,,,ALCPF5NANBDSZ
802,42,,1.0,22.0,HAWAIIAN_GOOSE_4.jpg,WATTLED_LAPWING_3.jpg,3.0,,,,ALCPF5NANBDSZ
803,43,,1.0,23.0,RUBY_THROATED_HUMMINGBIRD_2.jpg,GOLDEN_CHLOROPHONIA_2.jpg,1.0,,,,ALCPF5NANBDSZ
804,44,,1.0,24.0,RUBY_THROATED_HUMMINGBIRD_1.jpg,FRIGATE_1.jpg,3.0,,,,ALCPF5NANBDSZ
805,45,,1.0,25.0,AMERICAN_PIPIT_5.jpg,HEPATIC_TANAGER_5.jpg,3.0,,,,ALCPF5NANBDSZ
806,46,,1.0,26.0,CRESTED_NUTHATCH_2.jpg,SCARLET_IBIS_3.jpg,1.0,,,,ALCPF5NANBDSZ
807,47,,1.0,27.0,VERMILION_FLYCATHER_3.jpg,INDIAN_BUSTARD_1.jpg,1.0,,,,ALCPF5NANBDSZ
808,48,right,1.0,28.0,right.jpg,,,right,0.4731,,ALCPF5NANBDSZ
809,49,,1.0,29.0,CASPIAN_TERN_1.jpg,COMMON_LOON_2.jpg,3.0,,,,ALCPF5NANBDSZ
810,50,,1.0,30.0,SPLENDID_WREN_1.jpg,DOUBLE_BRESTED_CORMARANT_1.jpg,2.0,,,,ALCPF5NANBDSZ
811,51,,1.0,31.0,GYRFALCON_1.jpg,CINNAMON_ATTILA_2.jpg,2.0,,,,ALCPF5NANBDSZ
812,52,,1.0,32.0,FLAME_BOWERBIRD_3.jpg,QUETZAL_3.jpg,3.0,,,,ALCPF5NANBDSZ
813,53,,1.0,33.0,PYGMY_KINGFISHER_5.jpg,MASKED_BOOBY_5.jpg,2.0,,,,ALCPF5NANBDSZ
814,54,,1.0,34.0,EUROPEAN_TURTLE_DOVE_3.jpg,PAINTED_BUNTING_3.jpg,2.0,,,,ALCPF5NANBDSZ
815,55,,1.0,35.0,RUBY_THROATED_HUMMINGBIRD_3.jpg,NORTHERN_SHOVELER_1.jpg,3.0,,,,ALCPF5NANBDSZ
816,56,,1.0,36.0,AFRICAN_PIED_HORNBILL_5.jpg,KIWI_4.jpg,1.0,,,,ALCPF5NANBDSZ
817,57,right,1.0,37.0,right.jpg,,,right,0.4428,,ALCPF5NANBDSZ
818,58,,1.0,38.0,STRIPPED_SWALLOW_1.jpg,MAGPIE_GOOSE_4.jpg,2.0,,,,ALCPF5NANBDSZ
819,59,,1.0,39.0,MALACHITE_KINGFISHER_2.jpg,AMERICAN_FLAMINGO_1.jpg,1.0,,,,ALCPF5NANBDSZ
820,60,,1.0,40.0,INLAND_DOTTEREL_4.jpg,CASSOWARY_2.jpg,1.0,,,,ALCPF5NANBDSZ
821,61,,1.0,41.0,LESSER_ADJUTANT_4.jpg,RAINBOW_LORIKEET_5.jpg,2.0,,,,ALCPF5NANBDSZ
822,62,,1.0,42.0,LITTLE_AUK_5.jpg,BEARDED_BELLBIRD_1.jpg,3.0,,,,ALCPF5NANBDSZ
823,63,,1.0,43.0,IVORY_GULL_1.jpg,WILSONS_BIRD_OF_PARADISE_4.jpg,1.0,,,,ALCPF5NANBDSZ
824,64,,1.0,44.0,INDIGO_BUNTING_1.jpg,FRIGATE_4.jpg,1.0,,,,ALCPF5NANBDSZ
825,65,,1.0,45.0,GOLDEN_CHLOROPHONIA_5.jpg,COMMON_HOUSE_MARTIN_4.jpg,2.0,,,,ALCPF5NANBDSZ
826,66,,1.0,46.0,CRESTED_CARACARA_4.jpg,INDIAN_PITTA_2.jpg,2.0,,,,ALCPF5NANBDSZ
827,67,,1.0,47.0,ECUADORIAN_HILLSTAR_5.jpg,SCARLET_IBIS_2.jpg,1.0,,,,ALCPF5NANBDSZ
828,68,right,1.0,48.0,right.jpg,,,right,0.4777,,ALCPF5NANBDSZ
829,69,,1.0,49.0,IVORY_GULL_3.jpg,INDIGO_FLYCATCHER_2.jpg,1.0,,,,ALCPF5NANBDSZ
830,70,,1.0,50.0,NORTHERN_JACANA_3.jpg,SCARLET_IBIS_4.jpg,3.0,,,,ALCPF5NANBDSZ
831,71,,1.0,51.0,BALI_STARLING_1.jpg,CAPE_LONGCLAW_5.jpg,1.0,,,,ALCPF5NANBDSZ
832,72,,1.0,52.0,CASSOWARY_1.jpg,SCARLET_MACAW_1.jpg,2.0,,,,ALCPF5NANBDSZ
833,73,,1.0,53.0,ASIAN_DOLLARD_BIRD_2.jpg,ALBATROSS_2.jpg,1.0,,,,ALCPF5NANBDSZ
834,74,,1.0,54.0,CERULEAN_WARBLER_1.jpg,AMERICAN_FLAMINGO_5.jpg,2.0,,,,ALCPF5NANBDSZ
835,75,,1.0,55.0,PINK_ROBIN_4.jpg,ALBATROSS_4.jpg,2.0,,,,ALCPF5NANBDSZ
836,76,,1.0,56.0,ASIAN_CRESTED_IBIS_4.jpg,OYSTER_CATCHER_2.jpg,2.0,,,,ALCPF5NANBDSZ
837,77,,1.0,57.0,LESSER_ADJUTANT_5.jpg,GREEN_BROADBILL_4.jpg,1.0,,,,ALCPF5NANBDSZ
838,78,,1.0,58.0,MYNA_1.jpg,OSTRICH_3.jpg,1.0,,,,ALCPF5NANBDSZ
839,79,,1.0,59.0,KILLDEAR_2.jpg,AZURE_TIT_5.jpg,3.0,,,,ALCPF5NANBDSZ
840,80,,1.0,60.0,DOUBLE_BRESTED_CORMARANT_5.jpg,CHINESE_POND_HERON_2.jpg,3.0,,,,ALCPF5NANBDSZ
841,81,,1.0,61.0,OCELLATED_TURKEY_1.jpg,PURPLE_SWAMPHEN_4.jpg,3.0,,,,ALCPF5NANBDSZ
842,82,,1.0,62.0,WHITE_CHEEKED_TURACO_5.jpg,PYGMY_KINGFISHER_2.jpg,3.0,,,,ALCPF5NANBDSZ
843,83,,1.0,63.0,RUFOUS_KINGFISHER_1.jpg,HORNED_SUNGEM_4.jpg,3.0,,,,ALCPF5NANBDSZ
844,84,,1.0,64.0,OVENBIRD_5.jpg,FAIRY_PENGUIN_1.jpg,2.0,,,,ALCPF5NANBDSZ
845,20,,1.0,0.0,TASMANIAN_HEN_5.jpg,GREEN_BROADBILL_1.jpg,1.0,,,,AUZP4FPD6UTNU
846,21,,1.0,1.0,RUFOUS_KINGFISHER_1.jpg,HORNED_SUNGEM_4.jpg,3.0,,,,AUZP4FPD6UTNU
847,22,,1.0,2.0,GOLDEN_CHEEKED_WARBLER_2.jpg,WHITE_THROATED_BEE_EATER_1.jpg,3.0,,,,AUZP4FPD6UTNU
848,23,,1.0,3.0,FLAME_BOWERBIRD_3.jpg,INDIAN_BUSTARD_2.jpg,1.0,,,,AUZP4FPD6UTNU
849,24,,1.0,4.0,CASSOWARY_1.jpg,AFRICAN_OYSTER_CATCHER_2.jpg,3.0,,,,AUZP4FPD6UTNU
850,25,,1.0,5.0,SHOEBILL_3.jpg,EASTERN_MEADOWLARK_1.jpg,1.0,,,,AUZP4FPD6UTNU
851,26,,1.0,6.0,KILLDEAR_2.jpg,CAATINGA_CACHOLOTE_4.jpg,2.0,,,,AUZP4FPD6UTNU
852,27,,1.0,7.0,ALPINE_CHOUGH_4.jpg,EUROPEAN_GOLDFINCH_3.jpg,2.0,,,,AUZP4FPD6UTNU
853,28,,1.0,8.0,INDIGO_BUNTING_1.jpg,DARWINS_FLYCATCHER_2.jpg,3.0,,,,AUZP4FPD6UTNU
854,29,,1.0,9.0,SCARLET_TANAGER_2.jpg,BORNEAN_LEAFBIRD_1.jpg,3.0,,,,AUZP4FPD6UTNU
855,30,,1.0,10.0,OCELLATED_TURKEY_1.jpg,AMERICAN_PIPIT_1.jpg,2.0,,,,AUZP4FPD6UTNU
856,31,,1.0,11.0,GRAY_KINGBIRD_5.jpg,AFRICAN_FIREFINCH_3.jpg,3.0,,,,AUZP4FPD6UTNU
857,32,,1.0,12.0,OVENBIRD_5.jpg,SHORT_BILLED_DOWITCHER_5.jpg,3.0,,,,AUZP4FPD6UTNU
858,33,right,1.0,13.0,right.jpg,,,right,0.9503,,AUZP4FPD6UTNU
859,34,,1.0,14.0,IVORY_GULL_3.jpg,FLAME_TANAGER_3.jpg,2.0,,,,AUZP4FPD6UTNU
860,35,,1.0,15.0,NORTHERN_JACANA_3.jpg,AMERICAN_GOLDFINCH_4.jpg,1.0,,,,AUZP4FPD6UTNU
861,36,left,1.0,16.0,left.jpg,,,left,0.8934,,AUZP4FPD6UTNU
862,37,,1.0,17.0,PINK_ROBIN_4.jpg,SPOONBILL_3.jpg,1.0,,,,AUZP4FPD6UTNU
863,38,,1.0,18.0,LITTLE_AUK_5.jpg,ORANGE_BRESTED_BUNTING_3.jpg,2.0,,,,AUZP4FPD6UTNU
864,39,,1.0,19.0,ASIAN_CRESTED_IBIS_4.jpg,IVORY_GULL_2.jpg,3.0,,,,AUZP4FPD6UTNU
865,40,,1.0,20.0,IVORY_GULL_1.jpg,WILSONS_BIRD_OF_PARADISE_4.jpg,1.0,,,,AUZP4FPD6UTNU
866,41,,1.0,21.0,BALI_STARLING_1.jpg,IBERIAN_MAGPIE_1.jpg,3.0,,,,AUZP4FPD6UTNU
867,42,,1.0,22.0,ECUADORIAN_HILLSTAR_5.jpg,CRIMSON_SUNBIRD_5.jpg,3.0,,,,AUZP4FPD6UTNU
868,43,,1.0,23.0,BROWN_THRASHER_3.jpg,OYSTER_CATCHER_4.jpg,2.0,,,,AUZP4FPD6UTNU
869,44,,1.0,24.0,RED_HEADED_WOODPECKER_5.jpg,CRIMSON_CHAT_3.jpg,2.0,,,,AUZP4FPD6UTNU
870,45,,1.0,25.0,KAGU_5.jpg,DEMOISELLE_CRANE_1.jpg,3.0,,,,AUZP4FPD6UTNU
871,46,right,1.0,26.0,right.jpg,,,right,0.8591,,AUZP4FPD6UTNU
872,47,,1.0,27.0,BREWERS_BLACKBIRD_3.jpg,GUINEA_TURACO_3.jpg,1.0,,,,AUZP4FPD6UTNU
873,48,,1.0,28.0,RUBY_THROATED_HUMMINGBIRD_1.jpg,BANANAQUIT_2.jpg,1.0,,,,AUZP4FPD6UTNU
874,49,,1.0,29.0,ASIAN_DOLLARD_BIRD_2.jpg,LOGGERHEAD_SHRIKE_4.jpg,2.0,,,,AUZP4FPD6UTNU
875,50,,1.0,30.0,RUBY_THROATED_HUMMINGBIRD_2.jpg,GOLDEN_CHLOROPHONIA_2.jpg,1.0,,,,AUZP4FPD6UTNU
876,51,,1.0,31.0,PEACOCK_3.jpg,ANIANIAU_2.jpg,1.0,,,,AUZP4FPD6UTNU
877,52,,1.0,32.0,BROWN_NOODY_3.jpg,SPANGLED_COTINGA_4.jpg,2.0,,,,AUZP4FPD6UTNU
878,53,,1.0,33.0,MAGPIE_GOOSE_5.jpg,OYSTER_CATCHER_3.jpg,3.0,,,,AUZP4FPD6UTNU
879,54,,1.0,34.0,EUROPEAN_TURTLE_DOVE_3.jpg,PAINTED_BUNTING_3.jpg,2.0,,,,AUZP4FPD6UTNU
880,55,,1.0,35.0,LESSER_ADJUTANT_4.jpg,ALTAMIRA_YELLOWTHROAT_5.jpg,1.0,,,,AUZP4FPD6UTNU
881,56,,1.0,36.0,AMERICAN_PIPIT_5.jpg,GREEN_MAGPIE_1.jpg,2.0,,,,AUZP4FPD6UTNU
882,57,,1.0,37.0,STRIPPED_SWALLOW_1.jpg,DOUBLE_BRESTED_CORMARANT_4.jpg,1.0,,,,AUZP4FPD6UTNU
883,58,,1.0,38.0,LARK_BUNTING_2.jpg,KING_VULTURE_3.jpg,2.0,,,,AUZP4FPD6UTNU
884,59,,1.0,39.0,ARARIPE_MANAKIN_4.jpg,BLACK_VULTURE_1.jpg,2.0,,,,AUZP4FPD6UTNU
885,60,,1.0,40.0,CASPIAN_TERN_1.jpg,COMMON_LOON_2.jpg,3.0,,,,AUZP4FPD6UTNU
886,61,,1.0,41.0,LESSER_ADJUTANT_5.jpg,RED_HEADED_WOODPECKER_1.jpg,3.0,,,,AUZP4FPD6UTNU
887,62,,1.0,42.0,CHUKAR_PARTRIDGE_5.jpg,RAZORBILL_1.jpg,2.0,,,,AUZP4FPD6UTNU
888,63,,1.0,43.0,MALACHITE_KINGFISHER_2.jpg,GREEN_BROADBILL_5.jpg,3.0,,,,AUZP4FPD6UTNU
889,64,right,1.0,44.0,right.jpg,,,right,0.8749,,AUZP4FPD6UTNU
890,65,,1.0,45.0,WHITE_CHEEKED_TURACO_5.jpg,PYGMY_KINGFISHER_2.jpg,3.0,,,,AUZP4FPD6UTNU
891,66,,1.0,46.0,INCA_TERN_4.jpg,SMITHS_LONGSPUR_5.jpg,2.0,,,,AUZP4FPD6UTNU
892,67,,1.0,47.0,GYRFALCON_1.jpg,OSTRICH_1.jpg,1.0,,,,AUZP4FPD6UTNU
893,68,,1.0,48.0,DOUBLE_BRESTED_CORMARANT_5.jpg,GILDED_FLICKER_2.jpg,1.0,,,,AUZP4FPD6UTNU
894,69,,1.0,49.0,CRESTED_NUTHATCH_2.jpg,AFRICAN_FIREFINCH_1.jpg,2.0,,,,AUZP4FPD6UTNU
895,70,,1.0,50.0,GOLDEN_CHLOROPHONIA_5.jpg,ROADRUNNER_2.jpg,1.0,,,,AUZP4FPD6UTNU
896,71,,1.0,51.0,VERMILION_FLYCATHER_3.jpg,RED_BEARDED_BEE_EATER_1.jpg,3.0,,,,AUZP4FPD6UTNU
897,72,,1.0,52.0,MYNA_1.jpg,PARADISE_TANAGER_3.jpg,3.0,,,,AUZP4FPD6UTNU
898,73,,1.0,53.0,CRESTED_CARACARA_4.jpg,INDIAN_PITTA_2.jpg,2.0,,,,AUZP4FPD6UTNU
899,74,left,1.0,54.0,left.jpg,,,left,0.9302,,AUZP4FPD6UTNU
900,75,,1.0,55.0,INLAND_DOTTEREL_4.jpg,CRESTED_KINGFISHER_1.jpg,3.0,,,,AUZP4FPD6UTNU
901,76,,1.0,56.0,GREY_PLOVER_1.jpg,GOULDIAN_FINCH_4.jpg,2.0,,,,AUZP4FPD6UTNU
902,77,,1.0,57.0,CERULEAN_WARBLER_1.jpg,AMERICAN_FLAMINGO_5.jpg,2.0,,,,AUZP4FPD6UTNU
903,78,,1.0,58.0,HAWAIIAN_GOOSE_4.jpg,CUBAN_TODY_3.jpg,1.0,,,,AUZP4FPD6UTNU
904,79,,1.0,59.0,RUBY_THROATED_HUMMINGBIRD_3.jpg,MALAGASY_WHITE_EYE_2.jpg,1.0,,,,AUZP4FPD6UTNU
905,80,,1.0,60.0,PYGMY_KINGFISHER_5.jpg,GRANDALA_2.jpg,1.0,,,,AUZP4FPD6UTNU
906,81,,1.0,61.0,SPLENDID_WREN_1.jpg,POMARINE_JAEGER_5.jpg,1.0,,,,AUZP4FPD6UTNU
907,82,,1.0,62.0,PARUS_MAJOR_1.jpg,SANDHILL_CRANE_4.jpg,1.0,,,,AUZP4FPD6UTNU
908,83,,1.0,63.0,AFRICAN_PIED_HORNBILL_5.jpg,ALEXANDRINE_PARAKEET_1.jpg,2.0,,,,AUZP4FPD6UTNU
909,84,,1.0,64.0,EASTERN_TOWEE_2.jpg,NORTHERN_BEARDLESS_TYRANNULET_5.jpg,3.0,,,,AUZP4FPD6UTNU
