,layer,correct,test_test_response.keys,test_test_response.corr,test_test_response.rt,trials_2.thisRepN,trials_2.thisTrialN,trials_2.thisN,trials_2.thisIndex,trials_2.ran,image1,image2,subject
0,1.0,left,left,1.0,8.8136,0.0,0.0,0.0,0.0,1.0,ECUADORIAN_HILLSTAR_5.jpg,SCARLET_IBIS_2.jpg,A146QN6EU8LAEI
1,3.0,right,left,0.0,8.1659,0.0,1.0,1.0,1.0,1.0,FRIGATE_1.jpg,RUBY_THROATED_HUMMINGBIRD_1.jpg,A146QN6EU8LAEI
2,3.0,left,right,0.0,1.6671,0.0,2.0,2.0,2.0,1.0,ALPINE_CHOUGH_4.jpg,BOBOLINK_3.jpg,A146QN6EU8LAEI
3,1.0,right,right,1.0,1.3308,0.0,3.0,3.0,3.0,1.0,INDIAN_BUSTARD_1.jpg,VERMILION_FLYCATHER_3.jpg,A146QN6EU8LAEI
4,2.0,left,left,1.0,3.7082,0.0,4.0,4.0,4.0,1.0,SPLENDID_WREN_1.jpg,DOUBLE_BRESTED_CORMARANT_1.jpg,A146QN6EU8LAEI
5,2.0,left,right,0.0,2.2996,0.0,5.0,5.0,5.0,1.0,GOLDEN_CHLOROPHONIA_5.jpg,COMMON_HOUSE_MARTIN_4.jpg,A146QN6EU8LAEI
6,2.0,right,right,1.0,1.97,0.0,6.0,6.0,6.0,1.0,AFRICAN_FIREFINCH_1.jpg,CRESTED_NUTHATCH_2.jpg,A146QN6EU8LAEI
7,3.0,right,left,0.0,2.3227,0.0,7.0,7.0,7.0,1.0,BLACK_THROATED_BUSHTIT_1.jpg,CHUKAR_PARTRIDGE_5.jpg,A146QN6EU8LAEI
8,3.0,right,left,0.0,1.8578,0.0,8.0,8.0,8.0,1.0,CHATTERING_LORY_2.jpg,PEACOCK_3.jpg,A146QN6EU8LAEI
9,1.0,left,left,1.0,2.0792,0.0,9.0,9.0,9.0,1.0,CERULEAN_WARBLER_1.jpg,AMERICAN_FLAMINGO_2.jpg,A146QN6EU8LAEI
10,2.0,right,left,0.0,1.7963,0.0,10.0,10.0,10.0,1.0,HOUSE_FINCH_2.jpg,GOLDEN_CHEEKED_WARBLER_2.jpg,A146QN6EU8LAEI
11,1.0,left,left,1.0,1.2864,0.0,11.0,11.0,11.0,1.0,BROWN_THRASHER_3.jpg,DOUBLE_EYED_FIG_PARROT_3.jpg,A146QN6EU8LAEI
12,1.0,right,right,1.0,31.6668,0.0,12.0,12.0,12.0,1.0,GOLDEN_CHLOROPHONIA_2.jpg,RUBY_THROATED_HUMMINGBIRD_2.jpg,A146QN6EU8LAEI
13,2.0,left,left,1.0,2.9758,0.0,13.0,13.0,13.0,1.0,LARK_BUNTING_2.jpg,KING_VULTURE_3.jpg,A146QN6EU8LAEI
14,3.0,left,left,1.0,8.4942,0.0,14.0,14.0,14.0,1.0,PYGMY_KINGFISHER_5.jpg,DOUBLE_EYED_FIG_PARROT_4.jpg,A146QN6EU8LAEI
15,2.0,left,left,1.0,1.7976,0.0,15.0,15.0,15.0,1.0,GREY_PLOVER_1.jpg,GOULDIAN_FINCH_4.jpg,A146QN6EU8LAEI
16,3.0,right,left,0.0,2.0563,0.0,16.0,16.0,16.0,1.0,COMMON_LOON_2.jpg,CASPIAN_TERN_1.jpg,A146QN6EU8LAEI
17,3.0,right,right,1.0,1.7643,0.0,17.0,17.0,17.0,1.0,FAIRY_TERN_4.jpg,IVORY_GULL_1.jpg,A146QN6EU8LAEI
18,3.0,right,left,0.0,9.8073,0.0,18.0,18.0,18.0,1.0,COPPERY_TAILED_COUCAL_1.jpg,TASMANIAN_HEN_5.jpg,A146QN6EU8LAEI
19,2.0,right,left,0.0,1.4053,0.0,19.0,19.0,19.0,1.0,PURPLE_FINCH_2.jpg,BALI_STARLING_1.jpg,A146QN6EU8LAEI
20,1.0,left,right,0.0,2.0545,0.0,20.0,20.0,20.0,1.0,ASIAN_DOLLARD_BIRD_2.jpg,ALBATROSS_2.jpg,A146QN6EU8LAEI
21,3.0,right,left,0.0,2.2187,0.0,21.0,21.0,21.0,1.0,OYSTER_CATCHER_3.jpg,MAGPIE_GOOSE_5.jpg,A146QN6EU8LAEI
22,2.0,right,left,0.0,2.1724,0.0,22.0,22.0,22.0,1.0,ORANGE_BRESTED_BUNTING_3.jpg,LITTLE_AUK_5.jpg,A146QN6EU8LAEI
23,1.0,left,left,1.0,2.5695,0.0,23.0,23.0,23.0,1.0,HAWAIIAN_GOOSE_4.jpg,CUBAN_TODY_3.jpg,A146QN6EU8LAEI
24,1.0,left,right,0.0,1.9071,0.0,24.0,24.0,24.0,1.0,RUBY_THROATED_HUMMINGBIRD_3.jpg,MALAGASY_WHITE_EYE_2.jpg,A146QN6EU8LAEI
25,2.0,left,right,0.0,2.3223,0.0,25.0,25.0,25.0,1.0,MYNA_1.jpg,GREY_PLOVER_4.jpg,A146QN6EU8LAEI
26,3.0,left,left,1.0,24.9368,0.0,26.0,26.0,26.0,1.0,CRESTED_CARACARA_4.jpg,TOUCHAN_4.jpg,A146QN6EU8LAEI
27,1.0,right,right,1.0,3.2298,0.0,27.0,27.0,27.0,1.0,PEACOCK_5.jpg,KILLDEAR_2.jpg,A146QN6EU8LAEI
28,1.0,right,right,1.0,8.4146,0.0,28.0,28.0,28.0,1.0,PEACOCK_2.jpg,BROWN_NOODY_3.jpg,A146QN6EU8LAEI
29,3.0,left,left,1.0,19.3194,0.0,29.0,29.0,29.0,1.0,SHOEBILL_3.jpg,BALD_EAGLE_5.jpg,A146QN6EU8LAEI
30,1.0,left,left,1.0,2.0651,0.0,30.0,30.0,30.0,1.0,AMERICAN_PIPIT_5.jpg,EMU_2.jpg,A146QN6EU8LAEI
31,2.0,left,left,1.0,1.7741,0.0,31.0,31.0,31.0,1.0,GRAY_KINGBIRD_5.jpg,COCK_OF_THE__ROCK_4.jpg,A146QN6EU8LAEI
32,1.0,left,right,0.0,8.3117,0.0,32.0,32.0,32.0,1.0,NORTHERN_JACANA_3.jpg,AMERICAN_GOLDFINCH_4.jpg,A146QN6EU8LAEI
33,2.0,left,left,1.0,2.2013,0.0,33.0,33.0,33.0,1.0,INLAND_DOTTEREL_4.jpg,NICOBAR_PIGEON_4.jpg,A146QN6EU8LAEI
34,1.0,right,right,1.0,2.6946,0.0,34.0,34.0,34.0,1.0,ROSY_FACED_LOVEBIRD_4.jpg,CASSOWARY_1.jpg,A146QN6EU8LAEI
35,1.0,right,right,1.0,14.4225,0.0,35.0,35.0,35.0,1.0,FRIGATE_4.jpg,INDIGO_BUNTING_1.jpg,A146QN6EU8LAEI
36,3.0,right,left,0.0,5.9641,0.0,36.0,36.0,36.0,1.0,IVORY_GULL_2.jpg,ASIAN_CRESTED_IBIS_4.jpg,A146QN6EU8LAEI
37,3.0,left,right,0.0,1.5041,0.0,37.0,37.0,37.0,1.0,OCELLATED_TURKEY_1.jpg,PURPLE_SWAMPHEN_4.jpg,A146QN6EU8LAEI
38,3.0,left,left,1.0,2.22,0.0,38.0,38.0,38.0,1.0,OVENBIRD_5.jpg,SHORT_BILLED_DOWITCHER_5.jpg,A146QN6EU8LAEI
39,3.0,right,right,1.0,2.993,0.0,39.0,39.0,39.0,1.0,BORNEAN_LEAFBIRD_3.jpg,ARARIPE_MANAKIN_4.jpg,A146QN6EU8LAEI
40,2.0,left,right,0.0,2.3367,0.0,40.0,40.0,40.0,1.0,INCA_TERN_4.jpg,SMITHS_LONGSPUR_5.jpg,A146QN6EU8LAEI
41,2.0,left,left,1.0,1.4474,0.0,41.0,41.0,41.0,1.0,PINK_ROBIN_4.jpg,ALBATROSS_4.jpg,A146QN6EU8LAEI
42,3.0,right,left,0.0,16.87,0.0,42.0,42.0,42.0,1.0,FAIRY_TERN_1.jpg,GYRFALCON_1.jpg,A146QN6EU8LAEI
43,2.0,right,left,0.0,1.8588,0.0,43.0,43.0,43.0,1.0,PAINTED_BUNTING_3.jpg,EUROPEAN_TURTLE_DOVE_3.jpg,A146QN6EU8LAEI
44,3.0,left,left,1.0,1.8343,0.0,44.0,44.0,44.0,1.0,SCARLET_TANAGER_2.jpg,BORNEAN_LEAFBIRD_1.jpg,A146QN6EU8LAEI
45,2.0,left,left,1.0,2.7492,0.0,45.0,45.0,45.0,1.0,EASTERN_TOWEE_2.jpg,GOLDEN_CHLOROPHONIA_1.jpg,A146QN6EU8LAEI
46,1.0,left,left,1.0,1.8772,0.0,46.0,46.0,46.0,1.0,STRIPPED_SWALLOW_1.jpg,DOUBLE_BRESTED_CORMARANT_4.jpg,A146QN6EU8LAEI
47,2.0,left,right,0.0,1.847,0.0,47.0,47.0,47.0,1.0,RED_HEADED_WOODPECKER_5.jpg,CRIMSON_CHAT_3.jpg,A146QN6EU8LAEI
48,3.0,left,left,1.0,6.9695,0.0,48.0,48.0,48.0,1.0,MALACHITE_KINGFISHER_2.jpg,GREEN_BROADBILL_5.jpg,A146QN6EU8LAEI
49,2.0,right,right,1.0,1.5663,0.0,49.0,49.0,49.0,1.0,RAINBOW_LORIKEET_5.jpg,LESSER_ADJUTANT_4.jpg,A146QN6EU8LAEI
50,2.0,right,left,0.0,1.958,0.0,50.0,50.0,50.0,1.0,FLAME_TANAGER_3.jpg,IVORY_GULL_3.jpg,A146QN6EU8LAEI
51,1.0,left,left,1.0,2.5365,0.0,51.0,51.0,51.0,1.0,LESSER_ADJUTANT_5.jpg,GREEN_BROADBILL_4.jpg,A146QN6EU8LAEI
52,1.0,left,left,1.0,2.901,0.0,52.0,52.0,52.0,1.0,FLAME_BOWERBIRD_3.jpg,INDIAN_BUSTARD_2.jpg,A146QN6EU8LAEI
53,3.0,left,right,0.0,1.5785,0.0,53.0,53.0,53.0,1.0,KAGU_5.jpg,DEMOISELLE_CRANE_1.jpg,A146QN6EU8LAEI
54,2.0,left,right,0.0,1.7162,0.0,54.0,54.0,54.0,1.0,DOUBLE_BRESTED_CORMARANT_5.jpg,EURASIAN_MAGPIE_4.jpg,A146QN6EU8LAEI
55,1.0,right,right,1.0,2.6652,0.0,55.0,55.0,55.0,1.0,GUINEA_TURACO_3.jpg,BREWERS_BLACKBIRD_3.jpg,A146QN6EU8LAEI
56,1.0,right,left,0.0,1.921,0.0,56.0,56.0,56.0,1.0,KIWI_4.jpg,AFRICAN_PIED_HORNBILL_5.jpg,A146QN6EU8LAEI
57,1.0,left,right,0.0,6.9453,0.0,57.0,57.0,57.0,1.0,RUFOUS_KINGFISHER_1.jpg,SNOWY_OWL_5.jpg,A146QN6EU8LAEI
58,2.0,right,right,1.0,3.9918,0.0,58.0,58.0,58.0,1.0,GREAT_POTOO_3.jpg,WHITE_CHEEKED_TURACO_5.jpg,A146QN6EU8LAEI
59,3.0,right,right,1.0,1.8539,0.0,59.0,59.0,59.0,1.0,PINK_ROBIN_3.jpg,PARUS_MAJOR_1.jpg,A146QN6EU8LAEI
60,3.0,left,right,0.0,3.7722,0.0,0.0,0.0,0.0,1.0,NORTHERN_JACANA_3.jpg,SCARLET_IBIS_4.jpg,A1AMGHYG5PT0L2
61,3.0,right,right,1.0,2.062,0.0,1.0,1.0,1.0,1.0,QUETZAL_3.jpg,FLAME_BOWERBIRD_3.jpg,A1AMGHYG5PT0L2
62,2.0,right,left,0.0,1.2628,0.0,2.0,2.0,2.0,1.0,MASKED_BOOBY_5.jpg,PYGMY_KINGFISHER_5.jpg,A1AMGHYG5PT0L2
63,2.0,right,right,1.0,1.0487,0.0,3.0,3.0,3.0,1.0,SCARLET_MACAW_1.jpg,CASSOWARY_1.jpg,A1AMGHYG5PT0L2
64,2.0,right,left,0.0,1.0461,0.0,4.0,4.0,4.0,1.0,BOBOLINK_5.jpg,ECUADORIAN_HILLSTAR_5.jpg,A1AMGHYG5PT0L2
65,3.0,right,right,1.0,0.8533,0.0,5.0,5.0,5.0,1.0,WATTLED_LAPWING_3.jpg,HAWAIIAN_GOOSE_4.jpg,A1AMGHYG5PT0L2
66,2.0,right,left,0.0,0.7454,0.0,6.0,6.0,6.0,1.0,CALIFORNIA_GULL_1.jpg,VERMILION_FLYCATHER_3.jpg,A1AMGHYG5PT0L2
67,3.0,left,left,1.0,0.7291,0.0,7.0,7.0,7.0,1.0,MYNA_1.jpg,PARADISE_TANAGER_3.jpg,A1AMGHYG5PT0L2
68,3.0,left,left,1.0,1.3127,0.0,8.0,8.0,8.0,1.0,AFRICAN_PIED_HORNBILL_5.jpg,CAPUCHINBIRD_2.jpg,A1AMGHYG5PT0L2
69,1.0,left,left,1.0,0.8829,0.0,9.0,9.0,9.0,1.0,EASTERN_TOWEE_2.jpg,SANDHILL_CRANE_2.jpg,A1AMGHYG5PT0L2
70,2.0,left,left,1.0,1.1788,0.0,10.0,10.0,10.0,1.0,ARARIPE_MANAKIN_4.jpg,BLACK_VULTURE_1.jpg,A1AMGHYG5PT0L2
71,2.0,right,left,0.0,1.2119,0.0,11.0,11.0,11.0,1.0,NORTHERN_GANNET_2.jpg,SCARLET_TANAGER_2.jpg,A1AMGHYG5PT0L2
72,2.0,left,right,0.0,0.7828,0.0,12.0,12.0,12.0,1.0,RED_HEADED_WOODPECKER_5.jpg,CRIMSON_CHAT_3.jpg,A1AMGHYG5PT0L2
73,3.0,right,left,0.0,0.5791,0.0,13.0,13.0,13.0,1.0,CAPE_LONGCLAW_2.jpg,BREWERS_BLACKBIRD_3.jpg,A1AMGHYG5PT0L2
74,1.0,left,right,0.0,0.6798,0.0,14.0,14.0,14.0,1.0,AMERICAN_PIPIT_5.jpg,EMU_2.jpg,A1AMGHYG5PT0L2
75,2.0,right,right,1.0,0.7958,0.0,15.0,15.0,15.0,1.0,NICOBAR_PIGEON_4.jpg,INLAND_DOTTEREL_4.jpg,A1AMGHYG5PT0L2
76,1.0,right,right,1.0,0.7619,0.0,16.0,16.0,16.0,1.0,TEAL_DUCK_2.jpg,EUROPEAN_TURTLE_DOVE_3.jpg,A1AMGHYG5PT0L2
77,3.0,left,right,0.0,0.6936,0.0,17.0,17.0,17.0,1.0,RUBY_THROATED_HUMMINGBIRD_2.jpg,DUSKY_ROBIN_5.jpg,A1AMGHYG5PT0L2
78,1.0,right,left,0.0,0.7501,0.0,18.0,18.0,18.0,1.0,SPOONBILL_3.jpg,PINK_ROBIN_4.jpg,A1AMGHYG5PT0L2
79,2.0,right,left,0.0,1.1473,0.0,19.0,19.0,19.0,1.0,ASHY_STORM_PETREL_1.jpg,KAGU_5.jpg,A1AMGHYG5PT0L2
80,3.0,right,right,1.0,0.5886,0.0,20.0,20.0,20.0,1.0,PINK_ROBIN_3.jpg,PARUS_MAJOR_1.jpg,A1AMGHYG5PT0L2
81,3.0,left,right,0.0,0.7167,0.0,21.0,21.0,21.0,1.0,ASIAN_CRESTED_IBIS_4.jpg,IVORY_GULL_2.jpg,A1AMGHYG5PT0L2
82,2.0,right,left,0.0,0.7286,0.0,22.0,22.0,22.0,1.0,EUROPEAN_GOLDFINCH_3.jpg,ALPINE_CHOUGH_4.jpg,A1AMGHYG5PT0L2
83,2.0,right,right,1.0,0.6185,0.0,23.0,23.0,23.0,1.0,SPANGLED_COTINGA_4.jpg,BROWN_NOODY_3.jpg,A1AMGHYG5PT0L2
84,1.0,left,left,1.0,0.6284,0.0,24.0,24.0,24.0,1.0,KILLDEAR_2.jpg,PEACOCK_5.jpg,A1AMGHYG5PT0L2
85,3.0,left,left,1.0,0.4152,0.0,25.0,25.0,25.0,1.0,DOUBLE_BRESTED_CORMARANT_5.jpg,CHINESE_POND_HERON_2.jpg,A1AMGHYG5PT0L2
86,1.0,right,left,0.0,0.27,0.0,26.0,26.0,26.0,1.0,EASTERN_MEADOWLARK_1.jpg,SHOEBILL_3.jpg,A1AMGHYG5PT0L2
87,1.0,right,right,1.0,0.4021,0.0,27.0,27.0,27.0,1.0,ALTAMIRA_YELLOWTHROAT_5.jpg,LESSER_ADJUTANT_4.jpg,A1AMGHYG5PT0L2
88,1.0,left,right,0.0,0.2627,0.0,28.0,28.0,28.0,1.0,RUBY_THROATED_HUMMINGBIRD_3.jpg,MALAGASY_WHITE_EYE_2.jpg,A1AMGHYG5PT0L2
89,1.0,left,right,0.0,0.2146,0.0,29.0,29.0,29.0,1.0,LITTLE_AUK_5.jpg,SANDHILL_CRANE_3.jpg,A1AMGHYG5PT0L2
90,2.0,right,left,0.0,0.2447,0.0,30.0,30.0,30.0,1.0,AFRICAN_FIREFINCH_1.jpg,CRESTED_NUTHATCH_2.jpg,A1AMGHYG5PT0L2
91,2.0,right,left,0.0,0.2355,0.0,31.0,31.0,31.0,1.0,NORTHERN_GANNET_1.jpg,INDIGO_BUNTING_1.jpg,A1AMGHYG5PT0L2
92,3.0,left,left,1.0,0.2627,0.0,32.0,32.0,32.0,1.0,LESSER_ADJUTANT_5.jpg,RED_HEADED_WOODPECKER_1.jpg,A1AMGHYG5PT0L2
93,1.0,left,right,0.0,0.2129,0.0,33.0,33.0,33.0,1.0,ASIAN_DOLLARD_BIRD_2.jpg,ALBATROSS_2.jpg,A1AMGHYG5PT0L2
94,3.0,right,left,0.0,0.2791,0.0,34.0,34.0,34.0,1.0,OYSTER_CATCHER_3.jpg,MAGPIE_GOOSE_5.jpg,A1AMGHYG5PT0L2
95,1.0,right,right,1.0,0.5214,0.0,35.0,35.0,35.0,1.0,INDIGO_FLYCATCHER_2.jpg,IVORY_GULL_3.jpg,A1AMGHYG5PT0L2
96,1.0,right,left,0.0,0.4199,0.0,36.0,36.0,36.0,1.0,SNOWY_OWL_5.jpg,RUFOUS_KINGFISHER_1.jpg,A1AMGHYG5PT0L2
97,3.0,right,left,0.0,0.3622,0.0,37.0,37.0,37.0,1.0,AFRICAN_FIREFINCH_3.jpg,GRAY_KINGBIRD_5.jpg,A1AMGHYG5PT0L2
98,2.0,right,right,1.0,0.5304,0.0,38.0,38.0,38.0,1.0,GOULDIAN_FINCH_4.jpg,GREY_PLOVER_1.jpg,A1AMGHYG5PT0L2
99,1.0,right,left,0.0,0.5974,0.0,39.0,39.0,39.0,1.0,ROADRUNNER_2.jpg,GOLDEN_CHLOROPHONIA_5.jpg,A1AMGHYG5PT0L2
100,2.0,right,left,0.0,0.4372,0.0,40.0,40.0,40.0,1.0,SMITHS_LONGSPUR_5.jpg,INCA_TERN_4.jpg,A1AMGHYG5PT0L2
101,1.0,right,left,0.0,0.5463,0.0,41.0,41.0,41.0,1.0,OSTRICH_5.jpg,CHUKAR_PARTRIDGE_5.jpg,A1AMGHYG5PT0L2
102,3.0,left,left,1.0,0.3963,0.0,42.0,42.0,42.0,1.0,BALI_STARLING_1.jpg,IBERIAN_MAGPIE_1.jpg,A1AMGHYG5PT0L2
103,3.0,right,left,0.0,0.3648,0.0,43.0,43.0,43.0,1.0,COPPERY_TAILED_COUCAL_1.jpg,TASMANIAN_HEN_5.jpg,A1AMGHYG5PT0L2
104,3.0,right,left,0.0,0.2703,0.0,44.0,44.0,44.0,1.0,FAIRY_TERN_4.jpg,IVORY_GULL_1.jpg,A1AMGHYG5PT0L2
105,1.0,left,left,1.0,0.1628,0.0,45.0,45.0,45.0,1.0,LARK_BUNTING_2.jpg,PEACOCK_1.jpg,A1AMGHYG5PT0L2
106,2.0,left,left,1.0,0.1883,0.0,46.0,46.0,46.0,1.0,GOLDEN_CHEEKED_WARBLER_2.jpg,HOUSE_FINCH_2.jpg,A1AMGHYG5PT0L2
107,3.0,left,right,0.0,0.1953,0.0,47.0,47.0,47.0,1.0,WHITE_CHEEKED_TURACO_5.jpg,PYGMY_KINGFISHER_2.jpg,A1AMGHYG5PT0L2
108,1.0,left,left,1.0,0.2798,0.0,48.0,48.0,48.0,1.0,STRIPPED_SWALLOW_1.jpg,DOUBLE_BRESTED_CORMARANT_4.jpg,A1AMGHYG5PT0L2
109,2.0,left,right,0.0,0.23,0.0,49.0,49.0,49.0,1.0,CASPIAN_TERN_1.jpg,EUROPEAN_GOLDFINCH_4.jpg,A1AMGHYG5PT0L2
110,3.0,right,left,0.0,0.2298,0.0,50.0,50.0,50.0,1.0,BLACK_BAZA_4.jpg,BROWN_THRASHER_3.jpg,A1AMGHYG5PT0L2
111,2.0,right,left,0.0,0.2513,0.0,51.0,51.0,51.0,1.0,AMERICAN_PIPIT_1.jpg,OCELLATED_TURKEY_1.jpg,A1AMGHYG5PT0L2
112,1.0,left,left,1.0,0.184,0.0,52.0,52.0,52.0,1.0,MALACHITE_KINGFISHER_2.jpg,AMERICAN_FLAMINGO_1.jpg,A1AMGHYG5PT0L2
113,1.0,left,right,0.0,0.1848,0.0,53.0,53.0,53.0,1.0,CERULEAN_WARBLER_1.jpg,AMERICAN_FLAMINGO_2.jpg,A1AMGHYG5PT0L2
114,3.0,right,left,0.0,0.2162,0.0,54.0,54.0,54.0,1.0,CHATTERING_LORY_2.jpg,PEACOCK_3.jpg,A1AMGHYG5PT0L2
115,2.0,left,left,1.0,0.2639,0.0,55.0,55.0,55.0,1.0,GYRFALCON_1.jpg,CINNAMON_ATTILA_2.jpg,A1AMGHYG5PT0L2
116,1.0,left,left,1.0,0.1968,0.0,56.0,56.0,56.0,1.0,RUBY_THROATED_HUMMINGBIRD_1.jpg,BANANAQUIT_2.jpg,A1AMGHYG5PT0L2
117,1.0,right,right,1.0,0.1632,0.0,57.0,57.0,57.0,1.0,FAIRY_PENGUIN_5.jpg,CRESTED_CARACARA_4.jpg,A1AMGHYG5PT0L2
118,3.0,right,left,0.0,0.1976,0.0,58.0,58.0,58.0,1.0,CUBAN_TODY_4.jpg,SPLENDID_WREN_1.jpg,A1AMGHYG5PT0L2
119,2.0,right,left,0.0,0.23,0.0,59.0,59.0,59.0,1.0,FAIRY_PENGUIN_1.jpg,OVENBIRD_5.jpg,A1AMGHYG5PT0L2
120,3.0,right,right,1.0,6.2682,0.0,0.0,0.0,0.0,1.0,AZURE_TIT_5.jpg,KILLDEAR_2.jpg,A23KAJRDVCVGOE
121,1.0,left,right,0.0,1.4243,0.0,1.0,1.0,1.0,1.0,SHOEBILL_3.jpg,EASTERN_MEADOWLARK_1.jpg,A23KAJRDVCVGOE
122,3.0,right,left,0.0,1.6853,0.0,2.0,2.0,2.0,1.0,IVORY_GULL_2.jpg,ASIAN_CRESTED_IBIS_4.jpg,A23KAJRDVCVGOE
123,2.0,left,right,0.0,2.4299,0.0,3.0,3.0,3.0,1.0,ALPINE_CHOUGH_4.jpg,EUROPEAN_GOLDFINCH_3.jpg,A23KAJRDVCVGOE
124,1.0,left,right,0.0,2.2683,0.0,4.0,4.0,4.0,1.0,ASIAN_DOLLARD_BIRD_2.jpg,ALBATROSS_2.jpg,A23KAJRDVCVGOE
125,2.0,left,left,1.0,0.7168,0.0,5.0,5.0,5.0,1.0,BROWN_THRASHER_3.jpg,OYSTER_CATCHER_4.jpg,A23KAJRDVCVGOE
126,1.0,right,left,0.0,1.1009,0.0,6.0,6.0,6.0,1.0,GUINEA_TURACO_3.jpg,BREWERS_BLACKBIRD_3.jpg,A23KAJRDVCVGOE
127,3.0,left,right,0.0,0.9792,0.0,7.0,7.0,7.0,1.0,AMERICAN_PIPIT_5.jpg,HEPATIC_TANAGER_5.jpg,A23KAJRDVCVGOE
128,1.0,right,right,1.0,0.5477,0.0,8.0,8.0,8.0,1.0,SANDHILL_CRANE_3.jpg,LITTLE_AUK_5.jpg,A23KAJRDVCVGOE
129,2.0,right,right,1.0,0.8246,0.0,9.0,9.0,9.0,1.0,NICOBAR_PIGEON_4.jpg,INLAND_DOTTEREL_4.jpg,A23KAJRDVCVGOE
130,2.0,right,right,1.0,0.5846,0.0,10.0,10.0,10.0,1.0,HOUSE_FINCH_2.jpg,GOLDEN_CHEEKED_WARBLER_2.jpg,A23KAJRDVCVGOE
131,1.0,left,left,1.0,0.7291,0.0,11.0,11.0,11.0,1.0,SCARLET_TANAGER_2.jpg,BEARDED_BARBET_2.jpg,A23KAJRDVCVGOE
132,1.0,left,left,1.0,0.5923,0.0,12.0,12.0,12.0,1.0,FLAME_BOWERBIRD_3.jpg,INDIAN_BUSTARD_2.jpg,A23KAJRDVCVGOE
133,2.0,left,left,1.0,0.9675,0.0,13.0,13.0,13.0,1.0,AFRICAN_PIED_HORNBILL_5.jpg,ALEXANDRINE_PARAKEET_1.jpg,A23KAJRDVCVGOE
134,1.0,right,right,1.0,0.6808,0.0,14.0,14.0,14.0,1.0,SNOWY_OWL_5.jpg,RUFOUS_KINGFISHER_1.jpg,A23KAJRDVCVGOE
135,2.0,left,left,1.0,0.8448,0.0,15.0,15.0,15.0,1.0,MAGPIE_GOOSE_5.jpg,HAMERKOP_1.jpg,A23KAJRDVCVGOE
136,1.0,right,right,1.0,0.6805,0.0,16.0,16.0,16.0,1.0,FAIRY_PENGUIN_5.jpg,CRESTED_CARACARA_4.jpg,A23KAJRDVCVGOE
137,1.0,right,right,1.0,0.6704,0.0,17.0,17.0,17.0,1.0,SPOONBILL_3.jpg,PINK_ROBIN_4.jpg,A23KAJRDVCVGOE
138,3.0,right,right,1.0,0.6804,0.0,18.0,18.0,18.0,1.0,BORNEAN_LEAFBIRD_3.jpg,ARARIPE_MANAKIN_4.jpg,A23KAJRDVCVGOE
139,1.0,right,right,1.0,1.2246,0.0,19.0,19.0,19.0,1.0,GREEN_BROADBILL_4.jpg,LESSER_ADJUTANT_5.jpg,A23KAJRDVCVGOE
140,2.0,right,right,1.0,0.7461,0.0,20.0,20.0,20.0,1.0,CALIFORNIA_GULL_1.jpg,VERMILION_FLYCATHER_3.jpg,A23KAJRDVCVGOE
141,1.0,left,right,0.0,0.8288,0.0,21.0,21.0,21.0,1.0,STRIPPED_SWALLOW_1.jpg,DOUBLE_BRESTED_CORMARANT_4.jpg,A23KAJRDVCVGOE
142,2.0,right,right,1.0,0.6656,0.0,22.0,22.0,22.0,1.0,APAPANE_4.jpg,RUBY_THROATED_HUMMINGBIRD_2.jpg,A23KAJRDVCVGOE
143,1.0,right,left,0.0,1.4807,0.0,23.0,23.0,23.0,1.0,ELLIOTS__PHEASANT_4.jpg,INCA_TERN_4.jpg,A23KAJRDVCVGOE
144,1.0,right,left,0.0,1.3616,0.0,24.0,24.0,24.0,1.0,WILSONS_BIRD_OF_PARADISE_4.jpg,IVORY_GULL_1.jpg,A23KAJRDVCVGOE
145,1.0,right,left,0.0,1.0365,0.0,25.0,25.0,25.0,1.0,POMARINE_JAEGER_5.jpg,SPLENDID_WREN_1.jpg,A23KAJRDVCVGOE
146,1.0,right,left,0.0,0.6644,0.0,26.0,26.0,26.0,1.0,ASHY_STORM_PETREL_2.jpg,RED_HEADED_WOODPECKER_5.jpg,A23KAJRDVCVGOE
147,3.0,left,right,0.0,0.607,0.0,27.0,27.0,27.0,1.0,GRAY_KINGBIRD_5.jpg,AFRICAN_FIREFINCH_3.jpg,A23KAJRDVCVGOE
148,2.0,left,left,1.0,1.0638,0.0,28.0,28.0,28.0,1.0,KAGU_5.jpg,ASHY_STORM_PETREL_1.jpg,A23KAJRDVCVGOE
149,2.0,left,left,1.0,0.7612,0.0,29.0,29.0,29.0,1.0,MYNA_1.jpg,GREY_PLOVER_4.jpg,A23KAJRDVCVGOE
150,3.0,right,right,1.0,0.8051,0.0,30.0,30.0,30.0,1.0,NORTHERN_BEARDLESS_TYRANNULET_5.jpg,EASTERN_TOWEE_2.jpg,A23KAJRDVCVGOE
151,3.0,left,right,0.0,0.687,0.0,31.0,31.0,31.0,1.0,RUBY_THROATED_HUMMINGBIRD_3.jpg,NORTHERN_SHOVELER_1.jpg,A23KAJRDVCVGOE
152,1.0,right,left,0.0,0.6288,0.0,32.0,32.0,32.0,1.0,CHIPPING_SPARROW_1.jpg,OCELLATED_TURKEY_1.jpg,A23KAJRDVCVGOE
153,3.0,right,left,0.0,0.6304,0.0,33.0,33.0,33.0,1.0,ECUADORIAN_HILLSTAR_3.jpg,GREY_PLOVER_1.jpg,A23KAJRDVCVGOE
154,2.0,right,right,1.0,0.6808,0.0,34.0,34.0,34.0,1.0,BOBOLINK_5.jpg,ECUADORIAN_HILLSTAR_5.jpg,A23KAJRDVCVGOE
155,2.0,right,right,1.0,0.6274,0.0,35.0,35.0,35.0,1.0,RAZORBILL_1.jpg,CHUKAR_PARTRIDGE_5.jpg,A23KAJRDVCVGOE
156,2.0,left,right,0.0,0.6435,0.0,36.0,36.0,36.0,1.0,CASPIAN_TERN_1.jpg,EUROPEAN_GOLDFINCH_4.jpg,A23KAJRDVCVGOE
157,2.0,left,right,0.0,0.5458,0.0,37.0,37.0,37.0,1.0,IVORY_GULL_3.jpg,FLAME_TANAGER_3.jpg,A23KAJRDVCVGOE
158,2.0,left,left,1.0,0.7623,0.0,38.0,38.0,38.0,1.0,WHITE_CHEEKED_TURACO_5.jpg,GREAT_POTOO_3.jpg,A23KAJRDVCVGOE
159,3.0,right,left,0.0,0.6006,0.0,39.0,39.0,39.0,1.0,CANARY_1.jpg,CRESTED_NUTHATCH_2.jpg,A23KAJRDVCVGOE
160,1.0,right,right,1.0,0.7224,0.0,40.0,40.0,40.0,1.0,PEACOCK_1.jpg,LARK_BUNTING_2.jpg,A23KAJRDVCVGOE
161,2.0,left,right,0.0,0.6305,0.0,41.0,41.0,41.0,1.0,GYRFALCON_1.jpg,CINNAMON_ATTILA_2.jpg,A23KAJRDVCVGOE
162,2.0,right,left,0.0,0.7151,0.0,42.0,42.0,42.0,1.0,STRAWBERRY_FINCH_4.jpg,PEACOCK_3.jpg,A23KAJRDVCVGOE
163,3.0,left,left,1.0,0.592,0.0,43.0,43.0,43.0,1.0,MALACHITE_KINGFISHER_2.jpg,GREEN_BROADBILL_5.jpg,A23KAJRDVCVGOE
164,3.0,right,left,0.0,0.6843,0.0,44.0,44.0,44.0,1.0,WATTLED_LAPWING_3.jpg,HAWAIIAN_GOOSE_4.jpg,A23KAJRDVCVGOE
165,3.0,left,left,1.0,1.0394,0.0,45.0,45.0,45.0,1.0,PARUS_MAJOR_1.jpg,PINK_ROBIN_3.jpg,A23KAJRDVCVGOE
166,3.0,left,right,0.0,0.7959,0.0,46.0,46.0,46.0,1.0,GOLDEN_CHLOROPHONIA_5.jpg,VERMILION_FLYCATHER_5.jpg,A23KAJRDVCVGOE
167,1.0,left,left,1.0,1.2331,0.0,47.0,47.0,47.0,1.0,INDIGO_BUNTING_1.jpg,FRIGATE_4.jpg,A23KAJRDVCVGOE
168,3.0,left,left,1.0,0.5915,0.0,48.0,48.0,48.0,1.0,PYGMY_KINGFISHER_5.jpg,DOUBLE_EYED_FIG_PARROT_4.jpg,A23KAJRDVCVGOE
169,2.0,right,right,1.0,1.2316,0.0,49.0,49.0,49.0,1.0,CRAB_PLOVER_3.jpg,NORTHERN_JACANA_3.jpg,A23KAJRDVCVGOE
170,3.0,left,right,0.0,1.216,0.0,50.0,50.0,50.0,1.0,CERULEAN_WARBLER_1.jpg,BANANAQUIT_1.jpg,A23KAJRDVCVGOE
171,2.0,right,left,0.0,0.763,0.0,51.0,51.0,51.0,1.0,PURPLE_FINCH_2.jpg,BALI_STARLING_1.jpg,A23KAJRDVCVGOE
172,3.0,left,left,1.0,0.6343,0.0,52.0,52.0,52.0,1.0,TASMANIAN_HEN_5.jpg,COPPERY_TAILED_COUCAL_1.jpg,A23KAJRDVCVGOE
173,3.0,right,right,1.0,1.0467,0.0,53.0,53.0,53.0,1.0,MALABAR_HORNBILL_2.jpg,EUROPEAN_TURTLE_DOVE_3.jpg,A23KAJRDVCVGOE
174,2.0,right,right,1.0,1.2799,0.0,54.0,54.0,54.0,1.0,EURASIAN_MAGPIE_4.jpg,DOUBLE_BRESTED_CORMARANT_5.jpg,A23KAJRDVCVGOE
175,3.0,right,left,0.0,0.7757,0.0,55.0,55.0,55.0,1.0,AFRICAN_OYSTER_CATCHER_2.jpg,CASSOWARY_1.jpg,A23KAJRDVCVGOE
176,3.0,left,left,1.0,1.4802,0.0,56.0,56.0,56.0,1.0,LESSER_ADJUTANT_4.jpg,FAIRY_TERN_3.jpg,A23KAJRDVCVGOE
177,3.0,left,left,1.0,0.8813,0.0,57.0,57.0,57.0,1.0,BROWN_NOODY_3.jpg,GUINEA_TURACO_5.jpg,A23KAJRDVCVGOE
178,1.0,right,right,1.0,1.1174,0.0,58.0,58.0,58.0,1.0,MYNA_4.jpg,OVENBIRD_5.jpg,A23KAJRDVCVGOE
179,1.0,right,right,1.0,1.2017,0.0,59.0,59.0,59.0,1.0,BANANAQUIT_2.jpg,RUBY_THROATED_HUMMINGBIRD_1.jpg,A23KAJRDVCVGOE
180,3.0,right,left,0.0,2.153,0.0,0.0,0.0,0.0,1.0,CHATTERING_LORY_2.jpg,PEACOCK_3.jpg,A2541C8MY0BYV3
181,2.0,left,left,1.0,1.612,0.0,1.0,1.0,1.0,1.0,FLAME_BOWERBIRD_3.jpg,BROWN_THRASHER_4.jpg,A2541C8MY0BYV3
182,1.0,right,right,1.0,1.159,0.0,2.0,2.0,2.0,1.0,CHIPPING_SPARROW_1.jpg,OCELLATED_TURKEY_1.jpg,A2541C8MY0BYV3
183,3.0,left,right,0.0,0.848,0.0,3.0,3.0,3.0,1.0,RUFOUS_KINGFISHER_1.jpg,HORNED_SUNGEM_4.jpg,A2541C8MY0BYV3
184,3.0,left,right,0.0,0.919,0.0,4.0,4.0,4.0,1.0,MAGPIE_GOOSE_5.jpg,OYSTER_CATCHER_3.jpg,A2541C8MY0BYV3
185,2.0,left,left,1.0,1.071,0.0,5.0,5.0,5.0,1.0,LARK_BUNTING_2.jpg,KING_VULTURE_3.jpg,A2541C8MY0BYV3
186,2.0,left,left,1.0,0.845,0.0,6.0,6.0,6.0,1.0,BROWN_THRASHER_3.jpg,OYSTER_CATCHER_4.jpg,A2541C8MY0BYV3
187,3.0,right,left,0.0,1.667,0.0,7.0,7.0,7.0,1.0,BALD_EAGLE_5.jpg,SHOEBILL_3.jpg,A2541C8MY0BYV3
188,3.0,left,left,1.0,1.194,0.0,8.0,8.0,8.0,1.0,BROWN_NOODY_3.jpg,GUINEA_TURACO_5.jpg,A2541C8MY0BYV3
189,1.0,right,right,1.0,0.831,0.0,9.0,9.0,9.0,1.0,TEAL_DUCK_2.jpg,EUROPEAN_TURTLE_DOVE_3.jpg,A2541C8MY0BYV3
190,1.0,left,right,0.0,1.128,0.0,10.0,10.0,10.0,1.0,NORTHERN_JACANA_3.jpg,AMERICAN_GOLDFINCH_4.jpg,A2541C8MY0BYV3
191,1.0,left,left,1.0,0.835,0.0,11.0,11.0,11.0,1.0,ARARIPE_MANAKIN_4.jpg,KIWI_3.jpg,A2541C8MY0BYV3
192,2.0,left,left,1.0,1.423,0.0,12.0,12.0,12.0,1.0,OVENBIRD_5.jpg,FAIRY_PENGUIN_1.jpg,A2541C8MY0BYV3
193,2.0,left,right,0.0,1.112,0.0,13.0,13.0,13.0,1.0,STRIPPED_SWALLOW_1.jpg,MAGPIE_GOOSE_4.jpg,A2541C8MY0BYV3
194,3.0,left,right,0.0,1.066,0.0,14.0,14.0,14.0,1.0,EASTERN_TOWEE_2.jpg,NORTHERN_BEARDLESS_TYRANNULET_5.jpg,A2541C8MY0BYV3
195,2.0,left,right,0.0,0.853,0.0,15.0,15.0,15.0,1.0,RUBY_THROATED_HUMMINGBIRD_1.jpg,VULTURINE_GUINEAFOWL_4.jpg,A2541C8MY0BYV3
196,3.0,right,right,1.0,0.826,0.0,16.0,16.0,16.0,1.0,DOUBLE_EYED_FIG_PARROT_4.jpg,PYGMY_KINGFISHER_5.jpg,A2541C8MY0BYV3
197,2.0,right,right,1.0,0.973,0.0,17.0,17.0,17.0,1.0,ASHY_STORM_PETREL_1.jpg,KAGU_5.jpg,A2541C8MY0BYV3
198,3.0,right,right,1.0,0.709,0.0,18.0,18.0,18.0,1.0,BORNEAN_LEAFBIRD_1.jpg,SCARLET_TANAGER_2.jpg,A2541C8MY0BYV3
199,2.0,left,right,0.0,1.013,0.0,19.0,19.0,19.0,1.0,LESSER_ADJUTANT_4.jpg,RAINBOW_LORIKEET_5.jpg,A2541C8MY0BYV3
200,1.0,left,right,0.0,0.869,0.0,20.0,20.0,20.0,1.0,DOUBLE_BRESTED_CORMARANT_5.jpg,GILDED_FLICKER_2.jpg,A2541C8MY0BYV3
201,3.0,right,left,0.0,0.882,0.0,21.0,21.0,21.0,1.0,CANARY_1.jpg,CRESTED_NUTHATCH_2.jpg,A2541C8MY0BYV3
202,3.0,left,right,0.0,1.411,0.0,22.0,22.0,22.0,1.0,INDIGO_BUNTING_1.jpg,DARWINS_FLYCATCHER_2.jpg,A2541C8MY0BYV3
203,1.0,right,left,0.0,1.037,0.0,23.0,23.0,23.0,1.0,CAPE_LONGCLAW_5.jpg,BALI_STARLING_1.jpg,A2541C8MY0BYV3
204,1.0,right,right,1.0,0.925,0.0,24.0,24.0,24.0,1.0,SCARLET_IBIS_2.jpg,ECUADORIAN_HILLSTAR_5.jpg,A2541C8MY0BYV3
205,1.0,right,right,1.0,0.95,0.0,25.0,25.0,25.0,1.0,OSTRICH_3.jpg,MYNA_1.jpg,A2541C8MY0BYV3
206,3.0,right,left,0.0,0.951,0.0,26.0,26.0,26.0,1.0,BEARDED_BELLBIRD_1.jpg,LITTLE_AUK_5.jpg,A2541C8MY0BYV3
207,2.0,left,left,1.0,0.889,0.0,27.0,27.0,27.0,1.0,VERMILION_FLYCATHER_3.jpg,CALIFORNIA_GULL_1.jpg,A2541C8MY0BYV3
208,2.0,right,left,0.0,1.071,0.0,28.0,28.0,28.0,1.0,GOLDEN_CHEEKED_WARBLER_3.jpg,BREWERS_BLACKBIRD_3.jpg,A2541C8MY0BYV3
209,2.0,right,right,1.0,1.022,0.0,29.0,29.0,29.0,1.0,EASTERN_GOLDEN_WEAVER_5.jpg,IVORY_GULL_1.jpg,A2541C8MY0BYV3
210,1.0,right,right,1.0,1.238,0.0,30.0,30.0,30.0,1.0,ELLIOTS__PHEASANT_4.jpg,INCA_TERN_4.jpg,A2541C8MY0BYV3
211,1.0,left,left,1.0,1.175,0.0,31.0,31.0,31.0,1.0,ASIAN_DOLLARD_BIRD_2.jpg,ALBATROSS_2.jpg,A2541C8MY0BYV3
212,3.0,left,left,1.0,1.504,0.0,32.0,32.0,32.0,1.0,CERULEAN_WARBLER_1.jpg,BANANAQUIT_1.jpg,A2541C8MY0BYV3
213,3.0,left,right,0.0,1.204,0.0,33.0,33.0,33.0,1.0,RUBY_THROATED_HUMMINGBIRD_3.jpg,NORTHERN_SHOVELER_1.jpg,A2541C8MY0BYV3
214,2.0,right,right,1.0,1.01,0.0,34.0,34.0,34.0,1.0,RAZORBILL_1.jpg,CHUKAR_PARTRIDGE_5.jpg,A2541C8MY0BYV3
215,3.0,right,left,0.0,0.819,0.0,35.0,35.0,35.0,1.0,COPPERY_TAILED_COUCAL_1.jpg,TASMANIAN_HEN_5.jpg,A2541C8MY0BYV3
216,1.0,right,right,1.0,0.972,0.0,36.0,36.0,36.0,1.0,SPOONBILL_3.jpg,PINK_ROBIN_4.jpg,A2541C8MY0BYV3
217,1.0,left,left,1.0,0.714,0.0,37.0,37.0,37.0,1.0,ALPINE_CHOUGH_4.jpg,SNOWY_EGRET_2.jpg,A2541C8MY0BYV3
218,2.0,right,left,0.0,0.903,0.0,38.0,38.0,38.0,1.0,COCK_OF_THE__ROCK_4.jpg,GRAY_KINGBIRD_5.jpg,A2541C8MY0BYV3
219,3.0,left,right,0.0,0.755,0.0,39.0,39.0,39.0,1.0,PARUS_MAJOR_1.jpg,PINK_ROBIN_3.jpg,A2541C8MY0BYV3
220,2.0,right,right,1.0,0.965,0.0,40.0,40.0,40.0,1.0,COMMON_HOUSE_MARTIN_4.jpg,GOLDEN_CHLOROPHONIA_5.jpg,A2541C8MY0BYV3
221,3.0,right,right,1.0,1.292,0.0,41.0,41.0,41.0,1.0,DUSKY_ROBIN_5.jpg,RUBY_THROATED_HUMMINGBIRD_2.jpg,A2541C8MY0BYV3
222,1.0,right,right,1.0,0.868,0.0,42.0,42.0,42.0,1.0,ASHY_STORM_PETREL_2.jpg,RED_HEADED_WOODPECKER_5.jpg,A2541C8MY0BYV3
223,1.0,left,right,0.0,0.923,0.0,43.0,43.0,43.0,1.0,MALACHITE_KINGFISHER_2.jpg,AMERICAN_FLAMINGO_1.jpg,A2541C8MY0BYV3
224,2.0,right,left,0.0,0.798,0.0,44.0,44.0,44.0,1.0,GOULDIAN_FINCH_4.jpg,GREY_PLOVER_1.jpg,A2541C8MY0BYV3
225,1.0,left,left,1.0,0.828,0.0,45.0,45.0,45.0,1.0,GOLDEN_CHEEKED_WARBLER_2.jpg,SPOONBILL_1.jpg,A2541C8MY0BYV3
226,3.0,right,left,0.0,0.931,0.0,46.0,46.0,46.0,1.0,TOUCHAN_4.jpg,CRESTED_CARACARA_4.jpg,A2541C8MY0BYV3
227,3.0,left,left,1.0,0.979,0.0,47.0,47.0,47.0,1.0,ASIAN_CRESTED_IBIS_4.jpg,IVORY_GULL_2.jpg,A2541C8MY0BYV3
228,2.0,left,right,0.0,0.898,0.0,48.0,48.0,48.0,1.0,AMERICAN_PIPIT_5.jpg,GREEN_MAGPIE_1.jpg,A2541C8MY0BYV3
229,3.0,left,left,1.0,0.853,0.0,49.0,49.0,49.0,1.0,KILLDEAR_2.jpg,AZURE_TIT_5.jpg,A2541C8MY0BYV3
230,2.0,left,right,0.0,0.548,0.0,50.0,50.0,50.0,1.0,CASPIAN_TERN_1.jpg,EUROPEAN_GOLDFINCH_4.jpg,A2541C8MY0BYV3
231,1.0,left,left,1.0,0.854,0.0,51.0,51.0,51.0,1.0,GYRFALCON_1.jpg,OSTRICH_1.jpg,A2541C8MY0BYV3
232,2.0,right,left,0.0,1.053,0.0,52.0,52.0,52.0,1.0,HIMALAYAN_MONAL_2.jpg,HAWAIIAN_GOOSE_4.jpg,A2541C8MY0BYV3
233,2.0,left,left,1.0,1.363,0.0,53.0,53.0,53.0,1.0,INLAND_DOTTEREL_4.jpg,NICOBAR_PIGEON_4.jpg,A2541C8MY0BYV3
234,1.0,left,left,1.0,1.446,0.0,54.0,54.0,54.0,1.0,WHITE_CHEEKED_TURACO_5.jpg,NORTHERN_MOCKINGBIRD_4.jpg,A2541C8MY0BYV3
235,3.0,right,left,0.0,0.993,0.0,55.0,55.0,55.0,1.0,AFRICAN_OYSTER_CATCHER_2.jpg,CASSOWARY_1.jpg,A2541C8MY0BYV3
236,1.0,right,left,0.0,1.5,0.0,56.0,56.0,56.0,1.0,POMARINE_JAEGER_5.jpg,SPLENDID_WREN_1.jpg,A2541C8MY0BYV3
237,1.0,right,left,0.0,1.201,0.0,57.0,57.0,57.0,1.0,INDIGO_FLYCATCHER_2.jpg,IVORY_GULL_3.jpg,A2541C8MY0BYV3
238,1.0,right,right,1.0,1.913,0.0,58.0,58.0,58.0,1.0,GREEN_BROADBILL_4.jpg,LESSER_ADJUTANT_5.jpg,A2541C8MY0BYV3
239,2.0,right,left,0.0,1.146,0.0,59.0,59.0,59.0,1.0,ALEXANDRINE_PARAKEET_1.jpg,AFRICAN_PIED_HORNBILL_5.jpg,A2541C8MY0BYV3
240,1.0,left,right,0.0,7.9381,0.0,0.0,0.0,0.0,1.0,RUBY_THROATED_HUMMINGBIRD_2.jpg,GOLDEN_CHLOROPHONIA_2.jpg,A2CZ5PS567SA10
241,3.0,left,right,0.0,1.8232,0.0,1.0,1.0,1.0,1.0,CHUKAR_PARTRIDGE_5.jpg,BLACK_THROATED_BUSHTIT_1.jpg,A2CZ5PS567SA10
242,2.0,left,left,1.0,1.0452,0.0,2.0,2.0,2.0,1.0,ARARIPE_MANAKIN_4.jpg,BLACK_VULTURE_1.jpg,A2CZ5PS567SA10
243,2.0,left,left,1.0,1.262,0.0,3.0,3.0,3.0,1.0,RUBY_THROATED_HUMMINGBIRD_1.jpg,VULTURINE_GUINEAFOWL_4.jpg,A2CZ5PS567SA10
244,1.0,right,right,1.0,0.9195,0.0,4.0,4.0,4.0,1.0,SANDHILL_CRANE_2.jpg,EASTERN_TOWEE_2.jpg,A2CZ5PS567SA10
245,2.0,left,right,0.0,1.2401,0.0,5.0,5.0,5.0,1.0,CRESTED_CARACARA_4.jpg,INDIAN_PITTA_2.jpg,A2CZ5PS567SA10
246,3.0,right,left,0.0,1.324,0.0,6.0,6.0,6.0,1.0,FAIRY_TERN_1.jpg,GYRFALCON_1.jpg,A2CZ5PS567SA10
247,1.0,right,right,1.0,0.8247,0.0,7.0,7.0,7.0,1.0,BEARDED_BARBET_2.jpg,SCARLET_TANAGER_2.jpg,A2CZ5PS567SA10
248,3.0,right,left,0.0,1.0079,0.0,8.0,8.0,8.0,1.0,FAIRY_TERN_4.jpg,IVORY_GULL_1.jpg,A2CZ5PS567SA10
249,3.0,right,right,1.0,0.845,0.0,9.0,9.0,9.0,1.0,CAPUCHINBIRD_2.jpg,AFRICAN_PIED_HORNBILL_5.jpg,A2CZ5PS567SA10
250,1.0,left,left,1.0,1.0225,0.0,10.0,10.0,10.0,1.0,MALACHITE_KINGFISHER_2.jpg,AMERICAN_FLAMINGO_1.jpg,A2CZ5PS567SA10
251,1.0,left,left,1.0,1.1967,0.0,11.0,11.0,11.0,1.0,GRAY_KINGBIRD_5.jpg,BALD_EAGLE_2.jpg,A2CZ5PS567SA10
252,1.0,left,left,1.0,1.2287,0.0,12.0,12.0,12.0,1.0,GOLDEN_CHEEKED_WARBLER_2.jpg,SPOONBILL_1.jpg,A2CZ5PS567SA10
253,1.0,right,left,0.0,1.1475,0.0,13.0,13.0,13.0,1.0,MYNA_4.jpg,OVENBIRD_5.jpg,A2CZ5PS567SA10
254,3.0,right,right,1.0,0.7138,0.0,14.0,14.0,14.0,1.0,AZURE_TIT_5.jpg,KILLDEAR_2.jpg,A2CZ5PS567SA10
255,1.0,right,right,1.0,1.1153,0.0,15.0,15.0,15.0,1.0,GREAT_GRAY_OWL_4.jpg,CASPIAN_TERN_1.jpg,A2CZ5PS567SA10
256,3.0,left,left,1.0,0.8101,0.0,16.0,16.0,16.0,1.0,GOLDEN_CHLOROPHONIA_5.jpg,VERMILION_FLYCATHER_5.jpg,A2CZ5PS567SA10
257,2.0,left,left,1.0,0.9919,0.0,17.0,17.0,17.0,1.0,LESSER_ADJUTANT_5.jpg,GAMBELS_QUAIL_1.jpg,A2CZ5PS567SA10
258,3.0,left,right,0.0,1.1667,0.0,18.0,18.0,18.0,1.0,NORTHERN_JACANA_3.jpg,SCARLET_IBIS_4.jpg,A2CZ5PS567SA10
259,3.0,left,right,0.0,0.9032,0.0,19.0,19.0,19.0,1.0,LITTLE_AUK_5.jpg,BEARDED_BELLBIRD_1.jpg,A2CZ5PS567SA10
260,3.0,right,right,1.0,1.0647,0.0,20.0,20.0,20.0,1.0,CUBAN_TODY_4.jpg,SPLENDID_WREN_1.jpg,A2CZ5PS567SA10
261,1.0,right,right,1.0,0.9717,0.0,21.0,21.0,21.0,1.0,CAPE_LONGCLAW_5.jpg,BALI_STARLING_1.jpg,A2CZ5PS567SA10
262,3.0,right,right,1.0,1.1995,0.0,22.0,22.0,22.0,1.0,NORTHERN_SHOVELER_1.jpg,RUBY_THROATED_HUMMINGBIRD_3.jpg,A2CZ5PS567SA10
263,3.0,left,left,1.0,1.0397,0.0,23.0,23.0,23.0,1.0,PINK_ROBIN_4.jpg,COMMON_IORA_4.jpg,A2CZ5PS567SA10
264,1.0,right,right,1.0,0.7949,0.0,24.0,24.0,24.0,1.0,OSTRICH_3.jpg,MYNA_1.jpg,A2CZ5PS567SA10
265,2.0,right,right,1.0,0.9828,0.0,25.0,25.0,25.0,1.0,GREAT_POTOO_3.jpg,WHITE_CHEEKED_TURACO_5.jpg,A2CZ5PS567SA10
266,2.0,left,right,0.0,0.8461,0.0,26.0,26.0,26.0,1.0,BROWN_THRASHER_3.jpg,OYSTER_CATCHER_4.jpg,A2CZ5PS567SA10
267,1.0,right,right,1.0,2.6053,0.0,27.0,27.0,27.0,1.0,ALBATROSS_2.jpg,ASIAN_DOLLARD_BIRD_2.jpg,A2CZ5PS567SA10
268,3.0,right,left,0.0,1.7908,0.0,28.0,28.0,28.0,1.0,FAIRY_TERN_3.jpg,LESSER_ADJUTANT_4.jpg,A2CZ5PS567SA10
269,2.0,right,left,0.0,1.0678,0.0,29.0,29.0,29.0,1.0,MAGPIE_GOOSE_3.jpg,RUFOUS_KINGFISHER_1.jpg,A2CZ5PS567SA10
270,1.0,left,left,1.0,0.9712,0.0,30.0,30.0,30.0,1.0,PYGMY_KINGFISHER_5.jpg,GRANDALA_2.jpg,A2CZ5PS567SA10
271,2.0,right,right,1.0,1.0443,0.0,31.0,31.0,31.0,1.0,MAGPIE_GOOSE_4.jpg,STRIPPED_SWALLOW_1.jpg,A2CZ5PS567SA10
272,2.0,right,right,1.0,1.3781,0.0,32.0,32.0,32.0,1.0,FLAME_TANAGER_3.jpg,IVORY_GULL_3.jpg,A2CZ5PS567SA10
273,2.0,right,right,1.0,0.8756,0.0,33.0,33.0,33.0,1.0,NICOBAR_PIGEON_4.jpg,INLAND_DOTTEREL_4.jpg,A2CZ5PS567SA10
274,2.0,left,left,1.0,1.1592,0.0,34.0,34.0,34.0,1.0,CASSOWARY_1.jpg,SCARLET_MACAW_1.jpg,A2CZ5PS567SA10
275,3.0,left,right,0.0,1.0641,0.0,35.0,35.0,35.0,1.0,KAGU_5.jpg,DEMOISELLE_CRANE_1.jpg,A2CZ5PS567SA10
276,3.0,right,right,1.0,0.9768,0.0,36.0,36.0,36.0,1.0,HEPATIC_TANAGER_5.jpg,AMERICAN_PIPIT_5.jpg,A2CZ5PS567SA10
277,3.0,right,right,1.0,0.9788,0.0,37.0,37.0,37.0,1.0,COLLARED_ARACARI_1.jpg,RED_HEADED_WOODPECKER_5.jpg,A2CZ5PS567SA10
278,2.0,left,right,0.0,0.9748,0.0,38.0,38.0,38.0,1.0,OCELLATED_TURKEY_1.jpg,AMERICAN_PIPIT_1.jpg,A2CZ5PS567SA10
279,1.0,right,right,1.0,0.7792,0.0,39.0,39.0,39.0,1.0,CUBAN_TODY_3.jpg,HAWAIIAN_GOOSE_4.jpg,A2CZ5PS567SA10
280,2.0,right,right,1.0,1.1906,0.0,40.0,40.0,40.0,1.0,CALIFORNIA_GULL_2.jpg,PARUS_MAJOR_1.jpg,A2CZ5PS567SA10
281,2.0,left,right,0.0,1.2752,0.0,41.0,41.0,41.0,1.0,ASIAN_CRESTED_IBIS_4.jpg,OYSTER_CATCHER_2.jpg,A2CZ5PS567SA10
282,2.0,right,left,0.0,1.2736,0.0,42.0,42.0,42.0,1.0,SMITHS_LONGSPUR_5.jpg,INCA_TERN_4.jpg,A2CZ5PS567SA10
283,3.0,right,left,0.0,0.6898,0.0,43.0,43.0,43.0,1.0,COPPERY_TAILED_COUCAL_1.jpg,TASMANIAN_HEN_5.jpg,A2CZ5PS567SA10
284,2.0,left,right,0.0,0.8258,0.0,44.0,44.0,44.0,1.0,SHOEBILL_3.jpg,GILDED_FLICKER_5.jpg,A2CZ5PS567SA10
285,1.0,right,right,1.0,0.8591,0.0,45.0,45.0,45.0,1.0,DOUBLE_EYED_FIG_PARROT_5.jpg,MAGPIE_GOOSE_5.jpg,A2CZ5PS567SA10
286,2.0,left,left,1.0,0.9046,0.0,46.0,46.0,46.0,1.0,BREWERS_BLACKBIRD_3.jpg,GOLDEN_CHEEKED_WARBLER_3.jpg,A2CZ5PS567SA10
287,2.0,left,left,1.0,0.9327,0.0,47.0,47.0,47.0,1.0,EUROPEAN_TURTLE_DOVE_3.jpg,PAINTED_BUNTING_3.jpg,A2CZ5PS567SA10
288,1.0,right,right,1.0,0.6581,0.0,48.0,48.0,48.0,1.0,SCARLET_IBIS_2.jpg,ECUADORIAN_HILLSTAR_5.jpg,A2CZ5PS567SA10
289,3.0,right,right,1.0,0.7632,0.0,49.0,49.0,49.0,1.0,BANANAQUIT_1.jpg,CERULEAN_WARBLER_1.jpg,A2CZ5PS567SA10
290,1.0,left,left,1.0,0.791,0.0,50.0,50.0,50.0,1.0,GREY_PLOVER_1.jpg,HYACINTH_MACAW_3.jpg,A2CZ5PS567SA10
291,1.0,left,left,1.0,0.8754,0.0,51.0,51.0,51.0,1.0,PEACOCK_3.jpg,ANIANIAU_2.jpg,A2CZ5PS567SA10
292,3.0,right,right,1.0,0.7671,0.0,52.0,52.0,52.0,1.0,CHINESE_POND_HERON_2.jpg,DOUBLE_BRESTED_CORMARANT_5.jpg,A2CZ5PS567SA10
293,1.0,right,right,1.0,1.1211,0.0,53.0,53.0,53.0,1.0,SNOWY_EGRET_2.jpg,ALPINE_CHOUGH_4.jpg,A2CZ5PS567SA10
294,3.0,right,right,1.0,0.7755,0.0,54.0,54.0,54.0,1.0,DARWINS_FLYCATCHER_2.jpg,INDIGO_BUNTING_1.jpg,A2CZ5PS567SA10
295,1.0,left,left,1.0,0.8427,0.0,55.0,55.0,55.0,1.0,CRESTED_NUTHATCH_2.jpg,SCARLET_IBIS_3.jpg,A2CZ5PS567SA10
296,3.0,left,right,0.0,0.9471,0.0,56.0,56.0,56.0,1.0,LARK_BUNTING_2.jpg,CACTUS_WREN_3.jpg,A2CZ5PS567SA10
297,2.0,right,right,1.0,0.9253,0.0,57.0,57.0,57.0,1.0,SPANGLED_COTINGA_4.jpg,BROWN_NOODY_3.jpg,A2CZ5PS567SA10
298,1.0,left,right,0.0,0.7606,0.0,58.0,58.0,58.0,1.0,VERMILION_FLYCATHER_3.jpg,INDIAN_BUSTARD_1.jpg,A2CZ5PS567SA10
299,2.0,left,right,0.0,0.7308,0.0,59.0,59.0,59.0,1.0,FLAME_BOWERBIRD_3.jpg,BROWN_THRASHER_4.jpg,A2CZ5PS567SA10
300,3.0,left,right,0.0,5.4657,0.0,0.0,0.0,0.0,1.0,GRAY_KINGBIRD_5.jpg,AFRICAN_FIREFINCH_3.jpg,A2DX27FIUVZYB5
301,2.0,left,left,1.0,3.706,0.0,1.0,1.0,1.0,1.0,VERMILION_FLYCATHER_3.jpg,CALIFORNIA_GULL_1.jpg,A2DX27FIUVZYB5
302,1.0,left,right,0.0,1.939,0.0,2.0,2.0,2.0,1.0,GOLDEN_CHEEKED_WARBLER_2.jpg,SPOONBILL_1.jpg,A2DX27FIUVZYB5
303,3.0,left,right,0.0,2.1152,0.0,3.0,3.0,3.0,1.0,ARARIPE_MANAKIN_4.jpg,BORNEAN_LEAFBIRD_3.jpg,A2DX27FIUVZYB5
304,3.0,left,right,0.0,3.5526,0.0,4.0,4.0,4.0,1.0,CRESTED_CARACARA_4.jpg,TOUCHAN_4.jpg,A2DX27FIUVZYB5
305,1.0,right,left,0.0,2.912,0.0,5.0,5.0,5.0,1.0,SPOONBILL_3.jpg,PINK_ROBIN_4.jpg,A2DX27FIUVZYB5
306,2.0,left,left,1.0,3.4554,0.0,6.0,6.0,6.0,1.0,INCA_TERN_4.jpg,SMITHS_LONGSPUR_5.jpg,A2DX27FIUVZYB5
307,1.0,left,right,0.0,1.583,0.0,7.0,7.0,7.0,1.0,EASTERN_TOWEE_2.jpg,SANDHILL_CRANE_2.jpg,A2DX27FIUVZYB5
308,3.0,left,left,1.0,2.6759,0.0,8.0,8.0,8.0,1.0,TASMANIAN_HEN_5.jpg,COPPERY_TAILED_COUCAL_1.jpg,A2DX27FIUVZYB5
309,1.0,right,right,1.0,2.2637,0.0,9.0,9.0,9.0,1.0,DOUBLE_EYED_FIG_PARROT_3.jpg,BROWN_THRASHER_3.jpg,A2DX27FIUVZYB5
310,2.0,left,left,1.0,2.2887,0.0,10.0,10.0,10.0,1.0,INDIGO_BUNTING_1.jpg,NORTHERN_GANNET_1.jpg,A2DX27FIUVZYB5
311,3.0,left,left,1.0,2.2561,0.0,11.0,11.0,11.0,1.0,MALACHITE_KINGFISHER_2.jpg,GREEN_BROADBILL_5.jpg,A2DX27FIUVZYB5
312,2.0,right,left,0.0,3.059,0.0,12.0,12.0,12.0,1.0,EUROPEAN_GOLDFINCH_4.jpg,CASPIAN_TERN_1.jpg,A2DX27FIUVZYB5
313,2.0,right,right,1.0,3.0061,0.0,13.0,13.0,13.0,1.0,AMERICAN_PIPIT_1.jpg,OCELLATED_TURKEY_1.jpg,A2DX27FIUVZYB5
314,3.0,left,left,1.0,2.8446,0.0,14.0,14.0,14.0,1.0,EUROPEAN_TURTLE_DOVE_3.jpg,MALABAR_HORNBILL_2.jpg,A2DX27FIUVZYB5
315,2.0,left,right,0.0,3.195,0.0,15.0,15.0,15.0,1.0,ASIAN_DOLLARD_BIRD_2.jpg,LOGGERHEAD_SHRIKE_4.jpg,A2DX27FIUVZYB5
316,2.0,left,left,1.0,2.3982,0.0,16.0,16.0,16.0,1.0,IVORY_GULL_1.jpg,EASTERN_GOLDEN_WEAVER_5.jpg,A2DX27FIUVZYB5
317,2.0,right,left,0.0,2.84,0.0,17.0,17.0,17.0,1.0,CAATINGA_CACHOLOTE_4.jpg,KILLDEAR_2.jpg,A2DX27FIUVZYB5
318,2.0,left,left,1.0,2.7492,0.0,18.0,18.0,18.0,1.0,PEACOCK_3.jpg,STRAWBERRY_FINCH_4.jpg,A2DX27FIUVZYB5
319,3.0,left,right,0.0,2.0254,0.0,19.0,19.0,19.0,1.0,LARK_BUNTING_2.jpg,CACTUS_WREN_3.jpg,A2DX27FIUVZYB5
320,2.0,left,left,1.0,2.4483,0.0,20.0,20.0,20.0,1.0,RUBY_THROATED_HUMMINGBIRD_2.jpg,APAPANE_4.jpg,A2DX27FIUVZYB5
321,2.0,right,right,1.0,2.2965,0.0,21.0,21.0,21.0,1.0,GOLDEN_CHEEKED_WARBLER_3.jpg,BREWERS_BLACKBIRD_3.jpg,A2DX27FIUVZYB5
322,3.0,right,left,0.0,2.9551,0.0,22.0,22.0,22.0,1.0,DOUBLE_EYED_FIG_PARROT_4.jpg,PYGMY_KINGFISHER_5.jpg,A2DX27FIUVZYB5
323,1.0,right,right,1.0,2.527,0.0,23.0,23.0,23.0,1.0,ALTAMIRA_YELLOWTHROAT_5.jpg,LESSER_ADJUTANT_4.jpg,A2DX27FIUVZYB5
324,1.0,right,left,0.0,2.1608,0.0,24.0,24.0,24.0,1.0,OSTRICH_1.jpg,GYRFALCON_1.jpg,A2DX27FIUVZYB5
325,3.0,right,right,1.0,3.0596,0.0,25.0,25.0,25.0,1.0,FRIGATE_1.jpg,RUBY_THROATED_HUMMINGBIRD_1.jpg,A2DX27FIUVZYB5
326,1.0,right,right,1.0,2.6751,0.0,26.0,26.0,26.0,1.0,ASHY_STORM_PETREL_2.jpg,RED_HEADED_WOODPECKER_5.jpg,A2DX27FIUVZYB5
327,2.0,right,left,0.0,2.0228,0.0,27.0,27.0,27.0,1.0,BROWN_THRASHER_4.jpg,FLAME_BOWERBIRD_3.jpg,A2DX27FIUVZYB5
328,2.0,left,right,0.0,3.0335,0.0,28.0,28.0,28.0,1.0,DOUBLE_BRESTED_CORMARANT_5.jpg,EURASIAN_MAGPIE_4.jpg,A2DX27FIUVZYB5
329,3.0,right,left,0.0,2.0438,0.0,29.0,29.0,29.0,1.0,GO_AWAY_BIRD_5.jpg,STRIPPED_SWALLOW_1.jpg,A2DX27FIUVZYB5
330,3.0,left,left,1.0,2.2406,0.0,30.0,30.0,30.0,1.0,CASSOWARY_1.jpg,AFRICAN_OYSTER_CATCHER_2.jpg,A2DX27FIUVZYB5
331,2.0,left,right,0.0,1.9338,0.0,31.0,31.0,31.0,1.0,WHITE_CHEEKED_TURACO_5.jpg,GREAT_POTOO_3.jpg,A2DX27FIUVZYB5
332,3.0,left,left,1.0,2.5912,0.0,32.0,32.0,32.0,1.0,LITTLE_AUK_5.jpg,BEARDED_BELLBIRD_1.jpg,A2DX27FIUVZYB5
333,2.0,right,right,1.0,1.9927,0.0,33.0,33.0,33.0,1.0,NORTHERN_GANNET_2.jpg,SCARLET_TANAGER_2.jpg,A2DX27FIUVZYB5
334,2.0,left,left,1.0,1.6005,0.0,34.0,34.0,34.0,1.0,CRESTED_NUTHATCH_2.jpg,AFRICAN_FIREFINCH_1.jpg,A2DX27FIUVZYB5
335,1.0,left,right,0.0,2.3877,0.0,35.0,35.0,35.0,1.0,GREY_PLOVER_1.jpg,HYACINTH_MACAW_3.jpg,A2DX27FIUVZYB5
336,3.0,left,left,1.0,1.7512,0.0,36.0,36.0,36.0,1.0,PARUS_MAJOR_1.jpg,PINK_ROBIN_3.jpg,A2DX27FIUVZYB5
337,2.0,left,right,0.0,1.4079,0.0,37.0,37.0,37.0,1.0,INLAND_DOTTEREL_4.jpg,NICOBAR_PIGEON_4.jpg,A2DX27FIUVZYB5
338,3.0,left,left,1.0,1.4765,0.0,38.0,38.0,38.0,1.0,SHOEBILL_3.jpg,BALD_EAGLE_5.jpg,A2DX27FIUVZYB5
339,1.0,right,right,1.0,1.7925,0.0,39.0,39.0,39.0,1.0,SNOWY_OWL_5.jpg,RUFOUS_KINGFISHER_1.jpg,A2DX27FIUVZYB5
340,1.0,left,right,0.0,2.0698,0.0,40.0,40.0,40.0,1.0,KAGU_5.jpg,RED_BEARDED_BEE_EATER_3.jpg,A2DX27FIUVZYB5
341,1.0,left,left,1.0,1.3718,0.0,41.0,41.0,41.0,1.0,AFRICAN_PIED_HORNBILL_5.jpg,KIWI_4.jpg,A2DX27FIUVZYB5
342,1.0,left,right,0.0,2.2221,0.0,42.0,42.0,42.0,1.0,ALPINE_CHOUGH_4.jpg,SNOWY_EGRET_2.jpg,A2DX27FIUVZYB5
343,1.0,right,left,0.0,2.017,0.0,43.0,43.0,43.0,1.0,INDIGO_FLYCATCHER_2.jpg,IVORY_GULL_3.jpg,A2DX27FIUVZYB5
344,1.0,right,right,1.0,3.3478,0.0,44.0,44.0,44.0,1.0,POMARINE_JAEGER_5.jpg,SPLENDID_WREN_1.jpg,A2DX27FIUVZYB5
345,1.0,right,left,0.0,2.6898,0.0,45.0,45.0,45.0,1.0,SCARLET_IBIS_2.jpg,ECUADORIAN_HILLSTAR_5.jpg,A2DX27FIUVZYB5
346,3.0,left,right,0.0,2.8331,0.0,46.0,46.0,46.0,1.0,BALI_STARLING_1.jpg,IBERIAN_MAGPIE_1.jpg,A2DX27FIUVZYB5
347,1.0,left,left,1.0,1.6176,0.0,47.0,47.0,47.0,1.0,MYNA_1.jpg,OSTRICH_3.jpg,A2DX27FIUVZYB5
348,1.0,left,left,1.0,1.3975,0.0,48.0,48.0,48.0,1.0,ASIAN_CRESTED_IBIS_4.jpg,CANARY_2.jpg,A2DX27FIUVZYB5
349,1.0,left,right,0.0,2.4339,0.0,49.0,49.0,49.0,1.0,CHUKAR_PARTRIDGE_5.jpg,OSTRICH_5.jpg,A2DX27FIUVZYB5
350,3.0,left,left,1.0,2.0486,0.0,50.0,50.0,50.0,1.0,MAGPIE_GOOSE_5.jpg,OYSTER_CATCHER_3.jpg,A2DX27FIUVZYB5
351,3.0,right,left,0.0,1.7539,0.0,51.0,51.0,51.0,1.0,HEPATIC_TANAGER_5.jpg,AMERICAN_PIPIT_5.jpg,A2DX27FIUVZYB5
352,2.0,right,right,1.0,2.5294,0.0,52.0,52.0,52.0,1.0,HIMALAYAN_MONAL_2.jpg,HAWAIIAN_GOOSE_4.jpg,A2DX27FIUVZYB5
353,1.0,right,left,0.0,2.1254,0.0,53.0,53.0,53.0,1.0,PEACOCK_2.jpg,BROWN_NOODY_3.jpg,A2DX27FIUVZYB5
354,3.0,right,left,0.0,1.7098,0.0,54.0,54.0,54.0,1.0,RED_HEADED_WOODPECKER_1.jpg,LESSER_ADJUTANT_5.jpg,A2DX27FIUVZYB5
355,2.0,right,left,0.0,1.7191,0.0,55.0,55.0,55.0,1.0,AMERICAN_FLAMINGO_5.jpg,CERULEAN_WARBLER_1.jpg,A2DX27FIUVZYB5
356,3.0,left,right,0.0,1.7314,0.0,56.0,56.0,56.0,1.0,OVENBIRD_5.jpg,SHORT_BILLED_DOWITCHER_5.jpg,A2DX27FIUVZYB5
357,3.0,left,left,1.0,2.1256,0.0,57.0,57.0,57.0,1.0,RUBY_THROATED_HUMMINGBIRD_3.jpg,NORTHERN_SHOVELER_1.jpg,A2DX27FIUVZYB5
358,2.0,left,right,0.0,1.9257,0.0,58.0,58.0,58.0,1.0,NORTHERN_JACANA_3.jpg,CRAB_PLOVER_3.jpg,A2DX27FIUVZYB5
359,1.0,right,left,0.0,3.5173,0.0,59.0,59.0,59.0,1.0,ROADRUNNER_2.jpg,GOLDEN_CHLOROPHONIA_5.jpg,A2DX27FIUVZYB5
360,3.0,left,left,1.0,32.6104,0.0,0.0,0.0,0.0,1.0,NORTHERN_JACANA_3.jpg,SCARLET_IBIS_4.jpg,A2LI71A9ZRA199
361,3.0,right,right,1.0,12.0354,0.0,1.0,1.0,1.0,1.0,QUETZAL_3.jpg,FLAME_BOWERBIRD_3.jpg,A2LI71A9ZRA199
362,2.0,right,right,1.0,2.3871,0.0,2.0,2.0,2.0,1.0,MASKED_BOOBY_5.jpg,PYGMY_KINGFISHER_5.jpg,A2LI71A9ZRA199
363,2.0,right,left,0.0,2.8265,0.0,3.0,3.0,3.0,1.0,SCARLET_MACAW_1.jpg,CASSOWARY_1.jpg,A2LI71A9ZRA199
364,2.0,right,left,0.0,1.9207,0.0,4.0,4.0,4.0,1.0,BOBOLINK_5.jpg,ECUADORIAN_HILLSTAR_5.jpg,A2LI71A9ZRA199
365,3.0,right,right,1.0,2.2196,0.0,5.0,5.0,5.0,1.0,WATTLED_LAPWING_3.jpg,HAWAIIAN_GOOSE_4.jpg,A2LI71A9ZRA199
366,2.0,right,right,1.0,1.6735,0.0,6.0,6.0,6.0,1.0,CALIFORNIA_GULL_1.jpg,VERMILION_FLYCATHER_3.jpg,A2LI71A9ZRA199
367,3.0,left,right,0.0,2.0064,0.0,7.0,7.0,7.0,1.0,MYNA_1.jpg,PARADISE_TANAGER_3.jpg,A2LI71A9ZRA199
368,3.0,left,right,0.0,2.0359,0.0,8.0,8.0,8.0,1.0,AFRICAN_PIED_HORNBILL_5.jpg,CAPUCHINBIRD_2.jpg,A2LI71A9ZRA199
369,1.0,left,right,0.0,1.9596,0.0,9.0,9.0,9.0,1.0,EASTERN_TOWEE_2.jpg,SANDHILL_CRANE_2.jpg,A2LI71A9ZRA199
370,2.0,left,left,1.0,1.4351,0.0,10.0,10.0,10.0,1.0,ARARIPE_MANAKIN_4.jpg,BLACK_VULTURE_1.jpg,A2LI71A9ZRA199
371,2.0,right,right,1.0,10.0153,0.0,11.0,11.0,11.0,1.0,NORTHERN_GANNET_2.jpg,SCARLET_TANAGER_2.jpg,A2LI71A9ZRA199
372,2.0,left,left,1.0,3.4065,0.0,12.0,12.0,12.0,1.0,RED_HEADED_WOODPECKER_5.jpg,CRIMSON_CHAT_3.jpg,A2LI71A9ZRA199
373,3.0,right,left,0.0,1.7202,0.0,13.0,13.0,13.0,1.0,CAPE_LONGCLAW_2.jpg,BREWERS_BLACKBIRD_3.jpg,A2LI71A9ZRA199
374,1.0,left,right,0.0,2.342,0.0,14.0,14.0,14.0,1.0,AMERICAN_PIPIT_5.jpg,EMU_2.jpg,A2LI71A9ZRA199
375,2.0,right,left,0.0,1.9427,0.0,15.0,15.0,15.0,1.0,NICOBAR_PIGEON_4.jpg,INLAND_DOTTEREL_4.jpg,A2LI71A9ZRA199
376,1.0,right,right,1.0,1.2534,0.0,16.0,16.0,16.0,1.0,TEAL_DUCK_2.jpg,EUROPEAN_TURTLE_DOVE_3.jpg,A2LI71A9ZRA199
377,3.0,left,right,0.0,0.7235,0.0,17.0,17.0,17.0,1.0,RUBY_THROATED_HUMMINGBIRD_2.jpg,DUSKY_ROBIN_5.jpg,A2LI71A9ZRA199
378,1.0,right,right,1.0,0.7878,0.0,18.0,18.0,18.0,1.0,SPOONBILL_3.jpg,PINK_ROBIN_4.jpg,A2LI71A9ZRA199
379,2.0,right,right,1.0,1.597,0.0,19.0,19.0,19.0,1.0,ASHY_STORM_PETREL_1.jpg,KAGU_5.jpg,A2LI71A9ZRA199
380,3.0,right,left,0.0,1.1806,0.0,20.0,20.0,20.0,1.0,PINK_ROBIN_3.jpg,PARUS_MAJOR_1.jpg,A2LI71A9ZRA199
381,3.0,left,right,0.0,2.431,0.0,21.0,21.0,21.0,1.0,ASIAN_CRESTED_IBIS_4.jpg,IVORY_GULL_2.jpg,A2LI71A9ZRA199
382,2.0,right,left,0.0,1.8227,0.0,22.0,22.0,22.0,1.0,EUROPEAN_GOLDFINCH_3.jpg,ALPINE_CHOUGH_4.jpg,A2LI71A9ZRA199
383,2.0,right,left,0.0,2.6557,0.0,23.0,23.0,23.0,1.0,SPANGLED_COTINGA_4.jpg,BROWN_NOODY_3.jpg,A2LI71A9ZRA199
384,1.0,left,right,0.0,2.1977,0.0,24.0,24.0,24.0,1.0,KILLDEAR_2.jpg,PEACOCK_5.jpg,A2LI71A9ZRA199
385,3.0,left,right,0.0,1.3332,0.0,25.0,25.0,25.0,1.0,DOUBLE_BRESTED_CORMARANT_5.jpg,CHINESE_POND_HERON_2.jpg,A2LI71A9ZRA199
386,1.0,right,left,0.0,3.1828,0.0,26.0,26.0,26.0,1.0,EASTERN_MEADOWLARK_1.jpg,SHOEBILL_3.jpg,A2LI71A9ZRA199
387,1.0,right,left,0.0,6.8729,0.0,27.0,27.0,27.0,1.0,ALTAMIRA_YELLOWTHROAT_5.jpg,LESSER_ADJUTANT_4.jpg,A2LI71A9ZRA199
388,1.0,left,right,0.0,2.3305,0.0,28.0,28.0,28.0,1.0,RUBY_THROATED_HUMMINGBIRD_3.jpg,MALAGASY_WHITE_EYE_2.jpg,A2LI71A9ZRA199
389,1.0,left,left,1.0,1.9881,0.0,29.0,29.0,29.0,1.0,LITTLE_AUK_5.jpg,SANDHILL_CRANE_3.jpg,A2LI71A9ZRA199
390,2.0,right,right,1.0,2.3652,0.0,30.0,30.0,30.0,1.0,AFRICAN_FIREFINCH_1.jpg,CRESTED_NUTHATCH_2.jpg,A2LI71A9ZRA199
391,2.0,right,right,1.0,2.6743,0.0,31.0,31.0,31.0,1.0,NORTHERN_GANNET_1.jpg,INDIGO_BUNTING_1.jpg,A2LI71A9ZRA199
392,3.0,left,left,1.0,2.2319,0.0,32.0,32.0,32.0,1.0,LESSER_ADJUTANT_5.jpg,RED_HEADED_WOODPECKER_1.jpg,A2LI71A9ZRA199
393,1.0,left,left,1.0,1.5793,0.0,33.0,33.0,33.0,1.0,ASIAN_DOLLARD_BIRD_2.jpg,ALBATROSS_2.jpg,A2LI71A9ZRA199
394,3.0,right,left,0.0,26.2474,0.0,34.0,34.0,34.0,1.0,OYSTER_CATCHER_3.jpg,MAGPIE_GOOSE_5.jpg,A2LI71A9ZRA199
395,1.0,right,left,0.0,1.5232,0.0,35.0,35.0,35.0,1.0,INDIGO_FLYCATCHER_2.jpg,IVORY_GULL_3.jpg,A2LI71A9ZRA199
396,1.0,right,right,1.0,1.4766,0.0,36.0,36.0,36.0,1.0,SNOWY_OWL_5.jpg,RUFOUS_KINGFISHER_1.jpg,A2LI71A9ZRA199
397,3.0,right,left,0.0,1.6818,0.0,37.0,37.0,37.0,1.0,AFRICAN_FIREFINCH_3.jpg,GRAY_KINGBIRD_5.jpg,A2LI71A9ZRA199
398,2.0,right,right,1.0,1.6939,0.0,38.0,38.0,38.0,1.0,GOULDIAN_FINCH_4.jpg,GREY_PLOVER_1.jpg,A2LI71A9ZRA199
399,1.0,right,right,1.0,1.4096,0.0,39.0,39.0,39.0,1.0,ROADRUNNER_2.jpg,GOLDEN_CHLOROPHONIA_5.jpg,A2LI71A9ZRA199
400,2.0,right,right,1.0,1.8984,0.0,40.0,40.0,40.0,1.0,SMITHS_LONGSPUR_5.jpg,INCA_TERN_4.jpg,A2LI71A9ZRA199
401,1.0,right,left,0.0,20.6158,0.0,41.0,41.0,41.0,1.0,OSTRICH_5.jpg,CHUKAR_PARTRIDGE_5.jpg,A2LI71A9ZRA199
402,3.0,left,left,1.0,6.8844,0.0,42.0,42.0,42.0,1.0,BALI_STARLING_1.jpg,IBERIAN_MAGPIE_1.jpg,A2LI71A9ZRA199
403,3.0,right,left,0.0,1.9793,0.0,43.0,43.0,43.0,1.0,COPPERY_TAILED_COUCAL_1.jpg,TASMANIAN_HEN_5.jpg,A2LI71A9ZRA199
404,3.0,right,right,1.0,2.0791,0.0,44.0,44.0,44.0,1.0,FAIRY_TERN_4.jpg,IVORY_GULL_1.jpg,A2LI71A9ZRA199
405,1.0,left,left,1.0,1.5788,0.0,45.0,45.0,45.0,1.0,LARK_BUNTING_2.jpg,PEACOCK_1.jpg,A2LI71A9ZRA199
406,2.0,left,right,0.0,1.9836,0.0,46.0,46.0,46.0,1.0,GOLDEN_CHEEKED_WARBLER_2.jpg,HOUSE_FINCH_2.jpg,A2LI71A9ZRA199
407,3.0,left,right,0.0,1.697,0.0,47.0,47.0,47.0,1.0,WHITE_CHEEKED_TURACO_5.jpg,PYGMY_KINGFISHER_2.jpg,A2LI71A9ZRA199
408,1.0,left,left,1.0,1.7407,0.0,48.0,48.0,48.0,1.0,STRIPPED_SWALLOW_1.jpg,DOUBLE_BRESTED_CORMARANT_4.jpg,A2LI71A9ZRA199
409,2.0,left,left,1.0,0.8729,0.0,49.0,49.0,49.0,1.0,CASPIAN_TERN_1.jpg,EUROPEAN_GOLDFINCH_4.jpg,A2LI71A9ZRA199
410,3.0,right,left,0.0,0.7705,0.0,50.0,50.0,50.0,1.0,BLACK_BAZA_4.jpg,BROWN_THRASHER_3.jpg,A2LI71A9ZRA199
411,2.0,right,right,1.0,1.1137,0.0,51.0,51.0,51.0,1.0,AMERICAN_PIPIT_1.jpg,OCELLATED_TURKEY_1.jpg,A2LI71A9ZRA199
412,1.0,left,right,0.0,0.8543,0.0,52.0,52.0,52.0,1.0,MALACHITE_KINGFISHER_2.jpg,AMERICAN_FLAMINGO_1.jpg,A2LI71A9ZRA199
413,1.0,left,right,0.0,1.1361,0.0,53.0,53.0,53.0,1.0,CERULEAN_WARBLER_1.jpg,AMERICAN_FLAMINGO_2.jpg,A2LI71A9ZRA199
414,3.0,right,right,1.0,0.9256,0.0,54.0,54.0,54.0,1.0,CHATTERING_LORY_2.jpg,PEACOCK_3.jpg,A2LI71A9ZRA199
415,2.0,left,left,1.0,1.1071,0.0,55.0,55.0,55.0,1.0,GYRFALCON_1.jpg,CINNAMON_ATTILA_2.jpg,A2LI71A9ZRA199
416,1.0,left,right,0.0,0.7409,0.0,56.0,56.0,56.0,1.0,RUBY_THROATED_HUMMINGBIRD_1.jpg,BANANAQUIT_2.jpg,A2LI71A9ZRA199
417,1.0,right,left,0.0,0.6867,0.0,57.0,57.0,57.0,1.0,FAIRY_PENGUIN_5.jpg,CRESTED_CARACARA_4.jpg,A2LI71A9ZRA199
418,3.0,right,left,0.0,0.6838,0.0,58.0,58.0,58.0,1.0,CUBAN_TODY_4.jpg,SPLENDID_WREN_1.jpg,A2LI71A9ZRA199
419,2.0,right,right,1.0,1.2101,0.0,59.0,59.0,59.0,1.0,FAIRY_PENGUIN_1.jpg,OVENBIRD_5.jpg,A2LI71A9ZRA199
420,3.0,left,right,0.0,3.0707,0.0,0.0,0.0,0.0,1.0,CRESTED_CARACARA_4.jpg,TOUCHAN_4.jpg,A2OT9ZJC4MQBS8
421,2.0,left,left,1.0,2.2347,0.0,1.0,1.0,1.0,1.0,BROWN_THRASHER_3.jpg,OYSTER_CATCHER_4.jpg,A2OT9ZJC4MQBS8
422,3.0,right,left,0.0,2.480900001,0.0,2.0,2.0,2.0,1.0,WHITE_THROATED_BEE_EATER_1.jpg,GOLDEN_CHEEKED_WARBLER_2.jpg,A2OT9ZJC4MQBS8
423,2.0,right,right,1.0,1.776900001,0.0,3.0,3.0,3.0,1.0,HAMERKOP_1.jpg,MAGPIE_GOOSE_5.jpg,A2OT9ZJC4MQBS8
424,3.0,right,right,1.0,1.6377,0.0,4.0,4.0,4.0,1.0,NORTHERN_BEARDLESS_TYRANNULET_5.jpg,EASTERN_TOWEE_2.jpg,A2OT9ZJC4MQBS8
425,1.0,left,left,1.0,2.115400001,0.0,5.0,5.0,5.0,1.0,SPLENDID_WREN_1.jpg,POMARINE_JAEGER_5.jpg,A2OT9ZJC4MQBS8
426,2.0,right,right,1.0,1.670900001,0.0,6.0,6.0,6.0,1.0,LOGGERHEAD_SHRIKE_4.jpg,ASIAN_DOLLARD_BIRD_2.jpg,A2OT9ZJC4MQBS8
427,2.0,right,right,1.0,1.8363,0.0,7.0,7.0,7.0,1.0,FAIRY_PENGUIN_1.jpg,OVENBIRD_5.jpg,A2OT9ZJC4MQBS8
428,3.0,left,left,1.0,1.688799999,0.0,8.0,8.0,8.0,1.0,GRAY_KINGBIRD_5.jpg,AFRICAN_FIREFINCH_3.jpg,A2OT9ZJC4MQBS8
429,3.0,left,right,0.0,2.3503,0.0,9.0,9.0,9.0,1.0,IVORY_GULL_3.jpg,SNOWY_EGRET_4.jpg,A2OT9ZJC4MQBS8
430,3.0,right,right,1.0,1.618099999,0.0,10.0,10.0,10.0,1.0,DARWINS_FLYCATCHER_2.jpg,INDIGO_BUNTING_1.jpg,A2OT9ZJC4MQBS8
431,1.0,left,left,1.0,2.195,0.0,11.0,11.0,11.0,1.0,INCA_TERN_4.jpg,ELLIOTS__PHEASANT_4.jpg,A2OT9ZJC4MQBS8
432,3.0,right,left,0.0,1.901900001,0.0,12.0,12.0,12.0,1.0,COMMON_IORA_4.jpg,PINK_ROBIN_4.jpg,A2OT9ZJC4MQBS8
433,2.0,right,right,1.0,1.6802,0.0,13.0,13.0,13.0,1.0,ASHY_STORM_PETREL_1.jpg,KAGU_5.jpg,A2OT9ZJC4MQBS8
434,2.0,right,right,1.0,2.129,0.0,14.0,14.0,14.0,1.0,BLACK_VULTURE_1.jpg,ARARIPE_MANAKIN_4.jpg,A2OT9ZJC4MQBS8
435,2.0,right,right,1.0,2.1937,0.0,15.0,15.0,15.0,1.0,APAPANE_4.jpg,RUBY_THROATED_HUMMINGBIRD_2.jpg,A2OT9ZJC4MQBS8
436,2.0,right,right,1.0,1.725200001,0.0,16.0,16.0,16.0,1.0,MYNA_5.jpg,RUBY_THROATED_HUMMINGBIRD_3.jpg,A2OT9ZJC4MQBS8
437,1.0,left,right,0.0,1.9398,0.0,17.0,17.0,17.0,1.0,PEACOCK_3.jpg,ANIANIAU_2.jpg,A2OT9ZJC4MQBS8
438,3.0,left,left,1.0,1.6348,0.0,18.0,18.0,18.0,1.0,AFRICAN_PIED_HORNBILL_5.jpg,CAPUCHINBIRD_2.jpg,A2OT9ZJC4MQBS8
439,1.0,right,left,0.0,1.5872,0.0,19.0,19.0,19.0,1.0,OSTRICH_5.jpg,CHUKAR_PARTRIDGE_5.jpg,A2OT9ZJC4MQBS8
440,2.0,left,right,0.0,1.8952,0.0,20.0,20.0,20.0,1.0,MYNA_1.jpg,GREY_PLOVER_4.jpg,A2OT9ZJC4MQBS8
441,3.0,left,right,0.0,1.5358,0.0,21.0,21.0,21.0,1.0,PARUS_MAJOR_1.jpg,PINK_ROBIN_3.jpg,A2OT9ZJC4MQBS8
442,2.0,left,right,0.0,1.5247,0.0,22.0,22.0,22.0,1.0,IVORY_GULL_1.jpg,EASTERN_GOLDEN_WEAVER_5.jpg,A2OT9ZJC4MQBS8
443,1.0,left,left,1.0,1.2145,0.0,23.0,23.0,23.0,1.0,HAWAIIAN_GOOSE_4.jpg,CUBAN_TODY_3.jpg,A2OT9ZJC4MQBS8
444,1.0,right,right,1.0,1.6815,0.0,24.0,24.0,24.0,1.0,AMERICAN_FLAMINGO_1.jpg,MALACHITE_KINGFISHER_2.jpg,A2OT9ZJC4MQBS8
445,3.0,left,left,1.0,1.7947,0.0,25.0,25.0,25.0,1.0,NORTHERN_JACANA_3.jpg,SCARLET_IBIS_4.jpg,A2OT9ZJC4MQBS8
446,1.0,right,left,0.0,2.0784,0.0,26.0,26.0,26.0,1.0,INDIAN_BUSTARD_2.jpg,FLAME_BOWERBIRD_3.jpg,A2OT9ZJC4MQBS8
447,3.0,left,right,0.0,1.7659,0.0,27.0,27.0,27.0,1.0,LARK_BUNTING_2.jpg,CACTUS_WREN_3.jpg,A2OT9ZJC4MQBS8
448,3.0,left,right,0.0,3.0513,0.0,28.0,28.0,28.0,1.0,GOLDEN_CHLOROPHONIA_5.jpg,VERMILION_FLYCATHER_5.jpg,A2OT9ZJC4MQBS8
449,3.0,left,left,1.0,1.5106,0.0,29.0,29.0,29.0,1.0,LESSER_ADJUTANT_4.jpg,FAIRY_TERN_3.jpg,A2OT9ZJC4MQBS8
450,2.0,left,left,1.0,1.8003,0.0,30.0,30.0,30.0,1.0,SCARLET_TANAGER_2.jpg,NORTHERN_GANNET_2.jpg,A2OT9ZJC4MQBS8
451,2.0,left,right,0.0,2.052700001,0.0,31.0,31.0,31.0,1.0,RUFOUS_KINGFISHER_1.jpg,MAGPIE_GOOSE_3.jpg,A2OT9ZJC4MQBS8
452,1.0,right,left,0.0,1.6646,0.0,32.0,32.0,32.0,1.0,TEAL_DUCK_2.jpg,EUROPEAN_TURTLE_DOVE_3.jpg,A2OT9ZJC4MQBS8
453,2.0,left,left,1.0,2.0823,0.0,33.0,33.0,33.0,1.0,CASPIAN_TERN_1.jpg,EUROPEAN_GOLDFINCH_4.jpg,A2OT9ZJC4MQBS8
454,1.0,right,right,1.0,1.7573,0.0,34.0,34.0,34.0,1.0,PEACOCK_5.jpg,KILLDEAR_2.jpg,A2OT9ZJC4MQBS8
455,3.0,right,right,1.0,1.6699,0.0,35.0,35.0,35.0,1.0,GUINEA_TURACO_5.jpg,BROWN_NOODY_3.jpg,A2OT9ZJC4MQBS8
456,2.0,right,left,0.0,1.6195,0.0,36.0,36.0,36.0,1.0,MASKED_BOOBY_5.jpg,PYGMY_KINGFISHER_5.jpg,A2OT9ZJC4MQBS8
457,3.0,right,left,0.0,2.0466,0.0,37.0,37.0,37.0,1.0,CANARY_1.jpg,CRESTED_NUTHATCH_2.jpg,A2OT9ZJC4MQBS8
458,2.0,left,right,0.0,1.7688,0.0,38.0,38.0,38.0,1.0,CASSOWARY_1.jpg,SCARLET_MACAW_1.jpg,A2OT9ZJC4MQBS8
459,1.0,right,left,0.0,1.9379,0.0,39.0,39.0,39.0,1.0,GUINEA_TURACO_3.jpg,BREWERS_BLACKBIRD_3.jpg,A2OT9ZJC4MQBS8
460,1.0,right,right,1.0,1.936799999,0.0,40.0,40.0,40.0,1.0,AMERICAN_FLAMINGO_2.jpg,CERULEAN_WARBLER_1.jpg,A2OT9ZJC4MQBS8
461,1.0,right,right,1.0,2.1616,0.0,41.0,41.0,41.0,1.0,EMU_2.jpg,AMERICAN_PIPIT_5.jpg,A2OT9ZJC4MQBS8
462,3.0,right,left,0.0,1.726599999,0.0,42.0,42.0,42.0,1.0,CHINESE_POND_HERON_2.jpg,DOUBLE_BRESTED_CORMARANT_5.jpg,A2OT9ZJC4MQBS8
463,2.0,right,right,1.0,2.1226,0.0,43.0,43.0,43.0,1.0,GAMBELS_QUAIL_1.jpg,LESSER_ADJUTANT_5.jpg,A2OT9ZJC4MQBS8
464,3.0,right,left,0.0,1.9616,0.0,44.0,44.0,44.0,1.0,PURPLE_SWAMPHEN_4.jpg,OCELLATED_TURKEY_1.jpg,A2OT9ZJC4MQBS8
465,1.0,left,right,0.0,2.0654,0.0,45.0,45.0,45.0,1.0,INLAND_DOTTEREL_4.jpg,CASSOWARY_2.jpg,A2OT9ZJC4MQBS8
466,1.0,right,left,0.0,2.4043,0.0,46.0,46.0,46.0,1.0,NORTHERN_MOCKINGBIRD_4.jpg,WHITE_CHEEKED_TURACO_5.jpg,A2OT9ZJC4MQBS8
467,3.0,right,right,1.0,2.323,0.0,47.0,47.0,47.0,1.0,GO_AWAY_BIRD_5.jpg,STRIPPED_SWALLOW_1.jpg,A2OT9ZJC4MQBS8
468,1.0,left,right,0.0,1.6508,0.0,48.0,48.0,48.0,1.0,TASMANIAN_HEN_5.jpg,GREEN_BROADBILL_1.jpg,A2OT9ZJC4MQBS8
469,1.0,left,left,1.0,2.600599999,0.0,49.0,49.0,49.0,1.0,BALI_STARLING_1.jpg,CAPE_LONGCLAW_5.jpg,A2OT9ZJC4MQBS8
470,2.0,left,right,0.0,2.1213,0.0,50.0,50.0,50.0,1.0,RED_HEADED_WOODPECKER_5.jpg,CRIMSON_CHAT_3.jpg,A2OT9ZJC4MQBS8
471,1.0,right,left,0.0,2.316900001,0.0,51.0,51.0,51.0,1.0,SANDHILL_CRANE_3.jpg,LITTLE_AUK_5.jpg,A2OT9ZJC4MQBS8
472,3.0,right,right,1.0,2.1905,0.0,52.0,52.0,52.0,1.0,IVORY_GULL_2.jpg,ASIAN_CRESTED_IBIS_4.jpg,A2OT9ZJC4MQBS8
473,1.0,right,right,1.0,2.1332,0.0,53.0,53.0,53.0,1.0,SCARLET_IBIS_2.jpg,ECUADORIAN_HILLSTAR_5.jpg,A2OT9ZJC4MQBS8
474,1.0,right,left,0.0,1.7222,0.0,54.0,54.0,54.0,1.0,HYACINTH_MACAW_3.jpg,GREY_PLOVER_1.jpg,A2OT9ZJC4MQBS8
475,1.0,left,left,1.0,2.181599999,0.0,55.0,55.0,55.0,1.0,RUBY_THROATED_HUMMINGBIRD_1.jpg,BANANAQUIT_2.jpg,A2OT9ZJC4MQBS8
476,2.0,right,right,1.0,1.998799999,0.0,56.0,56.0,56.0,1.0,GILDED_FLICKER_5.jpg,SHOEBILL_3.jpg,A2OT9ZJC4MQBS8
477,2.0,left,right,0.0,1.990599999,0.0,57.0,57.0,57.0,1.0,GYRFALCON_1.jpg,CINNAMON_ATTILA_2.jpg,A2OT9ZJC4MQBS8
478,2.0,right,left,0.0,2.5505,0.0,58.0,58.0,58.0,1.0,EUROPEAN_GOLDFINCH_3.jpg,ALPINE_CHOUGH_4.jpg,A2OT9ZJC4MQBS8
479,3.0,left,right,0.0,1.6962,0.0,59.0,59.0,59.0,1.0,VERMILION_FLYCATHER_3.jpg,RED_BEARDED_BEE_EATER_1.jpg,A2OT9ZJC4MQBS8
480,2.0,right,right,1.0,10.3303,0.0,0.0,0.0,0.0,1.0,AMERICAN_FLAMINGO_5.jpg,CERULEAN_WARBLER_1.jpg,A2VY5GKTXHLC8Q
481,3.0,left,right,0.0,4.5741,0.0,1.0,1.0,1.0,1.0,GREY_PLOVER_1.jpg,ECUADORIAN_HILLSTAR_3.jpg,A2VY5GKTXHLC8Q
482,1.0,left,right,0.0,4.2923,0.0,2.0,2.0,2.0,1.0,IVORY_GULL_3.jpg,INDIGO_FLYCATCHER_2.jpg,A2VY5GKTXHLC8Q
483,1.0,left,left,1.0,3.4473,0.0,3.0,3.0,3.0,1.0,PEACOCK_3.jpg,ANIANIAU_2.jpg,A2VY5GKTXHLC8Q
484,3.0,right,right,1.0,2.7905,0.0,4.0,4.0,4.0,1.0,VIOLET_GREEN_SWALLOW_4.jpg,ASIAN_DOLLARD_BIRD_2.jpg,A2VY5GKTXHLC8Q
485,2.0,left,left,1.0,1.7204,0.0,5.0,5.0,5.0,1.0,LARK_BUNTING_2.jpg,KING_VULTURE_3.jpg,A2VY5GKTXHLC8Q
486,2.0,left,left,1.0,3.2711,0.0,6.0,6.0,6.0,1.0,MALACHITE_KINGFISHER_2.jpg,INCA_TERN_2.jpg,A2VY5GKTXHLC8Q
487,2.0,right,left,0.0,3.3177,0.0,7.0,7.0,7.0,1.0,MAGPIE_GOOSE_4.jpg,STRIPPED_SWALLOW_1.jpg,A2VY5GKTXHLC8Q
488,3.0,left,left,1.0,3.2581,0.0,8.0,8.0,8.0,1.0,OVENBIRD_5.jpg,SHORT_BILLED_DOWITCHER_5.jpg,A2VY5GKTXHLC8Q
489,2.0,left,right,0.0,2.0612,0.0,9.0,9.0,9.0,1.0,INCA_TERN_4.jpg,SMITHS_LONGSPUR_5.jpg,A2VY5GKTXHLC8Q
490,1.0,left,left,1.0,5.5237,0.0,10.0,10.0,10.0,1.0,KILLDEAR_2.jpg,PEACOCK_5.jpg,A2VY5GKTXHLC8Q
491,2.0,left,left,1.0,2.431,0.0,11.0,11.0,11.0,1.0,VERMILION_FLYCATHER_3.jpg,CALIFORNIA_GULL_1.jpg,A2VY5GKTXHLC8Q
492,1.0,right,left,0.0,2.593,0.0,12.0,12.0,12.0,1.0,GREAT_GRAY_OWL_4.jpg,CASPIAN_TERN_1.jpg,A2VY5GKTXHLC8Q
493,3.0,left,left,1.0,2.6618,0.0,13.0,13.0,13.0,1.0,ECUADORIAN_HILLSTAR_5.jpg,CRIMSON_SUNBIRD_5.jpg,A2VY5GKTXHLC8Q
494,3.0,left,right,0.0,2.8833,0.0,14.0,14.0,14.0,1.0,BREWERS_BLACKBIRD_3.jpg,CAPE_LONGCLAW_2.jpg,A2VY5GKTXHLC8Q
495,2.0,left,left,1.0,2.1244,0.0,15.0,15.0,15.0,1.0,EUROPEAN_TURTLE_DOVE_3.jpg,PAINTED_BUNTING_3.jpg,A2VY5GKTXHLC8Q
496,2.0,left,right,0.0,3.1534,0.0,16.0,16.0,16.0,1.0,OCELLATED_TURKEY_1.jpg,AMERICAN_PIPIT_1.jpg,A2VY5GKTXHLC8Q
497,1.0,right,right,1.0,2.2539,0.0,17.0,17.0,17.0,1.0,CUBAN_TODY_3.jpg,HAWAIIAN_GOOSE_4.jpg,A2VY5GKTXHLC8Q
498,1.0,left,right,0.0,1.9775,0.0,18.0,18.0,18.0,1.0,ARARIPE_MANAKIN_4.jpg,KIWI_3.jpg,A2VY5GKTXHLC8Q
499,3.0,right,right,1.0,2.2536,0.0,19.0,19.0,19.0,1.0,BLACK_BAZA_4.jpg,BROWN_THRASHER_3.jpg,A2VY5GKTXHLC8Q
500,3.0,right,left,0.0,2.2955,0.0,20.0,20.0,20.0,1.0,BALD_EAGLE_5.jpg,SHOEBILL_3.jpg,A2VY5GKTXHLC8Q
501,1.0,right,left,0.0,2.2414,0.0,21.0,21.0,21.0,1.0,ROADRUNNER_2.jpg,GOLDEN_CHLOROPHONIA_5.jpg,A2VY5GKTXHLC8Q
502,1.0,right,right,1.0,2.0379,0.0,22.0,22.0,22.0,1.0,EMU_2.jpg,AMERICAN_PIPIT_5.jpg,A2VY5GKTXHLC8Q
503,3.0,left,left,1.0,2.5101,0.0,23.0,23.0,23.0,1.0,GYRFALCON_1.jpg,FAIRY_TERN_1.jpg,A2VY5GKTXHLC8Q
504,3.0,right,right,1.0,3.127,0.0,24.0,24.0,24.0,1.0,BEARDED_BELLBIRD_1.jpg,LITTLE_AUK_5.jpg,A2VY5GKTXHLC8Q
505,3.0,left,left,1.0,3.0359,0.0,25.0,25.0,25.0,1.0,GOLDEN_CHEEKED_WARBLER_2.jpg,WHITE_THROATED_BEE_EATER_1.jpg,A2VY5GKTXHLC8Q
506,2.0,right,right,1.0,2.3372,0.0,26.0,26.0,26.0,1.0,GREAT_POTOO_3.jpg,WHITE_CHEEKED_TURACO_5.jpg,A2VY5GKTXHLC8Q
507,3.0,right,right,1.0,2.3172,0.0,27.0,27.0,27.0,1.0,GUINEA_TURACO_5.jpg,BROWN_NOODY_3.jpg,A2VY5GKTXHLC8Q
508,2.0,left,right,0.0,3.2741,0.0,28.0,28.0,28.0,1.0,PARUS_MAJOR_1.jpg,CALIFORNIA_GULL_2.jpg,A2VY5GKTXHLC8Q
509,2.0,left,right,0.0,2.707,0.0,29.0,29.0,29.0,1.0,PINK_ROBIN_4.jpg,ALBATROSS_4.jpg,A2VY5GKTXHLC8Q
510,3.0,right,left,0.0,2.5673,0.0,30.0,30.0,30.0,1.0,TOUCHAN_4.jpg,CRESTED_CARACARA_4.jpg,A2VY5GKTXHLC8Q
511,1.0,left,left,1.0,2.8033,0.0,31.0,31.0,31.0,1.0,TASMANIAN_HEN_5.jpg,GREEN_BROADBILL_1.jpg,A2VY5GKTXHLC8Q
512,1.0,left,right,0.0,4.1462,0.0,32.0,32.0,32.0,1.0,FLAME_BOWERBIRD_3.jpg,INDIAN_BUSTARD_2.jpg,A2VY5GKTXHLC8Q
513,1.0,left,left,1.0,3.191,0.0,33.0,33.0,33.0,1.0,GRAY_KINGBIRD_5.jpg,BALD_EAGLE_2.jpg,A2VY5GKTXHLC8Q
514,2.0,right,right,1.0,2.8517,0.0,34.0,34.0,34.0,1.0,NORTHERN_GANNET_2.jpg,SCARLET_TANAGER_2.jpg,A2VY5GKTXHLC8Q
515,2.0,right,right,1.0,2.6001,0.0,35.0,35.0,35.0,1.0,GOLDEN_CHLOROPHONIA_1.jpg,EASTERN_TOWEE_2.jpg,A2VY5GKTXHLC8Q
516,3.0,left,left,1.0,8.0412,0.0,36.0,36.0,36.0,1.0,ASIAN_CRESTED_IBIS_4.jpg,IVORY_GULL_2.jpg,A2VY5GKTXHLC8Q
517,3.0,right,right,1.0,6.7436,0.0,37.0,37.0,37.0,1.0,DOUBLE_EYED_FIG_PARROT_4.jpg,PYGMY_KINGFISHER_5.jpg,A2VY5GKTXHLC8Q
518,1.0,left,left,1.0,4.004,0.0,38.0,38.0,38.0,1.0,CRESTED_NUTHATCH_2.jpg,SCARLET_IBIS_3.jpg,A2VY5GKTXHLC8Q
519,3.0,right,right,1.0,3.7949,0.0,39.0,39.0,39.0,1.0,DARWINS_FLYCATCHER_2.jpg,INDIGO_BUNTING_1.jpg,A2VY5GKTXHLC8Q
520,3.0,right,left,0.0,3.1909,0.0,40.0,40.0,40.0,1.0,DEMOISELLE_CRANE_1.jpg,KAGU_5.jpg,A2VY5GKTXHLC8Q
521,1.0,right,right,1.0,2.9067,0.0,41.0,41.0,41.0,1.0,GILDED_FLICKER_2.jpg,DOUBLE_BRESTED_CORMARANT_5.jpg,A2VY5GKTXHLC8Q
522,1.0,right,right,1.0,3.1138,0.0,42.0,42.0,42.0,1.0,KIWI_4.jpg,AFRICAN_PIED_HORNBILL_5.jpg,A2VY5GKTXHLC8Q
523,2.0,right,right,1.0,2.7891,0.0,43.0,43.0,43.0,1.0,NICOBAR_PIGEON_4.jpg,INLAND_DOTTEREL_4.jpg,A2VY5GKTXHLC8Q
524,3.0,left,right,0.0,2.4925,0.0,44.0,44.0,44.0,1.0,LESSER_ADJUTANT_5.jpg,RED_HEADED_WOODPECKER_1.jpg,A2VY5GKTXHLC8Q
525,1.0,left,right,0.0,2.2667,0.0,45.0,45.0,45.0,1.0,LESSER_ADJUTANT_4.jpg,ALTAMIRA_YELLOWTHROAT_5.jpg,A2VY5GKTXHLC8Q
526,2.0,left,right,0.0,3.1728,0.0,46.0,46.0,46.0,1.0,MYNA_1.jpg,GREY_PLOVER_4.jpg,A2VY5GKTXHLC8Q
527,3.0,left,left,1.0,3.0129,0.0,47.0,47.0,47.0,1.0,NORTHERN_JACANA_3.jpg,SCARLET_IBIS_4.jpg,A2VY5GKTXHLC8Q
528,1.0,right,left,0.0,3.7105,0.0,48.0,48.0,48.0,1.0,MALAGASY_WHITE_EYE_2.jpg,RUBY_THROATED_HUMMINGBIRD_3.jpg,A2VY5GKTXHLC8Q
529,2.0,right,left,0.0,2.4242,0.0,49.0,49.0,49.0,1.0,PURPLE_FINCH_2.jpg,BALI_STARLING_1.jpg,A2VY5GKTXHLC8Q
530,1.0,left,right,0.0,3.7694,0.0,50.0,50.0,50.0,1.0,RUBY_THROATED_HUMMINGBIRD_2.jpg,GOLDEN_CHLOROPHONIA_2.jpg,A2VY5GKTXHLC8Q
531,2.0,right,right,1.0,6.7331,0.0,51.0,51.0,51.0,1.0,RAZORBILL_1.jpg,CHUKAR_PARTRIDGE_5.jpg,A2VY5GKTXHLC8Q
532,3.0,left,left,1.0,2.7324,0.0,52.0,52.0,52.0,1.0,MAGPIE_GOOSE_5.jpg,OYSTER_CATCHER_3.jpg,A2VY5GKTXHLC8Q
533,3.0,left,left,1.0,2.4831,0.0,53.0,53.0,53.0,1.0,RED_HEADED_WOODPECKER_5.jpg,COLLARED_ARACARI_1.jpg,A2VY5GKTXHLC8Q
534,2.0,left,left,1.0,3.2246,0.0,54.0,54.0,54.0,1.0,IVORY_GULL_1.jpg,EASTERN_GOLDEN_WEAVER_5.jpg,A2VY5GKTXHLC8Q
535,2.0,right,left,0.0,4.0228,0.0,55.0,55.0,55.0,1.0,SCARLET_MACAW_1.jpg,CASSOWARY_1.jpg,A2VY5GKTXHLC8Q
536,1.0,left,right,0.0,3.0665,0.0,56.0,56.0,56.0,1.0,RUBY_THROATED_HUMMINGBIRD_1.jpg,BANANAQUIT_2.jpg,A2VY5GKTXHLC8Q
537,1.0,right,left,0.0,3.2646,0.0,57.0,57.0,57.0,1.0,POMARINE_JAEGER_5.jpg,SPLENDID_WREN_1.jpg,A2VY5GKTXHLC8Q
538,1.0,left,left,1.0,3.6278,0.0,58.0,58.0,58.0,1.0,RUFOUS_KINGFISHER_1.jpg,SNOWY_OWL_5.jpg,A2VY5GKTXHLC8Q
539,2.0,right,left,0.0,2.2438,0.0,59.0,59.0,59.0,1.0,EUROPEAN_GOLDFINCH_3.jpg,ALPINE_CHOUGH_4.jpg,A2VY5GKTXHLC8Q
540,3.0,right,left,0.0,3.2817,0.0,0.0,0.0,0.0,1.0,CHINESE_POND_HERON_2.jpg,DOUBLE_BRESTED_CORMARANT_5.jpg,A3OUAR84WQO03Y
541,2.0,right,right,1.0,2.6063,0.0,1.0,1.0,1.0,1.0,OYSTER_CATCHER_2.jpg,ASIAN_CRESTED_IBIS_4.jpg,A3OUAR84WQO03Y
542,3.0,right,left,0.0,1.7145,0.0,2.0,2.0,2.0,1.0,BALD_EAGLE_5.jpg,SHOEBILL_3.jpg,A3OUAR84WQO03Y
543,2.0,left,left,1.0,2.3935,0.0,3.0,3.0,3.0,1.0,LESSER_ADJUTANT_4.jpg,RAINBOW_LORIKEET_5.jpg,A3OUAR84WQO03Y
544,3.0,left,right,0.0,2.7684,0.0,4.0,4.0,4.0,1.0,GOLDEN_CHLOROPHONIA_5.jpg,VERMILION_FLYCATHER_5.jpg,A3OUAR84WQO03Y
545,1.0,left,right,0.0,3.3181,0.0,5.0,5.0,5.0,1.0,TASMANIAN_HEN_5.jpg,GREEN_BROADBILL_1.jpg,A3OUAR84WQO03Y
546,3.0,left,right,0.0,1.9451,0.0,6.0,6.0,6.0,1.0,PARUS_MAJOR_1.jpg,PINK_ROBIN_3.jpg,A3OUAR84WQO03Y
547,2.0,left,left,1.0,2.0869,0.0,7.0,7.0,7.0,1.0,ASIAN_DOLLARD_BIRD_2.jpg,LOGGERHEAD_SHRIKE_4.jpg,A3OUAR84WQO03Y
548,3.0,left,right,0.0,2.7651,0.0,8.0,8.0,8.0,1.0,GYRFALCON_1.jpg,FAIRY_TERN_1.jpg,A3OUAR84WQO03Y
549,3.0,right,left,0.0,2.5283,0.0,9.0,9.0,9.0,1.0,CRESTED_KINGFISHER_1.jpg,INLAND_DOTTEREL_4.jpg,A3OUAR84WQO03Y
550,1.0,right,left,0.0,2.1923,0.0,10.0,10.0,10.0,1.0,AMERICAN_GOLDFINCH_4.jpg,NORTHERN_JACANA_3.jpg,A3OUAR84WQO03Y
551,1.0,right,right,1.0,2.5102,0.0,11.0,11.0,11.0,1.0,OSTRICH_5.jpg,CHUKAR_PARTRIDGE_5.jpg,A3OUAR84WQO03Y
552,1.0,right,right,1.0,2.5781,0.0,12.0,12.0,12.0,1.0,FRIGATE_4.jpg,INDIGO_BUNTING_1.jpg,A3OUAR84WQO03Y
553,1.0,left,left,1.0,1.6718,0.0,13.0,13.0,13.0,1.0,RUBY_THROATED_HUMMINGBIRD_1.jpg,BANANAQUIT_2.jpg,A3OUAR84WQO03Y
554,2.0,left,left,1.0,1.9974,0.0,14.0,14.0,14.0,1.0,KILLDEAR_2.jpg,CAATINGA_CACHOLOTE_4.jpg,A3OUAR84WQO03Y
555,3.0,left,left,1.0,2.4035,0.0,15.0,15.0,15.0,1.0,ARARIPE_MANAKIN_4.jpg,BORNEAN_LEAFBIRD_3.jpg,A3OUAR84WQO03Y
556,3.0,left,right,0.0,2.6856,0.0,16.0,16.0,16.0,1.0,ALPINE_CHOUGH_4.jpg,BOBOLINK_3.jpg,A3OUAR84WQO03Y
557,2.0,left,left,1.0,2.4475,0.0,17.0,17.0,17.0,1.0,INCA_TERN_4.jpg,SMITHS_LONGSPUR_5.jpg,A3OUAR84WQO03Y
558,1.0,right,left,0.0,3.7045,0.0,18.0,18.0,18.0,1.0,PEACOCK_2.jpg,BROWN_NOODY_3.jpg,A3OUAR84WQO03Y
559,1.0,right,left,0.0,9.8216,0.0,19.0,19.0,19.0,1.0,DOUBLE_EYED_FIG_PARROT_3.jpg,BROWN_THRASHER_3.jpg,A3OUAR84WQO03Y
560,2.0,right,right,1.0,2.7853,0.0,20.0,20.0,20.0,1.0,KING_VULTURE_3.jpg,LARK_BUNTING_2.jpg,A3OUAR84WQO03Y
561,3.0,right,right,1.0,2.2407,0.0,21.0,21.0,21.0,1.0,DOUBLE_EYED_FIG_PARROT_4.jpg,PYGMY_KINGFISHER_5.jpg,A3OUAR84WQO03Y
562,1.0,left,left,1.0,1.4196,0.0,22.0,22.0,22.0,1.0,SPLENDID_WREN_1.jpg,POMARINE_JAEGER_5.jpg,A3OUAR84WQO03Y
563,3.0,right,right,1.0,3.1318,0.0,23.0,23.0,23.0,1.0,PARADISE_TANAGER_3.jpg,MYNA_1.jpg,A3OUAR84WQO03Y
564,3.0,left,left,1.0,1.9069,0.0,24.0,24.0,24.0,1.0,EASTERN_TOWEE_2.jpg,NORTHERN_BEARDLESS_TYRANNULET_5.jpg,A3OUAR84WQO03Y
565,1.0,right,left,0.0,1.6186,0.0,25.0,25.0,25.0,1.0,CAPE_LONGCLAW_5.jpg,BALI_STARLING_1.jpg,A3OUAR84WQO03Y
566,1.0,right,right,1.0,1.8995,0.0,26.0,26.0,26.0,1.0,NORTHERN_MOCKINGBIRD_4.jpg,WHITE_CHEEKED_TURACO_5.jpg,A3OUAR84WQO03Y
567,2.0,right,right,1.0,1.5742,0.0,27.0,27.0,27.0,1.0,ALBATROSS_4.jpg,PINK_ROBIN_4.jpg,A3OUAR84WQO03Y
568,1.0,right,left,0.0,2.4111,0.0,28.0,28.0,28.0,1.0,FAIRY_PENGUIN_5.jpg,CRESTED_CARACARA_4.jpg,A3OUAR84WQO03Y
569,3.0,left,right,0.0,1.9265,0.0,29.0,29.0,29.0,1.0,GOLDEN_CHEEKED_WARBLER_2.jpg,WHITE_THROATED_BEE_EATER_1.jpg,A3OUAR84WQO03Y
570,2.0,left,right,0.0,2.0785,0.0,30.0,30.0,30.0,1.0,RUBY_THROATED_HUMMINGBIRD_3.jpg,MYNA_5.jpg,A3OUAR84WQO03Y
571,3.0,right,right,1.0,2.2683,0.0,31.0,31.0,31.0,1.0,DUSKY_ROBIN_5.jpg,RUBY_THROATED_HUMMINGBIRD_2.jpg,A3OUAR84WQO03Y
572,3.0,left,left,1.0,5.0257,0.0,32.0,32.0,32.0,1.0,IVORY_GULL_3.jpg,SNOWY_EGRET_4.jpg,A3OUAR84WQO03Y
573,1.0,left,left,1.0,3.4693,0.0,33.0,33.0,33.0,1.0,OCELLATED_TURKEY_1.jpg,CHIPPING_SPARROW_1.jpg,A3OUAR84WQO03Y
574,2.0,left,right,0.0,2.5688,0.0,34.0,34.0,34.0,1.0,RUFOUS_KINGFISHER_1.jpg,MAGPIE_GOOSE_3.jpg,A3OUAR84WQO03Y
575,1.0,left,right,0.0,2.0189,0.0,35.0,35.0,35.0,1.0,ECUADORIAN_HILLSTAR_5.jpg,SCARLET_IBIS_2.jpg,A3OUAR84WQO03Y
576,2.0,left,left,1.0,1.7553,0.0,36.0,36.0,36.0,1.0,VERMILION_FLYCATHER_3.jpg,CALIFORNIA_GULL_1.jpg,A3OUAR84WQO03Y
577,3.0,right,left,0.0,2.2298,0.0,37.0,37.0,37.0,1.0,CAPUCHINBIRD_2.jpg,AFRICAN_PIED_HORNBILL_5.jpg,A3OUAR84WQO03Y
578,2.0,right,right,1.0,1.4959,0.0,38.0,38.0,38.0,1.0,EUROPEAN_GOLDFINCH_4.jpg,CASPIAN_TERN_1.jpg,A3OUAR84WQO03Y
579,2.0,left,right,0.0,1.9144,0.0,39.0,39.0,39.0,1.0,OVENBIRD_5.jpg,FAIRY_PENGUIN_1.jpg,A3OUAR84WQO03Y
580,3.0,right,right,1.0,2.5291,0.0,40.0,40.0,40.0,1.0,AFRICAN_FIREFINCH_3.jpg,GRAY_KINGBIRD_5.jpg,A3OUAR84WQO03Y
581,3.0,left,left,1.0,2.9536,0.0,41.0,41.0,41.0,1.0,CRESTED_NUTHATCH_2.jpg,CANARY_1.jpg,A3OUAR84WQO03Y
582,2.0,right,left,0.0,2.4448,0.0,42.0,42.0,42.0,1.0,GAMBELS_QUAIL_1.jpg,LESSER_ADJUTANT_5.jpg,A3OUAR84WQO03Y
583,2.0,left,right,0.0,2.6097,0.0,43.0,43.0,43.0,1.0,MAGPIE_GOOSE_5.jpg,HAMERKOP_1.jpg,A3OUAR84WQO03Y
584,1.0,left,right,0.0,4.4216,0.0,44.0,44.0,44.0,1.0,HAWAIIAN_GOOSE_4.jpg,CUBAN_TODY_3.jpg,A3OUAR84WQO03Y
585,2.0,right,right,1.0,2.9046,0.0,45.0,45.0,45.0,1.0,ORANGE_BRESTED_BUNTING_3.jpg,LITTLE_AUK_5.jpg,A3OUAR84WQO03Y
586,2.0,right,left,0.0,2.8577,0.0,46.0,46.0,46.0,1.0,CRIMSON_CHAT_3.jpg,RED_HEADED_WOODPECKER_5.jpg,A3OUAR84WQO03Y
587,3.0,left,right,0.0,2.172,0.0,47.0,47.0,47.0,1.0,IVORY_GULL_1.jpg,FAIRY_TERN_4.jpg,A3OUAR84WQO03Y
588,2.0,left,right,0.0,2.2542,0.0,48.0,48.0,48.0,1.0,GREY_PLOVER_1.jpg,GOULDIAN_FINCH_4.jpg,A3OUAR84WQO03Y
589,3.0,right,left,0.0,2.1572,0.0,49.0,49.0,49.0,1.0,BORNEAN_LEAFBIRD_1.jpg,SCARLET_TANAGER_2.jpg,A3OUAR84WQO03Y
590,3.0,left,left,1.0,1.8743,0.0,50.0,50.0,50.0,1.0,CERULEAN_WARBLER_1.jpg,BANANAQUIT_1.jpg,A3OUAR84WQO03Y
591,2.0,left,right,0.0,1.4988,0.0,51.0,51.0,51.0,1.0,EUROPEAN_TURTLE_DOVE_3.jpg,PAINTED_BUNTING_3.jpg,A3OUAR84WQO03Y
592,1.0,right,left,0.0,2.2114,0.0,52.0,52.0,52.0,1.0,GUINEA_TURACO_3.jpg,BREWERS_BLACKBIRD_3.jpg,A3OUAR84WQO03Y
593,1.0,left,right,0.0,2.4766,0.0,53.0,53.0,53.0,1.0,AMERICAN_PIPIT_5.jpg,EMU_2.jpg,A3OUAR84WQO03Y
594,1.0,right,right,1.0,2.7115,0.0,54.0,54.0,54.0,1.0,INDIAN_BUSTARD_2.jpg,FLAME_BOWERBIRD_3.jpg,A3OUAR84WQO03Y
595,1.0,left,right,0.0,3.134,0.0,55.0,55.0,55.0,1.0,MALACHITE_KINGFISHER_2.jpg,AMERICAN_FLAMINGO_1.jpg,A3OUAR84WQO03Y
596,2.0,left,left,1.0,2.9924,0.0,56.0,56.0,56.0,1.0,STRIPPED_SWALLOW_1.jpg,MAGPIE_GOOSE_4.jpg,A3OUAR84WQO03Y
597,2.0,left,right,0.0,2.6175,0.0,57.0,57.0,57.0,1.0,CASSOWARY_1.jpg,SCARLET_MACAW_1.jpg,A3OUAR84WQO03Y
598,1.0,left,left,1.0,2.3969,0.0,58.0,58.0,58.0,1.0,KAGU_5.jpg,RED_BEARDED_BEE_EATER_3.jpg,A3OUAR84WQO03Y
599,1.0,right,left,0.0,1.7088,0.0,59.0,59.0,59.0,1.0,ANIANIAU_2.jpg,PEACOCK_3.jpg,A3OUAR84WQO03Y
600,3.0,left,left,1.0,471.0938,0.0,0.0,0.0,0.0,1.0,LITTLE_AUK_5.jpg,BEARDED_BELLBIRD_1.jpg,A3QHZCELFJ3BSN
601,2.0,right,right,1.0,8.1159,0.0,1.0,1.0,1.0,1.0,OYSTER_CATCHER_4.jpg,BROWN_THRASHER_3.jpg,A3QHZCELFJ3BSN
602,1.0,right,right,1.0,4.6158,0.0,2.0,2.0,2.0,1.0,BANANAQUIT_2.jpg,RUBY_THROATED_HUMMINGBIRD_1.jpg,A3QHZCELFJ3BSN
603,2.0,right,right,1.0,1.1671,0.0,3.0,3.0,3.0,1.0,DOUBLE_BRESTED_CORMARANT_1.jpg,SPLENDID_WREN_1.jpg,A3QHZCELFJ3BSN
604,2.0,right,right,1.0,2.3492,0.0,4.0,4.0,4.0,1.0,GREAT_POTOO_3.jpg,WHITE_CHEEKED_TURACO_5.jpg,A3QHZCELFJ3BSN
605,2.0,right,right,1.0,1.3065,0.0,5.0,5.0,5.0,1.0,MAGPIE_GOOSE_3.jpg,RUFOUS_KINGFISHER_1.jpg,A3QHZCELFJ3BSN
606,1.0,right,right,1.0,0.9075,0.0,6.0,6.0,6.0,1.0,INDIAN_BUSTARD_2.jpg,FLAME_BOWERBIRD_3.jpg,A3QHZCELFJ3BSN
607,3.0,right,right,1.0,0.8107,0.0,7.0,7.0,7.0,1.0,FAIRY_TERN_4.jpg,IVORY_GULL_1.jpg,A3QHZCELFJ3BSN
608,2.0,right,right,1.0,0.8954,0.0,8.0,8.0,8.0,1.0,CRAB_PLOVER_3.jpg,NORTHERN_JACANA_3.jpg,A3QHZCELFJ3BSN
609,2.0,right,right,1.0,1.2431,0.0,9.0,9.0,9.0,1.0,CALIFORNIA_GULL_2.jpg,PARUS_MAJOR_1.jpg,A3QHZCELFJ3BSN
610,2.0,left,right,0.0,0.8961,0.0,10.0,10.0,10.0,1.0,LESSER_ADJUTANT_4.jpg,RAINBOW_LORIKEET_5.jpg,A3QHZCELFJ3BSN
611,2.0,left,right,0.0,1.3854,0.0,11.0,11.0,11.0,1.0,GOLDEN_CHLOROPHONIA_5.jpg,COMMON_HOUSE_MARTIN_4.jpg,A3QHZCELFJ3BSN
612,1.0,right,right,1.0,1.1034,0.0,12.0,12.0,12.0,1.0,GRANDALA_2.jpg,PYGMY_KINGFISHER_5.jpg,A3QHZCELFJ3BSN
613,3.0,right,right,1.0,0.8361,0.0,13.0,13.0,13.0,1.0,CRESTED_KINGFISHER_1.jpg,INLAND_DOTTEREL_4.jpg,A3QHZCELFJ3BSN
614,1.0,left,right,0.0,0.7708,0.0,14.0,14.0,14.0,1.0,GOLDEN_CHEEKED_WARBLER_2.jpg,SPOONBILL_1.jpg,A3QHZCELFJ3BSN
615,3.0,left,right,0.0,0.7672,0.0,15.0,15.0,15.0,1.0,BREWERS_BLACKBIRD_3.jpg,CAPE_LONGCLAW_2.jpg,A3QHZCELFJ3BSN
616,1.0,left,right,0.0,0.692,0.0,16.0,16.0,16.0,1.0,CHUKAR_PARTRIDGE_5.jpg,OSTRICH_5.jpg,A3QHZCELFJ3BSN
617,1.0,left,right,0.0,0.7573,0.0,17.0,17.0,17.0,1.0,EUROPEAN_TURTLE_DOVE_3.jpg,TEAL_DUCK_2.jpg,A3QHZCELFJ3BSN
618,2.0,right,right,1.0,0.6941,0.0,18.0,18.0,18.0,1.0,NORTHERN_GANNET_1.jpg,INDIGO_BUNTING_1.jpg,A3QHZCELFJ3BSN
619,3.0,right,right,1.0,0.7652,0.0,19.0,19.0,19.0,1.0,BORNEAN_LEAFBIRD_1.jpg,SCARLET_TANAGER_2.jpg,A3QHZCELFJ3BSN
620,2.0,right,right,1.0,0.7647,0.0,20.0,20.0,20.0,1.0,BLACK_VULTURE_1.jpg,ARARIPE_MANAKIN_4.jpg,A3QHZCELFJ3BSN
621,1.0,left,right,0.0,1.1724,0.0,21.0,21.0,21.0,1.0,PEACOCK_3.jpg,ANIANIAU_2.jpg,A3QHZCELFJ3BSN
622,2.0,left,right,0.0,0.69,0.0,22.0,22.0,22.0,1.0,AMERICAN_PIPIT_5.jpg,GREEN_MAGPIE_1.jpg,A3QHZCELFJ3BSN
623,1.0,right,right,1.0,0.6948,0.0,23.0,23.0,23.0,1.0,DOUBLE_EYED_FIG_PARROT_5.jpg,MAGPIE_GOOSE_5.jpg,A3QHZCELFJ3BSN
624,1.0,left,right,0.0,0.7534,0.0,24.0,24.0,24.0,1.0,CERULEAN_WARBLER_1.jpg,AMERICAN_FLAMINGO_2.jpg,A3QHZCELFJ3BSN
625,2.0,left,right,0.0,0.7655,0.0,25.0,25.0,25.0,1.0,MYNA_1.jpg,GREY_PLOVER_4.jpg,A3QHZCELFJ3BSN
626,3.0,left,right,0.0,0.6962,0.0,26.0,26.0,26.0,1.0,DOUBLE_BRESTED_CORMARANT_5.jpg,CHINESE_POND_HERON_2.jpg,A3QHZCELFJ3BSN
627,1.0,left,right,0.0,0.7674,0.0,27.0,27.0,27.0,1.0,RED_HEADED_WOODPECKER_5.jpg,ASHY_STORM_PETREL_2.jpg,A3QHZCELFJ3BSN
628,3.0,left,right,0.0,1.0326,0.0,28.0,28.0,28.0,1.0,IVORY_GULL_3.jpg,SNOWY_EGRET_4.jpg,A3QHZCELFJ3BSN
629,3.0,left,right,0.0,0.6908,0.0,29.0,29.0,29.0,1.0,GRAY_KINGBIRD_5.jpg,AFRICAN_FIREFINCH_3.jpg,A3QHZCELFJ3BSN
630,3.0,right,right,1.0,0.7646,0.0,30.0,30.0,30.0,1.0,CANARY_1.jpg,CRESTED_NUTHATCH_2.jpg,A3QHZCELFJ3BSN
631,3.0,right,right,1.0,0.6721,0.0,31.0,31.0,31.0,1.0,GO_AWAY_BIRD_5.jpg,STRIPPED_SWALLOW_1.jpg,A3QHZCELFJ3BSN
632,3.0,right,right,1.0,0.7252,0.0,32.0,32.0,32.0,1.0,CRIMSON_SUNBIRD_5.jpg,ECUADORIAN_HILLSTAR_5.jpg,A3QHZCELFJ3BSN
633,1.0,left,right,0.0,0.6914,0.0,33.0,33.0,33.0,1.0,KILLDEAR_2.jpg,PEACOCK_5.jpg,A3QHZCELFJ3BSN
634,2.0,right,right,1.0,0.6988,0.0,34.0,34.0,34.0,1.0,SMITHS_LONGSPUR_5.jpg,INCA_TERN_4.jpg,A3QHZCELFJ3BSN
635,2.0,left,right,0.0,0.6928,0.0,35.0,35.0,35.0,1.0,TASMANIAN_HEN_5.jpg,AFRICAN_EMERALD_CUCKOO_5.jpg,A3QHZCELFJ3BSN
636,2.0,left,right,0.0,0.6993,0.0,36.0,36.0,36.0,1.0,OCELLATED_TURKEY_1.jpg,AMERICAN_PIPIT_1.jpg,A3QHZCELFJ3BSN
637,2.0,right,right,1.0,0.6499,0.0,37.0,37.0,37.0,1.0,SPANGLED_COTINGA_4.jpg,BROWN_NOODY_3.jpg,A3QHZCELFJ3BSN
638,2.0,left,right,0.0,0.676,0.0,38.0,38.0,38.0,1.0,EASTERN_TOWEE_2.jpg,GOLDEN_CHLOROPHONIA_1.jpg,A3QHZCELFJ3BSN
639,2.0,left,right,0.0,0.7569,0.0,39.0,39.0,39.0,1.0,CASSOWARY_1.jpg,SCARLET_MACAW_1.jpg,A3QHZCELFJ3BSN
640,3.0,right,right,1.0,0.6942,0.0,40.0,40.0,40.0,1.0,BALD_EAGLE_5.jpg,SHOEBILL_3.jpg,A3QHZCELFJ3BSN
641,1.0,left,right,0.0,0.7103,0.0,41.0,41.0,41.0,1.0,PINK_ROBIN_4.jpg,SPOONBILL_3.jpg,A3QHZCELFJ3BSN
642,1.0,left,right,0.0,0.7032,0.0,42.0,42.0,42.0,1.0,GREY_PLOVER_1.jpg,HYACINTH_MACAW_3.jpg,A3QHZCELFJ3BSN
643,3.0,left,right,0.0,0.6865,0.0,43.0,43.0,43.0,1.0,CRESTED_CARACARA_4.jpg,TOUCHAN_4.jpg,A3QHZCELFJ3BSN
644,3.0,left,right,0.0,0.8271,0.0,44.0,44.0,44.0,1.0,CASPIAN_TERN_1.jpg,COMMON_LOON_2.jpg,A3QHZCELFJ3BSN
645,2.0,right,right,1.0,0.6892,0.0,45.0,45.0,45.0,1.0,APAPANE_4.jpg,RUBY_THROATED_HUMMINGBIRD_2.jpg,A3QHZCELFJ3BSN
646,1.0,right,right,1.0,0.6247,0.0,46.0,46.0,46.0,1.0,CUBAN_TODY_3.jpg,HAWAIIAN_GOOSE_4.jpg,A3QHZCELFJ3BSN
647,3.0,right,right,1.0,0.6967,0.0,47.0,47.0,47.0,1.0,FAIRY_TERN_1.jpg,GYRFALCON_1.jpg,A3QHZCELFJ3BSN
648,3.0,right,right,1.0,0.6742,0.0,48.0,48.0,48.0,1.0,BOBOLINK_3.jpg,ALPINE_CHOUGH_4.jpg,A3QHZCELFJ3BSN
649,1.0,right,right,1.0,0.7552,0.0,49.0,49.0,49.0,1.0,PEACOCK_1.jpg,LARK_BUNTING_2.jpg,A3QHZCELFJ3BSN
650,1.0,right,right,1.0,0.7665,0.0,50.0,50.0,50.0,1.0,CANARY_2.jpg,ASIAN_CRESTED_IBIS_4.jpg,A3QHZCELFJ3BSN
651,1.0,left,right,0.0,0.6886,0.0,51.0,51.0,51.0,1.0,VERMILION_FLYCATHER_3.jpg,INDIAN_BUSTARD_1.jpg,A3QHZCELFJ3BSN
652,1.0,left,right,0.0,0.7328,0.0,52.0,52.0,52.0,1.0,MALACHITE_KINGFISHER_2.jpg,AMERICAN_FLAMINGO_1.jpg,A3QHZCELFJ3BSN
653,2.0,right,right,1.0,0.6969,0.0,53.0,53.0,53.0,1.0,ASHY_STORM_PETREL_1.jpg,KAGU_5.jpg,A3QHZCELFJ3BSN
654,3.0,left,right,0.0,0.6942,0.0,54.0,54.0,54.0,1.0,BALI_STARLING_1.jpg,IBERIAN_MAGPIE_1.jpg,A3QHZCELFJ3BSN
655,1.0,right,right,1.0,0.712,0.0,55.0,55.0,55.0,1.0,KIWI_4.jpg,AFRICAN_PIED_HORNBILL_5.jpg,A3QHZCELFJ3BSN
656,3.0,left,right,0.0,0.6903,0.0,56.0,56.0,56.0,1.0,LESSER_ADJUTANT_5.jpg,RED_HEADED_WOODPECKER_1.jpg,A3QHZCELFJ3BSN
657,3.0,right,right,1.0,0.7023,0.0,57.0,57.0,57.0,1.0,NORTHERN_SHOVELER_1.jpg,RUBY_THROATED_HUMMINGBIRD_3.jpg,A3QHZCELFJ3BSN
658,1.0,right,right,1.0,0.6881,0.0,58.0,58.0,58.0,1.0,MYNA_4.jpg,OVENBIRD_5.jpg,A3QHZCELFJ3BSN
659,3.0,right,right,1.0,0.8147,0.0,59.0,59.0,59.0,1.0,VIOLET_GREEN_SWALLOW_4.jpg,ASIAN_DOLLARD_BIRD_2.jpg,A3QHZCELFJ3BSN
660,2.0,right,right,1.0,1.1031,0.0,0.0,0.0,0.0,1.0,FAIRY_PENGUIN_1.jpg,OVENBIRD_5.jpg,A9LSEP71DNP4O
661,2.0,left,right,0.0,1.499,0.0,1.0,1.0,1.0,1.0,BALI_STARLING_1.jpg,PURPLE_FINCH_2.jpg,A9LSEP71DNP4O
662,3.0,right,left,0.0,1.3453,0.0,2.0,2.0,2.0,1.0,GO_AWAY_BIRD_5.jpg,STRIPPED_SWALLOW_1.jpg,A9LSEP71DNP4O
663,3.0,left,left,1.0,1.4293,0.0,3.0,3.0,3.0,1.0,LESSER_ADJUTANT_4.jpg,FAIRY_TERN_3.jpg,A9LSEP71DNP4O
664,1.0,right,left,0.0,2.4279,0.0,4.0,4.0,4.0,1.0,SANDHILL_CRANE_4.jpg,PARUS_MAJOR_1.jpg,A9LSEP71DNP4O
665,2.0,left,left,1.0,1.4483,0.0,5.0,5.0,5.0,1.0,TASMANIAN_HEN_5.jpg,AFRICAN_EMERALD_CUCKOO_5.jpg,A9LSEP71DNP4O
666,2.0,left,right,0.0,0.9215,0.0,6.0,6.0,6.0,1.0,BROWN_THRASHER_3.jpg,OYSTER_CATCHER_4.jpg,A9LSEP71DNP4O
667,1.0,left,left,1.0,2.2437,0.0,7.0,7.0,7.0,1.0,RUBY_THROATED_HUMMINGBIRD_1.jpg,BANANAQUIT_2.jpg,A9LSEP71DNP4O
668,3.0,right,right,1.0,1.0506,0.0,8.0,8.0,8.0,1.0,BANANAQUIT_1.jpg,CERULEAN_WARBLER_1.jpg,A9LSEP71DNP4O
669,1.0,right,right,1.0,1.0951,0.0,9.0,9.0,9.0,1.0,MALAGASY_WHITE_EYE_2.jpg,RUBY_THROATED_HUMMINGBIRD_3.jpg,A9LSEP71DNP4O
670,1.0,left,left,1.0,1.9395,0.0,10.0,10.0,10.0,1.0,CRESTED_CARACARA_4.jpg,FAIRY_PENGUIN_5.jpg,A9LSEP71DNP4O
671,3.0,right,left,0.0,1.673,0.0,11.0,11.0,11.0,1.0,VIOLET_GREEN_SWALLOW_4.jpg,ASIAN_DOLLARD_BIRD_2.jpg,A9LSEP71DNP4O
672,2.0,left,right,0.0,1.4603,0.0,12.0,12.0,12.0,1.0,GOLDEN_CHEEKED_WARBLER_2.jpg,HOUSE_FINCH_2.jpg,A9LSEP71DNP4O
673,1.0,left,right,0.0,0.7393,0.0,13.0,13.0,13.0,1.0,NORTHERN_JACANA_3.jpg,AMERICAN_GOLDFINCH_4.jpg,A9LSEP71DNP4O
674,1.0,right,left,0.0,1.2818,0.0,14.0,14.0,14.0,1.0,CHIPPING_SPARROW_1.jpg,OCELLATED_TURKEY_1.jpg,A9LSEP71DNP4O
675,1.0,left,left,1.0,1.2301,0.0,15.0,15.0,15.0,1.0,GREY_PLOVER_1.jpg,HYACINTH_MACAW_3.jpg,A9LSEP71DNP4O
676,3.0,right,right,1.0,1.8324,0.0,16.0,16.0,16.0,1.0,BORNEAN_BRISTLEHEAD_5.jpg,INCA_TERN_4.jpg,A9LSEP71DNP4O
677,2.0,left,left,1.0,1.7492,0.0,17.0,17.0,17.0,1.0,BROWN_NOODY_3.jpg,SPANGLED_COTINGA_4.jpg,A9LSEP71DNP4O
678,3.0,right,right,1.0,1.7058,0.0,18.0,18.0,18.0,1.0,CANARY_1.jpg,CRESTED_NUTHATCH_2.jpg,A9LSEP71DNP4O
679,3.0,right,right,1.0,1.6176,0.0,19.0,19.0,19.0,1.0,AZURE_TIT_5.jpg,KILLDEAR_2.jpg,A9LSEP71DNP4O
680,3.0,right,right,1.0,1.2497,0.0,20.0,20.0,20.0,1.0,DOUBLE_EYED_FIG_PARROT_4.jpg,PYGMY_KINGFISHER_5.jpg,A9LSEP71DNP4O
681,1.0,right,left,0.0,1.6392,0.0,21.0,21.0,21.0,1.0,SNOWY_EGRET_2.jpg,ALPINE_CHOUGH_4.jpg,A9LSEP71DNP4O
682,1.0,right,left,0.0,1.0396,0.0,22.0,22.0,22.0,1.0,CANARY_2.jpg,ASIAN_CRESTED_IBIS_4.jpg,A9LSEP71DNP4O
683,3.0,left,right,0.0,1.162,0.0,23.0,23.0,23.0,1.0,LITTLE_AUK_5.jpg,BEARDED_BELLBIRD_1.jpg,A9LSEP71DNP4O
684,3.0,right,left,0.0,1.0627,0.0,24.0,24.0,24.0,1.0,AFRICAN_OYSTER_CATCHER_2.jpg,CASSOWARY_1.jpg,A9LSEP71DNP4O
685,3.0,right,right,1.0,0.9899,0.0,25.0,25.0,25.0,1.0,HORNED_SUNGEM_4.jpg,RUFOUS_KINGFISHER_1.jpg,A9LSEP71DNP4O
686,3.0,right,right,1.0,2.0836,0.0,26.0,26.0,26.0,1.0,RED_HEADED_WOODPECKER_1.jpg,LESSER_ADJUTANT_5.jpg,A9LSEP71DNP4O
687,2.0,right,right,1.0,0.9204,0.0,27.0,27.0,27.0,1.0,GREAT_POTOO_3.jpg,WHITE_CHEEKED_TURACO_5.jpg,A9LSEP71DNP4O
688,3.0,right,left,0.0,0.8732,0.0,28.0,28.0,28.0,1.0,HEPATIC_TANAGER_5.jpg,AMERICAN_PIPIT_5.jpg,A9LSEP71DNP4O
689,2.0,left,left,1.0,1.0822,0.0,29.0,29.0,29.0,1.0,GRAY_KINGBIRD_5.jpg,COCK_OF_THE__ROCK_4.jpg,A9LSEP71DNP4O
690,2.0,right,right,1.0,0.8414,0.0,30.0,30.0,30.0,1.0,NORTHERN_GANNET_1.jpg,INDIGO_BUNTING_1.jpg,A9LSEP71DNP4O
691,2.0,right,right,1.0,1.0136,0.0,31.0,31.0,31.0,1.0,HIMALAYAN_MONAL_2.jpg,HAWAIIAN_GOOSE_4.jpg,A9LSEP71DNP4O
692,1.0,right,right,1.0,0.8811,0.0,32.0,32.0,32.0,1.0,OSTRICH_5.jpg,CHUKAR_PARTRIDGE_5.jpg,A9LSEP71DNP4O
693,3.0,right,right,1.0,1.5904,0.0,33.0,33.0,33.0,1.0,CACTUS_WREN_3.jpg,LARK_BUNTING_2.jpg,A9LSEP71DNP4O
694,1.0,right,left,0.0,1.7604,0.0,34.0,34.0,34.0,1.0,RED_BEARDED_BEE_EATER_3.jpg,KAGU_5.jpg,A9LSEP71DNP4O
695,2.0,right,left,0.0,2.1224,0.0,35.0,35.0,35.0,1.0,GOLDEN_CHLOROPHONIA_1.jpg,EASTERN_TOWEE_2.jpg,A9LSEP71DNP4O
696,3.0,right,right,1.0,1.0017,0.0,36.0,36.0,36.0,1.0,CUBAN_TODY_4.jpg,SPLENDID_WREN_1.jpg,A9LSEP71DNP4O
697,2.0,right,right,1.0,1.1889,0.0,37.0,37.0,37.0,1.0,APAPANE_4.jpg,RUBY_THROATED_HUMMINGBIRD_2.jpg,A9LSEP71DNP4O
698,2.0,right,left,0.0,1.5375,0.0,38.0,38.0,38.0,1.0,GREY_PLOVER_4.jpg,MYNA_1.jpg,A9LSEP71DNP4O
699,3.0,right,left,0.0,1.1833,0.0,39.0,39.0,39.0,1.0,CAPE_LONGCLAW_2.jpg,BREWERS_BLACKBIRD_3.jpg,A9LSEP71DNP4O
700,2.0,left,right,0.0,0.9491,0.0,40.0,40.0,40.0,1.0,SCARLET_TANAGER_2.jpg,NORTHERN_GANNET_2.jpg,A9LSEP71DNP4O
701,3.0,left,right,0.0,1.2293,0.0,41.0,41.0,41.0,1.0,GOLDEN_CHLOROPHONIA_5.jpg,VERMILION_FLYCATHER_5.jpg,A9LSEP71DNP4O
702,1.0,left,left,1.0,1.6495,0.0,42.0,42.0,42.0,1.0,INLAND_DOTTEREL_4.jpg,CASSOWARY_2.jpg,A9LSEP71DNP4O
703,1.0,right,left,0.0,1.1333,0.0,43.0,43.0,43.0,1.0,EASTERN_MEADOWLARK_1.jpg,SHOEBILL_3.jpg,A9LSEP71DNP4O
704,2.0,right,right,1.0,2.3464,0.0,44.0,44.0,44.0,1.0,EUROPEAN_GOLDFINCH_4.jpg,CASPIAN_TERN_1.jpg,A9LSEP71DNP4O
705,1.0,right,left,0.0,1.5507,0.0,45.0,45.0,45.0,1.0,TEAL_DUCK_2.jpg,EUROPEAN_TURTLE_DOVE_3.jpg,A9LSEP71DNP4O
706,2.0,left,right,0.0,3.0072,0.0,46.0,46.0,46.0,1.0,IVORY_GULL_3.jpg,FLAME_TANAGER_3.jpg,A9LSEP71DNP4O
707,1.0,right,right,1.0,1.4496,0.0,47.0,47.0,47.0,1.0,INDIAN_BUSTARD_1.jpg,VERMILION_FLYCATHER_3.jpg,A9LSEP71DNP4O
708,3.0,left,left,1.0,1.8063,0.0,48.0,48.0,48.0,1.0,MALACHITE_KINGFISHER_2.jpg,GREEN_BROADBILL_5.jpg,A9LSEP71DNP4O
709,2.0,right,right,1.0,2.1578,0.0,49.0,49.0,49.0,1.0,HAMERKOP_1.jpg,MAGPIE_GOOSE_5.jpg,A9LSEP71DNP4O
710,2.0,left,right,0.0,2.0408,0.0,50.0,50.0,50.0,1.0,ECUADORIAN_HILLSTAR_5.jpg,BOBOLINK_5.jpg,A9LSEP71DNP4O
711,1.0,right,right,1.0,1.5661,0.0,51.0,51.0,51.0,1.0,ASHY_STORM_PETREL_2.jpg,RED_HEADED_WOODPECKER_5.jpg,A9LSEP71DNP4O
712,2.0,left,right,0.0,2.415,0.0,52.0,52.0,52.0,1.0,AFRICAN_PIED_HORNBILL_5.jpg,ALEXANDRINE_PARAKEET_1.jpg,A9LSEP71DNP4O
713,1.0,right,right,1.0,1.0093,0.0,53.0,53.0,53.0,1.0,WILSONS_BIRD_OF_PARADISE_4.jpg,IVORY_GULL_1.jpg,A9LSEP71DNP4O
714,1.0,left,left,1.0,1.0066,0.0,54.0,54.0,54.0,1.0,GYRFALCON_1.jpg,OSTRICH_1.jpg,A9LSEP71DNP4O
715,3.0,right,right,1.0,1.2231,0.0,55.0,55.0,55.0,1.0,QUETZAL_3.jpg,FLAME_BOWERBIRD_3.jpg,A9LSEP71DNP4O
716,1.0,left,right,0.0,0.909,0.0,56.0,56.0,56.0,1.0,DOUBLE_BRESTED_CORMARANT_5.jpg,GILDED_FLICKER_2.jpg,A9LSEP71DNP4O
717,2.0,right,left,0.0,1.0149,0.0,57.0,57.0,57.0,1.0,STRAWBERRY_FINCH_4.jpg,PEACOCK_3.jpg,A9LSEP71DNP4O
718,1.0,left,left,1.0,0.9809,0.0,58.0,58.0,58.0,1.0,ARARIPE_MANAKIN_4.jpg,KIWI_3.jpg,A9LSEP71DNP4O
719,3.0,right,left,0.0,0.8419,0.0,59.0,59.0,59.0,1.0,COMMON_IORA_4.jpg,PINK_ROBIN_4.jpg,A9LSEP71DNP4O
720,1.0,left,right,0.0,1.643,0.0,0.0,0.0,0.0,1.0,IVORY_GULL_3.jpg,INDIGO_FLYCATCHER_2.jpg,ALCPF5NANBDSZ
721,1.0,right,left,0.0,1.7137,0.0,1.0,1.0,1.0,1.0,GUINEA_TURACO_3.jpg,BREWERS_BLACKBIRD_3.jpg,ALCPF5NANBDSZ
722,2.0,right,left,0.0,2.6686,0.0,2.0,2.0,2.0,1.0,CINNAMON_ATTILA_2.jpg,GYRFALCON_1.jpg,ALCPF5NANBDSZ
723,2.0,left,left,1.0,2.3436,0.0,3.0,3.0,3.0,1.0,STRIPPED_SWALLOW_1.jpg,MAGPIE_GOOSE_4.jpg,ALCPF5NANBDSZ
724,3.0,left,left,1.0,4.7638,0.0,4.0,4.0,4.0,1.0,AMERICAN_PIPIT_5.jpg,HEPATIC_TANAGER_5.jpg,ALCPF5NANBDSZ
725,3.0,left,right,0.0,1.2807,0.0,5.0,5.0,5.0,1.0,DOUBLE_BRESTED_CORMARANT_5.jpg,CHINESE_POND_HERON_2.jpg,ALCPF5NANBDSZ
726,1.0,right,right,1.0,2.777,0.0,6.0,6.0,6.0,1.0,ALBATROSS_2.jpg,ASIAN_DOLLARD_BIRD_2.jpg,ALCPF5NANBDSZ
727,2.0,right,left,0.0,1.7049,0.0,7.0,7.0,7.0,1.0,SCARLET_MACAW_1.jpg,CASSOWARY_1.jpg,ALCPF5NANBDSZ
728,1.0,left,left,1.0,1.0931,0.0,8.0,8.0,8.0,1.0,RUBY_THROATED_HUMMINGBIRD_2.jpg,GOLDEN_CHLOROPHONIA_2.jpg,ALCPF5NANBDSZ
729,1.0,left,left,1.0,2.0455,0.0,9.0,9.0,9.0,1.0,SCARLET_TANAGER_2.jpg,BEARDED_BARBET_2.jpg,ALCPF5NANBDSZ
730,1.0,right,right,1.0,2.2668,0.0,10.0,10.0,10.0,1.0,FRIGATE_4.jpg,INDIGO_BUNTING_1.jpg,ALCPF5NANBDSZ
731,1.0,left,right,0.0,2.9533,0.0,11.0,11.0,11.0,1.0,MALACHITE_KINGFISHER_2.jpg,AMERICAN_FLAMINGO_1.jpg,ALCPF5NANBDSZ
732,1.0,right,right,1.0,0.9443,0.0,12.0,12.0,12.0,1.0,SCARLET_IBIS_3.jpg,CRESTED_NUTHATCH_2.jpg,ALCPF5NANBDSZ
733,2.0,right,right,1.0,2.1881,0.0,13.0,13.0,13.0,1.0,ALBATROSS_4.jpg,PINK_ROBIN_4.jpg,ALCPF5NANBDSZ
734,3.0,right,left,0.0,2.1313,0.0,14.0,14.0,14.0,1.0,BALD_EAGLE_5.jpg,SHOEBILL_3.jpg,ALCPF5NANBDSZ
735,1.0,left,left,1.0,2.8612,0.0,15.0,15.0,15.0,1.0,LESSER_ADJUTANT_5.jpg,GREEN_BROADBILL_4.jpg,ALCPF5NANBDSZ
736,2.0,right,left,0.0,1.427,0.0,16.0,16.0,16.0,1.0,OYSTER_CATCHER_2.jpg,ASIAN_CRESTED_IBIS_4.jpg,ALCPF5NANBDSZ
737,3.0,right,right,1.0,1.7346,0.0,17.0,17.0,17.0,1.0,BLACK_THROATED_BUSHTIT_1.jpg,CHUKAR_PARTRIDGE_5.jpg,ALCPF5NANBDSZ
738,2.0,left,left,1.0,0.6976,0.0,18.0,18.0,18.0,1.0,PYGMY_KINGFISHER_5.jpg,MASKED_BOOBY_5.jpg,ALCPF5NANBDSZ
739,3.0,left,left,1.0,2.6629,0.0,19.0,19.0,19.0,1.0,GRAY_KINGBIRD_5.jpg,AFRICAN_FIREFINCH_3.jpg,ALCPF5NANBDSZ
740,3.0,left,left,1.0,2.0919,0.0,20.0,20.0,20.0,1.0,RUBY_THROATED_HUMMINGBIRD_1.jpg,FRIGATE_1.jpg,ALCPF5NANBDSZ
741,2.0,left,right,0.0,2.0312,0.0,21.0,21.0,21.0,1.0,CERULEAN_WARBLER_1.jpg,AMERICAN_FLAMINGO_5.jpg,ALCPF5NANBDSZ
742,1.0,left,left,1.0,0.9131,0.0,22.0,22.0,22.0,1.0,IVORY_GULL_1.jpg,WILSONS_BIRD_OF_PARADISE_4.jpg,ALCPF5NANBDSZ
743,1.0,left,right,0.0,1.1603,0.0,23.0,23.0,23.0,1.0,ECUADORIAN_HILLSTAR_5.jpg,SCARLET_IBIS_2.jpg,ALCPF5NANBDSZ
744,2.0,right,left,0.0,2.3287,0.0,24.0,24.0,24.0,1.0,HOUSE_FINCH_2.jpg,GOLDEN_CHEEKED_WARBLER_2.jpg,ALCPF5NANBDSZ
745,2.0,left,left,1.0,2.4492,0.0,25.0,25.0,25.0,1.0,INCA_TERN_4.jpg,SMITHS_LONGSPUR_5.jpg,ALCPF5NANBDSZ
746,2.0,left,left,1.0,2.7501,0.0,26.0,26.0,26.0,1.0,LESSER_ADJUTANT_4.jpg,RAINBOW_LORIKEET_5.jpg,ALCPF5NANBDSZ
747,1.0,right,right,1.0,0.7498,0.0,27.0,27.0,27.0,1.0,OSTRICH_3.jpg,MYNA_1.jpg,ALCPF5NANBDSZ
748,3.0,right,right,1.0,2.9436,0.0,28.0,28.0,28.0,1.0,BEARDED_BELLBIRD_1.jpg,LITTLE_AUK_5.jpg,ALCPF5NANBDSZ
749,2.0,left,left,1.0,2.868,0.0,29.0,29.0,29.0,1.0,KAGU_5.jpg,ASHY_STORM_PETREL_1.jpg,ALCPF5NANBDSZ
750,2.0,right,right,1.0,1.8109,0.0,30.0,30.0,30.0,1.0,SPANGLED_COTINGA_4.jpg,BROWN_NOODY_3.jpg,ALCPF5NANBDSZ
751,3.0,right,left,0.0,2.2598,0.0,31.0,31.0,31.0,1.0,PINK_ROBIN_3.jpg,PARUS_MAJOR_1.jpg,ALCPF5NANBDSZ
752,3.0,left,left,1.0,2.9407,0.0,32.0,32.0,32.0,1.0,CASPIAN_TERN_1.jpg,COMMON_LOON_2.jpg,ALCPF5NANBDSZ
753,1.0,right,left,0.0,2.6005,0.0,33.0,33.0,33.0,1.0,PEACOCK_1.jpg,LARK_BUNTING_2.jpg,ALCPF5NANBDSZ
754,3.0,right,right,1.0,2.0438,0.0,34.0,34.0,34.0,1.0,BORNEAN_LEAFBIRD_3.jpg,ARARIPE_MANAKIN_4.jpg,ALCPF5NANBDSZ
755,2.0,right,left,0.0,0.8176,0.0,35.0,35.0,35.0,1.0,COMMON_HOUSE_MARTIN_4.jpg,GOLDEN_CHLOROPHONIA_5.jpg,ALCPF5NANBDSZ
756,2.0,left,left,1.0,2.6364,0.0,36.0,36.0,36.0,1.0,EUROPEAN_TURTLE_DOVE_3.jpg,PAINTED_BUNTING_3.jpg,ALCPF5NANBDSZ
757,1.0,right,left,0.0,2.201,0.0,37.0,37.0,37.0,1.0,CAPE_LONGCLAW_5.jpg,BALI_STARLING_1.jpg,ALCPF5NANBDSZ
758,2.0,left,left,1.0,0.961,0.0,38.0,38.0,38.0,1.0,BROWN_THRASHER_3.jpg,OYSTER_CATCHER_4.jpg,ALCPF5NANBDSZ
759,2.0,right,left,0.0,1.4159,0.0,39.0,39.0,39.0,1.0,DOUBLE_BRESTED_CORMARANT_1.jpg,SPLENDID_WREN_1.jpg,ALCPF5NANBDSZ
760,3.0,right,right,1.0,1.7199,0.0,40.0,40.0,40.0,1.0,SCARLET_IBIS_4.jpg,NORTHERN_JACANA_3.jpg,ALCPF5NANBDSZ
761,2.0,left,left,1.0,0.6993,0.0,41.0,41.0,41.0,1.0,GREY_PLOVER_1.jpg,GOULDIAN_FINCH_4.jpg,ALCPF5NANBDSZ
762,2.0,left,left,1.0,2.4468,0.0,42.0,42.0,42.0,1.0,CRESTED_CARACARA_4.jpg,INDIAN_PITTA_2.jpg,ALCPF5NANBDSZ
763,1.0,right,left,0.0,1.9093,0.0,43.0,43.0,43.0,1.0,KIWI_4.jpg,AFRICAN_PIED_HORNBILL_5.jpg,ALCPF5NANBDSZ
764,1.0,left,left,1.0,3.375,0.0,44.0,44.0,44.0,1.0,ALPINE_CHOUGH_4.jpg,SNOWY_EGRET_2.jpg,ALCPF5NANBDSZ
765,3.0,left,right,0.0,2.3334,0.0,45.0,45.0,45.0,1.0,EASTERN_TOWEE_2.jpg,NORTHERN_BEARDLESS_TYRANNULET_5.jpg,ALCPF5NANBDSZ
766,3.0,right,left,0.0,1.0408,0.0,46.0,46.0,46.0,1.0,HORNED_SUNGEM_4.jpg,RUFOUS_KINGFISHER_1.jpg,ALCPF5NANBDSZ
767,3.0,left,left,1.0,2.6682,0.0,47.0,47.0,47.0,1.0,RUBY_THROATED_HUMMINGBIRD_3.jpg,NORTHERN_SHOVELER_1.jpg,ALCPF5NANBDSZ
768,3.0,right,left,0.0,2.5466,0.0,48.0,48.0,48.0,1.0,PYGMY_KINGFISHER_2.jpg,WHITE_CHEEKED_TURACO_5.jpg,ALCPF5NANBDSZ
769,3.0,right,right,1.0,2.085,0.0,49.0,49.0,49.0,1.0,COPPERY_TAILED_COUCAL_1.jpg,TASMANIAN_HEN_5.jpg,ALCPF5NANBDSZ
770,1.0,left,left,1.0,2.99,0.0,50.0,50.0,50.0,1.0,RED_HEADED_WOODPECKER_5.jpg,ASHY_STORM_PETREL_2.jpg,ALCPF5NANBDSZ
771,1.0,right,left,0.0,1.8784,0.0,51.0,51.0,51.0,1.0,CASSOWARY_2.jpg,INLAND_DOTTEREL_4.jpg,ALCPF5NANBDSZ
772,1.0,right,right,1.0,1.2487,0.0,52.0,52.0,52.0,1.0,INDIAN_BUSTARD_1.jpg,VERMILION_FLYCATHER_3.jpg,ALCPF5NANBDSZ
773,2.0,right,right,1.0,3.2954,0.0,53.0,53.0,53.0,1.0,FAIRY_PENGUIN_1.jpg,OVENBIRD_5.jpg,ALCPF5NANBDSZ
774,3.0,left,left,1.0,0.0005,0.0,54.0,54.0,54.0,1.0,KILLDEAR_2.jpg,AZURE_TIT_5.jpg,ALCPF5NANBDSZ
775,3.0,right,left,0.0,2.0097,0.0,55.0,55.0,55.0,1.0,PURPLE_SWAMPHEN_4.jpg,OCELLATED_TURKEY_1.jpg,ALCPF5NANBDSZ
776,1.0,right,left,0.0,2.2646,0.0,56.0,56.0,56.0,1.0,ANIANIAU_2.jpg,PEACOCK_3.jpg,ALCPF5NANBDSZ
777,3.0,right,right,1.0,2.0249,0.0,57.0,57.0,57.0,1.0,WATTLED_LAPWING_3.jpg,HAWAIIAN_GOOSE_4.jpg,ALCPF5NANBDSZ
778,3.0,left,left,1.0,0.7602,0.0,58.0,58.0,58.0,1.0,FLAME_BOWERBIRD_3.jpg,QUETZAL_3.jpg,ALCPF5NANBDSZ
779,2.0,right,left,0.0,2.5423,0.0,59.0,59.0,59.0,1.0,HAMERKOP_1.jpg,MAGPIE_GOOSE_5.jpg,ALCPF5NANBDSZ
780,2.0,right,right,1.0,8.2969,0.0,0.0,0.0,0.0,1.0,LOGGERHEAD_SHRIKE_4.jpg,ASIAN_DOLLARD_BIRD_2.jpg,AUZP4FPD6UTNU
781,1.0,right,left,0.0,2.0142,0.0,1.0,1.0,1.0,1.0,POMARINE_JAEGER_5.jpg,SPLENDID_WREN_1.jpg,AUZP4FPD6UTNU
782,2.0,left,right,0.0,1.849900001,0.0,2.0,2.0,2.0,1.0,AFRICAN_PIED_HORNBILL_5.jpg,ALEXANDRINE_PARAKEET_1.jpg,AUZP4FPD6UTNU
783,3.0,left,left,1.0,1.6988,0.0,3.0,3.0,3.0,1.0,OVENBIRD_5.jpg,SHORT_BILLED_DOWITCHER_5.jpg,AUZP4FPD6UTNU
784,1.0,right,right,1.0,2.3482,0.0,4.0,4.0,4.0,1.0,GOLDEN_CHLOROPHONIA_2.jpg,RUBY_THROATED_HUMMINGBIRD_2.jpg,AUZP4FPD6UTNU
785,3.0,left,right,0.0,2.159400001,0.0,5.0,5.0,5.0,1.0,ASIAN_CRESTED_IBIS_4.jpg,IVORY_GULL_2.jpg,AUZP4FPD6UTNU
786,2.0,right,left,0.0,1.8654,0.0,6.0,6.0,6.0,1.0,FLAME_TANAGER_3.jpg,IVORY_GULL_3.jpg,AUZP4FPD6UTNU
787,2.0,left,right,0.0,1.4865,0.0,7.0,7.0,7.0,1.0,ALPINE_CHOUGH_4.jpg,EUROPEAN_GOLDFINCH_3.jpg,AUZP4FPD6UTNU
788,2.0,right,left,0.0,1.744400001,0.0,8.0,8.0,8.0,1.0,PAINTED_BUNTING_3.jpg,EUROPEAN_TURTLE_DOVE_3.jpg,AUZP4FPD6UTNU
789,3.0,right,right,1.0,1.7523,0.0,9.0,9.0,9.0,1.0,GREEN_BROADBILL_5.jpg,MALACHITE_KINGFISHER_2.jpg,AUZP4FPD6UTNU
790,2.0,right,right,1.0,2.6522,0.0,10.0,10.0,10.0,1.0,CRIMSON_CHAT_3.jpg,RED_HEADED_WOODPECKER_5.jpg,AUZP4FPD6UTNU
791,1.0,right,left,0.0,4.898,0.0,11.0,11.0,11.0,1.0,INDIAN_BUSTARD_2.jpg,FLAME_BOWERBIRD_3.jpg,AUZP4FPD6UTNU
792,3.0,right,right,1.0,2.1814,0.0,12.0,12.0,12.0,1.0,NORTHERN_BEARDLESS_TYRANNULET_5.jpg,EASTERN_TOWEE_2.jpg,AUZP4FPD6UTNU
793,1.0,right,left,0.0,1.9037,0.0,13.0,13.0,13.0,1.0,ROADRUNNER_2.jpg,GOLDEN_CHLOROPHONIA_5.jpg,AUZP4FPD6UTNU
794,1.0,right,left,0.0,2.060099999,0.0,14.0,14.0,14.0,1.0,CUBAN_TODY_3.jpg,HAWAIIAN_GOOSE_4.jpg,AUZP4FPD6UTNU
795,2.0,right,left,0.0,1.746,0.0,15.0,15.0,15.0,1.0,INDIAN_PITTA_2.jpg,CRESTED_CARACARA_4.jpg,AUZP4FPD6UTNU
796,1.0,left,left,1.0,2.2012,0.0,16.0,16.0,16.0,1.0,PEACOCK_3.jpg,ANIANIAU_2.jpg,AUZP4FPD6UTNU
797,3.0,right,right,1.0,1.6915,0.0,17.0,17.0,17.0,1.0,AFRICAN_FIREFINCH_3.jpg,GRAY_KINGBIRD_5.jpg,AUZP4FPD6UTNU
798,3.0,left,left,1.0,2.0305,0.0,18.0,18.0,18.0,1.0,BALI_STARLING_1.jpg,IBERIAN_MAGPIE_1.jpg,AUZP4FPD6UTNU
799,3.0,right,right,1.0,1.8834,0.0,19.0,19.0,19.0,1.0,COMMON_LOON_2.jpg,CASPIAN_TERN_1.jpg,AUZP4FPD6UTNU
800,3.0,left,left,1.0,2.0099,0.0,20.0,20.0,20.0,1.0,LESSER_ADJUTANT_5.jpg,RED_HEADED_WOODPECKER_1.jpg,AUZP4FPD6UTNU
801,1.0,left,left,1.0,2.0795,0.0,21.0,21.0,21.0,1.0,BREWERS_BLACKBIRD_3.jpg,GUINEA_TURACO_3.jpg,AUZP4FPD6UTNU
802,2.0,left,right,0.0,1.739,0.0,22.0,22.0,22.0,1.0,INCA_TERN_4.jpg,SMITHS_LONGSPUR_5.jpg,AUZP4FPD6UTNU
803,3.0,left,left,1.0,2.035099999,0.0,23.0,23.0,23.0,1.0,KAGU_5.jpg,DEMOISELLE_CRANE_1.jpg,AUZP4FPD6UTNU
804,1.0,right,left,0.0,1.9702,0.0,24.0,24.0,24.0,1.0,MALAGASY_WHITE_EYE_2.jpg,RUBY_THROATED_HUMMINGBIRD_3.jpg,AUZP4FPD6UTNU
805,1.0,left,right,0.0,1.6114,0.0,25.0,25.0,25.0,1.0,IVORY_GULL_1.jpg,WILSONS_BIRD_OF_PARADISE_4.jpg,AUZP4FPD6UTNU
806,1.0,right,right,1.0,2.013,0.0,26.0,26.0,26.0,1.0,OSTRICH_1.jpg,GYRFALCON_1.jpg,AUZP4FPD6UTNU
807,3.0,left,right,0.0,2.0089,0.0,27.0,27.0,27.0,1.0,RUFOUS_KINGFISHER_1.jpg,HORNED_SUNGEM_4.jpg,AUZP4FPD6UTNU
808,1.0,left,left,1.0,2.1722,0.0,28.0,28.0,28.0,1.0,NORTHERN_JACANA_3.jpg,AMERICAN_GOLDFINCH_4.jpg,AUZP4FPD6UTNU
809,3.0,right,right,1.0,2.0757,0.0,29.0,29.0,29.0,1.0,PARADISE_TANAGER_3.jpg,MYNA_1.jpg,AUZP4FPD6UTNU
810,3.0,left,right,0.0,1.8782,0.0,30.0,30.0,30.0,1.0,VERMILION_FLYCATHER_3.jpg,RED_BEARDED_BEE_EATER_1.jpg,AUZP4FPD6UTNU
811,1.0,left,right,0.0,2.007900001,0.0,31.0,31.0,31.0,1.0,STRIPPED_SWALLOW_1.jpg,DOUBLE_BRESTED_CORMARANT_4.jpg,AUZP4FPD6UTNU
812,2.0,right,left,0.0,1.9544,0.0,32.0,32.0,32.0,1.0,AMERICAN_PIPIT_1.jpg,OCELLATED_TURKEY_1.jpg,AUZP4FPD6UTNU
813,1.0,right,right,1.0,1.6151,0.0,33.0,33.0,33.0,1.0,ALTAMIRA_YELLOWTHROAT_5.jpg,LESSER_ADJUTANT_4.jpg,AUZP4FPD6UTNU
814,2.0,left,right,0.0,1.784900001,0.0,34.0,34.0,34.0,1.0,CERULEAN_WARBLER_1.jpg,AMERICAN_FLAMINGO_5.jpg,AUZP4FPD6UTNU
815,2.0,left,left,1.0,2.0566,0.0,35.0,35.0,35.0,1.0,LITTLE_AUK_5.jpg,ORANGE_BRESTED_BUNTING_3.jpg,AUZP4FPD6UTNU
816,2.0,right,left,0.0,2.5713,0.0,36.0,36.0,36.0,1.0,RAZORBILL_1.jpg,CHUKAR_PARTRIDGE_5.jpg,AUZP4FPD6UTNU
817,3.0,right,right,1.0,2.456,0.0,37.0,37.0,37.0,1.0,DARWINS_FLYCATCHER_2.jpg,INDIGO_BUNTING_1.jpg,AUZP4FPD6UTNU
818,3.0,left,right,0.0,2.3072,0.0,38.0,38.0,38.0,1.0,WHITE_CHEEKED_TURACO_5.jpg,PYGMY_KINGFISHER_2.jpg,AUZP4FPD6UTNU
819,2.0,right,left,0.0,2.0782,0.0,39.0,39.0,39.0,1.0,GREEN_MAGPIE_1.jpg,AMERICAN_PIPIT_5.jpg,AUZP4FPD6UTNU
820,1.0,right,right,1.0,1.1428,0.0,40.0,40.0,40.0,1.0,BANANAQUIT_2.jpg,RUBY_THROATED_HUMMINGBIRD_1.jpg,AUZP4FPD6UTNU
821,1.0,right,right,1.0,1.5745,0.0,41.0,41.0,41.0,1.0,SPOONBILL_3.jpg,PINK_ROBIN_4.jpg,AUZP4FPD6UTNU
822,1.0,left,left,1.0,2.5211,0.0,42.0,42.0,42.0,1.0,DOUBLE_BRESTED_CORMARANT_5.jpg,GILDED_FLICKER_2.jpg,AUZP4FPD6UTNU
823,3.0,right,right,1.0,4.791099999,0.0,43.0,43.0,43.0,1.0,AFRICAN_OYSTER_CATCHER_2.jpg,CASSOWARY_1.jpg,AUZP4FPD6UTNU
824,2.0,left,left,1.0,8.508599999,0.0,44.0,44.0,44.0,1.0,GREY_PLOVER_1.jpg,GOULDIAN_FINCH_4.jpg,AUZP4FPD6UTNU
825,2.0,right,right,1.0,1.877599999,0.0,45.0,45.0,45.0,1.0,AFRICAN_FIREFINCH_1.jpg,CRESTED_NUTHATCH_2.jpg,AUZP4FPD6UTNU
826,2.0,left,left,1.0,2.1575,0.0,46.0,46.0,46.0,1.0,LARK_BUNTING_2.jpg,KING_VULTURE_3.jpg,AUZP4FPD6UTNU
827,2.0,left,right,0.0,6.3805,0.0,47.0,47.0,47.0,1.0,BROWN_THRASHER_3.jpg,OYSTER_CATCHER_4.jpg,AUZP4FPD6UTNU
828,1.0,right,left,0.0,1.3618,0.0,48.0,48.0,48.0,1.0,EASTERN_MEADOWLARK_1.jpg,SHOEBILL_3.jpg,AUZP4FPD6UTNU
829,3.0,left,right,0.0,4.2658,0.0,49.0,49.0,49.0,1.0,ECUADORIAN_HILLSTAR_5.jpg,CRIMSON_SUNBIRD_5.jpg,AUZP4FPD6UTNU
830,3.0,left,left,1.0,1.6002,0.0,50.0,50.0,50.0,1.0,SCARLET_TANAGER_2.jpg,BORNEAN_LEAFBIRD_1.jpg,AUZP4FPD6UTNU
831,1.0,left,left,1.0,1.6479,0.0,51.0,51.0,51.0,1.0,PARUS_MAJOR_1.jpg,SANDHILL_CRANE_4.jpg,AUZP4FPD6UTNU
832,2.0,right,right,1.0,2.0355,0.0,52.0,52.0,52.0,1.0,CAATINGA_CACHOLOTE_4.jpg,KILLDEAR_2.jpg,AUZP4FPD6UTNU
833,2.0,left,right,0.0,1.975400001,0.0,53.0,53.0,53.0,1.0,BROWN_NOODY_3.jpg,SPANGLED_COTINGA_4.jpg,AUZP4FPD6UTNU
834,3.0,right,left,0.0,2.3018,0.0,54.0,54.0,54.0,1.0,OYSTER_CATCHER_3.jpg,MAGPIE_GOOSE_5.jpg,AUZP4FPD6UTNU
835,2.0,left,left,1.0,2.2008,0.0,55.0,55.0,55.0,1.0,ARARIPE_MANAKIN_4.jpg,BLACK_VULTURE_1.jpg,AUZP4FPD6UTNU
836,1.0,left,left,1.0,2.0572,0.0,56.0,56.0,56.0,1.0,TASMANIAN_HEN_5.jpg,GREEN_BROADBILL_1.jpg,AUZP4FPD6UTNU
837,1.0,left,right,0.0,1.816400001,0.0,57.0,57.0,57.0,1.0,PYGMY_KINGFISHER_5.jpg,GRANDALA_2.jpg,AUZP4FPD6UTNU
838,3.0,right,right,1.0,1.7093,0.0,58.0,58.0,58.0,1.0,WHITE_THROATED_BEE_EATER_1.jpg,GOLDEN_CHEEKED_WARBLER_2.jpg,AUZP4FPD6UTNU
839,3.0,right,left,0.0,3.0019,0.0,59.0,59.0,59.0,1.0,CRESTED_KINGFISHER_1.jpg,INLAND_DOTTEREL_4.jpg,AUZP4FPD6UTNU
