Unnamed: 0,layer,correct,test_test_response.keys,is_correct,rt,trials_2.thisRepN,trial_num,trials_2.thisN,trials_2.thisIndex,trials_2.ran,image1,image2,subject,time_gap,level_0,level_1,level_2,level_3,level_4,level_5,level_6
0,3.0,right,right,1.0,9.1912,0.0,0.0,0.0,0.0,1.0,2864911457-362260.jpg,2874303365-214262.jpg,A15B4KZ3S04HS8,pilot_24_hours,0.4313089,0.37365657,0.2835693,0.22859405,0.3964164,0.665625,0.77801746
1,3.0,right,left,0.0,1.1568,0.0,1.0,1.0,1.0,1.0,2994401319-148290.jpg,2452381505-199546.jpg,A15B4KZ3S04HS8,pilot_24_hours,0.35990402,0.31692538,0.22359172,0.18342426,0.34985194,0.5815142,0.67270917
2,2.0,right,right,1.0,1.6708,0.0,2.0,2.0,2.0,1.0,2575118671-277663.jpg,2898633421-291973.jpg,A15B4KZ3S04HS8,pilot_24_hours,,,,,,,
3,1.0,left,left,1.0,2.5987,0.0,3.0,3.0,3.0,1.0,2512875899-126682.jpg,2460547536-274179.jpg,A15B4KZ3S04HS8,pilot_24_hours,0.5199955,0.34948564,0.2479404,0.17140874,0.19265997,0.33449987,0.3462885
4,1.0,left,left,1.0,1.6051,0.0,4.0,4.0,4.0,1.0,2864907432-362042.jpg,2864901420-212147.jpg,A15B4KZ3S04HS8,pilot_24_hours,0.59345675,0.4825464,0.3883044,0.3589675,0.29833612,0.5871845,0.63814354
5,3.0,right,right,1.0,1.6417,0.0,5.0,5.0,5.0,1.0,2238578544-111698.jpg,2874302418-65979.jpg,A15B4KZ3S04HS8,pilot_24_hours,0.435088,0.3905231,0.30866048,0.29409418,0.28483465,0.5227267,0.6263716
6,2.0,right,right,1.0,1.249,0.0,6.0,6.0,6.0,1.0,2238481813-19930.jpg,2452380832-348593.jpg,A15B4KZ3S04HS8,pilot_24_hours,0.374723,0.36450496,0.26922452,0.22580554,0.22779249,0.40911004,0.44046256
7,2.0,right,right,1.0,1.875,0.0,7.0,7.0,7.0,1.0,2874301404-139813.jpg,2981241414-145842.jpg,A15B4KZ3S04HS8,pilot_24_hours,0.46164504,0.39996457,0.3227727,0.34605607,0.374826,0.56032145,0.63799524
8,3.0,left,left,1.0,1.3383,0.0,8.0,8.0,8.0,1.0,2238428357-313623.jpg,2575121987-353817.jpg,A15B4KZ3S04HS8,pilot_24_hours,0.43196657,0.39292827,0.28720468,0.19904062,0.23741181,0.5306423,0.69074744
9,2.0,left,left,1.0,1.39,0.0,9.0,9.0,9.0,1.0,2898635428-69104.jpg,2901943411-292945.jpg,A15B4KZ3S04HS8,pilot_24_hours,0.45939028,0.36862105,0.3106206,0.28417727,0.23500526,0.43551317,0.40768757
10,3.0,right,right,1.0,1.6253,0.0,10.0,10.0,10.0,1.0,2883273443-68193.jpg,2901941401-292798.jpg,A15B4KZ3S04HS8,pilot_24_hours,0.44746235,0.34636408,0.26594776,0.23429683,0.32963687,0.7793218,0.88836807
11,3.0,left,right,0.0,2.884,0.0,11.0,11.0,11.0,1.0,2446759347-347016.jpg,2238569117-333045.jpg,A15B4KZ3S04HS8,pilot_24_hours,,,,,,,
12,3.0,left,left,1.0,1.6311,0.0,12.0,12.0,12.0,1.0,2874302418-65978.jpg,2898633321-291943.jpg,A15B4KZ3S04HS8,pilot_24_hours,0.46703973,0.41898158,0.3302842,0.3685597,0.55371046,0.7059381,0.68612033
13,3.0,left,right,0.0,2.3838,0.0,13.0,13.0,13.0,1.0,2446758985-197609.jpg,2898624426-291544.jpg,A15B4KZ3S04HS8,pilot_24_hours,0.56090397,0.39143613,0.29625887,0.2834665,0.35848063,0.54974097,0.5566899
14,1.0,left,right,0.0,1.6297,0.0,14.0,14.0,14.0,1.0,2575120738-55529.jpg,2898632385-217138.jpg,A15B4KZ3S04HS8,pilot_24_hours,0.5639598,0.3402834,0.25403792,0.19583048,0.23839176,0.3934025,0.46560585
15,1.0,right,right,1.0,1.1787,0.0,15.0,15.0,15.0,1.0,2986447306-296584.jpg,2874307433-66280.jpg,A15B4KZ3S04HS8,pilot_24_hours,0.5729314,0.47285256,0.3596191,0.28575647,0.21723282,0.45388037,0.48333797
16,2.0,left,left,1.0,1.2688,0.0,16.0,16.0,16.0,1.0,2898617468-68274.jpg,2901943387-368037.jpg,A15B4KZ3S04HS8,pilot_24_hours,0.53689355,0.37196258,0.2654241,0.20488447,0.1818731,0.48322728,0.5781511
17,2.0,right,left,0.0,1.3297,0.0,17.0,17.0,17.0,1.0,2981244403-72215.jpg,2981231403-71642.jpg,A15B4KZ3S04HS8,pilot_24_hours,0.44787115,0.42172083,0.356711,0.33921996,0.31835416,0.50796586,0.52843755
18,2.0,left,right,0.0,2.7922,0.0,18.0,18.0,18.0,1.0,2874299429-139695.jpg,2901942443-69923.jpg,A15B4KZ3S04HS8,pilot_24_hours,0.5193072,0.44340736,0.35605532,0.38188067,0.3980925,0.54148394,0.5344394
19,2.0,right,left,0.0,0.984,0.0,19.0,19.0,19.0,1.0,2874299429-139694.jpg,2864910426-287204.jpg,A15B4KZ3S04HS8,pilot_24_hours,0.5552636,0.47590056,0.38478744,0.36430702,0.32955557,0.5447559,0.5066602
20,2.0,right,right,1.0,1.6351,0.0,20.0,20.0,20.0,1.0,2868469411-287540.jpg,2901952513-70703.jpg,A15B4KZ3S04HS8,pilot_24_hours,0.5153487,0.45667544,0.3625235,0.35688245,0.32005706,0.44773152,0.39204705
21,1.0,left,left,1.0,1.8594,0.0,21.0,21.0,21.0,1.0,2460547467-349421.jpg,2898631394-142727.jpg,A15B4KZ3S04HS8,pilot_24_hours,0.5369642,0.33622375,0.24569578,0.18908463,0.20959054,0.5594763,0.61603135
22,3.0,left,left,1.0,1.5474,0.0,22.0,22.0,22.0,1.0,2460547467-349422.jpg,2864909447-362146.jpg,A15B4KZ3S04HS8,pilot_24_hours,0.49565285,0.35477045,0.24113931,0.18144597,0.1697212,0.52246857,0.5917044
23,3.0,left,right,0.0,1.6668,0.0,23.0,23.0,23.0,1.0,2874301407-363895.jpg,2901947323-70275.jpg,A15B4KZ3S04HS8,pilot_24_hours,0.45446128,0.3984934,0.31324828,0.27766934,0.4040346,0.6321532,0.6937665
24,3.0,left,left,1.0,1.9838,0.0,24.0,24.0,24.0,1.0,2238481928-19949.jpg,2981241419-145844.jpg,A15B4KZ3S04HS8,pilot_24_hours,0.44928864,0.41116577,0.33683482,0.312805,0.46707627,0.6581305,0.70640194
25,3.0,right,right,1.0,1.7282,0.0,25.0,25.0,25.0,1.0,2864903351-286874.jpg,2238572663-35822.jpg,A15B4KZ3S04HS8,pilot_24_hours,0.46827924,0.42087364,0.33595535,0.32848698,0.41157973,0.58956367,0.66025716
26,1.0,right,right,1.0,1.9386,0.0,26.0,26.0,26.0,1.0,2984626312-370849.jpg,2883268412-365898.jpg,A15B4KZ3S04HS8,pilot_24_hours,,,,,,,
27,1.0,left,left,1.0,1.8684,0.0,27.0,27.0,27.0,1.0,2458347385-199723.jpg,2238480434-93829.jpg,A15B4KZ3S04HS8,pilot_24_hours,0.50086415,0.34138843,0.19402216,0.11946193,0.19492193,0.40909523,0.4498839
28,2.0,left,left,1.0,1.4893,0.0,28.0,28.0,28.0,1.0,2901939379-143480.jpg,2981229442-369621.jpg,A15B4KZ3S04HS8,pilot_24_hours,0.49975038,0.39601797,0.30036464,0.31215048,0.38268885,0.68406695,0.77335453
29,1.0,right,right,1.0,1.4427,0.0,29.0,29.0,29.0,1.0,2981244394-145974.jpg,2964213381-294060.jpg,A15B4KZ3S04HS8,pilot_24_hours,0.42820492,0.24218234,0.1553041,0.10105748,0.1250157,0.24639821,0.31855497
30,2.0,right,right,1.0,1.657,0.0,30.0,30.0,30.0,1.0,2883255450-215310.jpg,2883268471-290842.jpg,A15B4KZ3S04HS8,pilot_24_hours,0.49830908,0.38274103,0.3048058,0.33919033,0.51375943,0.74015135,0.7810825
31,1.0,right,right,1.0,1.7322,0.0,31.0,31.0,31.0,1.0,2460547291-274110.jpg,2460547508-51571.jpg,A15B4KZ3S04HS8,pilot_24_hours,0.5160358,0.3647782,0.280446,0.25256267,0.25184473,0.56593484,0.66971105
32,1.0,left,left,1.0,1.754,0.0,32.0,32.0,32.0,1.0,2592379964-131054.jpg,2575963989-130576.jpg,A15B4KZ3S04HS8,pilot_24_hours,,,,,,,
33,1.0,left,left,1.0,2.2641,0.0,33.0,33.0,33.0,1.0,2868474407-362883.jpg,2238516618-25604.jpg,A15B4KZ3S04HS8,pilot_24_hours,0.49136335,0.40578243,0.28046528,0.2019003,0.1675316,0.21012488,0.2455
34,1.0,right,right,1.0,1.9586,0.0,34.0,34.0,34.0,1.0,2986449336-296644.jpg,2898618390-216538.jpg,A15B4KZ3S04HS8,pilot_24_hours,,,,,,,
35,1.0,left,right,0.0,1.705,0.0,35.0,35.0,35.0,1.0,2449441881-272368.jpg,2883268412-365899.jpg,A15B4KZ3S04HS8,pilot_24_hours,0.5410156,0.45799455,0.34505528,0.286662,0.24581994,0.45447862,0.48690936
36,1.0,left,left,1.0,11.4086,0.0,36.0,36.0,36.0,1.0,2238580740-186218.jpg,2238550816-254000.jpg,A15B4KZ3S04HS8,pilot_24_hours,0.4973932,0.41223717,0.30328286,0.20491391,0.18613486,0.37473956,0.46783727
37,3.0,right,left,0.0,1.2629,0.0,37.0,37.0,37.0,1.0,2898632385-217137.jpg,2449442529-124445.jpg,A15B4KZ3S04HS8,pilot_24_hours,0.56327224,0.370537,0.25124434,0.1986445,0.29747447,0.5436038,0.5688294
38,3.0,left,left,1.0,2.2893,0.0,38.0,38.0,38.0,1.0,2898624426-291546.jpg,2981235446-294900.jpg,A15B4KZ3S04HS8,pilot_24_hours,0.40954354,0.33688876,0.23204137,0.18370157,0.32616192,0.6754603,0.78828114
39,3.0,left,right,0.0,1.3736,0.0,39.0,39.0,39.0,1.0,2986451363-73599.jpg,2238434559-90406.jpg,A15B4KZ3S04HS8,pilot_24_hours,0.44659236,0.4053699,0.32556635,0.30618906,0.32790762,0.6873194,0.7664167
40,3.0,right,right,1.0,1.4937,0.0,40.0,40.0,40.0,1.0,2981240424-145794.jpg,2901939379-143479.jpg,A15B4KZ3S04HS8,pilot_24_hours,0.53037846,0.3620483,0.26633617,0.22732091,0.33637905,0.67839944,0.80089146
41,3.0,left,right,0.0,1.6543,0.0,41.0,41.0,41.0,1.0,2964218374-144967.jpg,2981231446-294732.jpg,A15B4KZ3S04HS8,pilot_24_hours,0.43929955,0.349037,0.26745695,0.26533732,0.39973593,0.71258515,0.8014253
42,2.0,right,right,1.0,1.5286,0.0,42.0,42.0,42.0,1.0,2864900319-137787.jpg,2964216465-219242.jpg,A15B4KZ3S04HS8,pilot_24_hours,0.35281357,0.32652706,0.27335155,0.31188416,0.34734574,0.45975578,0.5420855
43,1.0,left,right,0.0,1.3368,0.0,43.0,43.0,43.0,1.0,2898635427-367120.jpg,2901946439-144040.jpg,A15B4KZ3S04HS8,pilot_24_hours,0.61027014,0.37000093,0.2783869,0.26648015,0.2731639,0.5175424,0.5595859
44,3.0,left,left,1.0,1.688,0.0,44.0,44.0,44.0,1.0,2898618444-142233.jpg,2898618444-142232.jpg,A15B4KZ3S04HS8,pilot_24_hours,0.52357376,0.37710276,0.31768098,0.4009868,0.4916404,0.6854271,0.72513264
45,1.0,right,right,1.0,3.2504,0.0,45.0,45.0,45.0,1.0,2860312398-62572.jpg,2901947423-70311.jpg,A15B4KZ3S04HS8,pilot_24_hours,0.53313386,0.4372231,0.2922769,0.18165857,0.084899515,0.43745193,0.60998756
46,1.0,right,right,1.0,2.0295,0.0,46.0,46.0,46.0,1.0,2549106624-127823.jpg,2238560245-182099.jpg,A15B4KZ3S04HS8,pilot_24_hours,0.47466877,0.3691004,0.25184336,0.15428324,0.10720641,0.32316142,0.45908356
47,2.0,left,left,1.0,1.4089,0.0,47.0,47.0,47.0,1.0,2238481198-19822.jpg,2901946436-293242.jpg,A15B4KZ3S04HS8,pilot_24_hours,0.4657863,0.4303175,0.33850726,0.3617698,0.4721276,0.66418993,0.763763
48,2.0,right,left,0.0,1.589,0.0,48.0,48.0,48.0,1.0,2417208001-267065.jpg,2901948350-218459.jpg,A15B4KZ3S04HS8,pilot_24_hours,0.43856868,0.3936929,0.33982116,0.3361954,0.41142365,0.63936585,0.761081
49,2.0,right,right,1.0,2.1158,0.0,49.0,49.0,49.0,1.0,2579432534-130704.jpg,2592380177-354629.jpg,A15B4KZ3S04HS8,pilot_24_hours,,,,,,,
50,2.0,left,left,1.0,1.627,0.0,50.0,50.0,50.0,1.0,2238425482-313537.jpg,2238436322-314047.jpg,A15B4KZ3S04HS8,pilot_24_hours,0.44569394,0.4046562,0.32536173,0.3183514,0.2763789,0.51701105,0.5242603
51,2.0,right,left,0.0,1.5472,0.0,51.0,51.0,51.0,1.0,2898632385-217136.jpg,2883254439-140941.jpg,A15B4KZ3S04HS8,pilot_24_hours,0.513491,0.39700502,0.3063731,0.3080888,0.47375554,0.6805278,0.71995974
52,1.0,left,left,1.0,1.9529,0.0,52.0,52.0,52.0,1.0,2964223381-294447.jpg,2427874231-269884.jpg,A15B4KZ3S04HS8,pilot_24_hours,0.45845124,0.38918623,0.27616423,0.19303282,0.14413087,0.37973619,0.46351248
53,3.0,left,right,0.0,2.9934,0.0,53.0,53.0,53.0,1.0,2883256307-365057.jpg,2864904453-63933.jpg,A15B4KZ3S04HS8,pilot_24_hours,0.44800618,0.38843414,0.29706392,0.21186201,0.3401989,0.54178464,0.59857774
54,2.0,left,left,1.0,1.7086,0.0,54.0,54.0,54.0,1.0,2238480677-317399.jpg,2238573546-258454.jpg,A15B4KZ3S04HS8,pilot_24_hours,,,,,,,
55,3.0,right,left,0.0,1.6172,0.0,55.0,55.0,55.0,1.0,2964217461-294238.jpg,2898634397-367080.jpg,A15B4KZ3S04HS8,pilot_24_hours,0.4666453,0.39736822,0.2989827,0.32602307,0.46281493,0.7019079,0.7603448
56,2.0,left,left,1.0,1.7665,0.0,56.0,56.0,56.0,1.0,2449442529-124446.jpg,2460547536-274181.jpg,A15B4KZ3S04HS8,pilot_24_hours,0.4398614,0.38490975,0.27799332,0.2528648,0.3309133,0.5837218,0.7211686
57,2.0,left,right,0.0,1.8384,0.0,57.0,57.0,57.0,1.0,2592380177-354626.jpg,2864901386-286797.jpg,A15B4KZ3S04HS8,pilot_24_hours,0.47496974,0.38934562,0.28954622,0.23091,0.19591722,0.34192154,0.3526984
58,1.0,left,left,1.0,1.3064,0.0,58.0,58.0,58.0,1.0,2868475410-213219.jpg,2901946465-218350.jpg,A15B4KZ3S04HS8,pilot_24_hours,0.46510327,0.39892444,0.30901694,0.2669845,0.26836398,0.39279103,0.44677627
59,1.0,left,left,1.0,1.6734,0.0,59.0,59.0,59.0,1.0,2446759803-49249.jpg,2446760601-272099.jpg,A15B4KZ3S04HS8,pilot_24_hours,0.6366867,0.36089626,0.2596837,0.24597527,0.289005,0.5076119,0.55816644
60,3.0,left,left,1.0,3.2661,0.0,0.0,0.0,0.0,1.0,2874302418-65979.jpg,2238578544-111698.jpg,A1LA6CIGBNDOH9,pilot_24_hours,0.435088,0.3905231,0.30866048,0.29409418,0.28483465,0.5227267,0.6263716
61,2.0,left,left,1.0,2.6233,0.0,1.0,1.0,1.0,1.0,2898618390-216538.jpg,2901939327-367670.jpg,A1LA6CIGBNDOH9,pilot_24_hours,,,,,,,
62,2.0,right,right,1.0,1.9141,0.0,2.0,2.0,2.0,1.0,2860302315-210704.jpg,2986451363-73599.jpg,A1LA6CIGBNDOH9,pilot_24_hours,0.47658187,0.43035305,0.35701227,0.40708944,0.47469556,0.65646315,0.64133054
63,2.0,right,right,1.0,2.983,0.0,3.0,3.0,3.0,1.0,2460547536-274181.jpg,2449442529-124446.jpg,A1LA6CIGBNDOH9,pilot_24_hours,0.4398614,0.38490975,0.27799332,0.2528648,0.3309133,0.5837218,0.7211686
64,3.0,right,right,1.0,4.9197,0.0,4.0,4.0,4.0,1.0,2981231422-369714.jpg,2874307433-66280.jpg,A1LA6CIGBNDOH9,pilot_24_hours,0.47377756,0.40342793,0.31916887,0.33109576,0.49618793,0.7299206,0.7887337
65,1.0,right,right,1.0,1.7651,0.0,5.0,5.0,5.0,1.0,2512876023-52283.jpg,2898633421-291973.jpg,A1LA6CIGBNDOH9,pilot_24_hours,0.56122035,0.43308693,0.30094382,0.23341547,0.26896766,0.5390453,0.5867554
66,2.0,left,right,0.0,3.7675,0.0,6.0,6.0,6.0,1.0,2238560245-182099.jpg,2874314526-289684.jpg,A1LA6CIGBNDOH9,pilot_24_hours,0.43314254,0.37281495,0.28776973,0.28208122,0.5031101,0.68590695,0.7791734
67,3.0,left,left,1.0,1.1905,0.0,7.0,7.0,7.0,1.0,2460547467-349422.jpg,2864909447-362146.jpg,A1LA6CIGBNDOH9,pilot_24_hours,0.49565285,0.35477045,0.24113931,0.18144597,0.1697212,0.52246857,0.5917044
68,1.0,left,right,0.0,4.1679,0.0,8.0,8.0,8.0,1.0,2874299429-139695.jpg,2883266388-67750.jpg,A1LA6CIGBNDOH9,pilot_24_hours,0.5388674,0.458297,0.3364708,0.29716268,0.22764784,0.36235008,0.36807972
69,1.0,left,left,1.0,2.1198,0.0,9.0,9.0,9.0,1.0,2901952513-70703.jpg,2864907361-287062.jpg,A1LA6CIGBNDOH9,pilot_24_hours,0.5265597,0.4418069,0.32003045,0.2290511,0.18850884,0.32364216,0.2975944
70,2.0,left,left,1.0,3.3934,0.0,10.0,10.0,10.0,1.0,2592379964-131054.jpg,2238479053-19457.jpg,A1LA6CIGBNDOH9,pilot_24_hours,,,,,,,
71,1.0,right,right,1.0,2.179,0.0,11.0,11.0,11.0,1.0,2986408339-146952.jpg,2592380177-354626.jpg,A1LA6CIGBNDOH9,pilot_24_hours,0.51850945,0.3736484,0.25379214,0.20175755,0.17646822,0.32521498,0.2908722
72,3.0,left,left,1.0,1.7598,0.0,12.0,12.0,12.0,1.0,2238481198-19822.jpg,2238480803-19737.jpg,A1LA6CIGBNDOH9,pilot_24_hours,0.443866,0.3995324,0.29929093,0.25855193,0.44658282,0.6896415,0.7629075
73,3.0,left,left,1.0,2.8107,0.0,13.0,13.0,13.0,1.0,2575120738-55529.jpg,2238531493-28260.jpg,A1LA6CIGBNDOH9,pilot_24_hours,0.4659028,0.35061517,0.2601221,0.20867778,0.28177947,0.57115746,0.6954647
74,2.0,right,right,1.0,2.44,0.0,14.0,14.0,14.0,1.0,2901943411-292945.jpg,2898635428-69104.jpg,A1LA6CIGBNDOH9,pilot_24_hours,0.45939028,0.36862105,0.3106206,0.28417727,0.23500526,0.43551317,0.40768757
75,2.0,right,right,1.0,5.0073,0.0,15.0,15.0,15.0,1.0,2427874554-121863.jpg,2458347385-199723.jpg,A1LA6CIGBNDOH9,pilot_24_hours,0.43966657,0.39033678,0.31144089,0.33185786,0.42006478,0.56723154,0.64049566
76,3.0,left,left,1.0,1.8085,0.0,16.0,16.0,16.0,1.0,2874302418-65978.jpg,2898633321-291943.jpg,A1LA6CIGBNDOH9,pilot_24_hours,0.46703973,0.41898158,0.3302842,0.3685597,0.55371046,0.7059381,0.68612033
77,3.0,left,left,1.0,3.799,0.0,17.0,17.0,17.0,1.0,2238480677-317399.jpg,2238480278-19661.jpg,A1LA6CIGBNDOH9,pilot_24_hours,,,,,,,
78,2.0,right,left,0.0,3.1564,0.0,18.0,18.0,18.0,1.0,2901941438-69836.jpg,2964223381-294447.jpg,A1LA6CIGBNDOH9,pilot_24_hours,0.43023628,0.38833672,0.32741988,0.36214924,0.42820704,0.74820167,0.81751543
79,1.0,left,left,1.0,2.0015,0.0,19.0,19.0,19.0,1.0,2981241414-145842.jpg,2856919327-359676.jpg,A1LA6CIGBNDOH9,pilot_24_hours,0.48718107,0.4173889,0.31008968,0.23515664,0.19404987,0.23884922,0.21451034
80,2.0,right,right,1.0,1.3277,0.0,20.0,20.0,20.0,1.0,2984615361-295509.jpg,2238428357-313623.jpg,A1LA6CIGBNDOH9,pilot_24_hours,0.5328607,0.45598653,0.34712195,0.28705245,0.16757482,0.35351062,0.3446732
81,2.0,right,left,0.0,1.8887,0.0,21.0,21.0,21.0,1.0,2981244403-72215.jpg,2981231403-71642.jpg,A1LA6CIGBNDOH9,pilot_24_hours,0.44787115,0.42172083,0.356711,0.33921996,0.31835416,0.50796586,0.52843755
82,3.0,right,right,1.0,1.758,0.0,22.0,22.0,22.0,1.0,2512875587-350044.jpg,2592380177-354629.jpg,A1LA6CIGBNDOH9,pilot_24_hours,0.46629784,0.38793507,0.2888271,0.20474373,0.23852833,0.50451154,0.6193866
83,3.0,right,left,0.0,2.3071,0.0,23.0,23.0,23.0,1.0,2981235446-294900.jpg,2898624426-291546.jpg,A1LA6CIGBNDOH9,pilot_24_hours,0.40954354,0.33688876,0.23204137,0.18370157,0.32616192,0.6754603,0.78828114
84,1.0,right,right,1.0,2.8178,0.0,24.0,24.0,24.0,1.0,2452380171-273112.jpg,2449442529-124445.jpg,A1LA6CIGBNDOH9,pilot_24_hours,0.62144357,0.39484787,0.27805087,0.22674154,0.22519545,0.468542,0.50909954
85,1.0,right,right,1.0,2.2682,0.0,25.0,25.0,25.0,1.0,2883268412-365899.jpg,2449441881-272368.jpg,A1LA6CIGBNDOH9,pilot_24_hours,0.5410156,0.45799455,0.34505528,0.286662,0.24581994,0.45447862,0.48690936
86,3.0,left,right,0.0,1.4495,0.0,26.0,26.0,26.0,1.0,2901948350-218459.jpg,2981246360-220352.jpg,A1LA6CIGBNDOH9,pilot_24_hours,0.43605852,0.36367497,0.2869044,0.26574802,0.33967718,0.69009906,0.8139916
87,3.0,left,left,1.0,1.6877,0.0,27.0,27.0,27.0,1.0,2964218374-144967.jpg,2981231446-294732.jpg,A1LA6CIGBNDOH9,pilot_24_hours,0.43929955,0.349037,0.26745695,0.26533732,0.39973593,0.71258515,0.8014253
88,2.0,right,right,1.0,3.0089,0.0,28.0,28.0,28.0,1.0,2446758985-197610.jpg,2901939379-143479.jpg,A1LA6CIGBNDOH9,pilot_24_hours,0.5168398,0.36292115,0.26546022,0.26125386,0.38415718,0.63267434,0.6890273
89,2.0,left,right,0.0,1.2415,0.0,29.0,29.0,29.0,1.0,2901941401-292798.jpg,2981243412-370222.jpg,A1LA6CIGBNDOH9,pilot_24_hours,0.46591806,0.38899094,0.31216934,0.31351393,0.42592916,0.5844726,0.64767927
90,1.0,left,left,1.0,2.8242,0.0,30.0,30.0,30.0,1.0,2868475410-213219.jpg,2901946465-218350.jpg,A1LA6CIGBNDOH9,pilot_24_hours,0.46510327,0.39892444,0.30901694,0.2669845,0.26836398,0.39279103,0.44677627
91,1.0,right,right,1.0,3.1338,0.0,31.0,31.0,31.0,1.0,2883264368-67631.jpg,2874301407-363895.jpg,A1LA6CIGBNDOH9,pilot_24_hours,0.5154204,0.44573656,0.32874864,0.23799734,0.21782687,0.38233706,0.37000382
92,2.0,left,left,1.0,4.8524,0.0,32.0,32.0,32.0,1.0,2446759347-347016.jpg,2901951350-218702.jpg,A1LA6CIGBNDOH9,pilot_24_hours,,,,,,,
93,2.0,left,left,1.0,1.9421,0.0,33.0,33.0,33.0,1.0,2883256307-365057.jpg,2964210336-293945.jpg,A1LA6CIGBNDOH9,pilot_24_hours,0.5145448,0.4533008,0.35918817,0.3114069,0.18399481,0.40244028,0.47479475
94,1.0,right,left,0.0,3.2319,0.0,34.0,34.0,34.0,1.0,2883264367-365620.jpg,2238481928-19949.jpg,A1LA6CIGBNDOH9,pilot_24_hours,0.48695898,0.4371733,0.36161366,0.3359537,0.35854512,0.43994147,0.51017255
95,2.0,left,left,1.0,2.6767,0.0,35.0,35.0,35.0,1.0,2874303365-214262.jpg,2238563377-332054.jpg,A1LA6CIGBNDOH9,pilot_24_hours,0.44346845,0.39215365,0.3114926,0.27793235,0.45261362,0.57875675,0.6789044
96,3.0,right,left,0.0,3.1029,0.0,36.0,36.0,36.0,1.0,2898633480-217190.jpg,2238425482-313537.jpg,A1LA6CIGBNDOH9,pilot_24_hours,0.38858852,0.3580417,0.2821895,0.2590064,0.43382037,0.676829,0.71588796
97,1.0,left,right,0.0,6.418,0.0,37.0,37.0,37.0,1.0,2883254439-140941.jpg,2446760844-124088.jpg,A1LA6CIGBNDOH9,pilot_24_hours,0.6372897,0.37968478,0.25410625,0.20944452,0.2745723,0.5558853,0.6287043
98,1.0,right,right,1.0,1.9117,0.0,38.0,38.0,38.0,1.0,2238516618-25604.jpg,2868474407-362883.jpg,A1LA6CIGBNDOH9,pilot_24_hours,0.49136335,0.40578243,0.28046528,0.2019003,0.1675316,0.21012488,0.2455
99,2.0,right,right,1.0,3.7761,0.0,39.0,39.0,39.0,1.0,2864900319-137787.jpg,2964216465-219242.jpg,A1LA6CIGBNDOH9,pilot_24_hours,0.35281357,0.32652706,0.27335155,0.31188416,0.34734574,0.45975578,0.5420855
100,1.0,right,right,1.0,1.9637,0.0,40.0,40.0,40.0,1.0,2984626312-370849.jpg,2883268412-365898.jpg,A1LA6CIGBNDOH9,pilot_24_hours,,,,,,,
101,1.0,left,left,1.0,4.5545,0.0,41.0,41.0,41.0,1.0,2452381505-199546.jpg,2901938432-367627.jpg,A1LA6CIGBNDOH9,pilot_24_hours,0.45478028,0.3224999,0.22796047,0.18337947,0.2072401,0.40239316,0.49571475
102,3.0,left,left,1.0,1.2292,0.0,42.0,42.0,42.0,1.0,2446758985-197609.jpg,2898624426-291544.jpg,A1LA6CIGBNDOH9,pilot_24_hours,0.56090397,0.39143613,0.29625887,0.2834665,0.35848063,0.54974097,0.5566899
103,2.0,right,right,1.0,2.37,0.0,43.0,43.0,43.0,1.0,2883255450-215310.jpg,2883268471-290842.jpg,A1LA6CIGBNDOH9,pilot_24_hours,0.49830908,0.38274103,0.3048058,0.33919033,0.51375943,0.74015135,0.7810825
104,3.0,right,right,1.0,3.4537,0.0,44.0,44.0,44.0,1.0,2964220333-71258.jpg,2238580740-186218.jpg,A1LA6CIGBNDOH9,pilot_24_hours,0.45286837,0.3951399,0.30205154,0.2411027,0.4169739,0.6595755,0.68896085
105,2.0,left,left,1.0,2.351,0.0,45.0,45.0,45.0,1.0,2898618444-142233.jpg,2238555262-330312.jpg,A1LA6CIGBNDOH9,pilot_24_hours,0.418541,0.39444035,0.3738718,0.43117803,0.38691542,0.41602442,0.43567148
106,1.0,left,left,1.0,1.9117,0.0,46.0,46.0,46.0,1.0,2898617468-68274.jpg,2864906345-212360.jpg,A1LA6CIGBNDOH9,pilot_24_hours,0.5932441,0.37374416,0.24503314,0.1387093,0.19098395,0.35985154,0.37839094
107,3.0,right,right,1.0,4.3383,0.0,47.0,47.0,47.0,1.0,2981235446-294901.jpg,2460547467-349421.jpg,A1LA6CIGBNDOH9,pilot_24_hours,0.527927,0.4008567,0.28570953,0.25859043,0.3638464,0.6619719,0.75840276
108,3.0,left,right,0.0,1.7168,0.0,48.0,48.0,48.0,1.0,2512875899-126682.jpg,2986447332-371497.jpg,A1LA6CIGBNDOH9,pilot_24_hours,0.48270178,0.35732144,0.27041474,0.23903368,0.27502167,0.4994684,0.5199952
109,3.0,left,left,1.0,2.2884,0.0,49.0,49.0,49.0,1.0,2238572663-35822.jpg,2864903351-286874.jpg,A1LA6CIGBNDOH9,pilot_24_hours,0.46827924,0.42087364,0.33595535,0.32848698,0.41157973,0.58956367,0.66025716
110,1.0,left,right,0.0,4.1242,0.0,50.0,50.0,50.0,1.0,2898634397-367080.jpg,2237944827-301472.jpg,A1LA6CIGBNDOH9,pilot_24_hours,0.5052973,0.3983118,0.28849092,0.23483498,0.27698994,0.57384664,0.65546846
111,1.0,left,right,0.0,4.37,0.0,51.0,51.0,51.0,1.0,2898635427-367120.jpg,2901946439-144040.jpg,A1LA6CIGBNDOH9,pilot_24_hours,0.61027014,0.37000093,0.2783869,0.26648015,0.2731639,0.5175424,0.5595859
112,3.0,right,right,1.0,2.6806,0.0,52.0,52.0,52.0,1.0,2452380166-273109.jpg,2446759803-49249.jpg,A1LA6CIGBNDOH9,pilot_24_hours,0.5929527,0.38892865,0.28767022,0.27399006,0.29007334,0.61397827,0.71523094
113,3.0,left,left,1.0,2.1923,0.0,53.0,53.0,53.0,1.0,2901939379-143480.jpg,2901938432-367629.jpg,A1LA6CIGBNDOH9,pilot_24_hours,0.45319694,0.3638742,0.29138133,0.2623108,0.38981035,0.7587221,0.8735399
114,3.0,right,right,1.0,4.509,0.0,54.0,54.0,54.0,1.0,2901939433-69672.jpg,2864910426-287204.jpg,A1LA6CIGBNDOH9,pilot_24_hours,0.535246,0.45616913,0.35829356,0.3756276,0.40785748,0.7831338,0.8407001
115,1.0,left,right,0.0,2.3299,0.0,55.0,55.0,55.0,1.0,2460547508-51571.jpg,2460547291-274110.jpg,A1LA6CIGBNDOH9,pilot_24_hours,0.5160358,0.3647782,0.280446,0.25256267,0.25184473,0.56593484,0.66971105
116,1.0,right,left,0.0,4.0845,0.0,56.0,56.0,56.0,1.0,2981244394-145974.jpg,2964213381-294060.jpg,A1LA6CIGBNDOH9,pilot_24_hours,0.42820492,0.24218234,0.1553041,0.10105748,0.1250157,0.24639821,0.31855497
117,1.0,left,left,1.0,3.6875,0.0,57.0,57.0,57.0,1.0,2864907432-362042.jpg,2864901420-212147.jpg,A1LA6CIGBNDOH9,pilot_24_hours,0.59345675,0.4825464,0.3883044,0.3589675,0.29833612,0.5871845,0.63814354
118,2.0,left,right,0.0,5.3711,0.0,58.0,58.0,58.0,1.0,2901947423-70311.jpg,2238573447-333826.jpg,A1LA6CIGBNDOH9,pilot_24_hours,0.5118917,0.4522142,0.38085124,0.4190332,0.51949596,0.67664075,0.7749884
119,2.0,right,right,1.0,1.7957,0.0,59.0,59.0,59.0,1.0,2238481813-19930.jpg,2452380832-348593.jpg,A1LA6CIGBNDOH9,pilot_24_hours,0.374723,0.36450496,0.26922452,0.22580554,0.22779249,0.40911004,0.44046256
120,2.0,right,right,1.0,7.7897,0.0,0.0,0.0,0.0,1.0,2901934408-69289.jpg,2898634397-367080.jpg,A22HIX1M4QXZBB,pilot_24_hours,0.461291,0.40758598,0.31741592,0.36721432,0.38100138,0.6456515,0.75878346
121,1.0,right,right,1.0,6.3998,0.0,1.0,1.0,1.0,1.0,2986447306-296584.jpg,2874307433-66280.jpg,A22HIX1M4QXZBB,pilot_24_hours,0.5729314,0.47285256,0.3596191,0.28575647,0.21723282,0.45388037,0.48333797
122,1.0,right,right,1.0,8.4419,0.0,2.0,2.0,2.0,1.0,2898631394-142727.jpg,2460547467-349421.jpg,A22HIX1M4QXZBB,pilot_24_hours,0.5369642,0.33622375,0.24569578,0.18908463,0.20959054,0.5594763,0.61603135
123,3.0,left,left,1.0,3.2008,0.0,3.0,3.0,3.0,1.0,2449441881-272368.jpg,2449441881-272367.jpg,A22HIX1M4QXZBB,pilot_24_hours,0.45775464,0.41255033,0.31683582,0.23271757,0.30314726,0.6131562,0.6786517
124,3.0,right,left,0.0,2.342,0.0,4.0,4.0,4.0,1.0,2898633480-217190.jpg,2238425482-313537.jpg,A22HIX1M4QXZBB,pilot_24_hours,0.38858852,0.3580417,0.2821895,0.2590064,0.43382037,0.676829,0.71588796
125,2.0,left,left,1.0,1.7309,0.0,5.0,5.0,5.0,1.0,2238481928-19949.jpg,2864900357-361688.jpg,A22HIX1M4QXZBB,pilot_24_hours,0.46361366,0.42281595,0.34889698,0.3977419,0.35332322,0.5174235,0.5457619
126,3.0,right,left,0.0,2.684,0.0,6.0,6.0,6.0,1.0,2864911457-362260.jpg,2874303365-214262.jpg,A22HIX1M4QXZBB,pilot_24_hours,0.4313089,0.37365657,0.2835693,0.22859405,0.3964164,0.665625,0.77801746
127,2.0,left,right,0.0,4.4923,0.0,7.0,7.0,7.0,1.0,2898635428-69104.jpg,2901943411-292945.jpg,A22HIX1M4QXZBB,pilot_24_hours,0.45939028,0.36862105,0.3106206,0.28417727,0.23500526,0.43551317,0.40768757
128,2.0,right,right,1.0,2.0082,0.0,8.0,8.0,8.0,1.0,2874314526-289684.jpg,2238560245-182099.jpg,A22HIX1M4QXZBB,pilot_24_hours,0.43314254,0.37281495,0.28776973,0.28208122,0.5031101,0.68590695,0.7791734
129,2.0,left,left,1.0,2.8159,0.0,9.0,9.0,9.0,1.0,2460547508-51571.jpg,2981232437-369759.jpg,A22HIX1M4QXZBB,pilot_24_hours,0.4788651,0.38235718,0.31960222,0.32804376,0.453319,0.6924605,0.76986045
130,1.0,left,left,1.0,3.7073,0.0,10.0,10.0,10.0,1.0,2868475410-213219.jpg,2901946465-218350.jpg,A22HIX1M4QXZBB,pilot_24_hours,0.46510327,0.39892444,0.30901694,0.2669845,0.26836398,0.39279103,0.44677627
131,1.0,right,right,1.0,2.3884,0.0,11.0,11.0,11.0,1.0,2898626385-216899.jpg,2874302418-65978.jpg,A22HIX1M4QXZBB,pilot_24_hours,0.5067572,0.44389895,0.34508708,0.28157395,0.2275905,0.43836743,0.5058823
132,1.0,left,left,1.0,2.638,0.0,12.0,12.0,12.0,1.0,2981231403-71642.jpg,2274829821-263682.jpg,A22HIX1M4QXZBB,pilot_24_hours,0.493104,0.3972481,0.23479955,0.11452547,0.16188647,0.33647612,0.34257525
133,2.0,left,right,0.0,2.2787,0.0,13.0,13.0,13.0,1.0,2452381505-199546.jpg,2238567168-34916.jpg,A22HIX1M4QXZBB,pilot_24_hours,0.3685478,0.33025604,0.2790695,0.2941948,0.3496884,0.53796846,0.613254
134,2.0,right,right,1.0,2.8536,0.0,14.0,14.0,14.0,1.0,2874301404-139813.jpg,2981241414-145842.jpg,A22HIX1M4QXZBB,pilot_24_hours,0.46164504,0.39996457,0.3227727,0.34605607,0.374826,0.56032145,0.63799524
135,2.0,left,right,0.0,2.708,0.0,15.0,15.0,15.0,1.0,2901952513-70703.jpg,2868469411-287540.jpg,A22HIX1M4QXZBB,pilot_24_hours,0.5153487,0.45667544,0.3625235,0.35688245,0.32005706,0.44773152,0.39204705
136,3.0,right,right,1.0,5.3681,0.0,16.0,16.0,16.0,1.0,2981240424-145794.jpg,2901939379-143479.jpg,A22HIX1M4QXZBB,pilot_24_hours,0.53037846,0.3620483,0.26633617,0.22732091,0.33637905,0.67839944,0.80089146
137,3.0,right,left,0.0,1.6562,0.0,17.0,17.0,17.0,1.0,2592380272-354673.jpg,2592379964-131054.jpg,A22HIX1M4QXZBB,pilot_24_hours,,,,,,,
138,2.0,right,right,1.0,3.8354,0.0,18.0,18.0,18.0,1.0,2868479517-363220.jpg,2898635427-367120.jpg,A22HIX1M4QXZBB,pilot_24_hours,0.4169775,0.37279934,0.31114697,0.30627304,0.2697926,0.4158575,0.4602345
139,3.0,left,left,1.0,2.3279,0.0,19.0,19.0,19.0,1.0,2883268471-290842.jpg,2901947448-70314.jpg,A22HIX1M4QXZBB,pilot_24_hours,0.5057215,0.38251036,0.29728168,0.31377932,0.4807022,0.75929,0.80441034
140,1.0,right,right,1.0,3.6023,0.0,20.0,20.0,20.0,1.0,2901942428-69919.jpg,2901939379-143480.jpg,A22HIX1M4QXZBB,pilot_24_hours,0.5087541,0.39647883,0.2928344,0.29587895,0.4002879,0.7344449,0.8199424
141,2.0,right,left,0.0,1.4278,0.0,21.0,21.0,21.0,1.0,2238555262-330312.jpg,2898618444-142233.jpg,A22HIX1M4QXZBB,pilot_24_hours,0.418541,0.39444035,0.3738718,0.43117803,0.38691542,0.41602442,0.43567148
142,2.0,right,left,0.0,3.4837,0.0,22.0,22.0,22.0,1.0,2901946436-293242.jpg,2238481198-19822.jpg,A22HIX1M4QXZBB,pilot_24_hours,0.4657863,0.4303175,0.33850726,0.3617698,0.4721276,0.66418993,0.763763
143,1.0,left,left,1.0,3.2838,0.0,23.0,23.0,23.0,1.0,2458347385-199723.jpg,2238480434-93829.jpg,A22HIX1M4QXZBB,pilot_24_hours,0.50086415,0.34138843,0.19402216,0.11946193,0.19492193,0.40909523,0.4498839
144,2.0,left,left,1.0,1.9835,0.0,24.0,24.0,24.0,1.0,2964218374-144967.jpg,2883254439-140940.jpg,A22HIX1M4QXZBB,pilot_24_hours,0.41282415,0.37669647,0.2905783,0.2591419,0.28561154,0.45247477,0.42982984
145,1.0,right,right,1.0,3.2812,0.0,25.0,25.0,25.0,1.0,2238516618-25604.jpg,2868474407-362883.jpg,A22HIX1M4QXZBB,pilot_24_hours,0.49136335,0.40578243,0.28046528,0.2019003,0.1675316,0.21012488,0.2455
146,3.0,left,right,0.0,2.1641,0.0,26.0,26.0,26.0,1.0,2964216465-219242.jpg,2898619327-366362.jpg,A22HIX1M4QXZBB,pilot_24_hours,0.31405884,0.29471764,0.22206424,0.22363022,0.4326898,0.59392834,0.66989505
147,1.0,left,right,0.0,2.01,0.0,27.0,27.0,27.0,1.0,2575120738-55529.jpg,2898632385-217138.jpg,A22HIX1M4QXZBB,pilot_24_hours,0.5639598,0.3402834,0.25403792,0.19583048,0.23839176,0.3934025,0.46560585
148,3.0,left,right,0.0,2.0298,0.0,28.0,28.0,28.0,1.0,2238480677-317399.jpg,2238480278-19661.jpg,A22HIX1M4QXZBB,pilot_24_hours,,,,,,,
149,1.0,right,left,0.0,1.5158,0.0,29.0,29.0,29.0,1.0,2898633421-291974.jpg,2592380177-354629.jpg,A22HIX1M4QXZBB,pilot_24_hours,0.5552606,0.4024126,0.29440212,0.2053316,0.21694423,0.39403653,0.40047845
150,3.0,right,left,0.0,2.6939,0.0,30.0,30.0,30.0,1.0,2981231446-294730.jpg,2883254439-140941.jpg,A22HIX1M4QXZBB,pilot_24_hours,0.3933375,0.35296088,0.27794185,0.30227005,0.432026,0.6845898,0.7137845
151,3.0,right,right,1.0,2.6782,0.0,31.0,31.0,31.0,1.0,2964207374-144577.jpg,2898617468-68274.jpg,A22HIX1M4QXZBB,pilot_24_hours,0.55044913,0.34094188,0.23677091,0.17187896,0.18769062,0.48951563,0.60655046
152,1.0,right,right,1.0,1.9143,0.0,32.0,32.0,32.0,1.0,2413147898-43548.jpg,2874302418-65979.jpg,A22HIX1M4QXZBB,pilot_24_hours,0.507441,0.44703835,0.34264448,0.24867517,0.1941579,0.31946978,0.3692958
153,1.0,left,left,1.0,2.0616,0.0,33.0,33.0,33.0,1.0,2986451363-73599.jpg,2901939327-367669.jpg,A22HIX1M4QXZBB,pilot_24_hours,0.4923949,0.4104354,0.28591964,0.17613792,0.22971691,0.4036842,0.4838874
154,1.0,left,left,1.0,2.3935,0.0,34.0,34.0,34.0,1.0,2883268412-365898.jpg,2984626312-370849.jpg,A22HIX1M4QXZBB,pilot_24_hours,,,,,,,
155,3.0,left,left,1.0,1.4714,0.0,35.0,35.0,35.0,1.0,2898633421-291973.jpg,2238550049-105691.jpg,A22HIX1M4QXZBB,pilot_24_hours,0.53693265,0.42071104,0.27811942,0.17661478,0.28269896,0.5105322,0.6422368
156,1.0,right,right,1.0,3.5619,0.0,36.0,36.0,36.0,1.0,2427874231-269884.jpg,2964223381-294447.jpg,A22HIX1M4QXZBB,pilot_24_hours,0.45845124,0.38918623,0.27616423,0.19303282,0.14413087,0.37973619,0.46351248
157,2.0,left,right,0.0,3.2044,0.0,37.0,37.0,37.0,1.0,2238572663-35822.jpg,2238571930-184143.jpg,A22HIX1M4QXZBB,pilot_24_hours,0.4564275,0.41742867,0.34776556,0.39258358,0.4131793,0.5819973,0.6613832
158,3.0,right,left,0.0,8.0699,0.0,38.0,38.0,38.0,1.0,2986447332-371497.jpg,2512875899-126682.jpg,A22HIX1M4QXZBB,pilot_24_hours,0.48270178,0.35732144,0.27041474,0.23903368,0.27502167,0.4994684,0.5199952
159,3.0,left,left,1.0,4.9599,0.0,39.0,39.0,39.0,1.0,2592380177-354626.jpg,2238117096-228518.jpg,A22HIX1M4QXZBB,pilot_24_hours,0.36854374,0.32772544,0.21958445,0.16651821,0.2581154,0.49273914,0.5603452
160,2.0,right,left,0.0,2.2912,0.0,40.0,40.0,40.0,1.0,2981243412-370222.jpg,2901941401-292798.jpg,A22HIX1M4QXZBB,pilot_24_hours,0.46591806,0.38899094,0.31216934,0.31351393,0.42592916,0.5844726,0.64767927
161,2.0,right,left,0.0,4.9495,0.0,41.0,41.0,41.0,1.0,2460547536-274181.jpg,2449442529-124446.jpg,A22HIX1M4QXZBB,pilot_24_hours,0.4398614,0.38490975,0.27799332,0.2528648,0.3309133,0.5837218,0.7211686
162,2.0,right,right,1.0,2.4505,0.0,42.0,42.0,42.0,1.0,2984615361-295509.jpg,2238428357-313623.jpg,A22HIX1M4QXZBB,pilot_24_hours,0.5328607,0.45598653,0.34712195,0.28705245,0.16757482,0.35351062,0.3446732
163,2.0,left,right,0.0,3.7825,0.0,43.0,43.0,43.0,1.0,2460547467-349422.jpg,2868487415-213924.jpg,A22HIX1M4QXZBB,pilot_24_hours,0.41697904,0.39277625,0.29235724,0.23384598,0.26340815,0.4710356,0.4759615
164,3.0,right,right,1.0,3.3961,0.0,44.0,44.0,44.0,1.0,2449442181-272436.jpg,2452380832-348593.jpg,A22HIX1M4QXZBB,pilot_24_hours,0.30567417,0.33513692,0.24347524,0.21413803,0.32195333,0.4529044,0.40792555
165,1.0,right,left,0.0,4.2054,0.0,45.0,45.0,45.0,1.0,2981240424-145795.jpg,2446758985-197609.jpg,A22HIX1M4QXZBB,pilot_24_hours,0.5992464,0.4453182,0.3519557,0.33033803,0.3774404,0.47032768,0.43906066
166,1.0,left,right,0.0,3.0103,0.0,46.0,46.0,46.0,1.0,2864907432-362042.jpg,2864901420-212147.jpg,A22HIX1M4QXZBB,pilot_24_hours,0.59345675,0.4825464,0.3883044,0.3589675,0.29833612,0.5871845,0.63814354
167,3.0,left,left,1.0,1.8826,0.0,47.0,47.0,47.0,1.0,2898618390-216538.jpg,2575120609-129862.jpg,A22HIX1M4QXZBB,pilot_24_hours,,,,,,,
168,2.0,right,left,0.0,7.2203,0.0,48.0,48.0,48.0,1.0,2238573447-333826.jpg,2901947423-70311.jpg,A22HIX1M4QXZBB,pilot_24_hours,0.5118917,0.4522142,0.38085124,0.4190332,0.51949596,0.67664075,0.7749884
169,3.0,right,right,1.0,2.0923,0.0,49.0,49.0,49.0,1.0,2901939433-69672.jpg,2864910426-287204.jpg,A22HIX1M4QXZBB,pilot_24_hours,0.535246,0.45616913,0.35829356,0.3756276,0.40785748,0.7831338,0.8407001
170,1.0,right,right,1.0,5.694,0.0,50.0,50.0,50.0,1.0,2238550816-254000.jpg,2238580740-186218.jpg,A22HIX1M4QXZBB,pilot_24_hours,0.4973932,0.41223717,0.30328286,0.20491391,0.18613486,0.37473956,0.46783727
171,1.0,left,left,1.0,1.7581,0.0,51.0,51.0,51.0,1.0,2883256307-365057.jpg,2611628310-206388.jpg,A22HIX1M4QXZBB,pilot_24_hours,,,,,,,
172,3.0,left,left,1.0,1.5005,0.0,52.0,52.0,52.0,1.0,2964213381-294060.jpg,2964213381-294061.jpg,A22HIX1M4QXZBB,pilot_24_hours,0.389834,0.23961474,0.18538176,0.16454117,0.26562738,0.49149114,0.55999136
173,1.0,right,right,1.0,2.4306,0.0,53.0,53.0,53.0,1.0,2883266388-67750.jpg,2874299429-139695.jpg,A22HIX1M4QXZBB,pilot_24_hours,0.5388674,0.458297,0.3364708,0.29716268,0.22764784,0.36235008,0.36807972
174,3.0,right,right,1.0,4.0251,0.0,54.0,54.0,54.0,1.0,2981235446-294900.jpg,2898624426-291546.jpg,A22HIX1M4QXZBB,pilot_24_hours,0.40954354,0.33688876,0.23204137,0.18370157,0.32616192,0.6754603,0.78828114
175,2.0,right,left,0.0,1.6642,0.0,55.0,55.0,55.0,1.0,2898618440-216547.jpg,2446759803-49249.jpg,A22HIX1M4QXZBB,pilot_24_hours,0.5959994,0.37886173,0.29443234,0.28405598,0.28824934,0.50696844,0.62936413
176,3.0,left,right,0.0,2.3465,0.0,56.0,56.0,56.0,1.0,2449442529-124445.jpg,2898632385-217137.jpg,A22HIX1M4QXZBB,pilot_24_hours,0.56327224,0.370537,0.25124434,0.1986445,0.29747447,0.5436038,0.5688294
177,1.0,left,right,0.0,3.1566,0.0,57.0,57.0,57.0,1.0,2901948350-218459.jpg,2804906319-133082.jpg,A22HIX1M4QXZBB,pilot_24_hours,0.47942036,0.3938324,0.30636242,0.24921091,0.19519433,0.18453516,0.1818865
178,2.0,left,left,1.0,1.4401,0.0,58.0,58.0,58.0,1.0,2874301407-363895.jpg,2986397322-371109.jpg,A22HIX1M4QXZBB,pilot_24_hours,0.47420156,0.42388302,0.34592247,0.3436671,0.3407357,0.50289196,0.5176568
179,3.0,right,left,0.0,2.236,0.0,59.0,59.0,59.0,1.0,2238569117-333045.jpg,2446759347-347016.jpg,A22HIX1M4QXZBB,pilot_24_hours,,,,,,,
180,1.0,left,left,1.0,3.4612,0.0,0.0,0.0,0.0,1.0,2238480677-317399.jpg,2238481630-168218.jpg,A248QG4DPULP46,pilot_24_hours,,,,,,,
181,3.0,left,left,1.0,3.0901,0.0,1.0,1.0,1.0,1.0,2458347385-199723.jpg,2458347252-348911.jpg,A248QG4DPULP46,pilot_24_hours,0.40002707,0.35487148,0.2654271,0.26229814,0.4262055,0.6468841,0.71938866
182,3.0,right,right,1.0,3.4954,0.0,2.0,2.0,2.0,1.0,2238480803-19737.jpg,2238481198-19822.jpg,A248QG4DPULP46,pilot_24_hours,0.443866,0.3995324,0.29929093,0.25855193,0.44658282,0.6896415,0.7629075
183,3.0,right,right,1.0,2.1717,0.0,3.0,3.0,3.0,1.0,2238117096-228518.jpg,2592380177-354626.jpg,A248QG4DPULP46,pilot_24_hours,0.36854374,0.32772544,0.21958445,0.16651821,0.2581154,0.49273914,0.5603452
184,2.0,left,left,1.0,1.3965,0.0,4.0,4.0,4.0,1.0,2901952513-70703.jpg,2868469411-287540.jpg,A248QG4DPULP46,pilot_24_hours,0.5153487,0.45667544,0.3625235,0.35688245,0.32005706,0.44773152,0.39204705
185,2.0,left,right,0.0,4.708,0.0,5.0,5.0,5.0,1.0,2901947423-70311.jpg,2238573447-333826.jpg,A248QG4DPULP46,pilot_24_hours,0.5118917,0.4522142,0.38085124,0.4190332,0.51949596,0.67664075,0.7749884
186,1.0,left,left,1.0,2.1461,0.0,6.0,6.0,6.0,1.0,2238428357-313623.jpg,2238499057-320266.jpg,A248QG4DPULP46,pilot_24_hours,0.53482246,0.43584228,0.31070113,0.24118485,0.17312127,0.3138553,0.37581575
187,3.0,right,right,1.0,2.9836,0.0,7.0,7.0,7.0,1.0,2981235446-294900.jpg,2898624426-291546.jpg,A248QG4DPULP46,pilot_24_hours,0.40954354,0.33688876,0.23204137,0.18370157,0.32616192,0.6754603,0.78828114
188,3.0,right,left,0.0,2.8743,0.0,8.0,8.0,8.0,1.0,2575120609-129862.jpg,2898618390-216538.jpg,A248QG4DPULP46,pilot_24_hours,,,,,,,
189,1.0,left,left,1.0,4.7968,0.0,9.0,9.0,9.0,1.0,2449441881-272368.jpg,2883268412-365899.jpg,A248QG4DPULP46,pilot_24_hours,0.5410156,0.45799455,0.34505528,0.286662,0.24581994,0.45447862,0.48690936
190,3.0,left,right,0.0,4.156,0.0,10.0,10.0,10.0,1.0,2901941401-292798.jpg,2883273443-68193.jpg,A248QG4DPULP46,pilot_24_hours,0.44746235,0.34636408,0.26594776,0.23429683,0.32963687,0.7793218,0.88836807
191,1.0,left,left,1.0,2.2293,0.0,11.0,11.0,11.0,1.0,2449442529-124445.jpg,2452380171-273112.jpg,A248QG4DPULP46,pilot_24_hours,0.62144357,0.39484787,0.27805087,0.22674154,0.22519545,0.468542,0.50909954
192,1.0,left,left,1.0,2.567,0.0,12.0,12.0,12.0,1.0,2898617468-68274.jpg,2864906345-212360.jpg,A248QG4DPULP46,pilot_24_hours,0.5932441,0.37374416,0.24503314,0.1387093,0.19098395,0.35985154,0.37839094
193,1.0,left,left,1.0,2.9682,0.0,13.0,13.0,13.0,1.0,2446759803-49249.jpg,2446760601-272099.jpg,A248QG4DPULP46,pilot_24_hours,0.6366867,0.36089626,0.2596837,0.24597527,0.289005,0.5076119,0.55816644
194,3.0,left,left,1.0,3.1708,0.0,14.0,14.0,14.0,1.0,2460547508-51571.jpg,2901941438-69835.jpg,A248QG4DPULP46,pilot_24_hours,0.49315232,0.36866248,0.29357207,0.2884298,0.36879689,0.7176596,0.81725085
195,2.0,right,left,0.0,3.6974,0.0,15.0,15.0,15.0,1.0,2901947423-70310.jpg,2864907432-362042.jpg,A248QG4DPULP46,pilot_24_hours,0.52695173,0.4615668,0.38739076,0.41937542,0.31582594,0.45036885,0.4965683
196,1.0,left,right,0.0,3.2271,0.0,16.0,16.0,16.0,1.0,2460547467-349421.jpg,2898631394-142727.jpg,A248QG4DPULP46,pilot_24_hours,0.5369642,0.33622375,0.24569578,0.18908463,0.20959054,0.5594763,0.61603135
197,1.0,right,right,1.0,7.7313,0.0,17.0,17.0,17.0,1.0,2427874231-269884.jpg,2964223381-294447.jpg,A248QG4DPULP46,pilot_24_hours,0.45845124,0.38918623,0.27616423,0.19303282,0.14413087,0.37973619,0.46351248
198,2.0,left,right,0.0,2.1825,0.0,18.0,18.0,18.0,1.0,2238572663-35822.jpg,2238571930-184143.jpg,A248QG4DPULP46,pilot_24_hours,0.4564275,0.41742867,0.34776556,0.39258358,0.4131793,0.5819973,0.6613832
199,2.0,left,right,0.0,6.328,0.0,19.0,19.0,19.0,1.0,2981231403-71642.jpg,2981244403-72215.jpg,A248QG4DPULP46,pilot_24_hours,0.44787115,0.42172083,0.356711,0.33921996,0.31835416,0.50796586,0.52843755
200,2.0,left,left,1.0,2.0564,0.0,20.0,20.0,20.0,1.0,2964213381-294060.jpg,2458348012-349114.jpg,A248QG4DPULP46,pilot_24_hours,0.37015396,0.29343298,0.22374026,0.19976883,0.18622616,0.36042613,0.38140827
201,3.0,right,right,1.0,5.1803,0.0,21.0,21.0,21.0,1.0,2238578544-111698.jpg,2874302418-65979.jpg,A248QG4DPULP46,pilot_24_hours,0.435088,0.3905231,0.30866048,0.29409418,0.28483465,0.5227267,0.6263716
202,2.0,left,left,1.0,1.5801,0.0,22.0,22.0,22.0,1.0,2452380832-348593.jpg,2238481813-19930.jpg,A248QG4DPULP46,pilot_24_hours,0.374723,0.36450496,0.26922452,0.22580554,0.22779249,0.40911004,0.44046256
203,3.0,left,left,1.0,4.4303,0.0,23.0,23.0,23.0,1.0,2981241414-145842.jpg,2427873848-47312.jpg,A248QG4DPULP46,pilot_24_hours,0.4593529,0.403337,0.32595116,0.31859377,0.47264394,0.74472374,0.8064313
204,1.0,right,left,0.0,5.5436,0.0,24.0,24.0,24.0,1.0,2901942428-69919.jpg,2901939379-143480.jpg,A248QG4DPULP46,pilot_24_hours,0.5087541,0.39647883,0.2928344,0.29587895,0.4002879,0.7344449,0.8199424
205,1.0,right,right,1.0,8.7113,0.0,25.0,25.0,25.0,1.0,2901946465-218350.jpg,2868475410-213219.jpg,A248QG4DPULP46,pilot_24_hours,0.46510327,0.39892444,0.30901694,0.2669845,0.26836398,0.39279103,0.44677627
206,3.0,left,left,1.0,1.729,0.0,26.0,26.0,26.0,1.0,2898633421-291973.jpg,2238550049-105691.jpg,A248QG4DPULP46,pilot_24_hours,0.53693265,0.42071104,0.27811942,0.17661478,0.28269896,0.5105322,0.6422368
207,2.0,left,left,1.0,3.844,0.0,27.0,27.0,27.0,1.0,2449442529-124446.jpg,2460547536-274181.jpg,A248QG4DPULP46,pilot_24_hours,0.4398614,0.38490975,0.27799332,0.2528648,0.3309133,0.5837218,0.7211686
208,2.0,left,left,1.0,3.4152,0.0,28.0,28.0,28.0,1.0,2874301407-363895.jpg,2986397322-371109.jpg,A248QG4DPULP46,pilot_24_hours,0.47420156,0.42388302,0.34592247,0.3436671,0.3407357,0.50289196,0.5176568
209,1.0,left,right,0.0,5.4142,0.0,29.0,29.0,29.0,1.0,2874299429-139695.jpg,2883266388-67750.jpg,A248QG4DPULP46,pilot_24_hours,0.5388674,0.458297,0.3364708,0.29716268,0.22764784,0.36235008,0.36807972
210,2.0,left,right,0.0,2.9403,0.0,30.0,30.0,30.0,1.0,2874303365-214262.jpg,2238563377-332054.jpg,A248QG4DPULP46,pilot_24_hours,0.44346845,0.39215365,0.3114926,0.27793235,0.45261362,0.57875675,0.6789044
211,1.0,left,left,1.0,1.9594,0.0,31.0,31.0,31.0,1.0,2883256307-365057.jpg,2611628310-206388.jpg,A248QG4DPULP46,pilot_24_hours,,,,,,,
212,2.0,left,left,1.0,2.2324,0.0,32.0,32.0,32.0,1.0,2238481928-19949.jpg,2864900357-361688.jpg,A248QG4DPULP46,pilot_24_hours,0.46361366,0.42281595,0.34889698,0.3977419,0.35332322,0.5174235,0.5457619
213,1.0,left,right,0.0,3.2577,0.0,33.0,33.0,33.0,1.0,2901948350-218459.jpg,2804906319-133082.jpg,A248QG4DPULP46,pilot_24_hours,0.47942036,0.3938324,0.30636242,0.24921091,0.19519433,0.18453516,0.1818865
214,2.0,left,right,0.0,3.1145,0.0,34.0,34.0,34.0,1.0,2238560245-182099.jpg,2874314526-289684.jpg,A248QG4DPULP46,pilot_24_hours,0.43314254,0.37281495,0.28776973,0.28208122,0.5031101,0.68590695,0.7791734
215,3.0,right,right,1.0,2.6551,0.0,35.0,35.0,35.0,1.0,2864909447-362146.jpg,2460547467-349422.jpg,A248QG4DPULP46,pilot_24_hours,0.49565285,0.35477045,0.24113931,0.18144597,0.1697212,0.52246857,0.5917044
216,3.0,right,right,1.0,3.6055,0.0,36.0,36.0,36.0,1.0,2898621427-366486.jpg,2898635427-367120.jpg,A248QG4DPULP46,pilot_24_hours,0.47038117,0.35525864,0.26246575,0.21619637,0.36257586,0.6841324,0.74279946
217,2.0,right,left,0.0,4.4607,0.0,37.0,37.0,37.0,1.0,2874299429-139694.jpg,2864910426-287204.jpg,A248QG4DPULP46,pilot_24_hours,0.5552636,0.47590056,0.38478744,0.36430702,0.32955557,0.5447559,0.5066602
218,3.0,right,right,1.0,1.7939,0.0,38.0,38.0,38.0,1.0,2898625336-291572.jpg,2898635428-69104.jpg,A248QG4DPULP46,pilot_24_hours,0.55103004,0.36994445,0.27593693,0.22458375,0.30582157,0.6096812,0.6725326
219,1.0,left,left,1.0,3.2891,0.0,39.0,39.0,39.0,1.0,2901939379-143479.jpg,2460547467-349423.jpg,A248QG4DPULP46,pilot_24_hours,0.5403381,0.3552664,0.2684079,0.2045339,0.21595491,0.5441832,0.58997375
220,3.0,left,left,1.0,3.409,0.0,40.0,40.0,40.0,1.0,2868474407-362883.jpg,2901948383-70363.jpg,A248QG4DPULP46,pilot_24_hours,0.4001435,0.37227762,0.2923372,0.24320795,0.4419357,0.74659073,0.83919704
221,2.0,left,left,1.0,2.8813,0.0,41.0,41.0,41.0,1.0,2898634397-367080.jpg,2901934408-69289.jpg,A248QG4DPULP46,pilot_24_hours,0.461291,0.40758598,0.31741592,0.36721432,0.38100138,0.6456515,0.75878346
222,3.0,right,left,0.0,3.7644,0.0,42.0,42.0,42.0,1.0,2964220333-71258.jpg,2238580740-186218.jpg,A248QG4DPULP46,pilot_24_hours,0.45286837,0.3951399,0.30205154,0.2411027,0.4169739,0.6595755,0.68896085
223,2.0,left,left,1.0,2.4746,0.0,43.0,43.0,43.0,1.0,2512875899-126682.jpg,2592380177-354628.jpg,A248QG4DPULP46,pilot_24_hours,0.44192803,0.36178938,0.28175512,0.23919167,0.24265566,0.39245665,0.40566987
224,3.0,right,right,1.0,3.879,0.0,44.0,44.0,44.0,1.0,2898618444-142232.jpg,2898618444-142233.jpg,A248QG4DPULP46,pilot_24_hours,0.52357376,0.37710276,0.31768098,0.4009868,0.4916404,0.6854271,0.72513264
225,2.0,right,right,1.0,3.7054,0.0,45.0,45.0,45.0,1.0,2883254439-140940.jpg,2964218374-144967.jpg,A248QG4DPULP46,pilot_24_hours,0.41282415,0.37669647,0.2905783,0.2591419,0.28561154,0.45247477,0.42982984
226,2.0,right,left,0.0,3.1667,0.0,46.0,46.0,46.0,1.0,2898632385-217136.jpg,2883254439-140941.jpg,A248QG4DPULP46,pilot_24_hours,0.513491,0.39700502,0.3063731,0.3080888,0.47375554,0.6805278,0.71995974
227,3.0,right,left,0.0,5.8595,0.0,47.0,47.0,47.0,1.0,2898633480-217190.jpg,2238425482-313537.jpg,A248QG4DPULP46,pilot_24_hours,0.38858852,0.3580417,0.2821895,0.2590064,0.43382037,0.676829,0.71588796
228,1.0,right,right,1.0,3.0664,0.0,48.0,48.0,48.0,1.0,2883268471-290843.jpg,2883268471-290842.jpg,A248QG4DPULP46,pilot_24_hours,0.56071603,0.37202314,0.2640556,0.2442129,0.35115752,0.6092218,0.7019853
229,1.0,left,right,0.0,3.4314,0.0,49.0,49.0,49.0,1.0,2986451363-73599.jpg,2901939327-367669.jpg,A248QG4DPULP46,pilot_24_hours,0.4923949,0.4104354,0.28591964,0.17613792,0.22971691,0.4036842,0.4838874
230,1.0,left,left,1.0,3.0757,0.0,50.0,50.0,50.0,1.0,2446758985-197609.jpg,2981240424-145795.jpg,A248QG4DPULP46,pilot_24_hours,0.5992464,0.4453182,0.3519557,0.33033803,0.3774404,0.47032768,0.43906066
231,2.0,right,right,1.0,1.7488,0.0,51.0,51.0,51.0,1.0,2238479053-19457.jpg,2592379964-131054.jpg,A248QG4DPULP46,pilot_24_hours,,,,,,,
232,1.0,left,left,1.0,3.5434,0.0,52.0,52.0,52.0,1.0,2452381505-199546.jpg,2901938432-367627.jpg,A248QG4DPULP46,pilot_24_hours,0.45478028,0.3224999,0.22796047,0.18337947,0.2072401,0.40239316,0.49571475
233,3.0,right,right,1.0,4.7183,0.0,53.0,53.0,53.0,1.0,2238531493-28260.jpg,2575120738-55529.jpg,A248QG4DPULP46,pilot_24_hours,0.4659028,0.35061517,0.2601221,0.20867778,0.28177947,0.57115746,0.6954647
234,3.0,right,right,1.0,3.8144,0.0,54.0,54.0,54.0,1.0,2898619327-366362.jpg,2964216465-219242.jpg,A248QG4DPULP46,pilot_24_hours,0.31405884,0.29471764,0.22206424,0.22363022,0.4326898,0.59392834,0.66989505
235,1.0,left,left,1.0,3.4636,0.0,55.0,55.0,55.0,1.0,2874302418-65978.jpg,2898626385-216899.jpg,A248QG4DPULP46,pilot_24_hours,0.5067572,0.44389895,0.34508708,0.28157395,0.2275905,0.43836743,0.5058823
236,3.0,left,right,0.0,3.8495,0.0,56.0,56.0,56.0,1.0,2446759347-347016.jpg,2238569117-333045.jpg,A248QG4DPULP46,pilot_24_hours,,,,,,,
237,2.0,right,right,1.0,3.6589,0.0,57.0,57.0,57.0,1.0,2984615361-295510.jpg,2883268412-365898.jpg,A248QG4DPULP46,pilot_24_hours,0.5447968,0.4752479,0.36710334,0.34578204,0.35827264,0.5805571,0.6627422
238,1.0,left,right,0.0,2.969,0.0,58.0,58.0,58.0,1.0,2874307433-66280.jpg,2986447306-296584.jpg,A248QG4DPULP46,pilot_24_hours,0.5729314,0.47285256,0.3596191,0.28575647,0.21723282,0.45388037,0.48333797
239,2.0,left,left,1.0,2.4501,0.0,59.0,59.0,59.0,1.0,2592380177-354629.jpg,2579432534-130704.jpg,A248QG4DPULP46,pilot_24_hours,,,,,,,
420,3.0,left,left,1.0,4.6033,0.0,0.0,0.0,0.0,1.0,2874299429-139695.jpg,2446760917-347439.jpg,A2J1DNVMJ56JG1,pilot_24_hours,0.453483,0.38854423,0.32359582,0.3693531,0.52015483,0.6945516,0.7120025
421,2.0,left,left,1.0,3.5282,0.0,1.0,1.0,1.0,1.0,2446758985-197609.jpg,2864909447-362144.jpg,A2J1DNVMJ56JG1,pilot_24_hours,0.5104796,0.45467284,0.36175826,0.31459132,0.33063638,0.4345665,0.45027643
422,2.0,right,right,1.0,1.8835,0.0,2.0,2.0,2.0,1.0,2901934408-69289.jpg,2898634397-367080.jpg,A2J1DNVMJ56JG1,pilot_24_hours,0.461291,0.40758598,0.31741592,0.36721432,0.38100138,0.6456515,0.75878346
423,2.0,right,left,0.0,3.7114,0.0,3.0,3.0,3.0,1.0,2964210336-293945.jpg,2883256307-365057.jpg,A2J1DNVMJ56JG1,pilot_24_hours,0.5145448,0.4533008,0.35918817,0.3114069,0.18399481,0.40244028,0.47479475
424,2.0,right,right,1.0,2.8444,0.0,4.0,4.0,4.0,1.0,2575118671-277663.jpg,2898633421-291973.jpg,A2J1DNVMJ56JG1,pilot_24_hours,,,,,,,
425,3.0,right,left,0.0,3.5117,0.0,5.0,5.0,5.0,1.0,2901941438-69835.jpg,2460547508-51571.jpg,A2J1DNVMJ56JG1,pilot_24_hours,0.49315232,0.36866248,0.29357207,0.2884298,0.36879689,0.7176596,0.81725085
426,2.0,left,left,1.0,3.1778,0.0,6.0,6.0,6.0,1.0,2883268471-290842.jpg,2883255450-215310.jpg,A2J1DNVMJ56JG1,pilot_24_hours,0.49830908,0.38274103,0.3048058,0.33919033,0.51375943,0.74015135,0.7810825
427,1.0,left,left,1.0,2.0512,0.0,7.0,7.0,7.0,1.0,2901948350-218459.jpg,2804906319-133082.jpg,A2J1DNVMJ56JG1,pilot_24_hours,0.47942036,0.3938324,0.30636242,0.24921091,0.19519433,0.18453516,0.1818865
428,2.0,left,left,1.0,2.0536,0.0,8.0,8.0,8.0,1.0,2460547467-349421.jpg,2452380166-273110.jpg,A2J1DNVMJ56JG1,pilot_24_hours,0.46613595,0.40989923,0.35117015,0.32182348,0.30212873,0.5026994,0.5219705
429,1.0,right,right,1.0,5.1593,0.0,9.0,9.0,9.0,1.0,2460547467-349423.jpg,2901939379-143479.jpg,A2J1DNVMJ56JG1,pilot_24_hours,0.5403381,0.3552664,0.2684079,0.2045339,0.21595491,0.5441832,0.58997375
430,1.0,left,left,1.0,3.1865,0.0,10.0,10.0,10.0,1.0,2898617468-68274.jpg,2864906345-212360.jpg,A2J1DNVMJ56JG1,pilot_24_hours,0.5932441,0.37374416,0.24503314,0.1387093,0.19098395,0.35985154,0.37839094
431,2.0,left,left,1.0,2.0456,0.0,11.0,11.0,11.0,1.0,2883268412-365898.jpg,2984615361-295510.jpg,A2J1DNVMJ56JG1,pilot_24_hours,0.5447968,0.4752479,0.36710334,0.34578204,0.35827264,0.5805571,0.6627422
432,2.0,left,left,1.0,3.1427,0.0,12.0,12.0,12.0,1.0,2898618444-142233.jpg,2238555262-330312.jpg,A2J1DNVMJ56JG1,pilot_24_hours,0.418541,0.39444035,0.3738718,0.43117803,0.38691542,0.41602442,0.43567148
433,1.0,left,left,1.0,2.8262,0.0,13.0,13.0,13.0,1.0,2874303365-214262.jpg,2609793677-355397.jpg,A2J1DNVMJ56JG1,pilot_24_hours,0.4711733,0.38745373,0.2831332,0.19399162,0.1916389,0.3685866,0.37739947
434,2.0,left,left,1.0,2.6,0.0,14.0,14.0,14.0,1.0,2874307433-66280.jpg,2981246400-220365.jpg,A2J1DNVMJ56JG1,pilot_24_hours,0.53643084,0.4572676,0.37085128,0.3750855,0.35948402,0.51069397,0.50953114
435,1.0,left,left,1.0,3.9641,0.0,15.0,15.0,15.0,1.0,2592379964-131054.jpg,2575963989-130576.jpg,A2J1DNVMJ56JG1,pilot_24_hours,,,,,,,
436,3.0,left,right,0.0,3.002,0.0,16.0,16.0,16.0,1.0,2238580740-186218.jpg,2964220333-71258.jpg,A2J1DNVMJ56JG1,pilot_24_hours,0.45286837,0.3951399,0.30205154,0.2411027,0.4169739,0.6595755,0.68896085
437,1.0,left,left,1.0,1.9017,0.0,17.0,17.0,17.0,1.0,2449442529-124446.jpg,2446759803-49251.jpg,A2J1DNVMJ56JG1,pilot_24_hours,0.6061958,0.38043094,0.28602827,0.25115767,0.25439423,0.5808956,0.7275868
438,1.0,right,right,1.0,3.781,0.0,18.0,18.0,18.0,1.0,2860312398-62572.jpg,2901947423-70311.jpg,A2J1DNVMJ56JG1,pilot_24_hours,0.53313386,0.4372231,0.2922769,0.18165857,0.084899515,0.43745193,0.60998756
439,3.0,left,left,1.0,2.078,0.0,19.0,19.0,19.0,1.0,2238428357-313623.jpg,2575121987-353817.jpg,A2J1DNVMJ56JG1,pilot_24_hours,0.43196657,0.39292827,0.28720468,0.19904062,0.23741181,0.5306423,0.69074744
440,3.0,left,left,1.0,2.4635,0.0,20.0,20.0,20.0,1.0,2898635428-69104.jpg,2898625336-291572.jpg,A2J1DNVMJ56JG1,pilot_24_hours,0.55103004,0.36994445,0.27593693,0.22458375,0.30582157,0.6096812,0.6725326
441,2.0,right,left,0.0,2.1199,0.0,21.0,21.0,21.0,1.0,2898618440-216547.jpg,2446759803-49249.jpg,A2J1DNVMJ56JG1,pilot_24_hours,0.5959994,0.37886173,0.29443234,0.28405598,0.28824934,0.50696844,0.62936413
442,3.0,right,right,1.0,2.069,0.0,22.0,22.0,22.0,1.0,2427873763-47290.jpg,2981231403-71642.jpg,A2J1DNVMJ56JG1,pilot_24_hours,0.45726892,0.40701926,0.30544335,0.21115077,0.32366523,0.5870739,0.6657691
443,3.0,left,right,0.0,2.643,0.0,23.0,23.0,23.0,1.0,2901941401-292798.jpg,2883273443-68193.jpg,A2J1DNVMJ56JG1,pilot_24_hours,0.44746235,0.34636408,0.26594776,0.23429683,0.32963687,0.7793218,0.88836807
444,3.0,left,left,1.0,1.3524,0.0,24.0,24.0,24.0,1.0,2964218374-144967.jpg,2981231446-294732.jpg,A2J1DNVMJ56JG1,pilot_24_hours,0.43929955,0.349037,0.26745695,0.26533732,0.39973593,0.71258515,0.8014253
445,1.0,left,left,1.0,2.4512,0.0,25.0,25.0,25.0,1.0,2592380177-354629.jpg,2898633421-291974.jpg,A2J1DNVMJ56JG1,pilot_24_hours,0.5552606,0.4024126,0.29440212,0.2053316,0.21694423,0.39403653,0.40047845
446,1.0,right,right,1.0,2.1073,0.0,26.0,26.0,26.0,1.0,2856919327-359676.jpg,2981241414-145842.jpg,A2J1DNVMJ56JG1,pilot_24_hours,0.48718107,0.4173889,0.31008968,0.23515664,0.19404987,0.23884922,0.21451034
447,1.0,left,right,0.0,2.2285,0.0,27.0,27.0,27.0,1.0,2446759347-347016.jpg,2964224310-219528.jpg,A2J1DNVMJ56JG1,pilot_24_hours,,,,,,,
448,3.0,left,left,1.0,3.3303,0.0,28.0,28.0,28.0,1.0,2901939379-143480.jpg,2901938432-367629.jpg,A2J1DNVMJ56JG1,pilot_24_hours,0.45319694,0.3638742,0.29138133,0.2623108,0.38981035,0.7587221,0.8735399
449,2.0,right,left,0.0,1.7064,0.0,29.0,29.0,29.0,1.0,2238573546-258454.jpg,2238480677-317399.jpg,A2J1DNVMJ56JG1,pilot_24_hours,,,,,,,
450,3.0,left,left,1.0,1.7798,0.0,30.0,30.0,30.0,1.0,2238572663-35822.jpg,2864903351-286874.jpg,A2J1DNVMJ56JG1,pilot_24_hours,0.46827924,0.42087364,0.33595535,0.32848698,0.41157973,0.58956367,0.66025716
451,1.0,left,right,0.0,3.3591,0.0,31.0,31.0,31.0,1.0,2868475410-213219.jpg,2901946465-218350.jpg,A2J1DNVMJ56JG1,pilot_24_hours,0.46510327,0.39892444,0.30901694,0.2669845,0.26836398,0.39279103,0.44677627
452,3.0,left,left,1.0,2.0617,0.0,32.0,32.0,32.0,1.0,2986451363-73599.jpg,2238434559-90406.jpg,A2J1DNVMJ56JG1,pilot_24_hours,0.44659236,0.4053699,0.32556635,0.30618906,0.32790762,0.6873194,0.7664167
453,1.0,left,left,1.0,1.3135,0.0,33.0,33.0,33.0,1.0,2868474407-362883.jpg,2238516618-25604.jpg,A2J1DNVMJ56JG1,pilot_24_hours,0.49136335,0.40578243,0.28046528,0.2019003,0.1675316,0.21012488,0.2455
454,2.0,left,left,1.0,3.1835,0.0,34.0,34.0,34.0,1.0,2864907432-362042.jpg,2901947423-70310.jpg,A2J1DNVMJ56JG1,pilot_24_hours,0.52695173,0.4615668,0.38739076,0.41937542,0.31582594,0.45036885,0.4965683
455,2.0,left,left,1.0,2.1981,0.0,35.0,35.0,35.0,1.0,2238425482-313537.jpg,2238436322-314047.jpg,A2J1DNVMJ56JG1,pilot_24_hours,0.44569394,0.4046562,0.32536173,0.3183514,0.2763789,0.51701105,0.5242603
456,2.0,left,left,1.0,2.6367,0.0,36.0,36.0,36.0,1.0,2898618390-216538.jpg,2901939327-367670.jpg,A2J1DNVMJ56JG1,pilot_24_hours,,,,,,,
457,3.0,left,left,1.0,1.5232,0.0,37.0,37.0,37.0,1.0,2575120738-55529.jpg,2238531493-28260.jpg,A2J1DNVMJ56JG1,pilot_24_hours,0.4659028,0.35061517,0.2601221,0.20867778,0.28177947,0.57115746,0.6954647
458,3.0,left,left,1.0,2.0446,0.0,38.0,38.0,38.0,1.0,2901952513-70703.jpg,2238481198-19821.jpg,A2J1DNVMJ56JG1,pilot_24_hours,0.4767165,0.42084354,0.35531774,0.3447737,0.3973941,0.6070827,0.6381103
459,3.0,left,left,1.0,2.4183,0.0,39.0,39.0,39.0,1.0,2874302418-65979.jpg,2238578544-111698.jpg,A2J1DNVMJ56JG1,pilot_24_hours,0.435088,0.3905231,0.30866048,0.29409418,0.28483465,0.5227267,0.6263716
460,2.0,right,right,1.0,1.5485,0.0,40.0,40.0,40.0,1.0,2874299429-139694.jpg,2864910426-287204.jpg,A2J1DNVMJ56JG1,pilot_24_hours,0.5552636,0.47590056,0.38478744,0.36430702,0.32955557,0.5447559,0.5066602
461,1.0,right,right,1.0,2.258,0.0,41.0,41.0,41.0,1.0,2238544191-252422.jpg,2964216465-219242.jpg,A2J1DNVMJ56JG1,pilot_24_hours,0.4381925,0.3564237,0.2506763,0.18335202,0.20393471,0.31188622,0.30555156
462,1.0,left,right,0.0,2.2571,0.0,42.0,42.0,42.0,1.0,2512875899-126682.jpg,2460547536-274179.jpg,A2J1DNVMJ56JG1,pilot_24_hours,0.5199955,0.34948564,0.2479404,0.17140874,0.19265997,0.33449987,0.3462885
463,3.0,right,right,1.0,2.5925,0.0,43.0,43.0,43.0,1.0,2449442181-272436.jpg,2452380832-348593.jpg,A2J1DNVMJ56JG1,pilot_24_hours,0.30567417,0.33513692,0.24347524,0.21413803,0.32195333,0.4529044,0.40792555
464,1.0,right,left,0.0,1.6629,0.0,44.0,44.0,44.0,1.0,2549106624-127823.jpg,2238560245-182099.jpg,A2J1DNVMJ56JG1,pilot_24_hours,0.47466877,0.3691004,0.25184336,0.15428324,0.10720641,0.32316142,0.45908356
465,3.0,left,left,1.0,1.2913,0.0,45.0,45.0,45.0,1.0,2883254439-140941.jpg,2981231446-294730.jpg,A2J1DNVMJ56JG1,pilot_24_hours,0.3933375,0.35296088,0.27794185,0.30227005,0.432026,0.6845898,0.7137845
466,3.0,left,left,1.0,3.2834,0.0,46.0,46.0,46.0,1.0,2458347385-199723.jpg,2458347252-348911.jpg,A2J1DNVMJ56JG1,pilot_24_hours,0.40002707,0.35487148,0.2654271,0.26229814,0.4262055,0.6468841,0.71938866
467,2.0,right,left,0.0,2.3934,0.0,47.0,47.0,47.0,1.0,2986397322-371109.jpg,2874301407-363895.jpg,A2J1DNVMJ56JG1,pilot_24_hours,0.47420156,0.42388302,0.34592247,0.3436671,0.3407357,0.50289196,0.5176568
468,3.0,left,left,1.0,1.5183,0.0,48.0,48.0,48.0,1.0,2460547467-349422.jpg,2864909447-362146.jpg,A2J1DNVMJ56JG1,pilot_24_hours,0.49565285,0.35477045,0.24113931,0.18144597,0.1697212,0.52246857,0.5917044
469,3.0,right,right,1.0,1.6877,0.0,49.0,49.0,49.0,1.0,2898632385-217137.jpg,2449442529-124445.jpg,A2J1DNVMJ56JG1,pilot_24_hours,0.56327224,0.370537,0.25124434,0.1986445,0.29747447,0.5436038,0.5688294
470,1.0,left,left,1.0,1.2875,0.0,50.0,50.0,50.0,1.0,2898624426-291546.jpg,2964218432-369263.jpg,A2J1DNVMJ56JG1,pilot_24_hours,0.5238812,0.35266647,0.22617368,0.17020103,0.20239823,0.39656505,0.40373304
471,1.0,left,right,0.0,1.3053,0.0,51.0,51.0,51.0,1.0,2964213381-294060.jpg,2981244394-145974.jpg,A2J1DNVMJ56JG1,pilot_24_hours,0.42820492,0.24218234,0.1553041,0.10105748,0.1250157,0.24639821,0.31855497
472,3.0,right,right,1.0,1.5336,0.0,52.0,52.0,52.0,1.0,2898633321-291943.jpg,2874302418-65978.jpg,A2J1DNVMJ56JG1,pilot_24_hours,0.46703973,0.41898158,0.3302842,0.3685597,0.55371046,0.7059381,0.68612033
473,1.0,right,right,1.0,2.3642,0.0,53.0,53.0,53.0,1.0,2901946439-144040.jpg,2898635427-367120.jpg,A2J1DNVMJ56JG1,pilot_24_hours,0.61027014,0.37000093,0.2783869,0.26648015,0.2731639,0.5175424,0.5595859
474,2.0,left,left,1.0,2.5507,0.0,54.0,54.0,54.0,1.0,2592380177-354626.jpg,2864901386-286797.jpg,A2J1DNVMJ56JG1,pilot_24_hours,0.47496974,0.38934562,0.28954622,0.23091,0.19591722,0.34192154,0.3526984
475,1.0,right,left,0.0,2.7187,0.0,55.0,55.0,55.0,1.0,2901938432-367627.jpg,2452381505-199546.jpg,A2J1DNVMJ56JG1,pilot_24_hours,0.45478028,0.3224999,0.22796047,0.18337947,0.2072401,0.40239316,0.49571475
476,2.0,left,left,1.0,2.2402,0.0,56.0,56.0,56.0,1.0,2238481928-19949.jpg,2864900357-361688.jpg,A2J1DNVMJ56JG1,pilot_24_hours,0.46361366,0.42281595,0.34889698,0.3977419,0.35332322,0.5174235,0.5457619
477,1.0,right,left,0.0,1.8715,0.0,57.0,57.0,57.0,1.0,2883268412-365899.jpg,2449441881-272368.jpg,A2J1DNVMJ56JG1,pilot_24_hours,0.5410156,0.45799455,0.34505528,0.286662,0.24581994,0.45447862,0.48690936
478,2.0,right,left,0.0,4.3871,0.0,58.0,58.0,58.0,1.0,2901946436-293242.jpg,2238481198-19822.jpg,A2J1DNVMJ56JG1,pilot_24_hours,0.4657863,0.4303175,0.33850726,0.3617698,0.4721276,0.66418993,0.763763
479,2.0,right,left,0.0,2.3799,0.0,59.0,59.0,59.0,1.0,2901941438-69836.jpg,2964223381-294447.jpg,A2J1DNVMJ56JG1,pilot_24_hours,0.43023628,0.38833672,0.32741988,0.36214924,0.42820704,0.74820167,0.81751543
480,3.0,right,right,1.0,2.687,0.0,0.0,0.0,0.0,1.0,2981235446-294901.jpg,2460547467-349421.jpg,A2J57IBR2XIWLS,pilot_24_hours,0.527927,0.4008567,0.28570953,0.25859043,0.3638464,0.6619719,0.75840276
481,3.0,left,right,0.0,1.63,0.0,1.0,1.0,1.0,1.0,2964216465-219242.jpg,2898619327-366362.jpg,A2J57IBR2XIWLS,pilot_24_hours,0.31405884,0.29471764,0.22206424,0.22363022,0.4326898,0.59392834,0.66989505
482,2.0,left,right,0.0,2.035,0.0,2.0,2.0,2.0,1.0,2592380177-354626.jpg,2864901386-286797.jpg,A2J57IBR2XIWLS,pilot_24_hours,0.47496974,0.38934562,0.28954622,0.23091,0.19591722,0.34192154,0.3526984
483,1.0,left,left,1.0,1.466,0.0,3.0,3.0,3.0,1.0,2901939379-143480.jpg,2901942428-69919.jpg,A2J57IBR2XIWLS,pilot_24_hours,0.5087541,0.39647883,0.2928344,0.29587895,0.4002879,0.7344449,0.8199424
484,2.0,right,right,1.0,1.853,0.0,4.0,4.0,4.0,1.0,2868487415-213924.jpg,2460547467-349422.jpg,A2J57IBR2XIWLS,pilot_24_hours,0.41697904,0.39277625,0.29235724,0.23384598,0.26340815,0.4710356,0.4759615
485,1.0,right,right,1.0,1.449,0.0,5.0,5.0,5.0,1.0,2238499057-320266.jpg,2238428357-313623.jpg,A2J57IBR2XIWLS,pilot_24_hours,0.53482246,0.43584228,0.31070113,0.24118485,0.17312127,0.3138553,0.37581575
486,3.0,right,right,1.0,1.575,0.0,6.0,6.0,6.0,1.0,2238436252-314037.jpg,2883268412-365898.jpg,A2J57IBR2XIWLS,pilot_24_hours,0.550506,0.46625507,0.36638084,0.353495,0.40690508,0.6365052,0.7180944
487,2.0,right,left,0.0,1.413,0.0,7.0,7.0,7.0,1.0,2981246400-220363.jpg,2868474407-362883.jpg,A2J57IBR2XIWLS,pilot_24_hours,0.47607708,0.42012966,0.3315332,0.3357959,0.43158466,0.67669564,0.77041876
488,2.0,right,right,1.0,1.286,0.0,8.0,8.0,8.0,1.0,2860302315-210704.jpg,2986451363-73599.jpg,A2J57IBR2XIWLS,pilot_24_hours,0.47658187,0.43035305,0.35701227,0.40708944,0.47469556,0.65646315,0.64133054
489,1.0,left,right,0.0,1.439,0.0,9.0,9.0,9.0,1.0,2898624426-291546.jpg,2964218432-369263.jpg,A2J57IBR2XIWLS,pilot_24_hours,0.5238812,0.35266647,0.22617368,0.17020103,0.20239823,0.39656505,0.40373304
490,3.0,left,right,0.0,1.264,0.0,10.0,10.0,10.0,1.0,2868475410-213219.jpg,2868474407-362885.jpg,A2J57IBR2XIWLS,pilot_24_hours,0.42808944,0.38311797,0.34133583,0.3813262,0.593354,0.75874186,0.78598547
491,3.0,left,left,1.0,2.327,0.0,11.0,11.0,11.0,1.0,2238480677-317399.jpg,2238480278-19661.jpg,A2J57IBR2XIWLS,pilot_24_hours,,,,,,,
492,1.0,right,right,1.0,1.465,0.0,12.0,12.0,12.0,1.0,2575963989-130576.jpg,2592379964-131054.jpg,A2J57IBR2XIWLS,pilot_24_hours,,,,,,,
493,1.0,left,right,0.0,1.514,0.0,13.0,13.0,13.0,1.0,2864907432-362042.jpg,2864901420-212147.jpg,A2J57IBR2XIWLS,pilot_24_hours,0.59345675,0.4825464,0.3883044,0.3589675,0.29833612,0.5871845,0.63814354
494,3.0,right,right,1.0,1.62,0.0,14.0,14.0,14.0,1.0,2981231446-294730.jpg,2883254439-140941.jpg,A2J57IBR2XIWLS,pilot_24_hours,0.3933375,0.35296088,0.27794185,0.30227005,0.432026,0.6845898,0.7137845
495,1.0,left,right,0.0,1.851,0.0,15.0,15.0,15.0,1.0,2575120738-55529.jpg,2898632385-217138.jpg,A2J57IBR2XIWLS,pilot_24_hours,0.5639598,0.3402834,0.25403792,0.19583048,0.23839176,0.3934025,0.46560585
496,2.0,right,left,0.0,1.316,0.0,16.0,16.0,16.0,1.0,2981243412-370222.jpg,2901941401-292798.jpg,A2J57IBR2XIWLS,pilot_24_hours,0.46591806,0.38899094,0.31216934,0.31351393,0.42592916,0.5844726,0.64767927
497,3.0,right,left,0.0,1.874,0.0,17.0,17.0,17.0,1.0,2986447332-371497.jpg,2512875899-126682.jpg,A2J57IBR2XIWLS,pilot_24_hours,0.48270178,0.35732144,0.27041474,0.23903368,0.27502167,0.4994684,0.5199952
498,2.0,left,left,1.0,1.33,0.0,18.0,18.0,18.0,1.0,2898633421-291973.jpg,2575118671-277663.jpg,A2J57IBR2XIWLS,pilot_24_hours,,,,,,,
499,3.0,right,right,1.0,1.112,0.0,19.0,19.0,19.0,1.0,2994401319-148290.jpg,2452381505-199546.jpg,A2J57IBR2XIWLS,pilot_24_hours,0.35990402,0.31692538,0.22359172,0.18342426,0.34985194,0.5815142,0.67270917
500,3.0,right,right,1.0,1.564,0.0,20.0,20.0,20.0,1.0,2981231446-294732.jpg,2964218374-144967.jpg,A2J57IBR2XIWLS,pilot_24_hours,0.43929955,0.349037,0.26745695,0.26533732,0.39973593,0.71258515,0.8014253
501,2.0,left,right,0.0,1.99,0.0,21.0,21.0,21.0,1.0,2460547508-51571.jpg,2981232437-369759.jpg,A2J57IBR2XIWLS,pilot_24_hours,0.4788651,0.38235718,0.31960222,0.32804376,0.453319,0.6924605,0.76986045
502,2.0,left,left,1.0,1.521,0.0,22.0,22.0,22.0,1.0,2592380177-354629.jpg,2579432534-130704.jpg,A2J57IBR2XIWLS,pilot_24_hours,,,,,,,
503,2.0,left,left,1.0,2.06,0.0,23.0,23.0,23.0,1.0,2452380832-348593.jpg,2238481813-19930.jpg,A2J57IBR2XIWLS,pilot_24_hours,0.374723,0.36450496,0.26922452,0.22580554,0.22779249,0.40911004,0.44046256
504,2.0,left,right,0.0,1.15,0.0,24.0,24.0,24.0,1.0,2446759803-49249.jpg,2898618440-216547.jpg,A2J57IBR2XIWLS,pilot_24_hours,0.5959994,0.37886173,0.29443234,0.28405598,0.28824934,0.50696844,0.62936413
505,1.0,right,right,1.0,1.867,0.0,25.0,25.0,25.0,1.0,2883266388-67750.jpg,2874299429-139695.jpg,A2J57IBR2XIWLS,pilot_24_hours,0.5388674,0.458297,0.3364708,0.29716268,0.22764784,0.36235008,0.36807972
506,3.0,right,left,0.0,1.508,0.0,26.0,26.0,26.0,1.0,2964213381-294061.jpg,2964213381-294060.jpg,A2J57IBR2XIWLS,pilot_24_hours,0.389834,0.23961474,0.18538176,0.16454117,0.26562738,0.49149114,0.55999136
507,1.0,right,left,0.0,1.68,0.0,27.0,27.0,27.0,1.0,2864902304-137862.jpg,2864910426-287204.jpg,A2J57IBR2XIWLS,pilot_24_hours,0.6157579,0.4628133,0.32677275,0.24828027,0.20332703,0.46356297,0.48187596
508,1.0,right,right,1.0,1.525,0.0,28.0,28.0,28.0,1.0,2427874231-269884.jpg,2964223381-294447.jpg,A2J57IBR2XIWLS,pilot_24_hours,0.45845124,0.38918623,0.27616423,0.19303282,0.14413087,0.37973619,0.46351248
509,3.0,right,right,1.0,1.891,0.0,29.0,29.0,29.0,1.0,2427873763-47290.jpg,2981231403-71642.jpg,A2J57IBR2XIWLS,pilot_24_hours,0.45726892,0.40701926,0.30544335,0.21115077,0.32366523,0.5870739,0.6657691
510,3.0,right,right,1.0,1.752,0.0,30.0,30.0,30.0,1.0,2898633321-291943.jpg,2874302418-65978.jpg,A2J57IBR2XIWLS,pilot_24_hours,0.46703973,0.41898158,0.3302842,0.3685597,0.55371046,0.7059381,0.68612033
511,3.0,left,left,1.0,1.377,0.0,31.0,31.0,31.0,1.0,2458347385-199723.jpg,2458347252-348911.jpg,A2J57IBR2XIWLS,pilot_24_hours,0.40002707,0.35487148,0.2654271,0.26229814,0.4262055,0.6468841,0.71938866
512,2.0,right,left,0.0,2.079,0.0,32.0,32.0,32.0,1.0,2874314526-289684.jpg,2238560245-182099.jpg,A2J57IBR2XIWLS,pilot_24_hours,0.43314254,0.37281495,0.28776973,0.28208122,0.5031101,0.68590695,0.7791734
513,2.0,right,right,1.0,1.808,0.0,33.0,33.0,33.0,1.0,2460547536-274181.jpg,2449442529-124446.jpg,A2J57IBR2XIWLS,pilot_24_hours,0.4398614,0.38490975,0.27799332,0.2528648,0.3309133,0.5837218,0.7211686
514,1.0,left,right,0.0,1.607,0.0,34.0,34.0,34.0,1.0,2874307433-66280.jpg,2986447306-296584.jpg,A2J57IBR2XIWLS,pilot_24_hours,0.5729314,0.47285256,0.3596191,0.28575647,0.21723282,0.45388037,0.48333797
515,1.0,left,left,1.0,1.43,0.0,35.0,35.0,35.0,1.0,2898634397-367080.jpg,2237944827-301472.jpg,A2J57IBR2XIWLS,pilot_24_hours,0.5052973,0.3983118,0.28849092,0.23483498,0.27698994,0.57384664,0.65546846
516,3.0,left,left,1.0,1.694,0.0,36.0,36.0,36.0,1.0,2898618444-142233.jpg,2898618444-142232.jpg,A2J57IBR2XIWLS,pilot_24_hours,0.52357376,0.37710276,0.31768098,0.4009868,0.4916404,0.6854271,0.72513264
517,2.0,right,left,0.0,2.343,0.0,37.0,37.0,37.0,1.0,2238571930-184143.jpg,2238572663-35822.jpg,A2J57IBR2XIWLS,pilot_24_hours,0.4564275,0.41742867,0.34776556,0.39258358,0.4131793,0.5819973,0.6613832
518,3.0,right,right,1.0,1.395,0.0,38.0,38.0,38.0,1.0,2898621427-366486.jpg,2898635427-367120.jpg,A2J57IBR2XIWLS,pilot_24_hours,0.47038117,0.35525864,0.26246575,0.21619637,0.36257586,0.6841324,0.74279946
519,1.0,left,left,1.0,1.935,0.0,39.0,39.0,39.0,1.0,2898617468-68274.jpg,2864906345-212360.jpg,A2J57IBR2XIWLS,pilot_24_hours,0.5932441,0.37374416,0.24503314,0.1387093,0.19098395,0.35985154,0.37839094
520,1.0,left,left,1.0,2.028,0.0,40.0,40.0,40.0,1.0,2238481928-19949.jpg,2883264367-365620.jpg,A2J57IBR2XIWLS,pilot_24_hours,0.48695898,0.4371733,0.36161366,0.3359537,0.35854512,0.43994147,0.51017255
521,2.0,right,left,0.0,1.721,0.0,41.0,41.0,41.0,1.0,2901943411-292945.jpg,2898635428-69104.jpg,A2J57IBR2XIWLS,pilot_24_hours,0.45939028,0.36862105,0.3106206,0.28417727,0.23500526,0.43551317,0.40768757
522,1.0,right,right,1.0,1.814,0.0,42.0,42.0,42.0,1.0,2611628310-206388.jpg,2883256307-365057.jpg,A2J57IBR2XIWLS,pilot_24_hours,,,,,,,
523,2.0,left,left,1.0,1.767,0.0,43.0,43.0,43.0,1.0,2449442529-124445.jpg,2986408373-73286.jpg,A2J57IBR2XIWLS,pilot_24_hours,0.56969327,0.3909744,0.2758177,0.22152504,0.1803969,0.28860563,0.2486766
524,3.0,left,right,0.0,1.668,0.0,44.0,44.0,44.0,1.0,2901952513-70703.jpg,2238481198-19821.jpg,A2J57IBR2XIWLS,pilot_24_hours,0.4767165,0.42084354,0.35531774,0.3447737,0.3973941,0.6070827,0.6381103
525,3.0,left,right,0.0,1.534,0.0,45.0,45.0,45.0,1.0,2449441881-272368.jpg,2449441881-272367.jpg,A2J57IBR2XIWLS,pilot_24_hours,0.45775464,0.41255033,0.31683582,0.23271757,0.30314726,0.6131562,0.6786517
526,3.0,right,right,1.0,1.781,0.0,46.0,46.0,46.0,1.0,2864911457-362260.jpg,2874303365-214262.jpg,A2J57IBR2XIWLS,pilot_24_hours,0.4313089,0.37365657,0.2835693,0.22859405,0.3964164,0.665625,0.77801746
527,3.0,left,left,1.0,1.459,0.0,47.0,47.0,47.0,1.0,2901948350-218459.jpg,2981246360-220352.jpg,A2J57IBR2XIWLS,pilot_24_hours,0.43605852,0.36367497,0.2869044,0.26574802,0.33967718,0.69009906,0.8139916
528,2.0,left,right,0.0,1.555,0.0,48.0,48.0,48.0,1.0,2898618390-216538.jpg,2901939327-367670.jpg,A2J57IBR2XIWLS,pilot_24_hours,,,,,,,
529,1.0,right,right,1.0,1.819,0.0,49.0,49.0,49.0,1.0,2413147898-43548.jpg,2874302418-65979.jpg,A2J57IBR2XIWLS,pilot_24_hours,0.507441,0.44703835,0.34264448,0.24867517,0.1941579,0.31946978,0.3692958
530,1.0,right,right,1.0,1.55,0.0,50.0,50.0,50.0,1.0,2460547467-349423.jpg,2901939379-143479.jpg,A2J57IBR2XIWLS,pilot_24_hours,0.5403381,0.3552664,0.2684079,0.2045339,0.21595491,0.5441832,0.58997375
531,1.0,left,left,1.0,1.469,0.0,51.0,51.0,51.0,1.0,2446758985-197609.jpg,2981240424-145795.jpg,A2J57IBR2XIWLS,pilot_24_hours,0.5992464,0.4453182,0.3519557,0.33033803,0.3774404,0.47032768,0.43906066
532,2.0,left,left,1.0,1.633,0.0,52.0,52.0,52.0,1.0,2874301407-363895.jpg,2986397322-371109.jpg,A2J57IBR2XIWLS,pilot_24_hours,0.47420156,0.42388302,0.34592247,0.3436671,0.3407357,0.50289196,0.5176568
533,1.0,left,left,1.0,1.475,0.0,53.0,53.0,53.0,1.0,2238425482-313537.jpg,2238471391-240918.jpg,A2J57IBR2XIWLS,pilot_24_hours,0.48833382,0.41232413,0.28452852,0.19186728,0.11005415,0.22757879,0.21390948
534,1.0,left,left,1.0,1.342,0.0,54.0,54.0,54.0,1.0,2883268471-290842.jpg,2883268471-290843.jpg,A2J57IBR2XIWLS,pilot_24_hours,0.56071603,0.37202314,0.2640556,0.2442129,0.35115752,0.6092218,0.7019853
535,2.0,right,right,1.0,1.723,0.0,55.0,55.0,55.0,1.0,2901951350-218702.jpg,2446759347-347016.jpg,A2J57IBR2XIWLS,pilot_24_hours,,,,,,,
536,3.0,right,left,0.0,1.722,0.0,56.0,56.0,56.0,1.0,2964220333-71258.jpg,2238580740-186218.jpg,A2J57IBR2XIWLS,pilot_24_hours,0.45286837,0.3951399,0.30205154,0.2411027,0.4169739,0.6595755,0.68896085
537,2.0,right,left,0.0,1.604,0.0,57.0,57.0,57.0,1.0,2238573447-333826.jpg,2901947423-70311.jpg,A2J57IBR2XIWLS,pilot_24_hours,0.5118917,0.4522142,0.38085124,0.4190332,0.51949596,0.67664075,0.7749884
538,1.0,left,left,1.0,1.722,0.0,58.0,58.0,58.0,1.0,2238481198-19822.jpg,2862691449-137104.jpg,A2J57IBR2XIWLS,pilot_24_hours,0.4712124,0.4021843,0.30150512,0.297541,0.3096843,0.42768663,0.48564664
539,2.0,left,right,0.0,1.552,0.0,59.0,59.0,59.0,1.0,2981241414-145842.jpg,2874301404-139813.jpg,A2J57IBR2XIWLS,pilot_24_hours,0.46164504,0.39996457,0.3227727,0.34605607,0.374826,0.56032145,0.63799524
720,3.0,left,left,1.0,2.2781,0.0,0.0,0.0,0.0,1.0,2874301407-363895.jpg,2901947323-70275.jpg,A3MIDLO5S7FU06,pilot_24_hours,0.45446128,0.3984934,0.31324828,0.27766934,0.4040346,0.6321532,0.6937665
721,2.0,right,left,0.0,2.588,0.0,1.0,1.0,1.0,1.0,2901939327-367670.jpg,2898618390-216538.jpg,A3MIDLO5S7FU06,pilot_24_hours,,,,,,,
722,1.0,left,left,1.0,1.5297,0.0,2.0,2.0,2.0,1.0,2238560245-182099.jpg,2549106624-127823.jpg,A3MIDLO5S7FU06,pilot_24_hours,0.47466877,0.3691004,0.25184336,0.15428324,0.10720641,0.32316142,0.45908356
723,3.0,left,left,1.0,1.3813,0.0,3.0,3.0,3.0,1.0,2964213381-294060.jpg,2964213381-294061.jpg,A3MIDLO5S7FU06,pilot_24_hours,0.389834,0.23961474,0.18538176,0.16454117,0.26562738,0.49149114,0.55999136
724,2.0,left,right,0.0,3.9812,0.0,4.0,4.0,4.0,1.0,2883256307-365057.jpg,2964210336-293945.jpg,A3MIDLO5S7FU06,pilot_24_hours,0.5145448,0.4533008,0.35918817,0.3114069,0.18399481,0.40244028,0.47479475
725,3.0,right,left,0.0,0.9218,0.0,5.0,5.0,5.0,1.0,2901947448-70314.jpg,2883268471-290842.jpg,A3MIDLO5S7FU06,pilot_24_hours,0.5057215,0.38251036,0.29728168,0.31377932,0.4807022,0.75929,0.80441034
726,3.0,right,right,1.0,1.4831,0.0,6.0,6.0,6.0,1.0,2238550049-105691.jpg,2898633421-291973.jpg,A3MIDLO5S7FU06,pilot_24_hours,0.53693265,0.42071104,0.27811942,0.17661478,0.28269896,0.5105322,0.6422368
727,1.0,right,right,1.0,1.1602,0.0,7.0,7.0,7.0,1.0,2446759803-49251.jpg,2449442529-124446.jpg,A3MIDLO5S7FU06,pilot_24_hours,0.6061958,0.38043094,0.28602827,0.25115767,0.25439423,0.5808956,0.7275868
728,1.0,left,right,0.0,1.2822,0.0,8.0,8.0,8.0,1.0,2512875899-126682.jpg,2460547536-274179.jpg,A3MIDLO5S7FU06,pilot_24_hours,0.5199955,0.34948564,0.2479404,0.17140874,0.19265997,0.33449987,0.3462885
729,1.0,left,left,1.0,3.8776,0.0,9.0,9.0,9.0,1.0,2238481928-19949.jpg,2883264367-365620.jpg,A3MIDLO5S7FU06,pilot_24_hours,0.48695898,0.4371733,0.36161366,0.3359537,0.35854512,0.43994147,0.51017255
730,3.0,right,right,1.0,1.3132,0.0,10.0,10.0,10.0,1.0,2449441881-272367.jpg,2449441881-272368.jpg,A3MIDLO5S7FU06,pilot_24_hours,0.45775464,0.41255033,0.31683582,0.23271757,0.30314726,0.6131562,0.6786517
731,1.0,right,left,0.0,0.9186,0.0,11.0,11.0,11.0,1.0,2901946439-144040.jpg,2898635427-367120.jpg,A3MIDLO5S7FU06,pilot_24_hours,0.61027014,0.37000093,0.2783869,0.26648015,0.2731639,0.5175424,0.5595859
732,3.0,right,right,1.0,2.8074,0.0,12.0,12.0,12.0,1.0,2452380166-273109.jpg,2446759803-49249.jpg,A3MIDLO5S7FU06,pilot_24_hours,0.5929527,0.38892865,0.28767022,0.27399006,0.29007334,0.61397827,0.71523094
733,2.0,left,right,0.0,0.9818,0.0,13.0,13.0,13.0,1.0,2901952513-70703.jpg,2868469411-287540.jpg,A3MIDLO5S7FU06,pilot_24_hours,0.5153487,0.45667544,0.3625235,0.35688245,0.32005706,0.44773152,0.39204705
734,3.0,left,right,0.0,2.633,0.0,14.0,14.0,14.0,1.0,2874303365-214262.jpg,2864911457-362260.jpg,A3MIDLO5S7FU06,pilot_24_hours,0.4313089,0.37365657,0.2835693,0.22859405,0.3964164,0.665625,0.77801746
735,1.0,right,right,1.0,3.6604,0.0,15.0,15.0,15.0,1.0,2901942428-69919.jpg,2901939379-143480.jpg,A3MIDLO5S7FU06,pilot_24_hours,0.5087541,0.39647883,0.2928344,0.29587895,0.4002879,0.7344449,0.8199424
736,2.0,right,right,1.0,1.3954,0.0,16.0,16.0,16.0,1.0,2238481198-19823.jpg,2874302418-65978.jpg,A3MIDLO5S7FU06,pilot_24_hours,0.46551856,0.42121917,0.35099068,0.4059158,0.35943648,0.5638393,0.6233055
737,2.0,left,left,1.0,4.6685,0.0,17.0,17.0,17.0,1.0,2964218374-144967.jpg,2883254439-140940.jpg,A3MIDLO5S7FU06,pilot_24_hours,0.41282415,0.37669647,0.2905783,0.2591419,0.28561154,0.45247477,0.42982984
738,1.0,right,right,1.0,1.1175,0.0,18.0,18.0,18.0,1.0,2964224310-219528.jpg,2446759347-347016.jpg,A3MIDLO5S7FU06,pilot_24_hours,,,,,,,
739,3.0,left,left,1.0,1.8786,0.0,19.0,19.0,19.0,1.0,2864910426-287204.jpg,2901939433-69672.jpg,A3MIDLO5S7FU06,pilot_24_hours,0.535246,0.45616913,0.35829356,0.3756276,0.40785748,0.7831338,0.8407001
740,2.0,right,right,1.0,5.0352,0.0,20.0,20.0,20.0,1.0,2864900319-137787.jpg,2964216465-219242.jpg,A3MIDLO5S7FU06,pilot_24_hours,0.35281357,0.32652706,0.27335155,0.31188416,0.34734574,0.45975578,0.5420855
741,1.0,left,left,1.0,1.0637,0.0,21.0,21.0,21.0,1.0,2592380177-354626.jpg,2986408339-146952.jpg,A3MIDLO5S7FU06,pilot_24_hours,0.51850945,0.3736484,0.25379214,0.20175755,0.17646822,0.32521498,0.2908722
742,3.0,right,right,1.0,1.21,0.0,22.0,22.0,22.0,1.0,2446760917-347439.jpg,2874299429-139695.jpg,A3MIDLO5S7FU06,pilot_24_hours,0.453483,0.38854423,0.32359582,0.3693531,0.52015483,0.6945516,0.7120025
743,2.0,right,right,1.0,1.7944,0.0,23.0,23.0,23.0,1.0,2874301404-139813.jpg,2981241414-145842.jpg,A3MIDLO5S7FU06,pilot_24_hours,0.46164504,0.39996457,0.3227727,0.34605607,0.374826,0.56032145,0.63799524
744,3.0,right,right,1.0,2.9789,0.0,24.0,24.0,24.0,1.0,2898618444-142232.jpg,2898618444-142233.jpg,A3MIDLO5S7FU06,pilot_24_hours,0.52357376,0.37710276,0.31768098,0.4009868,0.4916404,0.6854271,0.72513264
745,2.0,right,right,1.0,1.3316,0.0,25.0,25.0,25.0,1.0,2901943387-368037.jpg,2898617468-68274.jpg,A3MIDLO5S7FU06,pilot_24_hours,0.53689355,0.37196258,0.2654241,0.20488447,0.1818731,0.48322728,0.5781511
746,2.0,right,right,1.0,1.892,0.0,26.0,26.0,26.0,1.0,2981232437-369759.jpg,2460547508-51571.jpg,A3MIDLO5S7FU06,pilot_24_hours,0.4788651,0.38235718,0.31960222,0.32804376,0.453319,0.6924605,0.76986045
747,1.0,right,left,0.0,1.5128,0.0,27.0,27.0,27.0,1.0,2446759803-49250.jpg,2898635428-69104.jpg,A3MIDLO5S7FU06,pilot_24_hours,0.56279933,0.36300725,0.25613487,0.20569852,0.21828468,0.44026598,0.47213107
748,2.0,right,left,0.0,1.5125,0.0,28.0,28.0,28.0,1.0,2901941438-69836.jpg,2964223381-294447.jpg,A3MIDLO5S7FU06,pilot_24_hours,0.43023628,0.38833672,0.32741988,0.36214924,0.42820704,0.74820167,0.81751543
749,2.0,left,left,1.0,0.9923,0.0,29.0,29.0,29.0,1.0,2898624426-291546.jpg,2981236443-71859.jpg,A3MIDLO5S7FU06,pilot_24_hours,0.45718545,0.36027578,0.27012688,0.23032968,0.30062607,0.6680249,0.76265454
750,1.0,right,right,1.0,2.1992,0.0,30.0,30.0,30.0,1.0,2901946465-218350.jpg,2868475410-213219.jpg,A3MIDLO5S7FU06,pilot_24_hours,0.46510327,0.39892444,0.30901694,0.2669845,0.26836398,0.39279103,0.44677627
751,1.0,left,left,1.0,2.9864,0.0,31.0,31.0,31.0,1.0,2460547467-349422.jpg,2898618440-216545.jpg,A3MIDLO5S7FU06,pilot_24_hours,0.57652366,0.38269448,0.2602591,0.22259255,0.1829645,0.43334854,0.45119235
752,1.0,left,right,0.0,6.3527,0.0,32.0,32.0,32.0,1.0,2592379964-131054.jpg,2575963989-130576.jpg,A3MIDLO5S7FU06,pilot_24_hours,,,,,,,
753,2.0,left,left,1.0,2.6153,0.0,33.0,33.0,33.0,1.0,2452380832-348593.jpg,2238481813-19930.jpg,A3MIDLO5S7FU06,pilot_24_hours,0.374723,0.36450496,0.26922452,0.22580554,0.22779249,0.40911004,0.44046256
754,2.0,left,right,0.0,1.9662,0.0,34.0,34.0,34.0,1.0,2238480677-317399.jpg,2238573546-258454.jpg,A3MIDLO5S7FU06,pilot_24_hours,,,,,,,
755,3.0,left,right,0.0,2.2593,0.0,35.0,35.0,35.0,1.0,2898634397-367080.jpg,2964217461-294238.jpg,A3MIDLO5S7FU06,pilot_24_hours,0.4666453,0.39736822,0.2989827,0.32602307,0.46281493,0.7019079,0.7603448
756,3.0,left,left,1.0,1.4582,0.0,36.0,36.0,36.0,1.0,2901939379-143479.jpg,2981240424-145794.jpg,A3MIDLO5S7FU06,pilot_24_hours,0.53037846,0.3620483,0.26633617,0.22732091,0.33637905,0.67839944,0.80089146
757,3.0,left,right,0.0,3.0426,0.0,37.0,37.0,37.0,1.0,2874302418-65979.jpg,2238578544-111698.jpg,A3MIDLO5S7FU06,pilot_24_hours,0.435088,0.3905231,0.30866048,0.29409418,0.28483465,0.5227267,0.6263716
758,1.0,left,right,0.0,1.4449,0.0,38.0,38.0,38.0,1.0,2901941401-292798.jpg,2898618327-366317.jpg,A3MIDLO5S7FU06,pilot_24_hours,0.5005474,0.3987052,0.31093502,0.3004497,0.3925463,0.6303921,0.70656246
759,2.0,left,left,1.0,1.3744,0.0,39.0,39.0,39.0,1.0,2986451363-73599.jpg,2860302315-210704.jpg,A3MIDLO5S7FU06,pilot_24_hours,0.47658187,0.43035305,0.35701227,0.40708944,0.47469556,0.65646315,0.64133054
760,3.0,left,right,0.0,1.74,0.0,40.0,40.0,40.0,1.0,2864907432-362042.jpg,2989726338-74002.jpg,A3MIDLO5S7FU06,pilot_24_hours,0.51353204,0.44905367,0.36378947,0.3592342,0.43885866,0.692781,0.74775153
761,2.0,right,left,0.0,2.0952,0.0,41.0,41.0,41.0,1.0,2898632385-217136.jpg,2883254439-140941.jpg,A3MIDLO5S7FU06,pilot_24_hours,0.513491,0.39700502,0.3063731,0.3080888,0.47375554,0.6805278,0.71995974
762,3.0,left,left,1.0,1.2185,0.0,42.0,42.0,42.0,1.0,2238572663-35822.jpg,2864903351-286874.jpg,A3MIDLO5S7FU06,pilot_24_hours,0.46827924,0.42087364,0.33595535,0.32848698,0.41157973,0.58956367,0.66025716
763,3.0,left,right,0.0,2.342,0.0,43.0,43.0,43.0,1.0,2901948350-218459.jpg,2981246360-220352.jpg,A3MIDLO5S7FU06,pilot_24_hours,0.43605852,0.36367497,0.2869044,0.26574802,0.33967718,0.69009906,0.8139916
764,1.0,right,right,1.0,0.9893,0.0,44.0,44.0,44.0,1.0,2986447306-296584.jpg,2874307433-66280.jpg,A3MIDLO5S7FU06,pilot_24_hours,0.5729314,0.47285256,0.3596191,0.28575647,0.21723282,0.45388037,0.48333797
765,3.0,left,right,0.0,1.5199,0.0,45.0,45.0,45.0,1.0,2446758985-197609.jpg,2898624426-291544.jpg,A3MIDLO5S7FU06,pilot_24_hours,0.56090397,0.39143613,0.29625887,0.2834665,0.35848063,0.54974097,0.5566899
766,1.0,right,right,1.0,1.1899,0.0,46.0,46.0,46.0,1.0,2860312398-62572.jpg,2901947423-70311.jpg,A3MIDLO5S7FU06,pilot_24_hours,0.53313386,0.4372231,0.2922769,0.18165857,0.084899515,0.43745193,0.60998756
767,2.0,right,right,1.0,1.3147,0.0,47.0,47.0,47.0,1.0,2452380166-273110.jpg,2460547467-349421.jpg,A3MIDLO5S7FU06,pilot_24_hours,0.46613595,0.40989923,0.35117015,0.32182348,0.30212873,0.5026994,0.5219705
768,3.0,right,right,1.0,1.6813,0.0,48.0,48.0,48.0,1.0,2512875587-350044.jpg,2592380177-354629.jpg,A3MIDLO5S7FU06,pilot_24_hours,0.46629784,0.38793507,0.2888271,0.20474373,0.23852833,0.50451154,0.6193866
769,1.0,left,left,1.0,1.1638,0.0,49.0,49.0,49.0,1.0,2981231403-71642.jpg,2274829821-263682.jpg,A3MIDLO5S7FU06,pilot_24_hours,0.493104,0.3972481,0.23479955,0.11452547,0.16188647,0.33647612,0.34257525
770,1.0,right,right,1.0,2.1709,0.0,50.0,50.0,50.0,1.0,2452380171-273112.jpg,2449442529-124445.jpg,A3MIDLO5S7FU06,pilot_24_hours,0.62144357,0.39484787,0.27805087,0.22674154,0.22519545,0.468542,0.50909954
771,2.0,right,right,1.0,1.4814,0.0,51.0,51.0,51.0,1.0,2575120738-55528.jpg,2575120738-55529.jpg,A3MIDLO5S7FU06,pilot_24_hours,0.46960905,0.3644777,0.29108882,0.2883673,0.356773,0.5696623,0.61020255
772,2.0,right,left,0.0,1.4347,0.0,52.0,52.0,52.0,1.0,2981246400-220363.jpg,2868474407-362883.jpg,A3MIDLO5S7FU06,pilot_24_hours,0.47607708,0.42012966,0.3315332,0.3357959,0.43158466,0.67669564,0.77041876
773,1.0,left,left,1.0,1.1579,0.0,53.0,53.0,53.0,1.0,2458347385-199723.jpg,2238480434-93829.jpg,A3MIDLO5S7FU06,pilot_24_hours,0.50086415,0.34138843,0.19402216,0.11946193,0.19492193,0.40909523,0.4498839
774,2.0,left,left,1.0,1.8156,0.0,54.0,54.0,54.0,1.0,2452381505-199546.jpg,2238567168-34916.jpg,A3MIDLO5S7FU06,pilot_24_hours,0.3685478,0.33025604,0.2790695,0.2941948,0.3496884,0.53796846,0.613254
775,1.0,left,right,0.0,2.0559,0.0,55.0,55.0,55.0,1.0,2238428357-313623.jpg,2238499057-320266.jpg,A3MIDLO5S7FU06,pilot_24_hours,0.53482246,0.43584228,0.31070113,0.24118485,0.17312127,0.3138553,0.37581575
776,3.0,left,left,1.0,1.322,0.0,56.0,56.0,56.0,1.0,2883268412-365898.jpg,2238436252-314037.jpg,A3MIDLO5S7FU06,pilot_24_hours,0.550506,0.46625507,0.36638084,0.353495,0.40690508,0.6365052,0.7180944
777,3.0,left,right,0.0,3.1083,0.0,57.0,57.0,57.0,1.0,2238425482-313537.jpg,2898633480-217190.jpg,A3MIDLO5S7FU06,pilot_24_hours,0.38858852,0.3580417,0.2821895,0.2590064,0.43382037,0.676829,0.71588796
778,2.0,left,right,0.0,1.1288,0.0,58.0,58.0,58.0,1.0,2238580740-186218.jpg,2238521193-26285.jpg,A3MIDLO5S7FU06,pilot_24_hours,0.4828981,0.39296883,0.30348286,0.26804152,0.36576596,0.6023957,0.6724157
779,1.0,right,right,1.0,1.5157,0.0,59.0,59.0,59.0,1.0,2862691449-137104.jpg,2238481198-19822.jpg,A3MIDLO5S7FU06,pilot_24_hours,0.4712124,0.4021843,0.30150512,0.297541,0.3096843,0.42768663,0.48564664
780,1.0,left,left,1.0,3.226599999,0.0,0.0,0.0,0.0,1.0,2883268471-290842.jpg,2883268471-290843.jpg,A3U0GQGAPN2DAV,pilot_24_hours,0.56071603,0.37202314,0.2640556,0.2442129,0.35115752,0.6092218,0.7019853
781,1.0,left,left,1.0,2.0084,0.0,1.0,1.0,1.0,1.0,2592380177-354626.jpg,2986408339-146952.jpg,A3U0GQGAPN2DAV,pilot_24_hours,0.51850945,0.3736484,0.25379214,0.20175755,0.17646822,0.32521498,0.2908722
782,3.0,right,right,1.0,1.5288,0.0,2.0,2.0,2.0,1.0,2994401319-148290.jpg,2452381505-199546.jpg,A3U0GQGAPN2DAV,pilot_24_hours,0.35990402,0.31692538,0.22359172,0.18342426,0.34985194,0.5815142,0.67270917
783,1.0,left,left,1.0,1.6938,0.0,3.0,3.0,3.0,1.0,2981231403-71642.jpg,2274829821-263682.jpg,A3U0GQGAPN2DAV,pilot_24_hours,0.493104,0.3972481,0.23479955,0.11452547,0.16188647,0.33647612,0.34257525
784,1.0,right,right,1.0,1.7825,0.0,4.0,4.0,4.0,1.0,2446760844-124088.jpg,2883254439-140941.jpg,A3U0GQGAPN2DAV,pilot_24_hours,0.6372897,0.37968478,0.25410625,0.20944452,0.2745723,0.5558853,0.6287043
785,1.0,left,left,1.0,1.063400001,0.0,5.0,5.0,5.0,1.0,2592379964-131054.jpg,2575963989-130576.jpg,A3U0GQGAPN2DAV,pilot_24_hours,,,,,,,
786,3.0,right,right,1.0,1.293,0.0,6.0,6.0,6.0,1.0,2883273443-68193.jpg,2901941401-292798.jpg,A3U0GQGAPN2DAV,pilot_24_hours,0.44746235,0.34636408,0.26594776,0.23429683,0.32963687,0.7793218,0.88836807
787,1.0,left,left,1.0,1.905,0.0,7.0,7.0,7.0,1.0,2460547467-349422.jpg,2898618440-216545.jpg,A3U0GQGAPN2DAV,pilot_24_hours,0.57652366,0.38269448,0.2602591,0.22259255,0.1829645,0.43334854,0.45119235
788,3.0,right,left,0.0,1.5638,0.0,8.0,8.0,8.0,1.0,2238480278-19661.jpg,2238480677-317399.jpg,A3U0GQGAPN2DAV,pilot_24_hours,,,,,,,
789,1.0,right,right,1.0,2.0336,0.0,9.0,9.0,9.0,1.0,2804906319-133082.jpg,2901948350-218459.jpg,A3U0GQGAPN2DAV,pilot_24_hours,0.47942036,0.3938324,0.30636242,0.24921091,0.19519433,0.18453516,0.1818865
790,2.0,right,right,1.0,1.0585,0.0,10.0,10.0,10.0,1.0,2868469411-287540.jpg,2901952513-70703.jpg,A3U0GQGAPN2DAV,pilot_24_hours,0.5153487,0.45667544,0.3625235,0.35688245,0.32005706,0.44773152,0.39204705
791,2.0,right,right,1.0,1.268599999,0.0,11.0,11.0,11.0,1.0,2984615361-295509.jpg,2238428357-313623.jpg,A3U0GQGAPN2DAV,pilot_24_hours,0.5328607,0.45598653,0.34712195,0.28705245,0.16757482,0.35351062,0.3446732
792,3.0,right,right,1.0,1.769599999,0.0,12.0,12.0,12.0,1.0,2898621427-366486.jpg,2898635427-367120.jpg,A3U0GQGAPN2DAV,pilot_24_hours,0.47038117,0.35525864,0.26246575,0.21619637,0.36257586,0.6841324,0.74279946
793,1.0,left,left,1.0,1.5571,0.0,13.0,13.0,13.0,1.0,2864910426-287204.jpg,2864902304-137862.jpg,A3U0GQGAPN2DAV,pilot_24_hours,0.6157579,0.4628133,0.32677275,0.24828027,0.20332703,0.46356297,0.48187596
794,1.0,left,right,0.0,1.9392,0.0,14.0,14.0,14.0,1.0,2898634397-367080.jpg,2237944827-301472.jpg,A3U0GQGAPN2DAV,pilot_24_hours,0.5052973,0.3983118,0.28849092,0.23483498,0.27698994,0.57384664,0.65546846
795,3.0,right,right,1.0,2.3033,0.0,15.0,15.0,15.0,1.0,2238550049-105691.jpg,2898633421-291973.jpg,A3U0GQGAPN2DAV,pilot_24_hours,0.53693265,0.42071104,0.27811942,0.17661478,0.28269896,0.5105322,0.6422368
796,2.0,right,right,1.0,1.5591,0.0,16.0,16.0,16.0,1.0,2981229442-369621.jpg,2901939379-143480.jpg,A3U0GQGAPN2DAV,pilot_24_hours,0.49975038,0.39601797,0.30036464,0.31215048,0.38268885,0.68406695,0.77335453
797,1.0,left,left,1.0,1.6671,0.0,17.0,17.0,17.0,1.0,2981241414-145842.jpg,2856919327-359676.jpg,A3U0GQGAPN2DAV,pilot_24_hours,0.48718107,0.4173889,0.31008968,0.23515664,0.19404987,0.23884922,0.21451034
798,3.0,right,left,0.0,3.0879,0.0,18.0,18.0,18.0,1.0,2446760917-347439.jpg,2874299429-139695.jpg,A3U0GQGAPN2DAV,pilot_24_hours,0.453483,0.38854423,0.32359582,0.3693531,0.52015483,0.6945516,0.7120025
799,1.0,left,left,1.0,1.906700001,0.0,19.0,19.0,19.0,1.0,2898618390-216538.jpg,2986449336-296644.jpg,A3U0GQGAPN2DAV,pilot_24_hours,,,,,,,
800,2.0,left,left,1.0,1.5987,0.0,20.0,20.0,20.0,1.0,2449442529-124446.jpg,2460547536-274181.jpg,A3U0GQGAPN2DAV,pilot_24_hours,0.4398614,0.38490975,0.27799332,0.2528648,0.3309133,0.5837218,0.7211686
801,3.0,left,left,1.0,1.416,0.0,21.0,21.0,21.0,1.0,2238425482-313537.jpg,2898633480-217190.jpg,A3U0GQGAPN2DAV,pilot_24_hours,0.38858852,0.3580417,0.2821895,0.2590064,0.43382037,0.676829,0.71588796
802,2.0,right,right,1.0,1.8644,0.0,22.0,22.0,22.0,1.0,2901946436-293242.jpg,2238481198-19822.jpg,A3U0GQGAPN2DAV,pilot_24_hours,0.4657863,0.4303175,0.33850726,0.3617698,0.4721276,0.66418993,0.763763
803,1.0,left,left,1.0,1.871,0.0,23.0,23.0,23.0,1.0,2592380177-354629.jpg,2898633421-291974.jpg,A3U0GQGAPN2DAV,pilot_24_hours,0.5552606,0.4024126,0.29440212,0.2053316,0.21694423,0.39403653,0.40047845
804,3.0,left,right,0.0,2.0848,0.0,24.0,24.0,24.0,1.0,2874307433-66280.jpg,2981231422-369714.jpg,A3U0GQGAPN2DAV,pilot_24_hours,0.47377756,0.40342793,0.31916887,0.33109576,0.49618793,0.7299206,0.7887337
805,2.0,right,right,1.0,2.9238,0.0,25.0,25.0,25.0,1.0,2238521193-26285.jpg,2238580740-186218.jpg,A3U0GQGAPN2DAV,pilot_24_hours,0.4828981,0.39296883,0.30348286,0.26804152,0.36576596,0.6023957,0.6724157
806,1.0,right,right,1.0,5.2585,0.0,26.0,26.0,26.0,1.0,2460547291-274110.jpg,2460547508-51571.jpg,A3U0GQGAPN2DAV,pilot_24_hours,0.5160358,0.3647782,0.280446,0.25256267,0.25184473,0.56593484,0.66971105
807,3.0,right,left,0.0,2.015400001,0.0,27.0,27.0,27.0,1.0,2864911457-362260.jpg,2874303365-214262.jpg,A3U0GQGAPN2DAV,pilot_24_hours,0.4313089,0.37365657,0.2835693,0.22859405,0.3964164,0.665625,0.77801746
808,2.0,right,left,0.0,1.9298,0.0,28.0,28.0,28.0,1.0,2964210336-293945.jpg,2883256307-365057.jpg,A3U0GQGAPN2DAV,pilot_24_hours,0.5145448,0.4533008,0.35918817,0.3114069,0.18399481,0.40244028,0.47479475
809,1.0,right,right,1.0,1.5279,0.0,29.0,29.0,29.0,1.0,2898626385-216899.jpg,2874302418-65978.jpg,A3U0GQGAPN2DAV,pilot_24_hours,0.5067572,0.44389895,0.34508708,0.28157395,0.2275905,0.43836743,0.5058823
810,3.0,left,left,1.0,1.505,0.0,30.0,30.0,30.0,1.0,2446758985-197609.jpg,2898624426-291544.jpg,A3U0GQGAPN2DAV,pilot_24_hours,0.56090397,0.39143613,0.29625887,0.2834665,0.35848063,0.54974097,0.5566899
811,3.0,right,left,0.0,1.76,0.0,31.0,31.0,31.0,1.0,2989726338-74002.jpg,2864907432-362042.jpg,A3U0GQGAPN2DAV,pilot_24_hours,0.51353204,0.44905367,0.36378947,0.3592342,0.43885866,0.692781,0.74775153
812,2.0,right,right,1.0,1.511099999,0.0,32.0,32.0,32.0,1.0,2458348012-349114.jpg,2964213381-294060.jpg,A3U0GQGAPN2DAV,pilot_24_hours,0.37015396,0.29343298,0.22374026,0.19976883,0.18622616,0.36042613,0.38140827
813,3.0,left,left,1.0,1.9025,0.0,33.0,33.0,33.0,1.0,2446759347-347016.jpg,2238569117-333045.jpg,A3U0GQGAPN2DAV,pilot_24_hours,,,,,,,
814,2.0,left,left,1.0,1.138799999,0.0,34.0,34.0,34.0,1.0,2512875899-126682.jpg,2592380177-354628.jpg,A3U0GQGAPN2DAV,pilot_24_hours,0.44192803,0.36178938,0.28175512,0.23919167,0.24265566,0.39245665,0.40566987
815,3.0,left,left,1.0,2.1808,0.0,35.0,35.0,35.0,1.0,2898624426-291546.jpg,2981235446-294900.jpg,A3U0GQGAPN2DAV,pilot_24_hours,0.40954354,0.33688876,0.23204137,0.18370157,0.32616192,0.6754603,0.78828114
816,2.0,left,left,1.0,1.3139,0.0,36.0,36.0,36.0,1.0,2449442529-124445.jpg,2986408373-73286.jpg,A3U0GQGAPN2DAV,pilot_24_hours,0.56969327,0.3909744,0.2758177,0.22152504,0.1803969,0.28860563,0.2486766
817,3.0,right,left,0.0,1.942400001,0.0,37.0,37.0,37.0,1.0,2864903351-286874.jpg,2238572663-35822.jpg,A3U0GQGAPN2DAV,pilot_24_hours,0.46827924,0.42087364,0.33595535,0.32848698,0.41157973,0.58956367,0.66025716
818,3.0,right,right,1.0,1.537,0.0,38.0,38.0,38.0,1.0,2981241419-145844.jpg,2238481928-19949.jpg,A3U0GQGAPN2DAV,pilot_24_hours,0.44928864,0.41116577,0.33683482,0.312805,0.46707627,0.6581305,0.70640194
819,3.0,right,right,1.0,2.016,0.0,39.0,39.0,39.0,1.0,2964207374-144577.jpg,2898617468-68274.jpg,A3U0GQGAPN2DAV,pilot_24_hours,0.55044913,0.34094188,0.23677091,0.17187896,0.18769062,0.48951563,0.60655046
820,1.0,right,right,1.0,2.8495,0.0,40.0,40.0,40.0,1.0,2964218374-144968.jpg,2964218374-144967.jpg,A3U0GQGAPN2DAV,pilot_24_hours,0.50798714,0.3670976,0.29287857,0.29468307,0.43911165,0.71385205,0.7794354
821,2.0,right,left,0.0,1.8895,0.0,41.0,41.0,41.0,1.0,2984615358-72439.jpg,2449441881-272368.jpg,A3U0GQGAPN2DAV,pilot_24_hours,0.5361618,0.45913357,0.34585646,0.30865622,0.21416064,0.43193436,0.45552373
822,1.0,left,left,1.0,1.2246,0.0,42.0,42.0,42.0,1.0,2452380832-348593.jpg,2238328478-11678.jpg,A3U0GQGAPN2DAV,pilot_24_hours,0.5528518,0.34639004,0.23606089,0.12729838,0.07129175,0.1941122,0.12066501
823,3.0,right,right,1.0,1.6069,0.0,43.0,43.0,43.0,1.0,2898618444-142232.jpg,2898618444-142233.jpg,A3U0GQGAPN2DAV,pilot_24_hours,0.52357376,0.37710276,0.31768098,0.4009868,0.4916404,0.6854271,0.72513264
824,3.0,right,left,0.0,1.415700001,0.0,44.0,44.0,44.0,1.0,2238436252-314037.jpg,2883268412-365898.jpg,A3U0GQGAPN2DAV,pilot_24_hours,0.550506,0.46625507,0.36638084,0.353495,0.40690508,0.6365052,0.7180944
825,2.0,left,left,1.0,1.557700001,0.0,45.0,45.0,45.0,1.0,2446759803-49249.jpg,2898618440-216547.jpg,A3U0GQGAPN2DAV,pilot_24_hours,0.5959994,0.37886173,0.29443234,0.28405598,0.28824934,0.50696844,0.62936413
826,1.0,right,right,1.0,1.3421,0.0,46.0,46.0,46.0,1.0,2238544191-252422.jpg,2964216465-219242.jpg,A3U0GQGAPN2DAV,pilot_24_hours,0.4381925,0.3564237,0.2506763,0.18335202,0.20393471,0.31188622,0.30555156
827,3.0,left,left,1.0,1.9212,0.0,47.0,47.0,47.0,1.0,2868474407-362883.jpg,2901948383-70363.jpg,A3U0GQGAPN2DAV,pilot_24_hours,0.4001435,0.37227762,0.2923372,0.24320795,0.4419357,0.74659073,0.83919704
828,2.0,left,left,1.0,1.4311,0.0,48.0,48.0,48.0,1.0,2460547467-349421.jpg,2452380166-273110.jpg,A3U0GQGAPN2DAV,pilot_24_hours,0.46613595,0.40989923,0.35117015,0.32182348,0.30212873,0.5026994,0.5219705
829,2.0,left,left,1.0,2.2254,0.0,49.0,49.0,49.0,1.0,2874301407-363895.jpg,2986397322-371109.jpg,A3U0GQGAPN2DAV,pilot_24_hours,0.47420156,0.42388302,0.34592247,0.3436671,0.3407357,0.50289196,0.5176568
830,1.0,left,left,1.0,2.9449,0.0,50.0,50.0,50.0,1.0,2874302418-65979.jpg,2413147898-43548.jpg,A3U0GQGAPN2DAV,pilot_24_hours,0.507441,0.44703835,0.34264448,0.24867517,0.1941579,0.31946978,0.3692958
831,2.0,left,left,1.0,1.3384,0.0,51.0,51.0,51.0,1.0,2901939379-143479.jpg,2446758985-197610.jpg,A3U0GQGAPN2DAV,pilot_24_hours,0.5168398,0.36292115,0.26546022,0.26125386,0.38415718,0.63267434,0.6890273
832,1.0,left,left,1.0,2.3782,0.0,52.0,52.0,52.0,1.0,2868475410-213219.jpg,2901946465-218350.jpg,A3U0GQGAPN2DAV,pilot_24_hours,0.46510327,0.39892444,0.30901694,0.2669845,0.26836398,0.39279103,0.44677627
833,2.0,right,right,1.0,1.4436,0.0,53.0,53.0,53.0,1.0,2874314526-289684.jpg,2238560245-182099.jpg,A3U0GQGAPN2DAV,pilot_24_hours,0.43314254,0.37281495,0.28776973,0.28208122,0.5031101,0.68590695,0.7791734
834,2.0,left,left,1.0,1.4104,0.0,54.0,54.0,54.0,1.0,2458347385-199723.jpg,2427874554-121863.jpg,A3U0GQGAPN2DAV,pilot_24_hours,0.43966657,0.39033678,0.31144089,0.33185786,0.42006478,0.56723154,0.64049566
835,1.0,right,right,1.0,2.1955,0.0,55.0,55.0,55.0,1.0,2427874231-269884.jpg,2964223381-294447.jpg,A3U0GQGAPN2DAV,pilot_24_hours,0.45845124,0.38918623,0.27616423,0.19303282,0.14413087,0.37973619,0.46351248
836,2.0,right,right,1.0,1.5976,0.0,56.0,56.0,56.0,1.0,2901943411-292945.jpg,2898635428-69104.jpg,A3U0GQGAPN2DAV,pilot_24_hours,0.45939028,0.36862105,0.3106206,0.28417727,0.23500526,0.43551317,0.40768757
837,2.0,left,left,1.0,2.1118,0.0,57.0,57.0,57.0,1.0,2575120738-55529.jpg,2575120738-55528.jpg,A3U0GQGAPN2DAV,pilot_24_hours,0.46960905,0.3644777,0.29108882,0.2883673,0.356773,0.5696623,0.61020255
838,2.0,left,left,1.0,1.871599999,0.0,58.0,58.0,58.0,1.0,2901947423-70311.jpg,2238573447-333826.jpg,A3U0GQGAPN2DAV,pilot_24_hours,0.5118917,0.4522142,0.38085124,0.4190332,0.51949596,0.67664075,0.7749884
839,3.0,left,left,1.0,1.2762,0.0,59.0,59.0,59.0,1.0,2986451363-73599.jpg,2238434559-90406.jpg,A3U0GQGAPN2DAV,pilot_24_hours,0.44659236,0.4053699,0.32556635,0.30618906,0.32790762,0.6873194,0.7664167
840,1.0,right,right,1.0,6.6736,0.0,0.0,0.0,0.0,1.0,2611628310-206388.jpg,2883256307-365057.jpg,A5P12YJP805RG,pilot_24_hours,,,,,,,
841,1.0,right,right,1.0,1.8508,0.0,1.0,1.0,1.0,1.0,2964218432-369263.jpg,2898624426-291546.jpg,A5P12YJP805RG,pilot_24_hours,0.5238812,0.35266647,0.22617368,0.17020103,0.20239823,0.39656505,0.40373304
842,3.0,right,right,1.0,1.2222,0.0,2.0,2.0,2.0,1.0,2964207374-144577.jpg,2898617468-68274.jpg,A5P12YJP805RG,pilot_24_hours,0.55044913,0.34094188,0.23677091,0.17187896,0.18769062,0.48951563,0.60655046
843,1.0,right,left,0.0,1.1233,0.0,3.0,3.0,3.0,1.0,2238499057-320266.jpg,2238428357-313623.jpg,A5P12YJP805RG,pilot_24_hours,0.53482246,0.43584228,0.31070113,0.24118485,0.17312127,0.3138553,0.37581575
844,2.0,right,right,1.0,1.1514,0.0,4.0,4.0,4.0,1.0,2984615361-295510.jpg,2883268412-365898.jpg,A5P12YJP805RG,pilot_24_hours,0.5447968,0.4752479,0.36710334,0.34578204,0.35827264,0.5805571,0.6627422
845,1.0,right,left,0.0,1.532,0.0,5.0,5.0,5.0,1.0,2898618440-216545.jpg,2460547467-349422.jpg,A5P12YJP805RG,pilot_24_hours,0.57652366,0.38269448,0.2602591,0.22259255,0.1829645,0.43334854,0.45119235
846,1.0,right,right,1.0,3.068,0.0,6.0,6.0,6.0,1.0,2981244394-145974.jpg,2964213381-294060.jpg,A5P12YJP805RG,pilot_24_hours,0.42820492,0.24218234,0.1553041,0.10105748,0.1250157,0.24639821,0.31855497
847,3.0,right,left,0.0,1.3341,0.0,7.0,7.0,7.0,1.0,2449441881-272367.jpg,2449441881-272368.jpg,A5P12YJP805RG,pilot_24_hours,0.45775464,0.41255033,0.31683582,0.23271757,0.30314726,0.6131562,0.6786517
848,3.0,left,left,1.0,0.9825,0.0,8.0,8.0,8.0,1.0,2592379964-131054.jpg,2592380272-354673.jpg,A5P12YJP805RG,pilot_24_hours,,,,,,,
849,3.0,left,left,1.0,1.4054,0.0,9.0,9.0,9.0,1.0,2964216465-219242.jpg,2898619327-366362.jpg,A5P12YJP805RG,pilot_24_hours,0.31405884,0.29471764,0.22206424,0.22363022,0.4326898,0.59392834,0.66989505
850,1.0,right,left,0.0,1.5016,0.0,10.0,10.0,10.0,1.0,2413147898-43548.jpg,2874302418-65979.jpg,A5P12YJP805RG,pilot_24_hours,0.507441,0.44703835,0.34264448,0.24867517,0.1941579,0.31946978,0.3692958
851,1.0,left,right,0.0,1.9885,0.0,11.0,11.0,11.0,1.0,2238572663-35822.jpg,2986419333-73361.jpg,A5P12YJP805RG,pilot_24_hours,0.47769275,0.39675805,0.26282585,0.16765125,0.15018263,0.30520147,0.3884325
852,3.0,left,left,1.0,2.1458,0.0,12.0,12.0,12.0,1.0,2901952513-70703.jpg,2238481198-19821.jpg,A5P12YJP805RG,pilot_24_hours,0.4767165,0.42084354,0.35531774,0.3447737,0.3973941,0.6070827,0.6381103
853,2.0,left,left,1.0,1.0846,0.0,13.0,13.0,13.0,1.0,2592380177-354626.jpg,2864901386-286797.jpg,A5P12YJP805RG,pilot_24_hours,0.47496974,0.38934562,0.28954622,0.23091,0.19591722,0.34192154,0.3526984
854,3.0,right,right,1.0,0.9236,0.0,14.0,14.0,14.0,1.0,2449442181-272436.jpg,2452380832-348593.jpg,A5P12YJP805RG,pilot_24_hours,0.30567417,0.33513692,0.24347524,0.21413803,0.32195333,0.4529044,0.40792555
855,3.0,left,left,1.0,1.4852,0.0,15.0,15.0,15.0,1.0,2874307433-66280.jpg,2981231422-369714.jpg,A5P12YJP805RG,pilot_24_hours,0.47377756,0.40342793,0.31916887,0.33109576,0.49618793,0.7299206,0.7887337
856,2.0,right,right,1.0,1.1013,0.0,16.0,16.0,16.0,1.0,2460547536-274181.jpg,2449442529-124446.jpg,A5P12YJP805RG,pilot_24_hours,0.4398614,0.38490975,0.27799332,0.2528648,0.3309133,0.5837218,0.7211686
857,1.0,left,left,1.0,1.1297,0.0,17.0,17.0,17.0,1.0,2874303365-214262.jpg,2609793677-355397.jpg,A5P12YJP805RG,pilot_24_hours,0.4711733,0.38745373,0.2831332,0.19399162,0.1916389,0.3685866,0.37739947
858,3.0,left,left,1.0,1.0581,0.0,18.0,18.0,18.0,1.0,2864910426-287204.jpg,2901939433-69672.jpg,A5P12YJP805RG,pilot_24_hours,0.535246,0.45616913,0.35829356,0.3756276,0.40785748,0.7831338,0.8407001
859,3.0,left,right,0.0,1.2379,0.0,19.0,19.0,19.0,1.0,2874299429-139695.jpg,2446760917-347439.jpg,A5P12YJP805RG,pilot_24_hours,0.453483,0.38854423,0.32359582,0.3693531,0.52015483,0.6945516,0.7120025
860,1.0,right,right,1.0,1.3013,0.0,20.0,20.0,20.0,1.0,2898631359-142721.jpg,2898618444-142233.jpg,A5P12YJP805RG,pilot_24_hours,0.5270904,0.38518867,0.28262424,0.2156116,0.21325625,0.24524039,0.27071157
861,1.0,right,right,1.0,1.2439,0.0,21.0,21.0,21.0,1.0,2883264368-67631.jpg,2874301407-363895.jpg,A5P12YJP805RG,pilot_24_hours,0.5154204,0.44573656,0.32874864,0.23799734,0.21782687,0.38233706,0.37000382
862,1.0,left,left,1.0,1.2012,0.0,22.0,22.0,22.0,1.0,2238560245-182099.jpg,2549106624-127823.jpg,A5P12YJP805RG,pilot_24_hours,0.47466877,0.3691004,0.25184336,0.15428324,0.10720641,0.32316142,0.45908356
863,1.0,right,right,1.0,1.4678,0.0,23.0,23.0,23.0,1.0,2238550816-254000.jpg,2238580740-186218.jpg,A5P12YJP805RG,pilot_24_hours,0.4973932,0.41223717,0.30328286,0.20491391,0.18613486,0.37473956,0.46783727
864,2.0,left,left,1.0,1.1133,0.0,24.0,24.0,24.0,1.0,2864907432-362042.jpg,2901947423-70310.jpg,A5P12YJP805RG,pilot_24_hours,0.52695173,0.4615668,0.38739076,0.41937542,0.31582594,0.45036885,0.4965683
865,1.0,left,left,1.0,1.1067,0.0,25.0,25.0,25.0,1.0,2898633421-291973.jpg,2512876023-52283.jpg,A5P12YJP805RG,pilot_24_hours,0.56122035,0.43308693,0.30094382,0.23341547,0.26896766,0.5390453,0.5867554
866,3.0,right,right,1.0,1.949,0.0,26.0,26.0,26.0,1.0,2901947448-70314.jpg,2883268471-290842.jpg,A5P12YJP805RG,pilot_24_hours,0.5057215,0.38251036,0.29728168,0.31377932,0.4807022,0.75929,0.80441034
867,2.0,right,right,1.0,1.0275,0.0,27.0,27.0,27.0,1.0,2981229442-369621.jpg,2901939379-143480.jpg,A5P12YJP805RG,pilot_24_hours,0.49975038,0.39601797,0.30036464,0.31215048,0.38268885,0.68406695,0.77335453
868,3.0,right,left,0.0,1.2565,0.0,28.0,28.0,28.0,1.0,2427873848-47312.jpg,2981241414-145842.jpg,A5P12YJP805RG,pilot_24_hours,0.4593529,0.403337,0.32595116,0.31859377,0.47264394,0.74472374,0.8064313
869,3.0,right,right,1.0,1.1479,0.0,29.0,29.0,29.0,1.0,2238577590-185467.jpg,2901947423-70311.jpg,A5P12YJP805RG,pilot_24_hours,0.5006946,0.4445065,0.329915,0.32045004,0.6158375,0.7772594,0.8266474
870,2.0,left,right,0.0,1.58,0.0,30.0,30.0,30.0,1.0,2575120738-55529.jpg,2575120738-55528.jpg,A5P12YJP805RG,pilot_24_hours,0.46960905,0.3644777,0.29108882,0.2883673,0.356773,0.5696623,0.61020255
871,1.0,right,right,1.0,0.9704,0.0,31.0,31.0,31.0,1.0,2804906319-133082.jpg,2901948350-218459.jpg,A5P12YJP805RG,pilot_24_hours,0.47942036,0.3938324,0.30636242,0.24921091,0.19519433,0.18453516,0.1818865
872,2.0,left,left,1.0,1.7186,0.0,32.0,32.0,32.0,1.0,2460547508-51571.jpg,2981232437-369759.jpg,A5P12YJP805RG,pilot_24_hours,0.4788651,0.38235718,0.31960222,0.32804376,0.453319,0.6924605,0.76986045
873,2.0,left,left,1.0,0.89,0.0,33.0,33.0,33.0,1.0,2874302418-65978.jpg,2238481198-19823.jpg,A5P12YJP805RG,pilot_24_hours,0.46551856,0.42121917,0.35099068,0.4059158,0.35943648,0.5638393,0.6233055
