button.numClicks,button.timesOn,button.timesOff,workID,Age,Gender,Hours slept (last night),date,expName,psychopyVersion,OS,frameRate,space_key_responce.keys,test_test_response.keys,test_test_response.corr,test_test_response.rt,trials_2.thisRepN,trials_2.thisTrialN,trials_2.thisN,trials_2.thisIndex,trials_2.ran,image1,image2,layer,correct,key_resp_end_2.keys,key_resp_end_2.rt
1,[1105.8288999999759],[1105.829099999994],A2CXF9V4KEA8AW,35,male,6,2022-12-26_09h52.02.033,memory_pilot_most_recent,2022.2.4,Win32,7.237723012,,,,,,,,,,,,,,,
,,,A2CXF9V4KEA8AW,35,male,6,2022-12-26_09h52.02.033,memory_pilot_most_recent,2022.2.4,Win32,7.237723012,,,,,,,,,,,,,,,
,,,A2CXF9V4KEA8AW,35,male,6,2022-12-26_09h52.02.033,memory_pilot_most_recent,2022.2.4,Win32,7.237723012,,,,,,,,,,,,,,,
,,,A2CXF9V4KEA8AW,35,male,6,2022-12-26_09h52.02.033,memory_pilot_most_recent,2022.2.4,Win32,7.237723012,,,,,,,,,,,,,,,
,,,A2CXF9V4KEA8AW,35,male,6,2022-12-26_09h52.02.033,memory_pilot_most_recent,2022.2.4,Win32,7.237723012,,,,,,,,,,,,,,,
,,,A2CXF9V4KEA8AW,35,male,6,2022-12-26_09h52.02.033,memory_pilot_most_recent,2022.2.4,Win32,7.237723012,,,,,,,,,,,,,,,
,,,A2CXF9V4KEA8AW,35,male,6,2022-12-26_09h52.02.033,memory_pilot_most_recent,2022.2.4,Win32,7.237723012,,right,1,2.8036,0,0,0,0,1,2238481575-168208.jpg,2883255450-215311.jpg,1,right,,
,,,A2CXF9V4KEA8AW,35,male,6,2022-12-26_09h52.02.033,memory_pilot_most_recent,2022.2.4,Win32,7.237723012,,right,0,2.2299,0,1,1,1,1,2986408352-371293.jpg,2868488422-363713.jpg,1,left,,
,,,A2CXF9V4KEA8AW,35,male,6,2022-12-26_09h52.02.033,memory_pilot_most_recent,2022.2.4,Win32,7.237723012,,right,1,1.9071,0,2,2,2,1,2424122568-45517.jpg,2901938432-367627.jpg,3,right,,
,,,A2CXF9V4KEA8AW,35,male,6,2022-12-26_09h52.02.033,memory_pilot_most_recent,2022.2.4,Win32,7.237723012,,left,1,2.6843,0,3,3,3,1,2898617468-68274.jpg,2512875899-126682.jpg,1,left,,
,,,A2CXF9V4KEA8AW,35,male,6,2022-12-26_09h52.02.033,memory_pilot_most_recent,2022.2.4,Win32,7.237723012,,left,0,1.7625,0,4,4,4,1,2238506233-23904.jpg,2238561223-33794.jpg,1,right,,
,,,A2CXF9V4KEA8AW,35,male,6,2022-12-26_09h52.02.033,memory_pilot_most_recent,2022.2.4,Win32,7.237723012,,left,1,1.6399,0,5,5,5,1,2238480434-93829.jpg,2238479903-19596.jpg,3,left,,
,,,A2CXF9V4KEA8AW,35,male,6,2022-12-26_09h52.02.033,memory_pilot_most_recent,2022.2.4,Win32,7.237723012,,right,1,1.8604,0,6,6,6,1,2238380314-88261.jpg,2868485396-288511.jpg,3,right,,
,,,A2CXF9V4KEA8AW,35,male,6,2022-12-26_09h52.02.033,memory_pilot_most_recent,2022.2.4,Win32,7.237723012,,right,1,1.986,0,7,7,7,1,2446760621-272102.jpg,2446760524-123999.jpg,1,right,,
,,,A2CXF9V4KEA8AW,35,male,6,2022-12-26_09h52.02.033,memory_pilot_most_recent,2022.2.4,Win32,7.237723012,,right,0,3.1337,0,8,8,8,1,2883254439-140940.jpg,2452380166-273110.jpg,1,left,,
,,,A2CXF9V4KEA8AW,35,male,6,2022-12-26_09h52.02.033,memory_pilot_most_recent,2022.2.4,Win32,7.237723012,,left,0,1.9992,0,9,9,9,1,2460547467-349422.jpg,2238496457-319749.jpg,3,right,,
,,,A2CXF9V4KEA8AW,35,male,6,2022-12-26_09h52.02.033,memory_pilot_most_recent,2022.2.4,Win32,7.237723012,,left,0,2.2717,0,10,10,10,1,2446760692-347392.jpg,2446760940-198145.jpg,3,right,,
,,,A2CXF9V4KEA8AW,35,male,6,2022-12-26_09h52.02.033,memory_pilot_most_recent,2022.2.4,Win32,7.237723012,,right,1,1.99,0,11,11,11,1,2238470979-92618.jpg,2238516618-25604.jpg,3,right,,
,,,A2CXF9V4KEA8AW,35,male,6,2022-12-26_09h52.02.033,memory_pilot_most_recent,2022.2.4,Win32,7.237723012,,right,1,1.6004,0,12,12,12,1,2238345946-235007.jpg,2901934573-69337.jpg,2,right,,
,,,A2CXF9V4KEA8AW,35,male,6,2022-12-26_09h52.02.033,memory_pilot_most_recent,2022.2.4,Win32,7.237723012,,left,0,4.5918,0,13,13,13,1,2964218374-144967.jpg,2238575092-334269.jpg,3,right,,
,,,A2CXF9V4KEA8AW,35,male,6,2022-12-26_09h52.02.033,memory_pilot_most_recent,2022.2.4,Win32,7.237723012,,right,1,1.6824,0,14,14,14,1,2825702353-60662.jpg,2994405328-74628.jpg,2,right,,
,,,A2CXF9V4KEA8AW,35,male,6,2022-12-26_09h52.02.033,memory_pilot_most_recent,2022.2.4,Win32,7.237723012,,right,1,1.4776,0,15,15,15,1,2238554179-106663.jpg,2460547467-349421.jpg,3,right,,
,,,A2CXF9V4KEA8AW,35,male,6,2022-12-26_09h52.02.033,memory_pilot_most_recent,2022.2.4,Win32,7.237723012,,right,1,2,0,16,16,16,1,2874316384-140749.jpg,2864909447-362146.jpg,1,right,,
,,,A2CXF9V4KEA8AW,35,male,6,2022-12-26_09h52.02.033,memory_pilot_most_recent,2022.2.4,Win32,7.237723012,,right,1,1.4627,0,17,17,17,1,2898633421-291973.jpg,2446758985-197609.jpg,1,right,,
,,,A2CXF9V4KEA8AW,35,male,6,2022-12-26_09h52.02.033,memory_pilot_most_recent,2022.2.4,Win32,7.237723012,,right,1,1.6035,0,18,18,18,1,2238498786-244797.jpg,2446759803-49249.jpg,3,right,,
,,,A2CXF9V4KEA8AW,35,male,6,2022-12-26_09h52.02.033,memory_pilot_most_recent,2022.2.4,Win32,7.237723012,,right,1,3.6331,0,19,19,19,1,2898631429-142736.jpg,2964209380-218956.jpg,2,right,,
,,,A2CXF9V4KEA8AW,35,male,6,2022-12-26_09h52.02.033,memory_pilot_most_recent,2022.2.4,Win32,7.237723012,,left,1,1.8353,0,20,20,20,1,2964213381-294061.jpg,2981234334-145491.jpg,2,left,,
,,,A2CXF9V4KEA8AW,35,male,6,2022-12-26_09h52.02.033,memory_pilot_most_recent,2022.2.4,Win32,7.237723012,,right,1,1.8662,0,21,21,21,1,2868470400-212889.jpg,2238471391-240918.jpg,1,right,,
,,,A2CXF9V4KEA8AW,35,male,6,2022-12-26_09h52.02.033,memory_pilot_most_recent,2022.2.4,Win32,7.237723012,,right,1,2.0322,0,22,22,22,1,2592380049-131077.jpg,2238375302-311538.jpg,2,right,,
,,,A2CXF9V4KEA8AW,35,male,6,2022-12-26_09h52.02.033,memory_pilot_most_recent,2022.2.4,Win32,7.237723012,,left,1,1.4521,0,23,23,23,1,2512876023-52283.jpg,2238576267-334532.jpg,3,left,,
,,,A2CXF9V4KEA8AW,35,male,6,2022-12-26_09h52.02.033,memory_pilot_most_recent,2022.2.4,Win32,7.237723012,,right,1,1.616,0,24,24,24,1,2460547477-349426.jpg,2238129579-80916.jpg,1,right,,
,,,A2CXF9V4KEA8AW,35,male,6,2022-12-26_09h52.02.033,memory_pilot_most_recent,2022.2.4,Win32,7.237723012,,right,1,1.6055,0,25,25,25,1,2273188118-40829.jpg,2898632385-217138.jpg,2,right,,
,,,A2CXF9V4KEA8AW,35,male,6,2022-12-26_09h52.02.033,memory_pilot_most_recent,2022.2.4,Win32,7.237723012,,right,1,2.9786,0,26,26,26,1,2238537701-251772.jpg,2592380138-56727.jpg,3,right,,
,,,A2CXF9V4KEA8AW,35,male,6,2022-12-26_09h52.02.033,memory_pilot_most_recent,2022.2.4,Win32,7.237723012,,right,1,1.6159,0,27,27,27,1,2237941457-301342.jpg,2898635427-367120.jpg,2,right,,
,,,A2CXF9V4KEA8AW,35,male,6,2022-12-26_09h52.02.033,memory_pilot_most_recent,2022.2.4,Win32,7.237723012,,left,0,2.2376,0,28,28,28,1,2989727350-222011.jpg,2986400320-221190.jpg,1,right,,
,,,A2CXF9V4KEA8AW,35,male,6,2022-12-26_09h52.02.033,memory_pilot_most_recent,2022.2.4,Win32,7.237723012,,right,1,2.4766,0,29,29,29,1,2446760621-272103.jpg,2238499155-170911.jpg,1,right,,
,,,A2CXF9V4KEA8AW,35,male,6,2022-12-26_09h52.02.033,memory_pilot_most_recent,2022.2.4,Win32,7.237723012,,left,1,2.5796,0,30,30,30,1,2964216465-219242.jpg,2446760917-347439.jpg,3,left,,
,,,A2CXF9V4KEA8AW,35,male,6,2022-12-26_09h52.02.033,memory_pilot_most_recent,2022.2.4,Win32,7.237723012,,right,1,2.4257,0,31,31,31,1,2868476439-138927.jpg,2883255450-215309.jpg,2,right,,
,,,A2CXF9V4KEA8AW,35,male,6,2022-12-26_09h52.02.033,memory_pilot_most_recent,2022.2.4,Win32,7.237723012,,right,1,3.4829,0,32,32,32,1,2237965109-79314.jpg,2883254439-140941.jpg,2,right,,
,,,A2CXF9V4KEA8AW,35,male,6,2022-12-26_09h52.02.033,memory_pilot_most_recent,2022.2.4,Win32,7.237723012,,left,1,1.9005,0,33,33,33,1,2868475410-213219.jpg,2238216693-10721.jpg,1,left,,
,,,A2CXF9V4KEA8AW,35,male,6,2022-12-26_09h52.02.033,memory_pilot_most_recent,2022.2.4,Win32,7.237723012,,left,1,1.934,0,34,34,34,1,2864906345-212360.jpg,2986397365-221133.jpg,1,left,,
,,,A2CXF9V4KEA8AW,35,male,6,2022-12-26_09h52.02.033,memory_pilot_most_recent,2022.2.4,Win32,7.237723012,,left,1,1.8579,0,35,35,35,1,2575964140-205050.jpg,2238482920-168428.jpg,1,left,,
,,,A2CXF9V4KEA8AW,35,male,6,2022-12-26_09h52.02.033,memory_pilot_most_recent,2022.2.4,Win32,7.237723012,,left,1,1.4626,0,36,36,36,1,2449442529-124446.jpg,2238481610-168214.jpg,1,left,,
,,,A2CXF9V4KEA8AW,35,male,6,2022-12-26_09h52.02.033,memory_pilot_most_recent,2022.2.4,Win32,7.237723012,,right,1,1.9986,0,37,37,37,1,2901951459-144433.jpg,2238429999-90218.jpg,2,right,,
,,,A2CXF9V4KEA8AW,35,male,6,2022-12-26_09h52.02.033,memory_pilot_most_recent,2022.2.4,Win32,7.237723012,,left,1,2.2004,0,38,38,38,1,2898626385-216899.jpg,2898618440-216545.jpg,3,left,,
,,,A2CXF9V4KEA8AW,35,male,6,2022-12-26_09h52.02.033,memory_pilot_most_recent,2022.2.4,Win32,7.237723012,,left,1,2.1489,0,39,39,39,1,2238521193-26286.jpg,2446760306-272024.jpg,3,left,,
,,,A2CXF9V4KEA8AW,35,male,6,2022-12-26_09h52.02.033,memory_pilot_most_recent,2022.2.4,Win32,7.237723012,,right,1,1.7104,0,40,40,40,1,2989724308-73930.jpg,2964213381-294060.jpg,3,right,,
,,,A2CXF9V4KEA8AW,35,male,6,2022-12-26_09h52.02.033,memory_pilot_most_recent,2022.2.4,Win32,7.237723012,,right,0,3.5881,0,41,41,41,1,2981231446-294731.jpg,2238568685-183597.jpg,2,left,,
,,,A2CXF9V4KEA8AW,35,male,6,2022-12-26_09h52.02.033,memory_pilot_most_recent,2022.2.4,Win32,7.237723012,,left,0,2.4579,0,42,42,42,1,2238478760-167789.jpg,2625337302-355866.jpg,2,right,,
,,,A2CXF9V4KEA8AW,35,male,6,2022-12-26_09h52.02.033,memory_pilot_most_recent,2022.2.4,Win32,7.237723012,,right,1,1.519,0,43,43,43,1,2901945303-70125.jpg,2901941426-292805.jpg,3,right,,
,,,A2CXF9V4KEA8AW,35,male,6,2022-12-26_09h52.02.033,memory_pilot_most_recent,2022.2.4,Win32,7.237723012,,left,1,1.6981,0,44,44,44,1,2274829821-263682.jpg,2238570526-257884.jpg,1,left,,
,,,A2CXF9V4KEA8AW,35,male,6,2022-12-26_09h52.02.033,memory_pilot_most_recent,2022.2.4,Win32,7.237723012,,left,1,2.3044,0,45,45,45,1,2898633480-217190.jpg,2237858043-1434.jpg,3,left,,
,,,A2CXF9V4KEA8AW,35,male,6,2022-12-26_09h52.02.033,memory_pilot_most_recent,2022.2.4,Win32,7.237723012,,left,1,2.3566,0,46,46,46,1,2238584018-38513.jpg,2898633321-291943.jpg,2,left,,
,,,A2CXF9V4KEA8AW,35,male,6,2022-12-26_09h52.02.033,memory_pilot_most_recent,2022.2.4,Win32,7.237723012,,left,1,2.8626,0,47,47,47,1,2964218374-144968.jpg,2238525773-27014.jpg,3,left,,
,,,A2CXF9V4KEA8AW,35,male,6,2022-12-26_09h52.02.033,memory_pilot_most_recent,2022.2.4,Win32,7.237723012,,left,1,3.2311,0,48,48,48,1,2238550049-105691.jpg,2964219468-71238.jpg,3,left,,
,,,A2CXF9V4KEA8AW,35,male,6,2022-12-26_09h52.02.033,memory_pilot_most_recent,2022.2.4,Win32,7.237723012,,left,1,6.8061,0,49,49,49,1,2579432576-279079.jpg,2901934574-143126.jpg,1,left,,
,,,A2CXF9V4KEA8AW,35,male,6,2022-12-26_09h52.02.033,memory_pilot_most_recent,2022.2.4,Win32,7.237723012,,left,1,2.2899,0,50,50,50,1,2898624426-291546.jpg,2986402377-371266.jpg,1,left,,
,,,A2CXF9V4KEA8AW,35,male,6,2022-12-26_09h52.02.033,memory_pilot_most_recent,2022.2.4,Win32,7.237723012,,left,1,5.7217,0,51,51,51,1,2883272438-68133.jpg,2901936369-143233.jpg,2,left,,
,,,A2CXF9V4KEA8AW,35,male,6,2022-12-26_09h52.02.033,memory_pilot_most_recent,2022.2.4,Win32,7.237723012,,left,1,2.8658,0,52,52,52,1,2238126735-154721.jpg,2575122854-130480.jpg,2,left,,
,,,A2CXF9V4KEA8AW,35,male,6,2022-12-26_09h52.02.033,memory_pilot_most_recent,2022.2.4,Win32,7.237723012,,left,1,2.3451,0,53,53,53,1,2238584869-113153.jpg,2864901420-212147.jpg,1,left,,
,,,A2CXF9V4KEA8AW,35,male,6,2022-12-26_09h52.02.033,memory_pilot_most_recent,2022.2.4,Win32,7.237723012,,left,1,2.5313,0,54,54,54,1,2964224310-219527.jpg,2964213441-294073.jpg,2,left,,
,,,A2CXF9V4KEA8AW,35,male,6,2022-12-26_09h52.02.033,memory_pilot_most_recent,2022.2.4,Win32,7.237723012,,left,1,2.1231,0,55,55,55,1,2452380166-273109.jpg,2592379781-279345.jpg,2,left,,
,,,A2CXF9V4KEA8AW,35,male,6,2022-12-26_09h52.02.033,memory_pilot_most_recent,2022.2.4,Win32,7.237723012,,right,1,1.8443,0,56,56,56,1,2449442529-124445.jpg,2331570830-189984.jpg,2,right,,
,,,A2CXF9V4KEA8AW,35,male,6,2022-12-26_09h52.02.033,memory_pilot_most_recent,2022.2.4,Win32,7.237723012,,right,1,1.6425,0,57,57,57,1,2238480803-19739.jpg,2898632385-217137.jpg,2,right,,
,,,A2CXF9V4KEA8AW,35,male,6,2022-12-26_09h52.02.033,memory_pilot_most_recent,2022.2.4,Win32,7.237723012,,right,1,4.8445,0,58,58,58,1,2449443292-348022.jpg,2901939379-143479.jpg,2,right,,
,,,A2CXF9V4KEA8AW,35,male,6,2022-12-26_09h52.02.033,memory_pilot_most_recent,2022.2.4,Win32,7.237723012,,right,1,3.4712,0,59,59,59,1,2238328478-11678.jpg,2862691449-137104.jpg,3,right,,
,,,A2CXF9V4KEA8AW,35,male,6,2022-12-26_09h52.02.033,memory_pilot_most_recent,2022.2.4,Win32,7.237723012,,,,,,,,,,,,,,space,4.1417
