button.numClicks,button.timesOn,button.timesOff,workID,Age,Gender,Hours slept (last night),date,expName,psychopyVersion,OS,frameRate,space_key_responce.keys,test_test_response.keys,test_test_response.corr,test_test_response.rt,trials_2.thisRepN,trials_2.thisTrialN,trials_2.thisN,trials_2.thisIndex,trials_2.ran,image1,image2,layer,correct,key_resp_end_2.keys,key_resp_end_2.rt
1,[4.764999999999986],[4.764999999999986],AM2Q3FXQAY0S7,25,female,8.00,2022-12-26_11h38.27.256,memory_pilot_most_recent,2022.2.4,Win32,10.66666667,,,,,,,,,,,,,,,
,,,AM2Q3FXQAY0S7,25,female,8.00,2022-12-26_11h38.27.256,memory_pilot_most_recent,2022.2.4,Win32,10.66666667,,,,,,,,,,,,,,,
,,,AM2Q3FXQAY0S7,25,female,8.00,2022-12-26_11h38.27.256,memory_pilot_most_recent,2022.2.4,Win32,10.66666667,,,,,,,,,,,,,,,
,,,AM2Q3FXQAY0S7,25,female,8.00,2022-12-26_11h38.27.256,memory_pilot_most_recent,2022.2.4,Win32,10.66666667,,,,,,,,,,,,,,,
,,,AM2Q3FXQAY0S7,25,female,8.00,2022-12-26_11h38.27.256,memory_pilot_most_recent,2022.2.4,Win32,10.66666667,,,,,,,,,,,,,,,
,,,AM2Q3FXQAY0S7,25,female,8.00,2022-12-26_11h38.27.256,memory_pilot_most_recent,2022.2.4,Win32,10.66666667,,,,,,,,,,,,,,,
,,,AM2Q3FXQAY0S7,25,female,8.00,2022-12-26_11h38.27.256,memory_pilot_most_recent,2022.2.4,Win32,10.66666667,,left,0,86.583,0,0,0,0,1,2874303453-66056.jpg,2864909447-362146.jpg,3,right,,
,,,AM2Q3FXQAY0S7,25,female,8.00,2022-12-26_11h38.27.256,memory_pilot_most_recent,2022.2.4,Win32,10.66666667,,left,0,2.649,0,1,1,1,1,2238436632-314069.jpg,2898635427-367120.jpg,1,right,,
,,,AM2Q3FXQAY0S7,25,female,8.00,2022-12-26_11h38.27.256,memory_pilot_most_recent,2022.2.4,Win32,10.66666667,,left,1,1.717,0,2,2,2,1,2274829821-263682.jpg,2238570526-257884.jpg,1,left,,
,,,AM2Q3FXQAY0S7,25,female,8.00,2022-12-26_11h38.27.256,memory_pilot_most_recent,2022.2.4,Win32,10.66666667,,left,1,2.699,0,3,3,3,1,2238129579-80916.jpg,2898618444-142233.jpg,2,left,,
,,,AM2Q3FXQAY0S7,25,female,8.00,2022-12-26_11h38.27.256,memory_pilot_most_recent,2022.2.4,Win32,10.66666667,,left,1,1.197,0,4,4,4,1,2901934573-69337.jpg,2901936407-367476.jpg,3,left,,
,,,AM2Q3FXQAY0S7,25,female,8.00,2022-12-26_11h38.27.256,memory_pilot_most_recent,2022.2.4,Win32,10.66666667,,left,1,2.589,0,5,5,5,1,2238375302-311538.jpg,2460547508-51571.jpg,3,left,,
,,,AM2Q3FXQAY0S7,25,female,8.00,2022-12-26_11h38.27.256,memory_pilot_most_recent,2022.2.4,Win32,10.66666667,,left,1,1.622,0,6,6,6,1,2883254439-140940.jpg,2452380166-273110.jpg,1,left,,
,,,AM2Q3FXQAY0S7,25,female,8.00,2022-12-26_11h38.27.256,memory_pilot_most_recent,2022.2.4,Win32,10.66666667,,right,0,2.451,0,7,7,7,1,2625337302-355866.jpg,2425492472-343825.jpg,1,left,,
,,,AM2Q3FXQAY0S7,25,female,8.00,2022-12-26_11h38.27.256,memory_pilot_most_recent,2022.2.4,Win32,10.66666667,,right,0,1.713,0,8,8,8,1,2901939379-143479.jpg,2864909422-362141.jpg,3,left,,
,,,AM2Q3FXQAY0S7,25,female,8.00,2022-12-26_11h38.27.256,memory_pilot_most_recent,2022.2.4,Win32,10.66666667,,right,0,1.421,0,9,9,9,1,2238575092-334269.jpg,2964218374-144967.jpg,3,left,,
,,,AM2Q3FXQAY0S7,25,female,8.00,2022-12-26_11h38.27.256,memory_pilot_most_recent,2022.2.4,Win32,10.66666667,,left,0,1.652,0,10,10,10,1,2238480803-19739.jpg,2898632385-217137.jpg,2,right,,
,,,AM2Q3FXQAY0S7,25,female,8.00,2022-12-26_11h38.27.256,memory_pilot_most_recent,2022.2.4,Win32,10.66666667,,right,0,1.138,0,11,11,11,1,2238471391-240918.jpg,2901943388-69995.jpg,2,left,,
,,,AM2Q3FXQAY0S7,25,female,8.00,2022-12-26_11h38.27.256,memory_pilot_most_recent,2022.2.4,Win32,10.66666667,,left,1,1.435,0,12,12,12,1,2868475410-213219.jpg,2575964140-205051.jpg,2,left,,
,,,AM2Q3FXQAY0S7,25,female,8.00,2022-12-26_11h38.27.256,memory_pilot_most_recent,2022.2.4,Win32,10.66666667,,right,1,1.083,0,13,13,13,1,2238470079-92499.jpg,2460547467-349421.jpg,2,right,,
,,,AM2Q3FXQAY0S7,25,female,8.00,2022-12-26_11h38.27.256,memory_pilot_most_recent,2022.2.4,Win32,10.66666667,,right,1,1.408,0,14,14,14,1,2238585512-336576.jpg,2898617468-68274.jpg,2,right,,
,,,AM2Q3FXQAY0S7,25,female,8.00,2022-12-26_11h38.27.256,memory_pilot_most_recent,2022.2.4,Win32,10.66666667,,left,1,1.544,0,15,15,15,1,2883255450-215311.jpg,2238481575-168208.jpg,1,left,,
,,,AM2Q3FXQAY0S7,25,female,8.00,2022-12-26_11h38.27.256,memory_pilot_most_recent,2022.2.4,Win32,10.66666667,,right,1,1.44,0,16,16,16,1,2417207511-266975.jpg,2883254439-140941.jpg,3,right,,
,,,AM2Q3FXQAY0S7,25,female,8.00,2022-12-26_11h38.27.256,memory_pilot_most_recent,2022.2.4,Win32,10.66666667,,left,1,1.185,0,17,17,17,1,2901938432-367627.jpg,2856919327-359675.jpg,2,left,,
,,,AM2Q3FXQAY0S7,25,female,8.00,2022-12-26_11h38.27.256,memory_pilot_most_recent,2022.2.4,Win32,10.66666667,,right,0,1.508,0,18,18,18,1,2238521193-26286.jpg,2874301437-363905.jpg,2,left,,
,,,AM2Q3FXQAY0S7,25,female,8.00,2022-12-26_11h38.27.256,memory_pilot_most_recent,2022.2.4,Win32,10.66666667,,left,1,1.265,0,19,19,19,1,2446760940-198145.jpg,2592380188-56743.jpg,2,left,,
,,,AM2Q3FXQAY0S7,25,female,8.00,2022-12-26_11h38.27.256,memory_pilot_most_recent,2022.2.4,Win32,10.66666667,,left,1,1.321,0,20,20,20,1,2868485396-288511.jpg,2868472420-213024.jpg,2,left,,
,,,AM2Q3FXQAY0S7,25,female,8.00,2022-12-26_11h38.27.256,memory_pilot_most_recent,2022.2.4,Win32,10.66666667,,left,1,1.412,0,21,21,21,1,2446760524-123999.jpg,2238539138-29878.jpg,3,left,,
,,,AM2Q3FXQAY0S7,25,female,8.00,2022-12-26_11h38.27.256,memory_pilot_most_recent,2022.2.4,Win32,10.66666667,,left,1,1.82,0,22,22,22,1,2964224310-219527.jpg,2238380178-14011.jpg,1,left,,
,,,AM2Q3FXQAY0S7,25,female,8.00,2022-12-26_11h38.27.256,memory_pilot_most_recent,2022.2.4,Win32,10.66666667,,left,1,4.959,0,23,23,23,1,2883255450-215309.jpg,2238429999-90216.jpg,1,left,,
,,,AM2Q3FXQAY0S7,25,female,8.00,2022-12-26_11h38.27.256,memory_pilot_most_recent,2022.2.4,Win32,10.66666667,,right,1,1.046,0,24,24,24,1,2592379781-279345.jpg,2452380166-273109.jpg,2,right,,
,,,AM2Q3FXQAY0S7,25,female,8.00,2022-12-26_11h38.27.256,memory_pilot_most_recent,2022.2.4,Win32,10.66666667,,right,1,1.6,0,25,25,25,1,2237858043-1434.jpg,2898633480-217190.jpg,3,right,,
,,,AM2Q3FXQAY0S7,25,female,8.00,2022-12-26_11h38.27.256,memory_pilot_most_recent,2022.2.4,Win32,10.66666667,,left,1,1.708,0,26,26,26,1,2238584018-38513.jpg,2452381442-348755.jpg,3,left,,
,,,AM2Q3FXQAY0S7,25,female,8.00,2022-12-26_11h38.27.256,memory_pilot_most_recent,2022.2.4,Win32,10.66666667,,right,0,1.425,0,27,27,27,1,2449442529-124446.jpg,2864911339-138231.jpg,3,left,,
,,,AM2Q3FXQAY0S7,25,female,8.00,2022-12-26_11h38.27.256,memory_pilot_most_recent,2022.2.4,Win32,10.66666667,,left,0,1.072,0,28,28,28,1,2868488422-363713.jpg,2986408352-371293.jpg,1,right,,
,,,AM2Q3FXQAY0S7,25,female,8.00,2022-12-26_11h38.27.256,memory_pilot_most_recent,2022.2.4,Win32,10.66666667,,left,0,3.324,0,29,29,29,1,2238470979-92618.jpg,2238516618-25604.jpg,3,right,,
,,,AM2Q3FXQAY0S7,25,female,8.00,2022-12-26_11h38.27.256,memory_pilot_most_recent,2022.2.4,Win32,10.66666667,,right,1,1.79,0,30,30,30,1,2964222378-71332.jpg,2238429999-90218.jpg,3,right,,
,,,AM2Q3FXQAY0S7,25,female,8.00,2022-12-26_11h38.27.256,memory_pilot_most_recent,2022.2.4,Win32,10.66666667,,left,0,1.296,0,31,31,31,1,2592380136-279476.jpg,2883272438-68133.jpg,3,right,,
,,,AM2Q3FXQAY0S7,25,female,8.00,2022-12-26_11h38.27.256,memory_pilot_most_recent,2022.2.4,Win32,10.66666667,,right,1,1.171,0,32,32,32,1,2986455341-296758.jpg,2862691449-137104.jpg,2,right,,
,,,AM2Q3FXQAY0S7,25,female,8.00,2022-12-26_11h38.27.256,memory_pilot_most_recent,2022.2.4,Win32,10.66666667,,left,0,1.506,0,33,33,33,1,2898633421-291973.jpg,2446758985-197609.jpg,1,right,,
,,,AM2Q3FXQAY0S7,25,female,8.00,2022-12-26_11h38.27.256,memory_pilot_most_recent,2022.2.4,Win32,10.66666667,,right,0,0.856,0,34,34,34,1,2898624426-291546.jpg,2549106844-127878.jpg,2,left,,
,,,AM2Q3FXQAY0S7,25,female,8.00,2022-12-26_11h38.27.256,memory_pilot_most_recent,2022.2.4,Win32,10.66666667,,left,0,0.848,0,35,35,35,1,2901945303-70125.jpg,2901941426-292805.jpg,3,right,,
,,,AM2Q3FXQAY0S7,25,female,8.00,2022-12-26_11h38.27.256,memory_pilot_most_recent,2022.2.4,Win32,10.66666667,,right,1,0.871,0,36,36,36,1,2238482920-168428.jpg,2575964140-205050.jpg,1,right,,
,,,AM2Q3FXQAY0S7,25,female,8.00,2022-12-26_11h38.27.256,memory_pilot_most_recent,2022.2.4,Win32,10.66666667,,left,1,1.301,0,37,37,37,1,2331570830-189984.jpg,2446760483-49429.jpg,1,left,,
,,,AM2Q3FXQAY0S7,25,female,8.00,2022-12-26_11h38.27.256,memory_pilot_most_recent,2022.2.4,Win32,10.66666667,,right,1,1.401,0,38,38,38,1,2592380177-354629.jpg,2446759803-49249.jpg,1,right,,
,,,AM2Q3FXQAY0S7,25,female,8.00,2022-12-26_11h38.27.256,memory_pilot_most_recent,2022.2.4,Win32,10.66666667,,right,1,1.565,0,39,39,39,1,2273188118-40829.jpg,2898632385-217138.jpg,2,right,,
,,,AM2Q3FXQAY0S7,25,female,8.00,2022-12-26_11h38.27.256,memory_pilot_most_recent,2022.2.4,Win32,10.66666667,,right,0,1.579,0,40,40,40,1,2592380138-56727.jpg,2238537701-251772.jpg,3,left,,
,,,AM2Q3FXQAY0S7,25,female,8.00,2022-12-26_11h38.27.256,memory_pilot_most_recent,2022.2.4,Win32,10.66666667,,right,1,1.066,0,41,41,41,1,2986450330-221526.jpg,2981231446-294731.jpg,1,right,,
,,,AM2Q3FXQAY0S7,25,female,8.00,2022-12-26_11h38.27.256,memory_pilot_most_recent,2022.2.4,Win32,10.66666667,,left,0,1.818,0,42,42,42,1,2986455373-73646.jpg,2238584869-113153.jpg,3,right,,
,,,AM2Q3FXQAY0S7,25,female,8.00,2022-12-26_11h38.27.256,memory_pilot_most_recent,2022.2.4,Win32,10.66666667,,left,1,1.136,0,43,43,43,1,2898626385-216899.jpg,2989715328-73658.jpg,1,left,,
,,,AM2Q3FXQAY0S7,25,female,8.00,2022-12-26_11h38.27.256,memory_pilot_most_recent,2022.2.4,Win32,10.66666667,,right,0,1.478,0,44,44,44,1,2579432576-279079.jpg,2446760226-272006.jpg,2,left,,
,,,AM2Q3FXQAY0S7,25,female,8.00,2022-12-26_11h38.27.256,memory_pilot_most_recent,2022.2.4,Win32,10.66666667,,left,0,2.01,0,45,45,45,1,2238482972-317759.jpg,2238550049-105691.jpg,1,right,,
,,,AM2Q3FXQAY0S7,25,female,8.00,2022-12-26_11h38.27.256,memory_pilot_most_recent,2022.2.4,Win32,10.66666667,,left,1,1.373,0,46,46,46,1,2964213381-294061.jpg,2981234334-145491.jpg,2,left,,
,,,AM2Q3FXQAY0S7,25,female,8.00,2022-12-26_11h38.27.256,memory_pilot_most_recent,2022.2.4,Win32,10.66666667,,right,1,1.162,0,47,47,47,1,2512875796-274856.jpg,2964216465-219242.jpg,2,right,,
,,,AM2Q3FXQAY0S7,25,female,8.00,2022-12-26_11h38.27.256,memory_pilot_most_recent,2022.2.4,Win32,10.66666667,,left,1,1.458,0,48,48,48,1,2238126735-154721.jpg,2856919327-359676.jpg,1,left,,
,,,AM2Q3FXQAY0S7,25,female,8.00,2022-12-26_11h38.27.256,memory_pilot_most_recent,2022.2.4,Win32,10.66666667,,right,1,1.42,0,49,49,49,1,2238520921-248323.jpg,2964213381-294060.jpg,2,right,,
,,,AM2Q3FXQAY0S7,25,female,8.00,2022-12-26_11h38.27.256,memory_pilot_most_recent,2022.2.4,Win32,10.66666667,,left,1,1.313,0,50,50,50,1,2964209380-218956.jpg,2868488456-288710.jpg,1,left,,
,,,AM2Q3FXQAY0S7,25,female,8.00,2022-12-26_11h38.27.256,memory_pilot_most_recent,2022.2.4,Win32,10.66666667,,left,0,1.379,0,51,51,51,1,2238538133-29662.jpg,2986400320-221190.jpg,3,right,,
,,,AM2Q3FXQAY0S7,25,female,8.00,2022-12-26_11h38.27.256,memory_pilot_most_recent,2022.2.4,Win32,10.66666667,,left,1,1.509,0,52,52,52,1,2864906345-212360.jpg,2986397365-221133.jpg,1,left,,
,,,AM2Q3FXQAY0S7,25,female,8.00,2022-12-26_11h38.27.256,memory_pilot_most_recent,2022.2.4,Win32,10.66666667,,right,0,1.296,0,53,53,53,1,2238561223-33794.jpg,2238506233-23904.jpg,1,left,,
,,,AM2Q3FXQAY0S7,25,female,8.00,2022-12-26_11h38.27.256,memory_pilot_most_recent,2022.2.4,Win32,10.66666667,,right,1,1.084,0,54,54,54,1,2592380255-205551.jpg,2238480434-93829.jpg,2,right,,
,,,AM2Q3FXQAY0S7,25,female,8.00,2022-12-26_11h38.27.256,memory_pilot_most_recent,2022.2.4,Win32,10.66666667,,left,1,1.276,0,55,55,55,1,2238496457-319749.jpg,2460547467-349422.jpg,3,left,,
,,,AM2Q3FXQAY0S7,25,female,8.00,2022-12-26_11h38.27.256,memory_pilot_most_recent,2022.2.4,Win32,10.66666667,,right,1,1.15,0,56,56,56,1,2417206274-118542.jpg,2994405328-74628.jpg,1,right,,
,,,AM2Q3FXQAY0S7,25,female,8.00,2022-12-26_11h38.27.256,memory_pilot_most_recent,2022.2.4,Win32,10.66666667,,left,1,1.061,0,57,57,57,1,2964218374-144968.jpg,2238525773-27014.jpg,3,left,,
,,,AM2Q3FXQAY0S7,25,female,8.00,2022-12-26_11h38.27.256,memory_pilot_most_recent,2022.2.4,Win32,10.66666667,,left,1,2.279,0,58,58,58,1,2238499155-170911.jpg,2452380832-348593.jpg,2,left,,
,,,AM2Q3FXQAY0S7,25,female,8.00,2022-12-26_11h38.27.256,memory_pilot_most_recent,2022.2.4,Win32,10.66666667,,left,1,1.49,0,59,59,59,1,2512876023-52283.jpg,2238576267-334532.jpg,3,left,,
,,,AM2Q3FXQAY0S7,25,female,8.00,2022-12-26_11h38.27.256,memory_pilot_most_recent,2022.2.4,Win32,10.66666667,,,,,,,,,,,,,,space,47.719
