button.numClicks,button.timesOn,button.timesOff,workID,Age,Gender,Hours slept (last night),date,expName,psychopyVersion,OS,frameRate,space_key_responce.keys,test_test_response.keys,test_test_response.corr,test_test_response.rt,bar_2.response,bar_2.rt,trials_2.thisRepN,trials_2.thisTrialN,trials_2.thisN,trials_2.thisIndex,trials_2.ran,image1,image2,layer,category,correct,key_resp_end_2.keys,key_resp_end_2.rt
1,[918.2451999998092],[918.2451999998092],ANDJL5986AUAF,35,male,7,2023-05-02_10h16.53.174,memory_pilot_most_recent,2022.2.4,Win32,9.124337345,,,,,,,,,,,,,,,,,,
,,,ANDJL5986AUAF,35,male,7,2023-05-02_10h16.53.174,memory_pilot_most_recent,2022.2.4,Win32,9.124337345,,,,,,,,,,,,,,,,,,
,,,ANDJL5986AUAF,35,male,7,2023-05-02_10h16.53.174,memory_pilot_most_recent,2022.2.4,Win32,9.124337345,,,,,,,,,,,,,,,,,,
,,,ANDJL5986AUAF,35,male,7,2023-05-02_10h16.53.174,memory_pilot_most_recent,2022.2.4,Win32,9.124337345,,,,,,,,,,,,,,,,,,
,,,ANDJL5986AUAF,35,male,7,2023-05-02_10h16.53.174,memory_pilot_most_recent,2022.2.4,Win32,9.124337345,,,,,,,,,,,,,,,,,,
,,,ANDJL5986AUAF,35,male,7,2023-05-02_10h16.53.174,memory_pilot_most_recent,2022.2.4,Win32,9.124337345,,,,,,,,,,,,,,,,,,
,,,ANDJL5986AUAF,35,male,7,2023-05-02_10h16.53.174,memory_pilot_most_recent,2022.2.4,Win32,9.124337345,,left,0,3.5676,8,1.5643,0,0,0,0,1,highway_369.jpg,highway_93.jpg,1,highway,right,,
,,,ANDJL5986AUAF,35,male,7,2023-05-02_10h16.53.174,memory_pilot_most_recent,2022.2.4,Win32,9.124337345,,right,1,1.6729,8,1.4466,0,1,1,1,1,highway_204.jpg,highway_394.jpg,0,highway,right,,
,,,ANDJL5986AUAF,35,male,7,2023-05-02_10h16.53.174,memory_pilot_most_recent,2022.2.4,Win32,9.124337345,,left,1,2.315,8,1.1706,0,2,2,2,1,golf_course_214.jpg,golf_course_317.jpg,1,golf,left,,
,,,ANDJL5986AUAF,35,male,7,2023-05-02_10h16.53.174,memory_pilot_most_recent,2022.2.4,Win32,9.124337345,,right,1,2.4409,8,1.0466,0,3,3,3,1,badlands_53.jpg,badlands_24.jpg,1,badlands,right,,
,,,ANDJL5986AUAF,35,male,7,2023-05-02_10h16.53.174,memory_pilot_most_recent,2022.2.4,Win32,9.124337345,,left,0,2.2816,8,1.0131,0,4,4,4,1,golf_course_114.jpg,golf_course_331.jpg,0,golf,right,,
,,,ANDJL5986AUAF,35,male,7,2023-05-02_10h16.53.174,memory_pilot_most_recent,2022.2.4,Win32,9.124337345,,left,1,1.6788,8,1.5572,0,5,5,5,1,playground_144.jpg,playground_65.jpg,1,playground,left,,
,,,ANDJL5986AUAF,35,male,7,2023-05-02_10h16.53.174,memory_pilot_most_recent,2022.2.4,Win32,9.124337345,,right,1,4.4651,8,2.9744,0,6,6,6,1,highway_379.jpg,highway_359.jpg,1,highway,right,,
,,,ANDJL5986AUAF,35,male,7,2023-05-02_10h16.53.174,memory_pilot_most_recent,2022.2.4,Win32,9.124337345,,right,1,2.8225,7,1.1716,0,7,7,7,1,bridge_148.jpg,bridge_108.jpg,1,bridge,right,,
,,,ANDJL5986AUAF,35,male,7,2023-05-02_10h16.53.174,memory_pilot_most_recent,2022.2.4,Win32,9.124337345,,right,1,2.0153,7,1.5218,0,8,8,8,1,bridge_31.jpg,bridge_202.jpg,0,bridge,right,,
,,,ANDJL5986AUAF,35,male,7,2023-05-02_10h16.53.174,memory_pilot_most_recent,2022.2.4,Win32,9.124337345,,right,1,2.1811,7,1.3164,0,9,9,9,1,highway_278.jpg,highway_177.jpg,1,highway,right,,
,,,ANDJL5986AUAF,35,male,7,2023-05-02_10h16.53.174,memory_pilot_most_recent,2022.2.4,Win32,9.124337345,,right,1,2.6158,8,0.9168,0,10,10,10,1,bridge_205.jpg,bridge_250.jpg,1,bridge,right,,
,,,ANDJL5986AUAF,35,male,7,2023-05-02_10h16.53.174,memory_pilot_most_recent,2022.2.4,Win32,9.124337345,,right,0,2.1936,8,1.1748,0,11,11,11,1,bridge_128.jpg,bridge_61.jpg,0,bridge,left,,
,,,ANDJL5986AUAF,35,male,7,2023-05-02_10h16.53.174,memory_pilot_most_recent,2022.2.4,Win32,9.124337345,,left,0,2.3351,8,1.0516,0,12,12,12,1,mountain_223.jpg,mountain_110.jpg,1,mountain,right,,
,,,ANDJL5986AUAF,35,male,7,2023-05-02_10h16.53.174,memory_pilot_most_recent,2022.2.4,Win32,9.124337345,,right,0,1.8677,8,1.044,0,13,13,13,1,badlands_137.jpg,badlands_194.jpg,0,badlands,left,,
,,,ANDJL5986AUAF,35,male,7,2023-05-02_10h16.53.174,memory_pilot_most_recent,2022.2.4,Win32,9.124337345,,right,1,1.933,7,1.5234,0,14,14,14,1,bridge_253.jpg,bridge_91.jpg,0,bridge,right,,
,,,ANDJL5986AUAF,35,male,7,2023-05-02_10h16.53.174,memory_pilot_most_recent,2022.2.4,Win32,9.124337345,,left,0,2.0648,7,1.0754,0,15,15,15,1,mountain_47.jpg,mountain_293.jpg,1,mountain,right,,
,,,ANDJL5986AUAF,35,male,7,2023-05-02_10h16.53.174,memory_pilot_most_recent,2022.2.4,Win32,9.124337345,,right,1,1.6764,7,1.0449,0,16,16,16,1,mountain_171.jpg,mountain_101.jpg,0,mountain,right,,
,,,ANDJL5986AUAF,35,male,7,2023-05-02_10h16.53.174,memory_pilot_most_recent,2022.2.4,Win32,9.124337345,,left,1,1.7992,7,0.9189,0,17,17,17,1,highway_415.jpg,highway_60.jpg,0,highway,left,,
,,,ANDJL5986AUAF,35,male,7,2023-05-02_10h16.53.174,memory_pilot_most_recent,2022.2.4,Win32,9.124337345,,right,0,1.7946,7,0.9222,0,18,18,18,1,golf_course_217.jpg,golf_course_35.jpg,0,golf,left,,
,,,ANDJL5986AUAF,35,male,7,2023-05-02_10h16.53.174,memory_pilot_most_recent,2022.2.4,Win32,9.124337345,,right,1,1.4324,7,0.9168,0,19,19,19,1,mountain_189.jpg,mountain_123.jpg,1,mountain,right,,
,,,ANDJL5986AUAF,35,male,7,2023-05-02_10h16.53.174,memory_pilot_most_recent,2022.2.4,Win32,9.124337345,,right,1,1.7979,7,1.0441,0,20,20,20,1,badlands_102.jpg,badlands_70.jpg,0,badlands,right,,
,,,ANDJL5986AUAF,35,male,7,2023-05-02_10h16.53.174,memory_pilot_most_recent,2022.2.4,Win32,9.124337345,,right,0,2.3284,7,1.2756,0,21,21,21,1,golf_course_87.jpg,golf_course_161.jpg,1,golf,left,,
,,,ANDJL5986AUAF,35,male,7,2023-05-02_10h16.53.174,memory_pilot_most_recent,2022.2.4,Win32,9.124337345,,right,0,2.1949,7,1.3063,0,22,22,22,1,highway_245.jpg,highway_134.jpg,0,highway,left,,
,,,ANDJL5986AUAF,35,male,7,2023-05-02_10h16.53.174,memory_pilot_most_recent,2022.2.4,Win32,9.124337345,,left,0,3.3209,7,1.0437,0,23,23,23,1,highway_203.jpg,highway_294.jpg,0,highway,right,,
,,,ANDJL5986AUAF,35,male,7,2023-05-02_10h16.53.174,memory_pilot_most_recent,2022.2.4,Win32,9.124337345,,left,0,1.8018,7,1.1766,0,24,24,24,1,badlands_203.jpg,badlands_113.jpg,1,badlands,right,,
,,,ANDJL5986AUAF,35,male,7,2023-05-02_10h16.53.174,memory_pilot_most_recent,2022.2.4,Win32,9.124337345,,left,1,1.2899,7,1.0432,0,25,25,25,1,mountain_154.jpg,mountain_131.jpg,0,mountain,left,,
,,,ANDJL5986AUAF,35,male,7,2023-05-02_10h16.53.174,memory_pilot_most_recent,2022.2.4,Win32,9.124337345,,left,1,1.6717,6,1.1724,0,26,26,26,1,bridge_256.jpg,bridge_54.jpg,0,bridge,left,,
,,,ANDJL5986AUAF,35,male,7,2023-05-02_10h16.53.174,memory_pilot_most_recent,2022.2.4,Win32,9.124337345,,right,1,1.9402,7,1.0389,0,27,27,27,1,golf_course_209.jpg,golf_course_309.jpg,1,golf,right,,
,,,ANDJL5986AUAF,35,male,7,2023-05-02_10h16.53.174,memory_pilot_most_recent,2022.2.4,Win32,9.124337345,,left,0,2.5685,8,1.9336,0,28,28,28,1,highway_384.jpg,highway_273.jpg,0,highway,right,,
,,,ANDJL5986AUAF,35,male,7,2023-05-02_10h16.53.174,memory_pilot_most_recent,2022.2.4,Win32,9.124337345,,left,0,1.8078,8,1.2986,0,29,29,29,1,mountain_193.jpg,mountain_57.jpg,0,mountain,right,,
,,,ANDJL5986AUAF,35,male,7,2023-05-02_10h16.53.174,memory_pilot_most_recent,2022.2.4,Win32,9.124337345,,right,0,2.3175,8,1.428,0,30,30,30,1,golf_course_195.jpg,golf_course_2.jpg,1,golf,left,,
,,,ANDJL5986AUAF,35,male,7,2023-05-02_10h16.53.174,memory_pilot_most_recent,2022.2.4,Win32,9.124337345,,right,0,1.8177,7,1.2993,0,31,31,31,1,mountain_222.jpg,mountain_244.jpg,0,mountain,left,,
,,,ANDJL5986AUAF,35,male,7,2023-05-02_10h16.53.174,memory_pilot_most_recent,2022.2.4,Win32,9.124337345,,right,1,1.9224,6,1.4266,0,32,32,32,1,bridge_184.jpg,bridge_191.jpg,0,bridge,right,,
,,,ANDJL5986AUAF,35,male,7,2023-05-02_10h16.53.174,memory_pilot_most_recent,2022.2.4,Win32,9.124337345,,left,1,2.0569,7,1.2974,0,33,33,33,1,badlands_21.jpg,badlands_1.jpg,0,badlands,left,,
,,,ANDJL5986AUAF,35,male,7,2023-05-02_10h16.53.174,memory_pilot_most_recent,2022.2.4,Win32,9.124337345,,right,1,3.6394,7,2.065,0,34,34,34,1,badlands_63.jpg,badlands_52.jpg,1,badlands,right,,
,,,ANDJL5986AUAF,35,male,7,2023-05-02_10h16.53.174,memory_pilot_most_recent,2022.2.4,Win32,9.124337345,,left,1,3.1997,7,0.9157,0,35,35,35,1,playground_10.jpg,playground_122.jpg,0,playground,left,,
,,,ANDJL5986AUAF,35,male,7,2023-05-02_10h16.53.174,memory_pilot_most_recent,2022.2.4,Win32,9.124337345,,right,1,1.7982,7,1.554,0,36,36,36,1,badlands_103.jpg,badlands_184.jpg,1,badlands,right,,
,,,ANDJL5986AUAF,35,male,7,2023-05-02_10h16.53.174,memory_pilot_most_recent,2022.2.4,Win32,9.124337345,,right,1,1.5039,6,1.1403,0,37,37,37,1,highway_293.jpg,highway_156.jpg,1,highway,right,,
,,,ANDJL5986AUAF,35,male,7,2023-05-02_10h16.53.174,memory_pilot_most_recent,2022.2.4,Win32,9.124337345,,right,1,2.4356,8,1.3883,0,38,38,38,1,bridge_60.jpg,bridge_65.jpg,1,bridge,right,,
,,,ANDJL5986AUAF,35,male,7,2023-05-02_10h16.53.174,memory_pilot_most_recent,2022.2.4,Win32,9.124337345,,right,1,1.5197,7,1.5251,0,39,39,39,1,badlands_114.jpg,badlands_23.jpg,0,badlands,right,,
,,,ANDJL5986AUAF,35,male,7,2023-05-02_10h16.53.174,memory_pilot_most_recent,2022.2.4,Win32,9.124337345,,right,1,1.4183,6,1.3453,0,40,40,40,1,playground_22.jpg,playground_76.jpg,0,playground,right,,
,,,ANDJL5986AUAF,35,male,7,2023-05-02_10h16.53.174,memory_pilot_most_recent,2022.2.4,Win32,9.124337345,,right,1,1.9694,6,1.6398,0,41,41,41,1,golf_course_134.jpg,golf_course_78.jpg,0,golf,right,,
,,,ANDJL5986AUAF,35,male,7,2023-05-02_10h16.53.174,memory_pilot_most_recent,2022.2.4,Win32,9.124337345,,right,1,2.0601,7,1.0451,0,42,42,42,1,mountain_3.jpg,mountain_232.jpg,0,mountain,right,,
,,,ANDJL5986AUAF,35,male,7,2023-05-02_10h16.53.174,memory_pilot_most_recent,2022.2.4,Win32,9.124337345,,right,1,2.1806,7,1.4265,0,43,43,43,1,badlands_62.jpg,badlands_222.jpg,1,badlands,right,,
,,,ANDJL5986AUAF,35,male,7,2023-05-02_10h16.53.174,memory_pilot_most_recent,2022.2.4,Win32,9.124337345,,right,1,1.6842,7,1.0406,0,44,44,44,1,mountain_295.jpg,mountain_156.jpg,1,mountain,right,,
,,,ANDJL5986AUAF,35,male,7,2023-05-02_10h16.53.174,memory_pilot_most_recent,2022.2.4,Win32,9.124337345,,right,1,1.935,6,1.1672,0,45,45,45,1,playground_242.jpg,playground_145.jpg,1,playground,right,,
,,,ANDJL5986AUAF,35,male,7,2023-05-02_10h16.53.174,memory_pilot_most_recent,2022.2.4,Win32,9.124337345,,left,1,2.3114,7,1.2927,0,46,46,46,1,bridge_146.jpg,bridge_121.jpg,1,bridge,left,,
,,,ANDJL5986AUAF,35,male,7,2023-05-02_10h16.53.174,memory_pilot_most_recent,2022.2.4,Win32,9.124337345,,left,1,1.6753,7,1.1723,0,47,47,47,1,playground_131.jpg,playground_43.jpg,0,playground,left,,
,,,ANDJL5986AUAF,35,male,7,2023-05-02_10h16.53.174,memory_pilot_most_recent,2022.2.4,Win32,9.124337345,,right,1,4.9645,7,1.046,0,48,48,48,1,golf_course_235.jpg,golf_course_193.jpg,0,golf,right,,
,,,ANDJL5986AUAF,35,male,7,2023-05-02_10h16.53.174,memory_pilot_most_recent,2022.2.4,Win32,9.124337345,,right,1,1.93,7,1.2144,0,49,49,49,1,golf_course_97.jpg,golf_course_15.jpg,1,golf,right,,
,,,ANDJL5986AUAF,35,male,7,2023-05-02_10h16.53.174,memory_pilot_most_recent,2022.2.4,Win32,9.124337345,,right,1,2.4384,7,1.1453,0,50,50,50,1,playground_205.jpg,playground_219.jpg,1,playground,right,,
,,,ANDJL5986AUAF,35,male,7,2023-05-02_10h16.53.174,memory_pilot_most_recent,2022.2.4,Win32,9.124337345,,left,0,2.4671,7,1.3005,0,51,51,51,1,playground_40.jpg,playground_240.jpg,1,playground,right,,
,,,ANDJL5986AUAF,35,male,7,2023-05-02_10h16.53.174,memory_pilot_most_recent,2022.2.4,Win32,9.124337345,,right,1,1.8036,7,1.1756,0,52,52,52,1,badlands_115.jpg,badlands_221.jpg,0,badlands,right,,
,,,ANDJL5986AUAF,35,male,7,2023-05-02_10h16.53.174,memory_pilot_most_recent,2022.2.4,Win32,9.124337345,,right,1,2.1836,7,1.1844,0,53,53,53,1,mountain_97.jpg,mountain_230.jpg,1,mountain,right,,
,,,ANDJL5986AUAF,35,male,7,2023-05-02_10h16.53.174,memory_pilot_most_recent,2022.2.4,Win32,9.124337345,,left,0,2.0535,8,0.9176,0,54,54,54,1,playground_268.jpg,playground_60.jpg,0,playground,right,,
,,,ANDJL5986AUAF,35,male,7,2023-05-02_10h16.53.174,memory_pilot_most_recent,2022.2.4,Win32,9.124337345,,left,1,4.0997,8,1.4202,0,55,55,55,1,bridge_172.jpg,bridge_163.jpg,1,bridge,left,,
,,,ANDJL5986AUAF,35,male,7,2023-05-02_10h16.53.174,memory_pilot_most_recent,2022.2.4,Win32,9.124337345,,right,1,2.1893,7,1.3083,0,56,56,56,1,playground_167.jpg,playground_117.jpg,0,playground,right,,
,,,ANDJL5986AUAF,35,male,7,2023-05-02_10h16.53.174,memory_pilot_most_recent,2022.2.4,Win32,9.124337345,,right,1,1.794,7,1.1971,0,57,57,57,1,playground_215.jpg,playground_257.jpg,1,playground,right,,
,,,ANDJL5986AUAF,35,male,7,2023-05-02_10h16.53.174,memory_pilot_most_recent,2022.2.4,Win32,9.124337345,,right,1,1.9223,6,1.5545,0,58,58,58,1,highway_122.jpg,highway_209.jpg,1,highway,right,,
,,,ANDJL5986AUAF,35,male,7,2023-05-02_10h16.53.174,memory_pilot_most_recent,2022.2.4,Win32,9.124337345,,right,1,2.1601,6,1.1737,0,59,59,59,1,golf_course_157.jpg,golf_course_188.jpg,0,golf,right,,
,,,ANDJL5986AUAF,35,male,7,2023-05-02_10h16.53.174,memory_pilot_most_recent,2022.2.4,Win32,9.124337345,,,,,,,,,,,,,,,,,space,8.5978
