button.numClicks,button.timesOn,button.timesOff,workID,Age,Gender,Hours slept (last night),date,expName,psychopyVersion,OS,frameRate,space_key_responce.keys,test_test_response.keys,test_test_response.corr,test_test_response.rt,bar_2.response,bar_2.rt,trials_2.thisRepN,trials_2.thisTrialN,trials_2.thisN,trials_2.thisIndex,trials_2.ran,image1,image2,layer,category,correct,key_resp_end_2.keys,key_resp_end_2.rt
1,[6.2065000000000055],[6.2065000000000055],A2B0J7HGR6T34W,64,female,8,2023-05-02_09h08.52.210,memory_pilot_most_recent,2022.2.4,Win32,9.995701848,,,,,,,,,,,,,,,,,,
,,,A2B0J7HGR6T34W,64,female,8,2023-05-02_09h08.52.210,memory_pilot_most_recent,2022.2.4,Win32,9.995701848,,,,,,,,,,,,,,,,,,
,,,A2B0J7HGR6T34W,64,female,8,2023-05-02_09h08.52.210,memory_pilot_most_recent,2022.2.4,Win32,9.995701848,,,,,,,,,,,,,,,,,,
,,,A2B0J7HGR6T34W,64,female,8,2023-05-02_09h08.52.210,memory_pilot_most_recent,2022.2.4,Win32,9.995701848,,,,,,,,,,,,,,,,,,
,,,A2B0J7HGR6T34W,64,female,8,2023-05-02_09h08.52.210,memory_pilot_most_recent,2022.2.4,Win32,9.995701848,,,,,,,,,,,,,,,,,,
,,,A2B0J7HGR6T34W,64,female,8,2023-05-02_09h08.52.210,memory_pilot_most_recent,2022.2.4,Win32,9.995701848,,,,,,,,,,,,,,,,,,
,,,A2B0J7HGR6T34W,64,female,8,2023-05-02_09h08.52.210,memory_pilot_most_recent,2022.2.4,Win32,9.995701848,,left,1,9.7484,5,8.4536,0,0,0,0,1,mountain_156.jpg,mountain_295.jpg,1,mountain,left,,
,,,A2B0J7HGR6T34W,64,female,8,2023-05-02_09h08.52.210,memory_pilot_most_recent,2022.2.4,Win32,9.995701848,,right,1,5.8259,9,4.275,0,1,1,1,1,golf_course_26.jpg,golf_course_331.jpg,1,golf,right,,
,,,A2B0J7HGR6T34W,64,female,8,2023-05-02_09h08.52.210,memory_pilot_most_recent,2022.2.4,Win32,9.995701848,,left,1,7.4216,8,2.8202,0,2,2,2,1,golf_course_188.jpg,golf_course_160.jpg,1,golf,left,,
,,,A2B0J7HGR6T34W,64,female,8,2023-05-02_09h08.52.210,memory_pilot_most_recent,2022.2.4,Win32,9.995701848,,left,1,5.6866,9,3.5597,0,3,3,3,1,highway_156.jpg,highway_293.jpg,1,highway,left,,
,,,A2B0J7HGR6T34W,64,female,8,2023-05-02_09h08.52.210,memory_pilot_most_recent,2022.2.4,Win32,9.995701848,,left,1,8.9897,9,3.215,0,4,4,4,1,playground_240.jpg,playground_40.jpg,1,playground,left,,
,,,A2B0J7HGR6T34W,64,female,8,2023-05-02_09h08.52.210,memory_pilot_most_recent,2022.2.4,Win32,9.995701848,,right,1,8.2253,8,3.4506,0,5,5,5,1,badlands_228.jpg,badlands_184.jpg,0,badlands,right,,
,,,A2B0J7HGR6T34W,64,female,8,2023-05-02_09h08.52.210,memory_pilot_most_recent,2022.2.4,Win32,9.995701848,,left,1,3.6314,9,2.0312,0,6,6,6,1,golf_course_78.jpg,golf_course_134.jpg,0,golf,left,,
,,,A2B0J7HGR6T34W,64,female,8,2023-05-02_09h08.52.210,memory_pilot_most_recent,2022.2.4,Win32,9.995701848,,right,1,7.4665,5,4.9842,0,7,7,7,1,mountain_72.jpg,mountain_293.jpg,0,mountain,right,,
,,,A2B0J7HGR6T34W,64,female,8,2023-05-02_09h08.52.210,memory_pilot_most_recent,2022.2.4,Win32,9.995701848,,left,1,13.2917,5,1.7841,0,8,8,8,1,playground_145.jpg,playground_229.jpg,0,playground,left,,
,,,A2B0J7HGR6T34W,64,female,8,2023-05-02_09h08.52.210,memory_pilot_most_recent,2022.2.4,Win32,9.995701848,,right,1,4.8253,9,2.2153,0,9,9,9,1,highway_203.jpg,highway_294.jpg,0,highway,right,,
,,,A2B0J7HGR6T34W,64,female,8,2023-05-02_09h08.52.210,memory_pilot_most_recent,2022.2.4,Win32,9.995701848,,left,1,4.8216,8,2.3909,0,10,10,10,1,playground_60.jpg,playground_268.jpg,0,playground,left,,
,,,A2B0J7HGR6T34W,64,female,8,2023-05-02_09h08.52.210,memory_pilot_most_recent,2022.2.4,Win32,9.995701848,,left,1,9.4253,3,1.8344,0,11,11,11,1,highway_245.jpg,highway_206.jpg,1,highway,left,,
,,,A2B0J7HGR6T34W,64,female,8,2023-05-02_09h08.52.210,memory_pilot_most_recent,2022.2.4,Win32,9.995701848,,left,1,7.6654,9,2.0016,0,12,12,12,1,badlands_221.jpg,badlands_207.jpg,1,badlands,left,,
,,,A2B0J7HGR6T34W,64,female,8,2023-05-02_09h08.52.210,memory_pilot_most_recent,2022.2.4,Win32,9.995701848,,right,1,3.4243,9,1.2644,0,13,13,13,1,badlands_94.jpg,badlands_52.jpg,0,badlands,right,,
,,,A2B0J7HGR6T34W,64,female,8,2023-05-02_09h08.52.210,memory_pilot_most_recent,2022.2.4,Win32,9.995701848,,right,1,7.8338,9,1.0009,0,14,14,14,1,highway_122.jpg,highway_209.jpg,1,highway,right,,
,,,A2B0J7HGR6T34W,64,female,8,2023-05-02_09h08.52.210,memory_pilot_most_recent,2022.2.4,Win32,9.995701848,,right,1,8.4996,9,2.0461,0,15,15,15,1,golf_course_262.jpg,golf_course_217.jpg,1,golf,right,,
,,,A2B0J7HGR6T34W,64,female,8,2023-05-02_09h08.52.210,memory_pilot_most_recent,2022.2.4,Win32,9.995701848,,left,1,6.8335,9,1.6456,0,16,16,16,1,highway_359.jpg,highway_379.jpg,1,highway,left,,
,,,A2B0J7HGR6T34W,64,female,8,2023-05-02_09h08.52.210,memory_pilot_most_recent,2022.2.4,Win32,9.995701848,,left,1,3.4221,9,3.1808,0,17,17,17,1,bridge_91.jpg,bridge_82.jpg,1,bridge,left,,
,,,A2B0J7HGR6T34W,64,female,8,2023-05-02_09h08.52.210,memory_pilot_most_recent,2022.2.4,Win32,9.995701848,,left,1,7.1082,9,1.6167,0,18,18,18,1,bridge_172.jpg,bridge_163.jpg,1,bridge,left,,
,,,A2B0J7HGR6T34W,64,female,8,2023-05-02_09h08.52.210,memory_pilot_most_recent,2022.2.4,Win32,9.995701848,,left,1,8.6582,9,1.796,0,19,19,19,1,mountain_110.jpg,mountain_223.jpg,1,mountain,left,,
,,,A2B0J7HGR6T34W,64,female,8,2023-05-02_09h08.52.210,memory_pilot_most_recent,2022.2.4,Win32,9.995701848,,left,1,6.6453,9,1.449,0,20,20,20,1,golf_course_214.jpg,golf_course_317.jpg,1,golf,left,,
,,,A2B0J7HGR6T34W,64,female,8,2023-05-02_09h08.52.210,memory_pilot_most_recent,2022.2.4,Win32,9.995701848,,left,1,3.2125,9,1.0342,0,21,21,21,1,playground_144.jpg,playground_65.jpg,1,playground,left,,
,,,A2B0J7HGR6T34W,64,female,8,2023-05-02_09h08.52.210,memory_pilot_most_recent,2022.2.4,Win32,9.995701848,,right,0,7.1892,9,2.8778,0,22,22,22,1,playground_257.jpg,playground_214.jpg,0,playground,left,,
,,,A2B0J7HGR6T34W,64,female,8,2023-05-02_09h08.52.210,memory_pilot_most_recent,2022.2.4,Win32,9.995701848,,left,1,4.2251,9,2.7867,0,23,23,23,1,badlands_24.jpg,badlands_53.jpg,1,badlands,left,,
,,,A2B0J7HGR6T34W,64,female,8,2023-05-02_09h08.52.210,memory_pilot_most_recent,2022.2.4,Win32,9.995701848,,right,1,3.198,9,1.5887,0,24,24,24,1,golf_course_123.jpg,golf_course_193.jpg,1,golf,right,,
,,,A2B0J7HGR6T34W,64,female,8,2023-05-02_09h08.52.210,memory_pilot_most_recent,2022.2.4,Win32,9.995701848,,left,0,8.8163,9,1.6126,0,25,25,25,1,badlands_139.jpg,badlands_137.jpg,1,badlands,right,,
,,,A2B0J7HGR6T34W,64,female,8,2023-05-02_09h08.52.210,memory_pilot_most_recent,2022.2.4,Win32,9.995701848,,right,1,10.0599,9,1.0038,0,26,26,26,1,bridge_244.jpg,bridge_128.jpg,1,bridge,right,,
,,,A2B0J7HGR6T34W,64,female,8,2023-05-02_09h08.52.210,memory_pilot_most_recent,2022.2.4,Win32,9.995701848,,right,0,5.6281,9,1.0055,0,27,27,27,1,badlands_23.jpg,badlands_114.jpg,0,badlands,left,,
,,,A2B0J7HGR6T34W,64,female,8,2023-05-02_09h08.52.210,memory_pilot_most_recent,2022.2.4,Win32,9.995701848,,right,1,6.1911,6,2.6016,0,28,28,28,1,golf_course_25.jpg,golf_course_195.jpg,0,golf,right,,
,,,A2B0J7HGR6T34W,64,female,8,2023-05-02_09h08.52.210,memory_pilot_most_recent,2022.2.4,Win32,9.995701848,,right,1,9.5016,9,2.3938,0,29,29,29,1,playground_21.jpg,playground_219.jpg,0,playground,right,,
,,,A2B0J7HGR6T34W,64,female,8,2023-05-02_09h08.52.210,memory_pilot_most_recent,2022.2.4,Win32,9.995701848,,left,1,6.8427,7,2.0239,0,30,30,30,1,badlands_70.jpg,badlands_119.jpg,1,badlands,left,,
,,,A2B0J7HGR6T34W,64,female,8,2023-05-02_09h08.52.210,memory_pilot_most_recent,2022.2.4,Win32,9.995701848,,right,1,4.4042,9,1.7854,0,31,31,31,1,bridge_54.jpg,bridge_256.jpg,0,bridge,right,,
,,,A2B0J7HGR6T34W,64,female,8,2023-05-02_09h08.52.210,memory_pilot_most_recent,2022.2.4,Win32,9.995701848,,right,1,4.4958,6,1.3945,0,32,32,32,1,golf_course_16.jpg,golf_course_309.jpg,0,golf,right,,
,,,A2B0J7HGR6T34W,64,female,8,2023-05-02_09h08.52.210,memory_pilot_most_recent,2022.2.4,Win32,9.995701848,,left,1,10.0171,8,3.9923,0,33,33,33,1,bridge_202.jpg,bridge_31.jpg,0,bridge,left,,
,,,A2B0J7HGR6T34W,64,female,8,2023-05-02_09h08.52.210,memory_pilot_most_recent,2022.2.4,Win32,9.995701848,,left,0,7.2812,6,1.1976,0,34,34,34,1,mountain_54.jpg,mountain_232.jpg,1,mountain,right,,
,,,A2B0J7HGR6T34W,64,female,8,2023-05-02_09h08.52.210,memory_pilot_most_recent,2022.2.4,Win32,9.995701848,,left,1,4.6097,9,1.3925,0,35,35,35,1,badlands_113.jpg,badlands_203.jpg,1,badlands,left,,
,,,A2B0J7HGR6T34W,64,female,8,2023-05-02_09h08.52.210,memory_pilot_most_recent,2022.2.4,Win32,9.995701848,,right,1,3.6345,9,1.5998,0,36,36,36,1,playground_122.jpg,playground_10.jpg,0,playground,right,,
,,,A2B0J7HGR6T34W,64,female,8,2023-05-02_09h08.52.210,memory_pilot_most_recent,2022.2.4,Win32,9.995701848,,left,1,3.8212,9,4.1379,0,37,37,37,1,bridge_146.jpg,bridge_27.jpg,0,bridge,left,,
,,,A2B0J7HGR6T34W,64,female,8,2023-05-02_09h08.52.210,memory_pilot_most_recent,2022.2.4,Win32,9.995701848,,left,1,11.9767,7,1.396,0,38,38,38,1,playground_117.jpg,playground_127.jpg,1,playground,left,,
,,,A2B0J7HGR6T34W,64,female,8,2023-05-02_09h08.52.210,memory_pilot_most_recent,2022.2.4,Win32,9.995701848,,left,1,2.8641,9,3.8052,0,39,39,39,1,mountain_123.jpg,mountain_94.jpg,0,mountain,left,,
,,,A2B0J7HGR6T34W,64,female,8,2023-05-02_09h08.52.210,memory_pilot_most_recent,2022.2.4,Win32,9.995701848,,right,1,8.4121,6,1.3971,0,40,40,40,1,mountain_244.jpg,mountain_222.jpg,0,mountain,right,,
,,,A2B0J7HGR6T34W,64,female,8,2023-05-02_09h08.52.210,memory_pilot_most_recent,2022.2.4,Win32,9.995701848,,right,1,4.2394,9,2.4021,0,41,41,41,1,highway_384.jpg,highway_273.jpg,0,highway,right,,
,,,A2B0J7HGR6T34W,64,female,8,2023-05-02_09h08.52.210,memory_pilot_most_recent,2022.2.4,Win32,9.995701848,,left,1,5.6485,9,1.3934,0,42,42,42,1,mountain_57.jpg,mountain_138.jpg,1,mountain,left,,
,,,A2B0J7HGR6T34W,64,female,8,2023-05-02_09h08.52.210,memory_pilot_most_recent,2022.2.4,Win32,9.995701848,,left,1,5.9831,6,3.7821,0,43,43,43,1,bridge_250.jpg,bridge_205.jpg,1,bridge,left,,
,,,A2B0J7HGR6T34W,64,female,8,2023-05-02_09h08.52.210,memory_pilot_most_recent,2022.2.4,Win32,9.995701848,,right,1,6.8289,7,1.9831,0,44,44,44,1,bridge_181.jpg,bridge_65.jpg,0,bridge,right,,
,,,A2B0J7HGR6T34W,64,female,8,2023-05-02_09h08.52.210,memory_pilot_most_recent,2022.2.4,Win32,9.995701848,,left,1,2.426,9,3.1974,0,45,45,45,1,badlands_21.jpg,badlands_1.jpg,0,badlands,left,,
,,,A2B0J7HGR6T34W,64,female,8,2023-05-02_09h08.52.210,memory_pilot_most_recent,2022.2.4,Win32,9.995701848,,left,1,4.841,9,1.6094,0,46,46,46,1,mountain_230.jpg,mountain_184.jpg,0,mountain,left,,
,,,A2B0J7HGR6T34W,64,female,8,2023-05-02_09h08.52.210,memory_pilot_most_recent,2022.2.4,Win32,9.995701848,,left,1,7.4042,8,2.9849,0,47,47,47,1,badlands_222.jpg,badlands_34.jpg,0,badlands,left,,
,,,A2B0J7HGR6T34W,64,female,8,2023-05-02_09h08.52.210,memory_pilot_most_recent,2022.2.4,Win32,9.995701848,,left,1,4.8266,9,1.9879,0,48,48,48,1,highway_415.jpg,highway_174.jpg,1,highway,left,,
,,,A2B0J7HGR6T34W,64,female,8,2023-05-02_09h08.52.210,memory_pilot_most_recent,2022.2.4,Win32,9.995701848,,left,1,12.493,5,2.6152,0,49,49,49,1,mountain_154.jpg,mountain_95.jpg,1,mountain,left,,
,,,A2B0J7HGR6T34W,64,female,8,2023-05-02_09h08.52.210,memory_pilot_most_recent,2022.2.4,Win32,9.995701848,,left,0,10.2107,5,4.6028,0,50,50,50,1,playground_72.jpg,playground_76.jpg,1,playground,right,,
,,,A2B0J7HGR6T34W,64,female,8,2023-05-02_09h08.52.210,memory_pilot_most_recent,2022.2.4,Win32,9.995701848,,left,1,8.6301,5,1.4404,0,51,51,51,1,bridge_191.jpg,bridge_184.jpg,0,bridge,left,,
,,,A2B0J7HGR6T34W,64,female,8,2023-05-02_09h08.52.210,memory_pilot_most_recent,2022.2.4,Win32,9.995701848,,right,1,4.2765,9,1.3981,0,52,52,52,1,bridge_148.jpg,bridge_108.jpg,1,bridge,right,,
,,,A2B0J7HGR6T34W,64,female,8,2023-05-02_09h08.52.210,memory_pilot_most_recent,2022.2.4,Win32,9.995701848,,right,1,5.5985,9,1.8003,0,53,53,53,1,mountain_171.jpg,mountain_101.jpg,0,mountain,right,,
,,,A2B0J7HGR6T34W,64,female,8,2023-05-02_09h08.52.210,memory_pilot_most_recent,2022.2.4,Win32,9.995701848,,left,0,7.6307,5,1.2228,0,54,54,54,1,playground_164.jpg,playground_131.jpg,1,playground,right,,
,,,A2B0J7HGR6T34W,64,female,8,2023-05-02_09h08.52.210,memory_pilot_most_recent,2022.2.4,Win32,9.995701848,,right,1,5.3845,9,1.3888,0,55,55,55,1,highway_87.jpg,highway_177.jpg,0,highway,right,,
,,,A2B0J7HGR6T34W,64,female,8,2023-05-02_09h08.52.210,memory_pilot_most_recent,2022.2.4,Win32,9.995701848,,right,1,3.229,9,1.4204,0,56,56,56,1,golf_course_130.jpg,golf_course_87.jpg,0,golf,right,,
,,,A2B0J7HGR6T34W,64,female,8,2023-05-02_09h08.52.210,memory_pilot_most_recent,2022.2.4,Win32,9.995701848,,right,1,8.4556,6,1.4183,0,57,57,57,1,highway_85.jpg,highway_93.jpg,0,highway,right,,
,,,A2B0J7HGR6T34W,64,female,8,2023-05-02_09h08.52.210,memory_pilot_most_recent,2022.2.4,Win32,9.995701848,,left,1,4.1866,9,3.2096,0,58,58,58,1,highway_394.jpg,highway_204.jpg,0,highway,left,,
,,,A2B0J7HGR6T34W,64,female,8,2023-05-02_09h08.52.210,memory_pilot_most_recent,2022.2.4,Win32,9.995701848,,left,1,8.2515,6,3.2124,0,59,59,59,1,golf_course_15.jpg,golf_course_113.jpg,0,golf,left,,
,,,A2B0J7HGR6T34W,64,female,8,2023-05-02_09h08.52.210,memory_pilot_most_recent,2022.2.4,Win32,9.995701848,,,,,,,,,,,,,,,,,space,14.6741
